"success","timeout","failed_images","failed_audio","failed_video","trial_type","trial_index","time_elapsed","internal_node_id","subject_id","study_id","session_id","task","rt","stimulus","response","item","answer","correct","spm_correct","spm_rt","view_history","fiar_detect_rt","fiar_detect_correct","total_correct_fiar_detect","post_trial_gap","choices","mouse_click","stim_duration","block_duration","timing_post_trial","current_position","tol_num_moves_made","tol_target","tol_problem_id","tol_rt","key_press","possible_responses","tol_correct","preplanning","tol_rt_per_trial","tol_min_moves"
"true","false","[]","[]","[]","preload","0","911","0.0-0.0","5c2cb3b41f8ea700015c44f0","C3","batch3","","","","","","","","","","","","","","","","","","","","","","","","","","","","","",""
"true","","","","","fullscreen","1","3869","0.0-1.0-0.0","5c2cb3b41f8ea700015c44f0","C3","batch3","","","","","","","","","","","","","","","","","","","","","","","","","","","","","",""
"true","","","","","fullscreen","2","6684","0.0-2.0-0.0","5c2cb3b41f8ea700015c44f0","C3","batch3","spm_fullscreen","","","","","","","","","","","","","","","","","","","","","","","","","","","","",""
"","","","","","html-button-response","3","10721","0.0-2.0-1.0","5c2cb3b41f8ea700015c44f0","C3","batch3","","4035","<p class = block-text><b>Instructions</b> <br>This is a widely used intelligence test in research. <br>In this test, a figure with a missing piece will be presented.<br>Below the figure are alternative pieces to complete the figure, only one of which is correct.<br> Different figures might involve different principles for obtaining the missing piece<br>Your job is to select the most logical piece to complete the figure.</p>","0","","","","","","","","","","","","","","","","","","","","","","","","","",""
"","","","","","html-keyboard-response","4","11524","0.0-2.0-2.0-0.0","5c2cb3b41f8ea700015c44f0","C3","batch3","spm_show_trial_num","null","<p class=block-text>Trial 1 out of 60</p>","null","","","","","","","","","","","","","","","","","","","","","","","","","",""
"","","","","","image-button-response","5","15880","0.0-2.0-2.0-1.0","5c2cb3b41f8ea700015c44f0","C3","batch3","spm_respsonse","4352","img/question_1_1.jpeg","1","mat_01","4","0","0","4352","","","","","","","","","","","","","","","","","","","","",""
"","","","","","html-keyboard-response","6","16935","0.0-2.0-2.0-0.1","5c2cb3b41f8ea700015c44f0","C3","batch3","spm_show_trial_num","null","<p class=block-text>Trial 2 out of 60</p>","null","","","","","","","","","","","","","","","","","","","","","","","","","",""
"","","","","","image-button-response","7","19808","0.0-2.0-2.0-1.1","5c2cb3b41f8ea700015c44f0","C3","batch3","spm_respsonse","2871","img/question_1_2.jpeg","4","mat_02","5","1","1","2871","","","","","","","","","","","","","","","","","","","","",""
"","","","","","html-keyboard-response","8","20867","0.0-2.0-2.0-0.2","5c2cb3b41f8ea700015c44f0","C3","batch3","spm_show_trial_num","null","<p class=block-text>Trial 3 out of 60</p>","null","","","","","","","","","","","","","","","","","","","","","","","","","",""
"","","","","","image-button-response","9","23564","0.0-2.0-2.0-1.2","5c2cb3b41f8ea700015c44f0","C3","batch3","spm_respsonse","2696","img/question_1_3.jpeg","0","mat_03","1","1","1","2696","","","","","","","","","","","","","","","","","","","","",""
"","","","","","html-keyboard-response","10","24624","0.0-2.0-2.0-0.3","5c2cb3b41f8ea700015c44f0","C3","batch3","spm_show_trial_num","null","<p class=block-text>Trial 4 out of 60</p>","null","","","","","","","","","","","","","","","","","","","","","","","","","",""
"","","","","","image-button-response","11","31025","0.0-2.0-2.0-1.3","5c2cb3b41f8ea700015c44f0","C3","batch3","spm_respsonse","6400","img/question_1_4.jpeg","1","mat_04","2","1","1","6400","","","","","","","","","","","","","","","","","","","","",""
"","","","","","html-keyboard-response","12","32089","0.0-2.0-2.0-0.4","5c2cb3b41f8ea700015c44f0","C3","batch3","spm_show_trial_num","null","<p class=block-text>Trial 5 out of 60</p>","null","","","","","","","","","","","","","","","","","","","","","","","","","",""
"","","","","","image-button-response","13","35693","0.0-2.0-2.0-1.4","5c2cb3b41f8ea700015c44f0","C3","batch3","spm_respsonse","3601","img/question_1_5.jpeg","5","mat_05","6","1","1","3601","","","","","","","","","","","","","","","","","","","","",""
"","","","","","html-keyboard-response","14","36767","0.0-2.0-2.0-0.5","5c2cb3b41f8ea700015c44f0","C3","batch3","spm_show_trial_num","null","<p class=block-text>Trial 6 out of 60</p>","null","","","","","","","","","","","","","","","","","","","","","","","","","",""
"","","","","","image-button-response","15","40964","0.0-2.0-2.0-1.5","5c2cb3b41f8ea700015c44f0","C3","batch3","spm_respsonse","4197","img/question_1_6.jpeg","2","mat_06","3","1","1","4197","","","","","","","","","","","","","","","","","","","","",""
"","","","","","html-keyboard-response","16","42025","0.0-2.0-2.0-0.6","5c2cb3b41f8ea700015c44f0","C3","batch3","spm_show_trial_num","null","<p class=block-text>Trial 7 out of 60</p>","null","","","","","","","","","","","","","","","","","","","","","","","","","",""
"","","","","","image-button-response","17","46636","0.0-2.0-2.0-1.6","5c2cb3b41f8ea700015c44f0","C3","batch3","spm_respsonse","4610","img/question_1_7.jpeg","5","mat_07","6","1","1","4610","","","","","","","","","","","","","","","","","","","","",""
"","","","","","html-keyboard-response","18","47695","0.0-2.0-2.0-0.7","5c2cb3b41f8ea700015c44f0","C3","batch3","spm_show_trial_num","null","<p class=block-text>Trial 8 out of 60</p>","null","","","","","","","","","","","","","","","","","","","","","","","","","",""
"","","","","","image-button-response","19","53068","0.0-2.0-2.0-1.7","5c2cb3b41f8ea700015c44f0","C3","batch3","spm_respsonse","5371","img/question_1_8.jpeg","1","mat_08","2","1","1","5371","","","","","","","","","","","","","","","","","","","","",""
"","","","","","html-keyboard-response","20","54122","0.0-2.0-2.0-0.8","5c2cb3b41f8ea700015c44f0","C3","batch3","spm_show_trial_num","null","<p class=block-text>Trial 9 out of 60</p>","null","","","","","","","","","","","","","","","","","","","","","","","","","",""
"","","","","","image-button-response","21","58789","0.0-2.0-2.0-1.8","5c2cb3b41f8ea700015c44f0","C3","batch3","spm_respsonse","4665","img/question_1_9.jpeg","0","mat_09","1","1","1","4665","","","","","","","","","","","","","","","","","","","","",""
"","","","","","html-keyboard-response","22","59845","0.0-2.0-2.0-0.9","5c2cb3b41f8ea700015c44f0","C3","batch3","spm_show_trial_num","null","<p class=block-text>Trial 10 out of 60</p>","null","","","","","","","","","","","","","","","","","","","","","","","","","",""
"","","","","","image-button-response","23","63757","0.0-2.0-2.0-1.9","5c2cb3b41f8ea700015c44f0","C3","batch3","spm_respsonse","3909","img/question_1_10.jpeg","2","mat_10","3","1","1","3909","","","","","","","","","","","","","","","","","","","","",""
"","","","","","html-keyboard-response","24","64817","0.0-2.0-2.0-0.10","5c2cb3b41f8ea700015c44f0","C3","batch3","spm_show_trial_num","null","<p class=block-text>Trial 11 out of 60</p>","null","","","","","","","","","","","","","","","","","","","","","","","","","",""
"","","","","","image-button-response","25","76757","0.0-2.0-2.0-1.10","5c2cb3b41f8ea700015c44f0","C3","batch3","spm_respsonse","11939","img/question_1_11.jpeg","4","mat_11","4","0","0","11939","","","","","","","","","","","","","","","","","","","","",""
"","","","","","html-keyboard-response","26","77808","0.0-2.0-2.0-0.11","5c2cb3b41f8ea700015c44f0","C3","batch3","spm_show_trial_num","null","<p class=block-text>Trial 12 out of 60</p>","null","","","","","","","","","","","","","","","","","","","","","","","","","",""
"","","","","","image-button-response","27","88421","0.0-2.0-2.0-1.11","5c2cb3b41f8ea700015c44f0","C3","batch3","spm_respsonse","10610","img/question_1_12.jpeg","5","mat_12","5","0","0","10610","","","","","","","","","","","","","","","","","","","","",""
"","","","","","html-keyboard-response","28","89479","0.0-2.0-2.0-0.12","5c2cb3b41f8ea700015c44f0","C3","batch3","spm_show_trial_num","null","<p class=block-text>Trial 13 out of 60</p>","null","","","","","","","","","","","","","","","","","","","","","","","","","",""
"","","","","","image-button-response","29","92402","0.0-2.0-2.0-1.12","5c2cb3b41f8ea700015c44f0","C3","batch3","spm_respsonse","2920","img/question_2_1.jpeg","1","mat_13","2","1","1","2920","","","","","","","","","","","","","","","","","","","","",""
"","","","","","html-keyboard-response","30","93468","0.0-2.0-2.0-0.13","5c2cb3b41f8ea700015c44f0","C3","batch3","spm_show_trial_num","null","<p class=block-text>Trial 14 out of 60</p>","null","","","","","","","","","","","","","","","","","","","","","","","","","",""
"","","","","","image-button-response","31","95881","0.0-2.0-2.0-1.13","5c2cb3b41f8ea700015c44f0","C3","batch3","spm_respsonse","2410","img/question_2_2.jpeg","5","mat_14","6","1","1","2410","","","","","","","","","","","","","","","","","","","","",""
"","","","","","html-keyboard-response","32","96951","0.0-2.0-2.0-0.14","5c2cb3b41f8ea700015c44f0","C3","batch3","spm_show_trial_num","null","<p class=block-text>Trial 15 out of 60</p>","null","","","","","","","","","","","","","","","","","","","","","","","","","",""
"","","","","","image-button-response","33","100300","0.0-2.0-2.0-1.14","5c2cb3b41f8ea700015c44f0","C3","batch3","spm_respsonse","3348","img/question_2_3.jpeg","0","mat_15","1","1","1","3348","","","","","","","","","","","","","","","","","","","","",""
"","","","","","html-keyboard-response","34","101366","0.0-2.0-2.0-0.15","5c2cb3b41f8ea700015c44f0","C3","batch3","spm_show_trial_num","null","<p class=block-text>Trial 16 out of 60</p>","null","","","","","","","","","","","","","","","","","","","","","","","","","",""
"","","","","","image-button-response","35","103849","0.0-2.0-2.0-1.15","5c2cb3b41f8ea700015c44f0","C3","batch3","spm_respsonse","2480","img/question_2_4.jpeg","2","mat_16","2","0","0","2480","","","","","","","","","","","","","","","","","","","","",""
"","","","","","html-keyboard-response","36","104912","0.0-2.0-2.0-0.16","5c2cb3b41f8ea700015c44f0","C3","batch3","spm_show_trial_num","null","<p class=block-text>Trial 17 out of 60</p>","null","","","","","","","","","","","","","","","","","","","","","","","","","",""
"","","","","","image-button-response","37","109993","0.0-2.0-2.0-1.16","5c2cb3b41f8ea700015c44f0","C3","batch3","spm_respsonse","5078","img/question_2_5.jpeg","0","mat_17","1","1","1","5078","","","","","","","","","","","","","","","","","","","","",""
"","","","","","html-keyboard-response","38","111052","0.0-2.0-2.0-0.17","5c2cb3b41f8ea700015c44f0","C3","batch3","spm_show_trial_num","null","<p class=block-text>Trial 18 out of 60</p>","null","","","","","","","","","","","","","","","","","","","","","","","","","",""
"","","","","","image-button-response","39","116653","0.0-2.0-2.0-1.17","5c2cb3b41f8ea700015c44f0","C3","batch3","spm_respsonse","5599","img/question_2_6.jpeg","2","mat_18","3","1","1","5599","","","","","","","","","","","","","","","","","","","","",""
"","","","","","html-keyboard-response","40","117716","0.0-2.0-2.0-0.18","5c2cb3b41f8ea700015c44f0","C3","batch3","spm_show_trial_num","null","<p class=block-text>Trial 19 out of 60</p>","null","","","","","","","","","","","","","","","","","","","","","","","","","",""
"","","","","","image-button-response","41","126804","0.0-2.0-2.0-1.18","5c2cb3b41f8ea700015c44f0","C3","batch3","spm_respsonse","9088","img/question_2_7.jpeg","4","mat_19","5","1","1","9088","","","","","","","","","","","","","","","","","","","","",""
"","","","","","html-keyboard-response","42","127856","0.0-2.0-2.0-0.19","5c2cb3b41f8ea700015c44f0","C3","batch3","spm_show_trial_num","null","<p class=block-text>Trial 20 out of 60</p>","null","","","","","","","","","","","","","","","","","","","","","","","","","",""
"","","","","","image-button-response","43","132213","0.0-2.0-2.0-1.19","5c2cb3b41f8ea700015c44f0","C3","batch3","spm_respsonse","4355","img/question_2_8.jpeg","2","mat_20","6","0","0","4355","","","","","","","","","","","","","","","","","","","","",""
"","","","","","html-keyboard-response","44","133265","0.0-2.0-2.0-0.20","5c2cb3b41f8ea700015c44f0","C3","batch3","spm_show_trial_num","null","<p class=block-text>Trial 21 out of 60</p>","null","","","","","","","","","","","","","","","","","","","","","","","","","",""
"","","","","","image-button-response","45","137789","0.0-2.0-2.0-1.20","5c2cb3b41f8ea700015c44f0","C3","batch3","spm_respsonse","4522","img/question_2_9.jpeg","3","mat_21","4","1","1","4522","","","","","","","","","","","","","","","","","","","","",""
"","","","","","html-keyboard-response","46","138850","0.0-2.0-2.0-0.21","5c2cb3b41f8ea700015c44f0","C3","batch3","spm_show_trial_num","null","<p class=block-text>Trial 22 out of 60</p>","null","","","","","","","","","","","","","","","","","","","","","","","","","",""
"","","","","","image-button-response","47","144292","0.0-2.0-2.0-1.21","5c2cb3b41f8ea700015c44f0","C3","batch3","spm_respsonse","5440","img/question_2_10.jpeg","2","mat_22","3","1","1","5440","","","","","","","","","","","","","","","","","","","","",""
"","","","","","html-keyboard-response","48","145353","0.0-2.0-2.0-0.22","5c2cb3b41f8ea700015c44f0","C3","batch3","spm_show_trial_num","null","<p class=block-text>Trial 23 out of 60</p>","null","","","","","","","","","","","","","","","","","","","","","","","","","",""
"","","","","","image-button-response","49","149028","0.0-2.0-2.0-1.22","5c2cb3b41f8ea700015c44f0","C3","batch3","spm_respsonse","3674","img/question_2_11.jpeg","3","mat_23","4","1","1","3674","","","","","","","","","","","","","","","","","","","","",""
"","","","","","html-keyboard-response","50","150083","0.0-2.0-2.0-0.23","5c2cb3b41f8ea700015c44f0","C3","batch3","spm_show_trial_num","null","<p class=block-text>Trial 24 out of 60</p>","null","","","","","","","","","","","","","","","","","","","","","","","","","",""
"","","","","","image-button-response","51","157061","0.0-2.0-2.0-1.23","5c2cb3b41f8ea700015c44f0","C3","batch3","spm_respsonse","6974","img/question_2_12.jpeg","1","mat_24","5","0","0","6974","","","","","","","","","","","","","","","","","","","","",""
"","","","","","html-button-response","52","160385","0.0-2.0-3.0","5c2cb3b41f8ea700015c44f0","C3","batch3","attention_check","3061","<p class = block-text>Attention check: Please choose 1<br></p>","0","","","true","","","","","","","","","","","","","","","","","","","","","","",""
"","","","","","html-keyboard-response","53","161186","0.0-2.0-4.0-0.0","5c2cb3b41f8ea700015c44f0","C3","batch3","spm_show_trial_num","null","<p class=block-text>Trial 25 out of 60</p>","null","","","","","","","","","","","","","","","","","","","","","","","","","",""
"","","","","","image-button-response","54","171049","0.0-2.0-4.0-1.0","5c2cb3b41f8ea700015c44f0","C3","batch3","spm_respsonse","9862","img/question_3_1.jpeg","7","mat_25","8","1","1","9862","","","","","","","","","","","","","","","","","","","","",""
"","","","","","html-keyboard-response","55","172106","0.0-2.0-4.0-0.1","5c2cb3b41f8ea700015c44f0","C3","batch3","spm_show_trial_num","null","<p class=block-text>Trial 26 out of 60</p>","null","","","","","","","","","","","","","","","","","","","","","","","","","",""
"","","","","","image-button-response","56","176536","0.0-2.0-4.0-1.1","5c2cb3b41f8ea700015c44f0","C3","batch3","spm_respsonse","4428","img/question_3_2.jpeg","1","mat_26","2","1","1","4428","","","","","","","","","","","","","","","","","","","","",""
"","","","","","html-keyboard-response","57","177606","0.0-2.0-4.0-0.2","5c2cb3b41f8ea700015c44f0","C3","batch3","spm_show_trial_num","null","<p class=block-text>Trial 27 out of 60</p>","null","","","","","","","","","","","","","","","","","","","","","","","","","",""
"","","","","","image-button-response","58","184764","0.0-2.0-4.0-1.2","5c2cb3b41f8ea700015c44f0","C3","batch3","spm_respsonse","7157","img/question_3_3.jpeg","2","mat_27","3","1","1","7157","","","","","","","","","","","","","","","","","","","","",""
"","","","","","html-keyboard-response","59","185817","0.0-2.0-4.0-0.3","5c2cb3b41f8ea700015c44f0","C3","batch3","spm_show_trial_num","null","<p class=block-text>Trial 28 out of 60</p>","null","","","","","","","","","","","","","","","","","","","","","","","","","",""
"","","","","","image-button-response","60","192840","0.0-2.0-4.0-1.3","5c2cb3b41f8ea700015c44f0","C3","batch3","spm_respsonse","7020","img/question_3_4.jpeg","7","mat_28","8","1","1","7020","","","","","","","","","","","","","","","","","","","","",""
"","","","","","html-keyboard-response","61","193898","0.0-2.0-4.0-0.4","5c2cb3b41f8ea700015c44f0","C3","batch3","spm_show_trial_num","null","<p class=block-text>Trial 29 out of 60</p>","null","","","","","","","","","","","","","","","","","","","","","","","","","",""
"","","","","","image-button-response","62","198993","0.0-2.0-4.0-1.4","5c2cb3b41f8ea700015c44f0","C3","batch3","spm_respsonse","5093","img/question_3_5.jpeg","6","mat_29","7","1","1","5093","","","","","","","","","","","","","","","","","","","","",""
"","","","","","html-keyboard-response","63","200061","0.0-2.0-4.0-0.5","5c2cb3b41f8ea700015c44f0","C3","batch3","spm_show_trial_num","null","<p class=block-text>Trial 30 out of 60</p>","null","","","","","","","","","","","","","","","","","","","","","","","","","",""
"","","","","","image-button-response","64","208253","0.0-2.0-4.0-1.5","5c2cb3b41f8ea700015c44f0","C3","batch3","spm_respsonse","8190","img/question_3_6.jpeg","3","mat_30","4","1","1","8190","","","","","","","","","","","","","","","","","","","","",""
"","","","","","html-keyboard-response","65","209306","0.0-2.0-4.0-0.6","5c2cb3b41f8ea700015c44f0","C3","batch3","spm_show_trial_num","null","<p class=block-text>Trial 31 out of 60</p>","null","","","","","","","","","","","","","","","","","","","","","","","","","",""
"","","","","","image-button-response","66","215689","0.0-2.0-4.0-1.6","5c2cb3b41f8ea700015c44f0","C3","batch3","spm_respsonse","6381","img/question_3_7.jpeg","4","mat_31","5","1","1","6381","","","","","","","","","","","","","","","","","","","","",""
"","","","","","html-keyboard-response","67","216741","0.0-2.0-4.0-0.7","5c2cb3b41f8ea700015c44f0","C3","batch3","spm_show_trial_num","null","<p class=block-text>Trial 32 out of 60</p>","null","","","","","","","","","","","","","","","","","","","","","","","","","",""
"","","","","","image-button-response","68","237700","0.0-2.0-4.0-1.7","5c2cb3b41f8ea700015c44f0","C3","batch3","spm_respsonse","20957","img/question_3_8.jpeg","3","mat_32","1","0","0","20957","","","","","","","","","","","","","","","","","","","","",""
"","","","","","html-keyboard-response","69","238753","0.0-2.0-4.0-0.8","5c2cb3b41f8ea700015c44f0","C3","batch3","spm_show_trial_num","null","<p class=block-text>Trial 33 out of 60</p>","null","","","","","","","","","","","","","","","","","","","","","","","","","",""
"","","","","","image-button-response","70","249981","0.0-2.0-4.0-1.8","5c2cb3b41f8ea700015c44f0","C3","batch3","spm_respsonse","11224","img/question_3_9.jpeg","6","mat_33","7","1","1","11224","","","","","","","","","","","","","","","","","","","","",""
"","","","","","html-keyboard-response","71","251041","0.0-2.0-4.0-0.9","5c2cb3b41f8ea700015c44f0","C3","batch3","spm_show_trial_num","null","<p class=block-text>Trial 34 out of 60</p>","null","","","","","","","","","","","","","","","","","","","","","","","","","",""
"","","","","","image-button-response","72","254997","0.0-2.0-4.0-1.9","5c2cb3b41f8ea700015c44f0","C3","batch3","spm_respsonse","3953","img/question_3_10.jpeg","5","mat_34","6","1","1","3953","","","","","","","","","","","","","","","","","","","","",""
"","","","","","html-keyboard-response","73","256062","0.0-2.0-4.0-0.10","5c2cb3b41f8ea700015c44f0","C3","batch3","spm_show_trial_num","null","<p class=block-text>Trial 35 out of 60</p>","null","","","","","","","","","","","","","","","","","","","","","","","","","",""
"","","","","","image-button-response","74","271581","0.0-2.0-4.0-1.10","5c2cb3b41f8ea700015c44f0","C3","batch3","spm_respsonse","15518","img/question_3_11.jpeg","2","mat_35","1","0","0","15518","","","","","","","","","","","","","","","","","","","","",""
"","","","","","html-keyboard-response","75","272633","0.0-2.0-4.0-0.11","5c2cb3b41f8ea700015c44f0","C3","batch3","spm_show_trial_num","null","<p class=block-text>Trial 36 out of 60</p>","null","","","","","","","","","","","","","","","","","","","","","","","","","",""
"","","","","","image-button-response","76","276497","0.0-2.0-4.0-1.11","5c2cb3b41f8ea700015c44f0","C3","batch3","spm_respsonse","3863","img/question_3_12.jpeg","4","mat_36","2","0","0","3863","","","","","","","","","","","","","","","","","","","","",""
"","","","","","html-keyboard-response","77","277568","0.0-2.0-4.0-0.12","5c2cb3b41f8ea700015c44f0","C3","batch3","spm_show_trial_num","null","<p class=block-text>Trial 37 out of 60</p>","null","","","","","","","","","","","","","","","","","","","","","","","","","",""
"","","","","","image-button-response","78","281105","0.0-2.0-4.0-1.12","5c2cb3b41f8ea700015c44f0","C3","batch3","spm_respsonse","3535","img/question_4_1.jpeg","2","mat_37","3","1","1","3535","","","","","","","","","","","","","","","","","","","","",""
"","","","","","html-keyboard-response","79","282157","0.0-2.0-4.0-0.13","5c2cb3b41f8ea700015c44f0","C3","batch3","spm_show_trial_num","null","<p class=block-text>Trial 38 out of 60</p>","null","","","","","","","","","","","","","","","","","","","","","","","","","",""
"","","","","","image-button-response","80","290289","0.0-2.0-4.0-1.13","5c2cb3b41f8ea700015c44f0","C3","batch3","spm_respsonse","8130","img/question_4_2.jpeg","3","mat_38","4","1","1","8130","","","","","","","","","","","","","","","","","","","","",""
"","","","","","html-keyboard-response","81","291347","0.0-2.0-4.0-0.14","5c2cb3b41f8ea700015c44f0","C3","batch3","spm_show_trial_num","null","<p class=block-text>Trial 39 out of 60</p>","null","","","","","","","","","","","","","","","","","","","","","","","","","",""
"","","","","","image-button-response","82","295425","0.0-2.0-4.0-1.14","5c2cb3b41f8ea700015c44f0","C3","batch3","spm_respsonse","4077","img/question_4_3.jpeg","0","mat_39","3","0","0","4077","","","","","","","","","","","","","","","","","","","","",""
"","","","","","html-keyboard-response","83","296477","0.0-2.0-4.0-0.15","5c2cb3b41f8ea700015c44f0","C3","batch3","spm_show_trial_num","null","<p class=block-text>Trial 40 out of 60</p>","null","","","","","","","","","","","","","","","","","","","","","","","","","",""
"","","","","","image-button-response","84","302321","0.0-2.0-4.0-1.15","5c2cb3b41f8ea700015c44f0","C3","batch3","spm_respsonse","5843","img/question_4_4.jpeg","6","mat_40","7","1","1","5843","","","","","","","","","","","","","","","","","","","","",""
"","","","","","html-keyboard-response","85","303382","0.0-2.0-4.0-0.16","5c2cb3b41f8ea700015c44f0","C3","batch3","spm_show_trial_num","null","<p class=block-text>Trial 41 out of 60</p>","null","","","","","","","","","","","","","","","","","","","","","","","","","",""
"","","","","","image-button-response","86","310893","0.0-2.0-4.0-1.16","5c2cb3b41f8ea700015c44f0","C3","batch3","spm_respsonse","7510","img/question_4_5.jpeg","7","mat_41","8","1","1","7510","","","","","","","","","","","","","","","","","","","","",""
"","","","","","html-keyboard-response","87","311950","0.0-2.0-4.0-0.17","5c2cb3b41f8ea700015c44f0","C3","batch3","spm_show_trial_num","null","<p class=block-text>Trial 42 out of 60</p>","null","","","","","","","","","","","","","","","","","","","","","","","","","",""
"","","","","","image-button-response","88","318165","0.0-2.0-4.0-1.17","5c2cb3b41f8ea700015c44f0","C3","batch3","spm_respsonse","6212","img/question_4_6.jpeg","5","mat_42","6","1","1","6212","","","","","","","","","","","","","","","","","","","","",""
"","","","","","html-keyboard-response","89","319236","0.0-2.0-4.0-0.18","5c2cb3b41f8ea700015c44f0","C3","batch3","spm_show_trial_num","null","<p class=block-text>Trial 43 out of 60</p>","null","","","","","","","","","","","","","","","","","","","","","","","","","",""
"","","","","","image-button-response","90","340440","0.0-2.0-4.0-1.18","5c2cb3b41f8ea700015c44f0","C3","batch3","spm_respsonse","21202","img/question_4_7.jpeg","4","mat_43","5","1","1","21202","","","","","","","","","","","","","","","","","","","","",""
"","","","","","html-keyboard-response","91","341494","0.0-2.0-4.0-0.19","5c2cb3b41f8ea700015c44f0","C3","batch3","spm_show_trial_num","null","<p class=block-text>Trial 44 out of 60</p>","null","","","","","","","","","","","","","","","","","","","","","","","","","",""
"","","","","","image-button-response","92","352713","0.0-2.0-4.0-1.19","5c2cb3b41f8ea700015c44f0","C3","batch3","spm_respsonse","11217","img/question_4_8.jpeg","3","mat_44","4","1","1","11217","","","","","","","","","","","","","","","","","","","","",""
"","","","","","html-keyboard-response","93","353770","0.0-2.0-4.0-0.20","5c2cb3b41f8ea700015c44f0","C3","batch3","spm_show_trial_num","null","<p class=block-text>Trial 45 out of 60</p>","null","","","","","","","","","","","","","","","","","","","","","","","","","",""
"","","","","","image-button-response","94","366441","0.0-2.0-4.0-1.20","5c2cb3b41f8ea700015c44f0","C3","batch3","spm_respsonse","12667","img/question_4_9.jpeg","0","mat_45","1","1","1","12667","","","","","","","","","","","","","","","","","","","","",""
"","","","","","html-keyboard-response","95","367498","0.0-2.0-4.0-0.21","5c2cb3b41f8ea700015c44f0","C3","batch3","spm_show_trial_num","null","<p class=block-text>Trial 46 out of 60</p>","null","","","","","","","","","","","","","","","","","","","","","","","","","",""
"","","","","","image-button-response","96","378116","0.0-2.0-4.0-1.21","5c2cb3b41f8ea700015c44f0","C3","batch3","spm_respsonse","10616","img/question_4_10.jpeg","1","mat_46","2","1","1","10616","","","","","","","","","","","","","","","","","","","","",""
"","","","","","html-keyboard-response","97","379175","0.0-2.0-4.0-0.22","5c2cb3b41f8ea700015c44f0","C3","batch3","spm_show_trial_num","null","<p class=block-text>Trial 47 out of 60</p>","null","","","","","","","","","","","","","","","","","","","","","","","","","",""
"","","","","","image-button-response","98","390472","0.0-2.0-4.0-1.22","5c2cb3b41f8ea700015c44f0","C3","batch3","spm_respsonse","11295","img/question_4_11.jpeg","1","mat_47","5","0","0","11295","","","","","","","","","","","","","","","","","","","","",""
"","","","","","html-keyboard-response","99","391533","0.0-2.0-4.0-0.23","5c2cb3b41f8ea700015c44f0","C3","batch3","spm_show_trial_num","null","<p class=block-text>Trial 48 out of 60</p>","null","","","","","","","","","","","","","","","","","","","","","","","","","",""
"","","","","","image-button-response","100","411041","0.0-2.0-4.0-1.23","5c2cb3b41f8ea700015c44f0","C3","batch3","spm_respsonse","19505","img/question_4_12.jpeg","3","mat_48","6","0","0","19505","","","","","","","","","","","","","","","","","","","","",""
"","","","","","html-keyboard-response","101","412093","0.0-2.0-4.0-0.24","5c2cb3b41f8ea700015c44f0","C3","batch3","spm_show_trial_num","null","<p class=block-text>Trial 49 out of 60</p>","null","","","","","","","","","","","","","","","","","","","","","","","","","",""
"","","","","","image-button-response","102","415708","0.0-2.0-4.0-1.24","5c2cb3b41f8ea700015c44f0","C3","batch3","spm_respsonse","3614","img/question_5_1.jpeg","0","mat_49","7","0","0","3614","","","","","","","","","","","","","","","","","","","","",""
"","","","","","html-keyboard-response","103","416762","0.0-2.0-4.0-0.25","5c2cb3b41f8ea700015c44f0","C3","batch3","spm_show_trial_num","null","<p class=block-text>Trial 50 out of 60</p>","null","","","","","","","","","","","","","","","","","","","","","","","","","",""
"","","","","","image-button-response","104","427557","0.0-2.0-4.0-1.25","5c2cb3b41f8ea700015c44f0","C3","batch3","spm_respsonse","10793","img/question_5_2.jpeg","5","mat_50","6","1","1","10793","","","","","","","","","","","","","","","","","","","","",""
"","","","","","html-keyboard-response","105","428625","0.0-2.0-4.0-0.26","5c2cb3b41f8ea700015c44f0","C3","batch3","spm_show_trial_num","null","<p class=block-text>Trial 51 out of 60</p>","null","","","","","","","","","","","","","","","","","","","","","","","","","",""
"","","","","","image-button-response","106","435629","0.0-2.0-4.0-1.26","5c2cb3b41f8ea700015c44f0","C3","batch3","spm_respsonse","7002","img/question_5_3.jpeg","7","mat_51","8","1","1","7002","","","","","","","","","","","","","","","","","","","","",""
"","","","","","html-keyboard-response","107","436694","0.0-2.0-4.0-0.27","5c2cb3b41f8ea700015c44f0","C3","batch3","spm_show_trial_num","null","<p class=block-text>Trial 52 out of 60</p>","null","","","","","","","","","","","","","","","","","","","","","","","","","",""
"","","","","","image-button-response","108","445893","0.0-2.0-4.0-1.27","5c2cb3b41f8ea700015c44f0","C3","batch3","spm_respsonse","9197","img/question_5_4.jpeg","5","mat_52","2","0","0","9197","","","","","","","","","","","","","","","","","","","","",""
"","","","","","html-keyboard-response","109","446949","0.0-2.0-4.0-0.28","5c2cb3b41f8ea700015c44f0","C3","batch3","spm_show_trial_num","null","<p class=block-text>Trial 53 out of 60</p>","null","","","","","","","","","","","","","","","","","","","","","","","","","",""
"","","","","","image-button-response","110","455185","0.0-2.0-4.0-1.28","5c2cb3b41f8ea700015c44f0","C3","batch3","spm_respsonse","8235","img/question_5_5.jpeg","2","mat_53","1","0","0","8235","","","","","","","","","","","","","","","","","","","","",""
"","","","","","html-keyboard-response","111","456251","0.0-2.0-4.0-0.29","5c2cb3b41f8ea700015c44f0","C3","batch3","spm_show_trial_num","null","<p class=block-text>Trial 54 out of 60</p>","null","","","","","","","","","","","","","","","","","","","","","","","","","",""
"","","","","","image-button-response","112","469013","0.0-2.0-4.0-1.29","5c2cb3b41f8ea700015c44f0","C3","batch3","spm_respsonse","12761","img/question_5_6.jpeg","3","mat_54","5","0","0","12761","","","","","","","","","","","","","","","","","","","","",""
"","","","","","html-keyboard-response","113","470070","0.0-2.0-4.0-0.30","5c2cb3b41f8ea700015c44f0","C3","batch3","spm_show_trial_num","null","<p class=block-text>Trial 55 out of 60</p>","null","","","","","","","","","","","","","","","","","","","","","","","","","",""
"","","","","","image-button-response","114","478901","0.0-2.0-4.0-1.30","5c2cb3b41f8ea700015c44f0","C3","batch3","spm_respsonse","8829","img/question_5_7.jpeg","0","mat_55","1","1","1","8829","","","","","","","","","","","","","","","","","","","","",""
"","","","","","html-keyboard-response","115","479953","0.0-2.0-4.0-0.31","5c2cb3b41f8ea700015c44f0","C3","batch3","spm_show_trial_num","null","<p class=block-text>Trial 56 out of 60</p>","null","","","","","","","","","","","","","","","","","","","","","","","","","",""
"","","","","","image-button-response","116","485192","0.0-2.0-4.0-1.31","5c2cb3b41f8ea700015c44f0","C3","batch3","spm_respsonse","5237","img/question_5_8.jpeg","6","mat_56","6","0","0","5237","","","","","","","","","","","","","","","","","","","","",""
"","","","","","html-keyboard-response","117","486262","0.0-2.0-4.0-0.32","5c2cb3b41f8ea700015c44f0","C3","batch3","spm_show_trial_num","null","<p class=block-text>Trial 57 out of 60</p>","null","","","","","","","","","","","","","","","","","","","","","","","","","",""
"","","","","","image-button-response","118","491313","0.0-2.0-4.0-1.32","5c2cb3b41f8ea700015c44f0","C3","batch3","spm_respsonse","5049","img/question_5_9.jpeg","4","mat_57","3","0","0","5049","","","","","","","","","","","","","","","","","","","","",""
"","","","","","html-keyboard-response","119","492387","0.0-2.0-4.0-0.33","5c2cb3b41f8ea700015c44f0","C3","batch3","spm_show_trial_num","null","<p class=block-text>Trial 58 out of 60</p>","null","","","","","","","","","","","","","","","","","","","","","","","","","",""
"","","","","","image-button-response","120","495597","0.0-2.0-4.0-1.33","5c2cb3b41f8ea700015c44f0","C3","batch3","spm_respsonse","3208","img/question_5_10.jpeg","3","mat_58","2","0","0","3208","","","","","","","","","","","","","","","","","","","","",""
"","","","","","html-keyboard-response","121","496673","0.0-2.0-4.0-0.34","5c2cb3b41f8ea700015c44f0","C3","batch3","spm_show_trial_num","null","<p class=block-text>Trial 59 out of 60</p>","null","","","","","","","","","","","","","","","","","","","","","","","","","",""
"","","","","","image-button-response","122","499300","0.0-2.0-4.0-1.34","5c2cb3b41f8ea700015c44f0","C3","batch3","spm_respsonse","2625","img/question_5_11.jpeg","1","mat_59","4","0","0","2625","","","","","","","","","","","","","","","","","","","","",""
"","","","","","html-keyboard-response","123","500373","0.0-2.0-4.0-0.35","5c2cb3b41f8ea700015c44f0","C3","batch3","spm_show_trial_num","null","<p class=block-text>Trial 60 out of 60</p>","null","","","","","","","","","","","","","","","","","","","","","","","","","",""
"","","","","","image-button-response","124","503912","0.0-2.0-4.0-1.35","5c2cb3b41f8ea700015c44f0","C3","batch3","spm_respsonse","3538","img/question_5_12.jpeg","3","mat_60","5","0","0","3538","","","","","","","","","","","","","","","","","","","","",""
"","","","","","html-button-response","125","506285","0.0-2.0-5.0","5c2cb3b41f8ea700015c44f0","C3","batch3","spm_goodbye","2119","<p class= block-text>This concludes the Standard Progressive Matrix game. Thank you for your responses!<br> When you are ready, click the button continue</p>","0","","","","","","","","","","","","","","","","","","","","","","","","","",""
"true","","","","","fullscreen","126","509291","0.0-3.0-0.0","5c2cb3b41f8ea700015c44f0","C3","batch3","","","","","","","","","","","","","","","","","","","","","","","","","","","","","",""
"","","","","","instructions","127","521916","0.0-3.0-1.0-0.0","5c2cb3b41f8ea700015c44f0","C3","batch3","","12625","","","","","","","","[{""page_index"":0,""viewing_time"":6144},{""page_index"":1,""viewing_time"":3757},{""page_index"":0,""viewing_time"":1243},{""page_index"":1,""viewing_time"":1480}]","","","","","","","","","","","","","","","","","","","",""
"","","","","","html-button-response","128","523689","0.0-3.0-1.0-1.0-0.0","5c2cb3b41f8ea700015c44f0","C3","batch3","pattern_enter_quiz","1772","<p class=block-text> Let's answer a few questions <br>","0","","","","","","","","","","","","","","","","","","","","","","","","","",""
"","","","","","html-button-response","129","525769","0.0-3.0-1.0-1.0-1.0","5c2cb3b41f8ea700015c44f0","C3","batch3","pattern_quiz","2080","<p class = block-text>True or False: You will have as much time as you want to make each choice. <br></p>","1","","","true","","","","","","","","","","","","","","","","","","","","","","",""
"","","","","","html-button-response","130","526877","0.0-3.0-1.0-1.0-2.0","5c2cb3b41f8ea700015c44f0","C3","batch3","pattern_quiz_feedback","1106","<p class = block-text>Correct! You should make your choice <strong> as fast as you can</strong>.</p>","0","","","","","","","","","","","","","","","","","","","","","","","","","",""
"","","","","","html-button-response","131","529225","0.0-3.0-1.0-1.0-3.0","5c2cb3b41f8ea700015c44f0","C3","batch3","pattern_quiz","2348","<p class = block-text>True or False: You will look for 4 pieces in black or white color connected in a row either horizontally, vertically or diagonally. <br></p>","0","","","true","","","","","","","","","","","","","","","","","","","","","","",""
"","","","","","html-button-response","132","529768","0.0-3.0-1.0-1.0-4.0","5c2cb3b41f8ea700015c44f0","C3","batch3","pattern_quiz_feedback","543","<p class = block-text>Correct! </p>","0","","","","","","","","","","","","","","","","","","","","","","","","","",""
"","","","","","html-button-response","133","531177","0.0-3.0-2.0","5c2cb3b41f8ea700015c44f0","C3","batch3","pattern_enter_practice","1407","<p class=block-text> Now that you've understood the game, let's do a few practice trials before we start!<br> <br>","0","","","","","","","","","","","","","","","","","","","","","","","","","",""
"","","","","","image-keyboard-response","134","532510","0.0-3.0-3.0-0.0","5c2cb3b41f8ea700015c44f0","C3","batch3","pattern_practice","1330","stim/prac_yes_16_ver_w1.png","f","","f","true","","","","","","","","","","","","","","","","","","","","","","",""
"","","","","","html-keyboard-response","135","533516","0.0-3.0-3.0-1.0","5c2cb3b41f8ea700015c44f0","C3","batch3","pattern_feedback","null","<p style=""font-size:30px;color:green;"">Correct!</p>","null","","","","","","","","","","","","","","","","","","","","","","","","","",""
"","","","","","image-keyboard-response","136","534292","0.0-3.0-3.0-0.1","5c2cb3b41f8ea700015c44f0","C3","batch3","pattern_practice","774","stim/prac_no_16_1.png","f","","j","false","","","","","","","","","","","","","","","","","","","","","","",""
"","","","","","html-keyboard-response","137","535314","0.0-3.0-3.0-1.1","5c2cb3b41f8ea700015c44f0","C3","batch3","pattern_feedback","null","<p style=""font-size:30px;color:red;"">Wrong.</p>","null","","","","","","","","","","","","","","","","","","","","","","","","","",""
"","","","","","image-keyboard-response","138","536111","0.0-3.0-3.0-0.2","5c2cb3b41f8ea700015c44f0","C3","batch3","pattern_practice","795","stim/prac_yes_18_hor_w1.png","f","","f","true","","","","","","","","","","","","","","","","","","","","","","",""
"","","","","","html-keyboard-response","139","537130","0.0-3.0-3.0-1.2","5c2cb3b41f8ea700015c44f0","C3","batch3","pattern_feedback","null","<p style=""font-size:30px;color:green;"">Correct!</p>","null","","","","","","","","","","","","","","","","","","","","","","","","","",""
"","","","","","image-keyboard-response","140","538010","0.0-3.0-3.0-0.3","5c2cb3b41f8ea700015c44f0","C3","batch3","pattern_practice","880","stim/prac_yes_20_dia_b1.png","f","","f","true","","","","","","","","","","","","","","","","","","","","","","",""
"","","","","","html-keyboard-response","141","539024","0.0-3.0-3.0-1.3","5c2cb3b41f8ea700015c44f0","C3","batch3","pattern_feedback","null","<p style=""font-size:30px;color:green;"">Correct!</p>","null","","","","","","","","","","","","","","","","","","","","","","","","","",""
"","","","","","image-keyboard-response","142","540186","0.0-3.0-3.0-0.4","5c2cb3b41f8ea700015c44f0","C3","batch3","pattern_practice","1160","stim/prac_no_18_1.png","j","","j","true","","","","","","","","","","","","","","","","","","","","","","",""
"","","","","","html-keyboard-response","143","541201","0.0-3.0-3.0-1.4","5c2cb3b41f8ea700015c44f0","C3","batch3","pattern_feedback","null","<p style=""font-size:30px;color:green;"">Correct!</p>","null","","","","","","","","","","","","","","","","","","","","","","","","","",""
"","","","","","html-button-response","144","543264","0.0-3.0-4.0","5c2cb3b41f8ea700015c44f0","C3","batch3","pattern_enter_official_trials","2061","<p class=block-text> Good job! You are done with practice trials!<br>
        You responded correctly on 80% of the trials.<br>
        Press the button below to start official trials. Now you won't see any feedback about your response</p>","0","","","","","","","","","","","","","","","","","","","","","","","","","",""
"","","","","","html-keyboard-response","145","544067","0.0-3.0-5.0-0.0","5c2cb3b41f8ea700015c44f0","C3","batch3","pattern_show_trial_num","null","<p class=block-text>Trial 1 out of 78</p>","null","","","","","","","","","","","","","","","","","","","","","","","","","",""
"","","","","","image-keyboard-response","146","546288","0.0-3.0-5.0-1.0","5c2cb3b41f8ea700015c44f0","C3","batch3","pattern_response","2219","stim/no_51_1.png","j","pattern_31","j","true","","","","2219","true","1","","","","","","","","","","","","","","","","",""
"","","","","","html-keyboard-response","147","547609","0.0-3.0-5.0-0.1","5c2cb3b41f8ea700015c44f0","C3","batch3","pattern_show_trial_num","null","<p class=block-text>Trial 2 out of 78</p>","null","","","","","","","","","","","","","","","","","","","","","","","","","",""
"","","","","","image-keyboard-response","148","548959","0.0-3.0-5.0-1.1","5c2cb3b41f8ea700015c44f0","C3","batch3","pattern_response","1348","stim/yes_33_dia_w1_w.png","f","pattern_56","f","true","","","","1348","true","2","","","","","","","","","","","","","","","","",""
"","","","","","html-keyboard-response","149","550276","0.0-3.0-5.0-0.2","5c2cb3b41f8ea700015c44f0","C3","batch3","pattern_show_trial_num","null","<p class=block-text>Trial 3 out of 78</p>","null","","","","","","","","","","","","","","","","","","","","","","","","","",""
"","","","","","image-keyboard-response","150","553249","0.0-3.0-5.0-1.2","5c2cb3b41f8ea700015c44f0","C3","batch3","pattern_response","2969","stim/no_53_1_b.png","j","pattern_33","j","true","","","","2969","true","3","","","","","","","","","","","","","","","","",""
"","","","","","html-keyboard-response","151","554552","0.0-3.0-5.0-0.3","5c2cb3b41f8ea700015c44f0","C3","batch3","pattern_show_trial_num","null","<p class=block-text>Trial 4 out of 78</p>","null","","","","","","","","","","","","","","","","","","","","","","","","","",""
"","","","","","image-keyboard-response","152","557832","0.0-3.0-5.0-1.3","5c2cb3b41f8ea700015c44f0","C3","batch3","pattern_response","3278","stim/no_67_1.png","j","pattern_39","j","true","","","","3278","true","4","","","","","","","","","","","","","","","","",""
"","","","","","html-keyboard-response","153","559140","0.0-3.0-5.0-0.4","5c2cb3b41f8ea700015c44f0","C3","batch3","pattern_show_trial_num","null","<p class=block-text>Trial 5 out of 78</p>","null","","","","","","","","","","","","","","","","","","","","","","","","","",""
"","","","","","image-keyboard-response","154","561359","0.0-3.0-5.0-1.4","5c2cb3b41f8ea700015c44f0","C3","batch3","pattern_response","2218","stim/no_36_1_b.png","j","pattern_17","j","true","","","","2218","true","5","","","","","","","","","","","","","","","","",""
"","","","","","html-keyboard-response","155","562674","0.0-3.0-5.0-0.5","5c2cb3b41f8ea700015c44f0","C3","batch3","pattern_show_trial_num","null","<p class=block-text>Trial 6 out of 78</p>","null","","","","","","","","","","","","","","","","","","","","","","","","","",""
"","","","","","image-keyboard-response","156","563377","0.0-3.0-5.0-1.5","5c2cb3b41f8ea700015c44f0","C3","batch3","pattern_response","700","stim/yes_15_dia_b1u_b.png","f","pattern_44","f","true","","","","700","true","6","","","","","","","","","","","","","","","","",""
"","","","","","html-keyboard-response","157","564684","0.0-3.0-5.0-0.6","5c2cb3b41f8ea700015c44f0","C3","batch3","pattern_show_trial_num","null","<p class=block-text>Trial 7 out of 78</p>","null","","","","","","","","","","","","","","","","","","","","","","","","","",""
"","","","","","image-keyboard-response","158","565656","0.0-3.0-5.0-1.6","5c2cb3b41f8ea700015c44f0","C3","batch3","pattern_response","971","stim/yes_44_ver_w1_w.png","f","pattern_66","f","true","","","","971","true","7","","","","","","","","","","","","","","","","",""
"","","","","","html-keyboard-response","159","566960","0.0-3.0-5.0-0.7","5c2cb3b41f8ea700015c44f0","C3","batch3","pattern_show_trial_num","null","<p class=block-text>Trial 8 out of 78</p>","null","","","","","","","","","","","","","","","","","","","","","","","","","",""
"","","","","","image-keyboard-response","160","567659","0.0-3.0-5.0-1.7","5c2cb3b41f8ea700015c44f0","C3","batch3","pattern_response","697","stim/yes_30_ver_b1_b.png","f","pattern_54","f","true","","","","697","true","8","","","","","","","","","","","","","","","","",""
"","","","","","html-keyboard-response","161","568967","0.0-3.0-5.0-0.8","5c2cb3b41f8ea700015c44f0","C3","batch3","pattern_show_trial_num","null","<p class=block-text>Trial 9 out of 78</p>","null","","","","","","","","","","","","","","","","","","","","","","","","","",""
"","","","","","image-keyboard-response","162","570198","0.0-3.0-5.0-1.8","5c2cb3b41f8ea700015c44f0","C3","batch3","pattern_response","1229","stim/no_15_1_w.png","j","pattern_03","j","true","","","","1229","true","9","","","","","","","","","","","","","","","","",""
"","","","","","html-keyboard-response","163","571520","0.0-3.0-5.0-0.9","5c2cb3b41f8ea700015c44f0","C3","batch3","pattern_show_trial_num","null","<p class=block-text>Trial 10 out of 78</p>","null","","","","","","","","","","","","","","","","","","","","","","","","","",""
"","","","","","image-keyboard-response","164","572302","0.0-3.0-5.0-1.9","5c2cb3b41f8ea700015c44f0","C3","batch3","pattern_response","781","stim/yes_29_hor_b1_b.png","f","pattern_52","f","true","","","","781","true","10","","","","","","","","","","","","","","","","",""
"","","","","","html-keyboard-response","165","573609","0.0-3.0-5.0-0.10","5c2cb3b41f8ea700015c44f0","C3","batch3","pattern_show_trial_num","null","<p class=block-text>Trial 11 out of 78</p>","null","","","","","","","","","","","","","","","","","","","","","","","","","",""
"","","","","","image-keyboard-response","166","575170","0.0-3.0-5.0-1.10","5c2cb3b41f8ea700015c44f0","C3","batch3","pattern_response","1558","stim/no_25_1_b.png","j","pattern_09","j","true","","","","1558","true","11","","","","","","","","","","","","","","","","",""
"","","","","","html-keyboard-response","167","576481","0.0-3.0-5.0-0.11","5c2cb3b41f8ea700015c44f0","C3","batch3","pattern_show_trial_num","null","<p class=block-text>Trial 12 out of 78</p>","null","","","","","","","","","","","","","","","","","","","","","","","","","",""
"","","","","","image-keyboard-response","168","577713","0.0-3.0-5.0-1.11","5c2cb3b41f8ea700015c44f0","C3","batch3","pattern_response","1229","stim/yes_53_ver_b1_b.png","f","pattern_74","f","true","","","","1229","true","12","","","","","","","","","","","","","","","","",""
"","","","","","html-keyboard-response","169","579030","0.0-3.0-5.0-0.12","5c2cb3b41f8ea700015c44f0","C3","batch3","pattern_show_trial_num","null","<p class=block-text>Trial 13 out of 78</p>","null","","","","","","","","","","","","","","","","","","","","","","","","","",""
"","","","","","image-keyboard-response","170","579743","0.0-3.0-5.0-1.12","5c2cb3b41f8ea700015c44f0","C3","batch3","pattern_response","712","stim/yes_23_ver_b1.png","f","pattern_48","f","true","","","","712","true","13","","","","","","","","","","","","","","","","",""
"","","","","","html-keyboard-response","171","581064","0.0-3.0-5.0-0.13","5c2cb3b41f8ea700015c44f0","C3","batch3","pattern_show_trial_num","null","<p class=block-text>Trial 14 out of 78</p>","null","","","","","","","","","","","","","","","","","","","","","","","","","",""
"","","","","","image-keyboard-response","172","584003","0.0-3.0-5.0-1.13","5c2cb3b41f8ea700015c44f0","C3","batch3","pattern_response","2936","stim/no_47_1_b.png","j","pattern_27","j","true","","","","2936","true","14","","","","","","","","","","","","","","","","",""
"","","","","","html-keyboard-response","173","585306","0.0-3.0-5.0-0.14","5c2cb3b41f8ea700015c44f0","C3","batch3","pattern_show_trial_num","null","<p class=block-text>Trial 15 out of 78</p>","null","","","","","","","","","","","","","","","","","","","","","","","","","",""
"","","","","","image-keyboard-response","174","589093","0.0-3.0-5.0-1.14","5c2cb3b41f8ea700015c44f0","C3","batch3","pattern_response","3786","stim/no_39_1_w.png","j","pattern_21","j","true","","","","3786","true","15","","","","","","","","","","","","","","","","",""
"","","","","","html-keyboard-response","175","590416","0.0-3.0-5.0-0.15","5c2cb3b41f8ea700015c44f0","C3","batch3","pattern_show_trial_num","null","<p class=block-text>Trial 16 out of 78</p>","null","","","","","","","","","","","","","","","","","","","","","","","","","",""
"","","","","","image-keyboard-response","176","590505","0.0-3.0-5.0-1.15","5c2cb3b41f8ea700015c44f0","C3","batch3","pattern_response","88","stim/yes_26_dia_w2_w.png","j","pattern_50","f","false","","","","88","false","15","","","","","","","","","","","","","","","","",""
"","","","","","html-keyboard-response","177","591825","0.0-3.0-5.0-0.16","5c2cb3b41f8ea700015c44f0","C3","batch3","pattern_show_trial_num","null","<p class=block-text>Trial 17 out of 78</p>","null","","","","","","","","","","","","","","","","","","","","","","","","","",""
"","","","","","image-keyboard-response","178","596768","0.0-3.0-5.0-1.16","5c2cb3b41f8ea700015c44f0","C3","batch3","pattern_response","4941","stim/yes_63_dia_b1.png","f","pattern_78","f","true","","","","4941","true","16","","","","","","","","","","","","","","","","",""
"","","","","","html-keyboard-response","179","598084","0.0-3.0-5.0-0.17","5c2cb3b41f8ea700015c44f0","C3","batch3","pattern_show_trial_num","null","<p class=block-text>Trial 18 out of 78</p>","null","","","","","","","","","","","","","","","","","","","","","","","","","",""
"","","","","","image-keyboard-response","180","600866","0.0-3.0-5.0-1.17","5c2cb3b41f8ea700015c44f0","C3","batch3","pattern_response","2779","stim/no_43_2_b.png","j","pattern_23","j","true","","","","2779","true","17","","","","","","","","","","","","","","","","",""
"","","","","","html-keyboard-response","181","602175","0.0-3.0-5.0-0.18","5c2cb3b41f8ea700015c44f0","C3","batch3","pattern_show_trial_num","null","<p class=block-text>Trial 19 out of 78</p>","null","","","","","","","","","","","","","","","","","","","","","","","","","",""
"","","","","","image-keyboard-response","182","604117","0.0-3.0-5.0-1.18","5c2cb3b41f8ea700015c44f0","C3","batch3","pattern_response","1941","stim/no_18_1_b.png","j","pattern_05","j","true","","","","1941","true","18","","","","","","","","","","","","","","","","",""
"","","","","","html-keyboard-response","183","605420","0.0-3.0-5.0-0.19","5c2cb3b41f8ea700015c44f0","C3","batch3","pattern_show_trial_num","null","<p class=block-text>Trial 20 out of 78</p>","null","","","","","","","","","","","","","","","","","","","","","","","","","",""
"","","","","","image-keyboard-response","184","608676","0.0-3.0-5.0-1.19","5c2cb3b41f8ea700015c44f0","C3","batch3","pattern_response","3254","stim/yes_42_dia_w1_w.png","j","pattern_64","f","false","","","","3254","false","18","","","","","","","","","","","","","","","","",""
"","","","","","html-keyboard-response","185","609998","0.0-3.0-5.0-0.20","5c2cb3b41f8ea700015c44f0","C3","batch3","pattern_show_trial_num","null","<p class=block-text>Trial 21 out of 78</p>","null","","","","","","","","","","","","","","","","","","","","","","","","","",""
"","","","","","image-keyboard-response","186","611081","0.0-3.0-5.0-1.20","5c2cb3b41f8ea700015c44f0","C3","batch3","pattern_response","1080","stim/yes_46_ver_b1_b.png","f","pattern_68","f","true","","","","1080","true","19","","","","","","","","","","","","","","","","",""
"","","","","","html-keyboard-response","187","612391","0.0-3.0-5.0-0.21","5c2cb3b41f8ea700015c44f0","C3","batch3","pattern_show_trial_num","null","<p class=block-text>Trial 22 out of 78</p>","null","","","","","","","","","","","","","","","","","","","","","","","","","",""
"","","","","","image-keyboard-response","188","612926","0.0-3.0-5.0-1.21","5c2cb3b41f8ea700015c44f0","C3","batch3","pattern_response","534","stim/yes_12_hor_w1_w.png","f","pattern_42","f","true","","","","534","true","20","","","","","","","","","","","","","","","","",""
"","","","","","html-keyboard-response","189","614240","0.0-3.0-5.0-0.22","5c2cb3b41f8ea700015c44f0","C3","batch3","pattern_show_trial_num","null","<p class=block-text>Trial 23 out of 78</p>","null","","","","","","","","","","","","","","","","","","","","","","","","","",""
"","","","","","image-keyboard-response","190","616620","0.0-3.0-5.0-1.22","5c2cb3b41f8ea700015c44f0","C3","batch3","pattern_response","2379","stim/no_22_1_b.png","j","pattern_07","j","true","","","","2379","true","21","","","","","","","","","","","","","","","","",""
"","","","","","html-keyboard-response","191","617927","0.0-3.0-5.0-0.23","5c2cb3b41f8ea700015c44f0","C3","batch3","pattern_show_trial_num","null","<p class=block-text>Trial 24 out of 78</p>","null","","","","","","","","","","","","","","","","","","","","","","","","","",""
"","","","","","image-keyboard-response","192","618667","0.0-3.0-5.0-1.23","5c2cb3b41f8ea700015c44f0","C3","batch3","pattern_response","737","stim/yes_70_ver_b1.png","f","pattern_80","f","true","","","","737","true","22","","","","","","","","","","","","","","","","",""
"","","","","","html-keyboard-response","193","619979","0.0-3.0-5.0-0.24","5c2cb3b41f8ea700015c44f0","C3","batch3","pattern_show_trial_num","null","<p class=block-text>Trial 25 out of 78</p>","null","","","","","","","","","","","","","","","","","","","","","","","","","",""
"","","","","","image-keyboard-response","194","622753","0.0-3.0-5.0-1.24","5c2cb3b41f8ea700015c44f0","C3","batch3","pattern_response","2772","stim/no_30_1_b.png","j","pattern_13","j","true","","","","2772","true","23","","","","","","","","","","","","","","","","",""
"","","","","","html-keyboard-response","195","624065","0.0-3.0-5.0-0.25","5c2cb3b41f8ea700015c44f0","C3","batch3","pattern_show_trial_num","null","<p class=block-text>Trial 26 out of 78</p>","null","","","","","","","","","","","","","","","","","","","","","","","","","",""
"","","","","","image-keyboard-response","196","624846","0.0-3.0-5.0-1.25","5c2cb3b41f8ea700015c44f0","C3","batch3","pattern_response","779","stim/yes_37_hor_w1_w.png","f","pattern_60","f","true","","","","779","true","24","","","","","","","","","","","","","","","","",""
"","","","","","html-keyboard-response","197","626159","0.0-3.0-5.0-0.26","5c2cb3b41f8ea700015c44f0","C3","batch3","pattern_show_trial_num","null","<p class=block-text>Trial 27 out of 78</p>","null","","","","","","","","","","","","","","","","","","","","","","","","","",""
"","","","","","image-keyboard-response","198","630170","0.0-3.0-5.0-1.26","5c2cb3b41f8ea700015c44f0","C3","batch3","pattern_response","4010","stim/no_45_1_w.png","j","pattern_25","j","true","","","","4010","true","25","","","","","","","","","","","","","","","","",""
"","","","","","html-keyboard-response","199","631489","0.0-3.0-5.0-0.27","5c2cb3b41f8ea700015c44f0","C3","batch3","pattern_show_trial_num","null","<p class=block-text>Trial 28 out of 78</p>","null","","","","","","","","","","","","","","","","","","","","","","","","","",""
"","","","","","image-keyboard-response","200","632110","0.0-3.0-5.0-1.27","5c2cb3b41f8ea700015c44f0","C3","batch3","pattern_response","620","stim/yes_39_hor_w1_w.png","f","pattern_62","f","true","","","","620","true","26","","","","","","","","","","","","","","","","",""
"","","","","","html-keyboard-response","201","633423","0.0-3.0-5.0-0.28","5c2cb3b41f8ea700015c44f0","C3","batch3","pattern_show_trial_num","null","<p class=block-text>Trial 29 out of 78</p>","null","","","","","","","","","","","","","","","","","","","","","","","","","",""
"","","","","","image-keyboard-response","202","634097","0.0-3.0-5.0-1.28","5c2cb3b41f8ea700015c44f0","C3","batch3","pattern_response","673","stim/yes_36_ver_w1_w.png","f","pattern_58","f","true","","","","673","true","27","","","","","","","","","","","","","","","","",""
"","","","","","html-keyboard-response","203","635415","0.0-3.0-5.0-0.29","5c2cb3b41f8ea700015c44f0","C3","batch3","pattern_show_trial_num","null","<p class=block-text>Trial 30 out of 78</p>","null","","","","","","","","","","","","","","","","","","","","","","","","","",""
"","","","","","image-keyboard-response","204","636098","0.0-3.0-5.0-1.29","5c2cb3b41f8ea700015c44f0","C3","batch3","pattern_response","683","stim/yes_17_ver_b1_b.png","f","pattern_46","f","true","","","","683","true","28","","","","","","","","","","","","","","","","",""
"","","","","","html-keyboard-response","205","637406","0.0-3.0-5.0-0.30","5c2cb3b41f8ea700015c44f0","C3","batch3","pattern_show_trial_num","null","<p class=block-text>Trial 31 out of 78</p>","null","","","","","","","","","","","","","","","","","","","","","","","","","",""
"","","","","","image-keyboard-response","206","641661","0.0-3.0-5.0-1.30","5c2cb3b41f8ea700015c44f0","C3","batch3","pattern_response","4253","stim/no_58_1_w.png","j","pattern_35","j","true","","","","4253","true","29","","","","","","","","","","","","","","","","",""
"","","","","","html-keyboard-response","207","642980","0.0-3.0-5.0-0.31","5c2cb3b41f8ea700015c44f0","C3","batch3","pattern_show_trial_num","null","<p class=block-text>Trial 32 out of 78</p>","null","","","","","","","","","","","","","","","","","","","","","","","","","",""
"","","","","","image-keyboard-response","208","644932","0.0-3.0-5.0-1.31","5c2cb3b41f8ea700015c44f0","C3","batch3","pattern_response","1949","stim/no_33_1_b.png","f","pattern_15","j","false","","","","1949","false","29","","","","","","","","","","","","","","","","",""
"","","","","","html-keyboard-response","209","646234","0.0-3.0-5.0-0.32","5c2cb3b41f8ea700015c44f0","C3","batch3","pattern_show_trial_num","null","<p class=block-text>Trial 33 out of 78</p>","null","","","","","","","","","","","","","","","","","","","","","","","","","",""
"","","","","","image-keyboard-response","210","649831","0.0-3.0-5.0-1.32","5c2cb3b41f8ea700015c44f0","C3","batch3","pattern_response","3595","stim/no_49_2_b.png","j","pattern_29","j","true","","","","3595","true","30","","","","","","","","","","","","","","","","",""
"","","","","","html-keyboard-response","211","651145","0.0-3.0-5.0-0.33","5c2cb3b41f8ea700015c44f0","C3","batch3","pattern_show_trial_num","null","<p class=block-text>Trial 34 out of 78</p>","null","","","","","","","","","","","","","","","","","","","","","","","","","",""
"","","","","","image-keyboard-response","212","655552","0.0-3.0-5.0-1.33","5c2cb3b41f8ea700015c44f0","C3","batch3","pattern_response","4404","stim/yes_58_dia_w1_w.png","f","pattern_76","f","true","","","","4404","true","31","","","","","","","","","","","","","","","","",""
"","","","","","html-keyboard-response","213","656874","0.0-3.0-5.0-0.34","5c2cb3b41f8ea700015c44f0","C3","batch3","pattern_show_trial_num","null","<p class=block-text>Trial 35 out of 78</p>","null","","","","","","","","","","","","","","","","","","","","","","","","","",""
"","","","","","image-keyboard-response","214","659978","0.0-3.0-5.0-1.34","5c2cb3b41f8ea700015c44f0","C3","batch3","pattern_response","3101","stim/yes_49_hor_w1_b.png","f","pattern_70","f","true","","","","3101","true","32","","","","","","","","","","","","","","","","",""
"","","","","","html-keyboard-response","215","661288","0.0-3.0-5.0-0.35","5c2cb3b41f8ea700015c44f0","C3","batch3","pattern_show_trial_num","null","<p class=block-text>Trial 36 out of 78</p>","null","","","","","","","","","","","","","","","","","","","","","","","","","",""
"","","","","","image-keyboard-response","216","663065","0.0-3.0-5.0-1.35","5c2cb3b41f8ea700015c44f0","C3","batch3","pattern_response","1776","stim/yes_51_dia_b1.png","f","pattern_72","f","true","","","","1776","true","33","","","","","","","","","","","","","","","","",""
"","","","","","html-keyboard-response","217","664373","0.0-3.0-5.0-0.36","5c2cb3b41f8ea700015c44f0","C3","batch3","pattern_show_trial_num","null","<p class=block-text>Trial 37 out of 78</p>","null","","","","","","","","","","","","","","","","","","","","","","","","","",""
"","","","","","image-keyboard-response","218","667166","0.0-3.0-5.0-1.36","5c2cb3b41f8ea700015c44f0","C3","batch3","pattern_response","2792","stim/no_37_2_w.png","j","pattern_19","j","true","","","","2792","true","34","","","","","","","","","","","","","","","","",""
"","","","","","html-keyboard-response","219","668478","0.0-3.0-5.0-0.37","5c2cb3b41f8ea700015c44f0","C3","batch3","pattern_show_trial_num","null","<p class=block-text>Trial 38 out of 78</p>","null","","","","","","","","","","","","","","","","","","","","","","","","","",""
"","","","","","image-keyboard-response","220","669977","0.0-3.0-5.0-1.37","5c2cb3b41f8ea700015c44f0","C3","batch3","pattern_response","1496","stim/no_28_2.png","j","pattern_11","j","true","","","","1496","true","35","","","","","","","","","","","","","","","","",""
"","","","","","html-keyboard-response","221","671281","0.0-3.0-5.0-0.38","5c2cb3b41f8ea700015c44f0","C3","batch3","pattern_show_trial_num","null","<p class=block-text>Trial 39 out of 78</p>","null","","","","","","","","","","","","","","","","","","","","","","","","","",""
"","","","","","image-keyboard-response","222","672458","0.0-3.0-5.0-1.38","5c2cb3b41f8ea700015c44f0","C3","batch3","pattern_response","1176","stim/no_12_1.png","j","pattern_01","j","true","","","","1176","true","36","","","","","","","","","","","","","","","","",""
"","","","","","image-keyboard-response","223","674459","0.0-3.0-6.0","5c2cb3b41f8ea700015c44f0","C3","batch3","attention_check","1483","stim/empty_board.png","j","","j","true","","","","","","","500","[""f"",""j""]","","","","","","","","","","","","","","",""
"","","","","","html-keyboard-response","224","675267","0.0-3.0-7.0-0.0","5c2cb3b41f8ea700015c44f0","C3","batch3","pattern_show_trial_num","null","<p class=block-text>Trial 40 out of 78</p>","null","","","","","","","","","","","","","","","","","","","","","","","","","",""
"","","","","","image-keyboard-response","225","681124","0.0-3.0-7.0-1.0","5c2cb3b41f8ea700015c44f0","C3","batch3","pattern_response","5857","stim/no_62_1_w.png","j","pattern_36","j","true","","","","5857","true","37","","","","","","","","","","","","","","","","",""
"","","","","","html-keyboard-response","226","682426","0.0-3.0-7.0-0.1","5c2cb3b41f8ea700015c44f0","C3","batch3","pattern_show_trial_num","null","<p class=block-text>Trial 41 out of 78</p>","null","","","","","","","","","","","","","","","","","","","","","","","","","",""
"","","","","","image-keyboard-response","227","685365","0.0-3.0-7.0-1.1","5c2cb3b41f8ea700015c44f0","C3","batch3","pattern_response","2936","stim/no_46_1_b.png","j","pattern_26","j","true","","","","2936","true","38","","","","","","","","","","","","","","","","",""
"","","","","","html-keyboard-response","228","686674","0.0-3.0-7.0-0.2","5c2cb3b41f8ea700015c44f0","C3","batch3","pattern_show_trial_num","null","<p class=block-text>Trial 42 out of 78</p>","null","","","","","","","","","","","","","","","","","","","","","","","","","",""
"","","","","","image-keyboard-response","229","688231","0.0-3.0-7.0-1.2","5c2cb3b41f8ea700015c44f0","C3","batch3","pattern_response","1555","stim/no_29_1_b.png","j","pattern_12","j","true","","","","1555","true","39","","","","","","","","","","","","","","","","",""
"","","","","","html-keyboard-response","230","689544","0.0-3.0-7.0-0.3","5c2cb3b41f8ea700015c44f0","C3","batch3","pattern_show_trial_num","null","<p class=block-text>Trial 43 out of 78</p>","null","","","","","","","","","","","","","","","","","","","","","","","","","",""
"","","","","","image-keyboard-response","231","690894","0.0-3.0-7.0-1.3","5c2cb3b41f8ea700015c44f0","C3","batch3","pattern_response","1348","stim/no_20_1_w.png","j","pattern_06","j","true","","","","1348","true","40","","","","","","","","","","","","","","","","",""
"","","","","","html-keyboard-response","232","692209","0.0-3.0-7.0-0.4","5c2cb3b41f8ea700015c44f0","C3","batch3","pattern_show_trial_num","null","<p class=block-text>Trial 44 out of 78</p>","null","","","","","","","","","","","","","","","","","","","","","","","","","",""
"","","","","","image-keyboard-response","233","695062","0.0-3.0-7.0-1.4","5c2cb3b41f8ea700015c44f0","C3","batch3","pattern_response","2851","stim/no_52_1.png","j","pattern_32","j","true","","","","2851","true","41","","","","","","","","","","","","","","","","",""
"","","","","","html-keyboard-response","234","696372","0.0-3.0-7.0-0.5","5c2cb3b41f8ea700015c44f0","C3","batch3","pattern_show_trial_num","null","<p class=block-text>Trial 45 out of 78</p>","null","","","","","","","","","","","","","","","","","","","","","","","","","",""
"","","","","","image-keyboard-response","235","699222","0.0-3.0-7.0-1.5","5c2cb3b41f8ea700015c44f0","C3","batch3","pattern_response","2847","stim/yes_37_dia_w1.png","j","pattern_59","f","false","","","","2847","false","41","","","","","","","","","","","","","","","","",""
"","","","","","html-keyboard-response","236","700532","0.0-3.0-7.0-0.6","5c2cb3b41f8ea700015c44f0","C3","batch3","pattern_show_trial_num","null","<p class=block-text>Trial 46 out of 78</p>","null","","","","","","","","","","","","","","","","","","","","","","","","","",""
"","","","","","image-keyboard-response","237","701822","0.0-3.0-7.0-1.6","5c2cb3b41f8ea700015c44f0","C3","batch3","pattern_response","1288","stim/yes_60_ver_b1_b.png","f","pattern_77","f","true","","","","1288","true","42","","","","","","","","","","","","","","","","",""
"","","","","","html-keyboard-response","238","703139","0.0-3.0-7.0-0.7","5c2cb3b41f8ea700015c44f0","C3","batch3","pattern_show_trial_num","null","<p class=block-text>Trial 47 out of 78</p>","null","","","","","","","","","","","","","","","","","","","","","","","","","",""
"","","","","","image-keyboard-response","239","704035","0.0-3.0-7.0-1.7","5c2cb3b41f8ea700015c44f0","C3","batch3","pattern_response","895","stim/yes_43_ver_w1_w.png","f","pattern_65","f","true","","","","895","true","43","","","","","","","","","","","","","","","","",""
"","","","","","html-keyboard-response","240","705358","0.0-3.0-7.0-0.8","5c2cb3b41f8ea700015c44f0","C3","batch3","pattern_show_trial_num","null","<p class=block-text>Trial 48 out of 78</p>","null","","","","","","","","","","","","","","","","","","","","","","","","","",""
"","","","","","image-keyboard-response","241","708147","0.0-3.0-7.0-1.8","5c2cb3b41f8ea700015c44f0","C3","batch3","pattern_response","2788","stim/no_42_1_w.png","j","pattern_22","j","true","","","","2788","true","44","","","","","","","","","","","","","","","","",""
"","","","","","html-keyboard-response","242","709453","0.0-3.0-7.0-0.9","5c2cb3b41f8ea700015c44f0","C3","batch3","pattern_show_trial_num","null","<p class=block-text>Trial 49 out of 78</p>","null","","","","","","","","","","","","","","","","","","","","","","","","","",""
"","","","","","image-keyboard-response","243","712012","0.0-3.0-7.0-1.9","5c2cb3b41f8ea700015c44f0","C3","batch3","pattern_response","2557","stim/yes_48_dia_w1_w.png","f","pattern_69","f","true","","","","2557","true","45","","","","","","","","","","","","","","","","",""
"","","","","","html-keyboard-response","244","713330","0.0-3.0-7.0-0.10","5c2cb3b41f8ea700015c44f0","C3","batch3","pattern_show_trial_num","null","<p class=block-text>Trial 50 out of 78</p>","null","","","","","","","","","","","","","","","","","","","","","","","","","",""
"","","","","","image-keyboard-response","245","714368","0.0-3.0-7.0-1.10","5c2cb3b41f8ea700015c44f0","C3","batch3","pattern_response","1036","stim/yes_25_hor_b1_b.png","f","pattern_49","f","true","","","","1036","true","46","","","","","","","","","","","","","","","","",""
"","","","","","html-keyboard-response","246","715681","0.0-3.0-7.0-0.11","5c2cb3b41f8ea700015c44f0","C3","batch3","pattern_show_trial_num","null","<p class=block-text>Trial 51 out of 78</p>","null","","","","","","","","","","","","","","","","","","","","","","","","","",""
"","","","","","image-keyboard-response","247","719022","0.0-3.0-7.0-1.11","5c2cb3b41f8ea700015c44f0","C3","batch3","pattern_response","3339","stim/no_50_1.png","j","pattern_30","j","true","","","","3339","true","47","","","","","","","","","","","","","","","","",""
"","","","","","html-keyboard-response","248","720335","0.0-3.0-7.0-0.12","5c2cb3b41f8ea700015c44f0","C3","batch3","pattern_show_trial_num","null","<p class=block-text>Trial 52 out of 78</p>","null","","","","","","","","","","","","","","","","","","","","","","","","","",""
"","","","","","image-keyboard-response","249","724716","0.0-3.0-7.0-1.12","5c2cb3b41f8ea700015c44f0","C3","batch3","pattern_response","4378","stim/no_70_2.png","j","pattern_40","j","true","","","","4378","true","48","","","","","","","","","","","","","","","","",""
"","","","","","html-keyboard-response","250","726018","0.0-3.0-7.0-0.13","5c2cb3b41f8ea700015c44f0","C3","batch3","pattern_show_trial_num","null","<p class=block-text>Trial 53 out of 78</p>","null","","","","","","","","","","","","","","","","","","","","","","","","","",""
"","","","","","image-keyboard-response","251","727913","0.0-3.0-7.0-1.13","5c2cb3b41f8ea700015c44f0","C3","batch3","pattern_response","1892","stim/no_32_1_w.png","j","pattern_14","j","true","","","","1892","true","49","","","","","","","","","","","","","","","","",""
"","","","","","html-keyboard-response","252","729230","0.0-3.0-7.0-0.14","5c2cb3b41f8ea700015c44f0","C3","batch3","pattern_show_trial_num","null","<p class=block-text>Trial 54 out of 78</p>","null","","","","","","","","","","","","","","","","","","","","","","","","","",""
"","","","","","image-keyboard-response","253","731687","0.0-3.0-7.0-1.14","5c2cb3b41f8ea700015c44f0","C3","batch3","pattern_response","2455","stim/yes_45_hor_b2_b.png","f","pattern_67","f","true","","","","2455","true","50","","","","","","","","","","","","","","","","",""
"","","","","","html-keyboard-response","254","732988","0.0-3.0-7.0-0.15","5c2cb3b41f8ea700015c44f0","C3","batch3","pattern_show_trial_num","null","<p class=block-text>Trial 55 out of 78</p>","null","","","","","","","","","","","","","","","","","","","","","","","","","",""
"","","","","","image-keyboard-response","255","736269","0.0-3.0-7.0-1.15","5c2cb3b41f8ea700015c44f0","C3","batch3","pattern_response","3278","stim/no_34_1_b.png","j","pattern_16","j","true","","","","3278","true","51","","","","","","","","","","","","","","","","",""
"","","","","","html-keyboard-response","256","737574","0.0-3.0-7.0-0.16","5c2cb3b41f8ea700015c44f0","C3","batch3","pattern_show_trial_num","null","<p class=block-text>Trial 56 out of 78</p>","null","","","","","","","","","","","","","","","","","","","","","","","","","",""
"","","","","","image-keyboard-response","257","742303","0.0-3.0-7.0-1.16","5c2cb3b41f8ea700015c44f0","C3","batch3","pattern_response","4727","stim/no_44_1.png","j","pattern_24","j","true","","","","4727","true","52","","","","","","","","","","","","","","","","",""
"","","","","","html-keyboard-response","258","743614","0.0-3.0-7.0-0.17","5c2cb3b41f8ea700015c44f0","C3","batch3","pattern_show_trial_num","null","<p class=block-text>Trial 57 out of 78</p>","null","","","","","","","","","","","","","","","","","","","","","","","","","",""
"","","","","","image-keyboard-response","259","746780","0.0-3.0-7.0-1.17","5c2cb3b41f8ea700015c44f0","C3","batch3","pattern_response","3164","stim/no_55_1_w.png","j","pattern_34","j","true","","","","3164","true","53","","","","","","","","","","","","","","","","",""
"","","","","","html-keyboard-response","260","748084","0.0-3.0-7.0-0.18","5c2cb3b41f8ea700015c44f0","C3","batch3","pattern_show_trial_num","null","<p class=block-text>Trial 58 out of 78</p>","null","","","","","","","","","","","","","","","","","","","","","","","","","",""
"","","","","","image-keyboard-response","261","748993","0.0-3.0-7.0-1.18","5c2cb3b41f8ea700015c44f0","C3","batch3","pattern_response","907","stim/yes_22_ver_w1.png","f","pattern_47","f","true","","","","907","true","54","","","","","","","","","","","","","","","","",""
"","","","","","html-keyboard-response","262","750307","0.0-3.0-7.0-0.19","5c2cb3b41f8ea700015c44f0","C3","batch3","pattern_show_trial_num","null","<p class=block-text>Trial 59 out of 78</p>","null","","","","","","","","","","","","","","","","","","","","","","","","","",""
"","","","","","image-keyboard-response","263","751840","0.0-3.0-7.0-1.19","5c2cb3b41f8ea700015c44f0","C3","batch3","pattern_response","1531","stim/yes_31_hor_b1.png","f","pattern_55","f","true","","","","1531","true","55","","","","","","","","","","","","","","","","",""
"","","","","","html-keyboard-response","264","753144","0.0-3.0-7.0-0.20","5c2cb3b41f8ea700015c44f0","C3","batch3","pattern_show_trial_num","null","<p class=block-text>Trial 60 out of 78</p>","null","","","","","","","","","","","","","","","","","","","","","","","","","",""
"","","","","","image-keyboard-response","265","758947","0.0-3.0-7.0-1.20","5c2cb3b41f8ea700015c44f0","C3","batch3","pattern_response","5800","stim/yes_52_ver_w1.png","f","pattern_73","f","true","","","","5800","true","56","","","","","","","","","","","","","","","","",""
"","","","","","html-keyboard-response","266","760268","0.0-3.0-7.0-0.21","5c2cb3b41f8ea700015c44f0","C3","batch3","pattern_show_trial_num","null","<p class=block-text>Trial 61 out of 78</p>","null","","","","","","","","","","","","","","","","","","","","","","","","","",""
"","","","","","image-keyboard-response","267","763042","0.0-3.0-7.0-1.21","5c2cb3b41f8ea700015c44f0","C3","batch3","pattern_response","2772","stim/yes_50_dia_w1.png","f","pattern_71","f","true","","","","2772","true","57","","","","","","","","","","","","","","","","",""
"","","","","","html-keyboard-response","268","764353","0.0-3.0-7.0-0.22","5c2cb3b41f8ea700015c44f0","C3","batch3","pattern_show_trial_num","null","<p class=block-text>Trial 62 out of 78</p>","null","","","","","","","","","","","","","","","","","","","","","","","","","",""
"","","","","","image-keyboard-response","269","767586","0.0-3.0-7.0-1.22","5c2cb3b41f8ea700015c44f0","C3","batch3","pattern_response","3231","stim/no_38_1_b.png","j","pattern_20","j","true","","","","3231","true","58","","","","","","","","","","","","","","","","",""
"","","","","","html-keyboard-response","270","768897","0.0-3.0-7.0-0.23","5c2cb3b41f8ea700015c44f0","C3","batch3","pattern_show_trial_num","null","<p class=block-text>Trial 63 out of 78</p>","null","","","","","","","","","","","","","","","","","","","","","","","","","",""
"","","","","","image-keyboard-response","271","770238","0.0-3.0-7.0-1.23","5c2cb3b41f8ea700015c44f0","C3","batch3","pattern_response","1339","stim/yes_29_ver_w1.png","f","pattern_53","f","true","","","","1339","true","59","","","","","","","","","","","","","","","","",""
"","","","","","html-keyboard-response","272","771550","0.0-3.0-7.0-0.24","5c2cb3b41f8ea700015c44f0","C3","batch3","pattern_show_trial_num","null","<p class=block-text>Trial 64 out of 78</p>","null","","","","","","","","","","","","","","","","","","","","","","","","","",""
"","","","","","image-keyboard-response","273","772937","0.0-3.0-7.0-1.24","5c2cb3b41f8ea700015c44f0","C3","batch3","pattern_response","1386","stim/yes_55_hor_w1_w.png","f","pattern_75","f","true","","","","1386","true","60","","","","","","","","","","","","","","","","",""
"","","","","","html-keyboard-response","274","774250","0.0-3.0-7.0-0.25","5c2cb3b41f8ea700015c44f0","C3","batch3","pattern_show_trial_num","null","<p class=block-text>Trial 65 out of 78</p>","null","","","","","","","","","","","","","","","","","","","","","","","","","",""
"","","","","","image-keyboard-response","275","777395","0.0-3.0-7.0-1.25","5c2cb3b41f8ea700015c44f0","C3","batch3","pattern_response","3144","stim/no_48_1_w.png","j","pattern_28","j","true","","","","3144","true","61","","","","","","","","","","","","","","","","",""
"","","","","","html-keyboard-response","276","778709","0.0-3.0-7.0-0.26","5c2cb3b41f8ea700015c44f0","C3","batch3","pattern_show_trial_num","null","<p class=block-text>Trial 66 out of 78</p>","null","","","","","","","","","","","","","","","","","","","","","","","","","",""
"","","","","","image-keyboard-response","277","779582","0.0-3.0-7.0-1.26","5c2cb3b41f8ea700015c44f0","C3","batch3","pattern_response","872","stim/yes_67_hor_b1.png","f","pattern_79","f","true","","","","872","true","62","","","","","","","","","","","","","","","","",""
"","","","","","html-keyboard-response","278","780887","0.0-3.0-7.0-0.27","5c2cb3b41f8ea700015c44f0","C3","batch3","pattern_show_trial_num","null","<p class=block-text>Trial 67 out of 78</p>","null","","","","","","","","","","","","","","","","","","","","","","","","","",""
"","","","","","image-keyboard-response","279","781519","0.0-3.0-7.0-1.27","5c2cb3b41f8ea700015c44f0","C3","batch3","pattern_response","631","stim/yes_14_hor_b1_w.png","f","pattern_43","f","true","","","","631","true","63","","","","","","","","","","","","","","","","",""
"","","","","","html-keyboard-response","280","782825","0.0-3.0-7.0-0.28","5c2cb3b41f8ea700015c44f0","C3","batch3","pattern_show_trial_num","null","<p class=block-text>Trial 68 out of 78</p>","null","","","","","","","","","","","","","","","","","","","","","","","","","",""
"","","","","","image-keyboard-response","281","786056","0.0-3.0-7.0-1.28","5c2cb3b41f8ea700015c44f0","C3","batch3","pattern_response","3230","stim/no_36_2_w.png","j","pattern_18","j","true","","","","3230","true","64","","","","","","","","","","","","","","","","",""
"","","","","","html-keyboard-response","282","787359","0.0-3.0-7.0-0.29","5c2cb3b41f8ea700015c44f0","C3","batch3","pattern_show_trial_num","null","<p class=block-text>Trial 69 out of 78</p>","null","","","","","","","","","","","","","","","","","","","","","","","","","",""
"","","","","","image-keyboard-response","283","788989","0.0-3.0-7.0-1.29","5c2cb3b41f8ea700015c44f0","C3","batch3","pattern_response","1627","stim/yes_35_dia_b1.png","f","pattern_57","f","true","","","","1627","true","65","","","","","","","","","","","","","","","","",""
"","","","","","html-keyboard-response","284","790298","0.0-3.0-7.0-0.30","5c2cb3b41f8ea700015c44f0","C3","batch3","pattern_show_trial_num","null","<p class=block-text>Trial 70 out of 78</p>","null","","","","","","","","","","","","","","","","","","","","","","","","","",""
"","","","","","image-keyboard-response","285","798319","0.0-3.0-7.0-1.30","5c2cb3b41f8ea700015c44f0","C3","batch3","pattern_response","8020","stim/no_65_1_b.png","j","pattern_38","j","true","","","","8020","true","66","","","","","","","","","","","","","","","","",""
"","","","","","html-keyboard-response","286","799641","0.0-3.0-7.0-0.31","5c2cb3b41f8ea700015c44f0","C3","batch3","pattern_show_trial_num","null","<p class=block-text>Trial 71 out of 78</p>","null","","","","","","","","","","","","","","","","","","","","","","","","","",""
"","","","","","image-keyboard-response","287","800904","0.0-3.0-7.0-1.31","5c2cb3b41f8ea700015c44f0","C3","batch3","pattern_response","1262","stim/no_13_2_b.png","j","pattern_02","j","true","","","","1262","true","67","","","","","","","","","","","","","","","","",""
"","","","","","html-keyboard-response","288","802214","0.0-3.0-7.0-0.32","5c2cb3b41f8ea700015c44f0","C3","batch3","pattern_show_trial_num","null","<p class=block-text>Trial 72 out of 78</p>","null","","","","","","","","","","","","","","","","","","","","","","","","","",""
"","","","","","image-keyboard-response","289","803694","0.0-3.0-7.0-1.32","5c2cb3b41f8ea700015c44f0","C3","batch3","pattern_response","1478","stim/yes_40_dia_b1_b.png","f","pattern_63","f","true","","","","1478","true","68","","","","","","","","","","","","","","","","",""
"","","","","","html-keyboard-response","290","805015","0.0-3.0-7.0-0.33","5c2cb3b41f8ea700015c44f0","C3","batch3","pattern_show_trial_num","null","<p class=block-text>Trial 73 out of 78</p>","null","","","","","","","","","","","","","","","","","","","","","","","","","",""
"","","","","","image-keyboard-response","291","806073","0.0-3.0-7.0-1.33","5c2cb3b41f8ea700015c44f0","C3","batch3","pattern_response","1056","stim/yes_38_hor_b1_b.png","f","pattern_61","f","true","","","","1056","true","69","","","","","","","","","","","","","","","","",""
"","","","","","html-keyboard-response","292","807388","0.0-3.0-7.0-0.34","5c2cb3b41f8ea700015c44f0","C3","batch3","pattern_show_trial_num","null","<p class=block-text>Trial 74 out of 78</p>","null","","","","","","","","","","","","","","","","","","","","","","","","","",""
"","","","","","image-keyboard-response","293","808658","0.0-3.0-7.0-1.34","5c2cb3b41f8ea700015c44f0","C3","batch3","pattern_response","1267","stim/no_23_1.png","j","pattern_08","j","true","","","","1267","true","70","","","","","","","","","","","","","","","","",""
"","","","","","html-keyboard-response","294","809968","0.0-3.0-7.0-0.35","5c2cb3b41f8ea700015c44f0","C3","batch3","pattern_show_trial_num","null","<p class=block-text>Trial 75 out of 78</p>","null","","","","","","","","","","","","","","","","","","","","","","","","","",""
"","","","","","image-keyboard-response","295","810998","0.0-3.0-7.0-1.35","5c2cb3b41f8ea700015c44f0","C3","batch3","pattern_response","1028","stim/yes_28_ver_b1.png","f","pattern_51","f","true","","","","1028","true","71","","","","","","","","","","","","","","","","",""
"","","","","","html-keyboard-response","296","812315","0.0-3.0-7.0-0.36","5c2cb3b41f8ea700015c44f0","C3","batch3","pattern_show_trial_num","null","<p class=block-text>Trial 76 out of 78</p>","null","","","","","","","","","","","","","","","","","","","","","","","","","",""
"","","","","","image-keyboard-response","297","813116","0.0-3.0-7.0-1.36","5c2cb3b41f8ea700015c44f0","C3","batch3","pattern_response","801","stim/yes_17_dia_w1.png","f","pattern_45","f","true","","","","801","true","72","","","","","","","","","","","","","","","","",""
"","","","","","html-keyboard-response","298","814425","0.0-3.0-7.0-0.37","5c2cb3b41f8ea700015c44f0","C3","batch3","pattern_show_trial_num","null","<p class=block-text>Trial 77 out of 78</p>","null","","","","","","","","","","","","","","","","","","","","","","","","","",""
"","","","","","image-keyboard-response","299","816038","0.0-3.0-7.0-1.37","5c2cb3b41f8ea700015c44f0","C3","batch3","pattern_response","1611","stim/no_17_1_w.png","j","pattern_04","j","true","","","","1611","true","73","","","","","","","","","","","","","","","","",""
"","","","","","html-keyboard-response","300","817352","0.0-3.0-7.0-0.38","5c2cb3b41f8ea700015c44f0","C3","batch3","pattern_show_trial_num","null","<p class=block-text>Trial 78 out of 78</p>","null","","","","","","","","","","","","","","","","","","","","","","","","","",""
"","","","","","image-keyboard-response","301","819058","0.0-3.0-7.0-1.38","5c2cb3b41f8ea700015c44f0","C3","batch3","pattern_response","1704","stim/no_26_1_w.png","j","pattern_10","j","true","","","","1704","true","74","","","","","","","","","","","","","","","","",""
"","","","","","html-button-response","302","822448","0.0-3.0-8.0","5c2cb3b41f8ea700015c44f0","C3","batch3","","2885","<p class = block-text>This concludes the 4-in-a-row detection game.Thank you for your responses!<br>
            You responded correctly on 95% of the trials.<br>
            When you are ready, press ""Continue"" button to continue </p>","0","","","","","","","","","","","","","","","","","","","","","","","","","",""
"true","","","","","fullscreen","303","824993","0.0-4.0-0.0","5c2cb3b41f8ea700015c44f0","C3","batch3","","","","","","","","","","","","","","","","","","","","","","","","","","","","","",""
"","","","","","instructions","304","854672","0.0-4.0-1.0-0.0-0.0","5c2cb3b41f8ea700015c44f0","C3","batch3","tol-instructions","29677","","","","","","","","[{""page_index"":0,""viewing_time"":8141},{""page_index"":1,""viewing_time"":3760},{""page_index"":2,""viewing_time"":1268},{""page_index"":3,""viewing_time"":8784},{""page_index"":4,""viewing_time"":3796},{""page_index"":5,""viewing_time"":1748},{""page_index"":6,""viewing_time"":2180}]","","","","","","","","","","","","","","","","","","","",""
"","","","","","html-button-response","305","855529","0.0-4.0-1.0-1.0-0.0","5c2cb3b41f8ea700015c44f0","C3","batch3","tol_enter_quiz","856","<p class=block-text> Let's answer a few questions <br>","0","","","","","","","","","","","","","","","","","","","","","","","","","",""
"","","","","","html-button-response","306","857548","0.0-4.0-1.0-1.0-1.0","5c2cb3b41f8ea700015c44f0","C3","batch3","tol_quiz","2018","<p class = block-text>True or False: You can only move the ball on top of a peg. <br></p>","0","","","true","","","","","","","","","","","","","","","","","","","","","","",""
"","","","","","html-button-response","307","858540","0.0-4.0-1.0-1.0-2.0","5c2cb3b41f8ea700015c44f0","C3","batch3","tol_quiz_feedback","991","<p class = block-text>Correct! You can only move the ball on top of a peg.</p>","0","","","","","","","","","","","","","","","","","","","","","","","","","",""
"","","","","","html-button-response","308","860616","0.0-4.0-1.0-1.0-3.0","5c2cb3b41f8ea700015c44f0","C3","batch3","tol_quiz","2075","<p class = block-text>True or False: You should try to match your board with the target board with fewest moves possible. <br></p>","0","","","true","","","","","","","","","","","","","","","","","","","","","","",""
"","","","","","html-button-response","309","861208","0.0-4.0-1.0-1.0-4.0","5c2cb3b41f8ea700015c44f0","C3","batch3","tol_quiz_feedback","590","<p class = block-text>Correct! </p>","0","","","","","","","","","","","","","","","","","","","","","","","","","",""
"","","","","","html-button-response","310","862456","0.0-4.0-2.0","5c2cb3b41f8ea700015c44f0","C3","batch3","","1247","<p class=block-text> Now that you've understood the game, let's practice a few easier examples before we start!<br> <br>","0","","","","","","","","","","","","","","","","","","","","","","","","","",""
"","","","","","single-stim-button","311","864751","0.0-4.0-3.0-0.0","5c2cb3b41f8ea700015c44f0","C3","batch3","tol_practice","2293","","","","","","","","","","","","","","tol_peg_2","2293","2293","0","[[1,2,0],[0,0],[0]]","1","[[1,2,0],[0,0],[3]]","practice","2293","","","","","",""
"","","","","","single-stim-button","312","865964","0.0-4.0-3.0-1.0","5c2cb3b41f8ea700015c44f0","C3","batch3","tol_practice","1212","","","","","","","","","","","","","","tol_peg_3","1212","1212","0","[[1,2,0],[0,0],[3]]","1","[[1,2,0],[0,0],[3]]","practice","1212","","","","","",""
"","","","","","poldrack-single-stim","313","866974","0.0-4.0-4.0","5c2cb3b41f8ea700015c44f0","C3","batch3","tol_feedback","-1","","","","","true","","","","","","","","","","1000","1000","500","","","","","","-1","none","true","","0",""
"","","","","","single-stim-button","314","869868","0.0-4.0-5.0-0.0","5c2cb3b41f8ea700015c44f0","C3","batch3","tol_practice","2894","","","","","","","","","","","","","","tol_peg_1","2894","2894","0","[[1,0,0],[3,0],[0]]","2","[[0,0,0],[3,1],[2]]","practice","2894","","","","","",""
"","","","","","single-stim-button","315","870748","0.0-4.0-5.0-1.0","5c2cb3b41f8ea700015c44f0","C3","batch3","tol_practice","879","","","","","","","","","","","","","","tol_peg_3","879","879","0","[[1,0,0],[3,0],[2]]","2","[[0,0,0],[3,1],[2]]","practice","879","","","","","",""
"","","","","","single-stim-button","316","871948","0.0-4.0-5.1-0.1","5c2cb3b41f8ea700015c44f0","C3","batch3","tol_practice","1199","","","","","","","","","","","","","","tol_peg_1","1199","1199","0","[[0,0,0],[3,0],[2]]","3","[[0,0,0],[3,1],[2]]","practice","1199","","","","","",""
"","","","","","single-stim-button","317","872880","0.0-4.0-5.1-1.1","5c2cb3b41f8ea700015c44f0","C3","batch3","tol_practice","932","","","","","","","","","","","","","","tol_peg_2","932","932","0","[[0,0,0],[3,1],[2]]","3","[[0,0,0],[3,1],[2]]","practice","932","","","","","",""
"","","","","","poldrack-single-stim","318","873884","0.0-4.0-6.0","5c2cb3b41f8ea700015c44f0","C3","batch3","tol_feedback","-1","","","","","true","","","","","","","","","","1000","1000","500","","","","","","-1","none","true","","0",""
"","","","","","single-stim-button","319","876380","0.0-4.0-7.0-0.0","5c2cb3b41f8ea700015c44f0","C3","batch3","tol_practice","2496","","","","","","","","","","","","","","tol_peg_2","2496","2496","0","[[1,2,0],[0,0],[0]]","4","[[1,0,0],[2,0],[3]]","practice","2496","","","","","",""
"","","","","","single-stim-button","320","877404","0.0-4.0-7.0-1.0","5c2cb3b41f8ea700015c44f0","C3","batch3","tol_practice","1023","","","","","","","","","","","","","","tol_peg_3","1023","1023","0","[[1,2,0],[0,0],[3]]","4","[[1,0,0],[2,0],[3]]","practice","1023","","","","","",""
"","","","","","single-stim-button","321","878108","0.0-4.0-7.1-0.1","5c2cb3b41f8ea700015c44f0","C3","batch3","tol_practice","703","","","","","","","","","","","","","","tol_peg_1","703","703","0","[[1,0,0],[0,0],[3]]","5","[[1,0,0],[2,0],[3]]","practice","703","","","","","",""
"","","","","","single-stim-button","322","878992","0.0-4.0-7.1-1.1","5c2cb3b41f8ea700015c44f0","C3","batch3","tol_practice","883","","","","","","","","","","","","","","tol_peg_2","883","883","0","[[1,0,0],[2,0],[3]]","5","[[1,0,0],[2,0],[3]]","practice","883","","","","","",""
"","","","","","poldrack-single-stim","323","879993","0.0-4.0-8.0","5c2cb3b41f8ea700015c44f0","C3","batch3","tol_feedback","-1","","","","","true","","","","","","","","","","1000","1000","500","","","","","","-1","none","true","","0",""
"","","","","","html-button-response","324","881880","0.0-4.0-9.0","5c2cb3b41f8ea700015c44f0","C3","batch3","tol_instruction","1886","<div class = centerbox><p class = center-block-text>Great job! You are done with practice trials<br>You are about to start official trials.<br> <br> Problem <strong>1</strong> out of 25 problems</p></div>","0","","","","","","","","","","","","","","","","","","","","","","","","","",""
"","","","","","single-stim-button","325","885128","0.0-4.0-10.0-0.0","5c2cb3b41f8ea700015c44f0","C3","batch3","tol_tohand","2245","","","","","","","","","","","","","","tol_peg_1","2245","2245","0","[[1,0,0],[3,0],[0]]","1","[[1,3,0],[2,0],[0]]","0","0","","","","","","3"
"","","","","","single-stim-button","326","886456","0.0-4.0-10.0-1.0","5c2cb3b41f8ea700015c44f0","C3","batch3","tol_toboard","1327","","","","","","","","","","","","","","tol_peg_3","1327","1327","0","[[1,0,0],[3,0],[2]]","1","[[1,3,0],[2,0],[0]]","0","0","","","","","","3"
"","","","","","single-stim-button","327","887000","0.0-4.0-10.1-0.1","5c2cb3b41f8ea700015c44f0","C3","batch3","tol_tohand","543","","","","","","","","","","","","","","tol_peg_2","543","543","0","[[1,0,0],[0,0],[2]]","2","[[1,3,0],[2,0],[0]]","0","0","","","","","","3"
"","","","","","single-stim-button","328","887868","0.0-4.0-10.1-1.1","5c2cb3b41f8ea700015c44f0","C3","batch3","tol_toboard","867","","","","","","","","","","","","","","tol_peg_1","867","867","0","[[1,3,0],[0,0],[2]]","2","[[1,3,0],[2,0],[0]]","0","0","","","","","","3"
"","","","","","single-stim-button","329","888700","0.0-4.0-10.2-0.2","5c2cb3b41f8ea700015c44f0","C3","batch3","tol_tohand","831","","","","","","","","","","","","","","tol_peg_3","831","831","0","[[1,3,0],[0,0],[0]]","3","[[1,3,0],[2,0],[0]]","0","0","","","","","","3"
"","","","","","single-stim-button","330","889468","0.0-4.0-10.2-1.2","5c2cb3b41f8ea700015c44f0","C3","batch3","tol_toboard","767","","","","","","","","","","","","","","tol_peg_2","767","767","0","[[1,3,0],[2,0],[0]]","3","[[1,3,0],[2,0],[0]]","0","0","","","","","","3"
"","","","","","poldrack-single-stim","331","890469","0.0-4.0-11.0","5c2cb3b41f8ea700015c44f0","C3","batch3","tol_feedback","-1","","","","","true","","","","","","","","","","1000","1000","500","","","","","","-1","none","true","2245","3619",""
"","","","","","html-button-response","332","891696","0.0-4.0-12.0","5c2cb3b41f8ea700015c44f0","C3","batch3","tol_trial_num","1225","<div class = centerbox><p class = center-block-text>problem <strong>2</strong> out of 25 problems</p></div>","0","","","","","","","","","","","","","","","","","","","","","","","","","",""
"","","","","","single-stim-button","333","893536","0.0-4.0-13.0-0.0","5c2cb3b41f8ea700015c44f0","C3","batch3","tol_tohand","1840","","","","","","","","","","","","","","tol_peg_1","1840","1840","0","[[1,0,0],[3,0],[0]]","1","[[2,1,3],[0,0],[0]]","1","0","","","","","","5"
"","","","","","single-stim-button","334","895805","0.0-4.0-13.0-1.0","5c2cb3b41f8ea700015c44f0","C3","batch3","tol_toboard","2268","","","","","","","","","","","","","","tol_peg_3","2268","2268","0","[[1,0,0],[3,0],[2]]","1","[[2,1,3],[0,0],[0]]","1","0","","","","","","5"
"","","","","","single-stim-button","335","896573","0.0-4.0-13.1-0.1","5c2cb3b41f8ea700015c44f0","C3","batch3","tol_tohand","767","","","","","","","","","","","","","","tol_peg_1","767","767","0","[[0,0,0],[3,0],[2]]","2","[[2,1,3],[0,0],[0]]","1","0","","","","","","5"
"","","","","","single-stim-button","336","897440","0.0-4.0-13.1-1.1","5c2cb3b41f8ea700015c44f0","C3","batch3","tol_toboard","867","","","","","","","","","","","","","","tol_peg_2","867","867","0","[[0,0,0],[3,1],[2]]","2","[[2,1,3],[0,0],[0]]","1","0","","","","","","5"
"","","","","","single-stim-button","337","898048","0.0-4.0-13.2-0.2","5c2cb3b41f8ea700015c44f0","C3","batch3","tol_tohand","607","","","","","","","","","","","","","","tol_peg_3","607","607","0","[[0,0,0],[3,1],[0]]","3","[[2,1,3],[0,0],[0]]","1","0","","","","","","5"
"","","","","","single-stim-button","338","898816","0.0-4.0-13.2-1.2","5c2cb3b41f8ea700015c44f0","C3","batch3","tol_toboard","767","","","","","","","","","","","","","","tol_peg_1","767","767","0","[[2,0,0],[3,1],[0]]","3","[[2,1,3],[0,0],[0]]","1","0","","","","","","5"
"","","","","","single-stim-button","339","899536","0.0-4.0-13.3-0.3","5c2cb3b41f8ea700015c44f0","C3","batch3","tol_tohand","719","","","","","","","","","","","","","","tol_peg_2","719","719","0","[[2,0,0],[3,0],[0]]","4","[[2,1,3],[0,0],[0]]","1","0","","","","","","5"
"","","","","","single-stim-button","340","900084","0.0-4.0-13.3-1.3","5c2cb3b41f8ea700015c44f0","C3","batch3","tol_toboard","547","","","","","","","","","","","","","","tol_peg_1","547","547","0","[[2,1,0],[3,0],[0]]","4","[[2,1,3],[0,0],[0]]","1","0","","","","","","5"
"","","","","","single-stim-button","341","900564","0.0-4.0-13.4-0.4","5c2cb3b41f8ea700015c44f0","C3","batch3","tol_tohand","479","","","","","","","","","","","","","","tol_peg_2","479","479","0","[[2,1,0],[0,0],[0]]","5","[[2,1,3],[0,0],[0]]","1","0","","","","","","5"
"","","","","","single-stim-button","342","901365","0.0-4.0-13.4-1.4","5c2cb3b41f8ea700015c44f0","C3","batch3","tol_toboard","799","","","","","","","","","","","","","","tol_peg_1","799","799","0","[[2,1,3],[0,0],[0]]","5","[[2,1,3],[0,0],[0]]","1","0","","","","","","5"
"","","","","","poldrack-single-stim","343","902379","0.0-4.0-14.0","5c2cb3b41f8ea700015c44f0","C3","batch3","tol_feedback","-1","","","","","true","","","","","","","","","","1000","1000","500","","","","","","-1","none","true","1840","4412",""
"","","","","","html-button-response","344","903449","0.0-4.0-15.0","5c2cb3b41f8ea700015c44f0","C3","batch3","tol_trial_num","1068","<div class = centerbox><p class = center-block-text>problem <strong>3</strong> out of 25 problems</p></div>","0","","","","","","","","","","","","","","","","","","","","","","","","","",""
"","","","","","single-stim-button","345","904841","0.0-4.0-16.0-0.0","5c2cb3b41f8ea700015c44f0","C3","batch3","tol_tohand","1390","","","","","","","","","","","","","","tol_peg_1","1390","1390","0","[[2,0,0],[0,0],[1]]","1","[[1,2,0],[3,0],[0]]","2","0","","","","","","4"
"","","","","","single-stim-button","346","907308","0.0-4.0-16.0-1.0","5c2cb3b41f8ea700015c44f0","C3","batch3","tol_toboard","2467","","","","","","","","","","","","","","tol_peg_2","2467","2467","0","[[2,0,0],[3,0],[1]]","1","[[1,2,0],[3,0],[0]]","2","0","","","","","","4"
"","","","","","single-stim-button","347","907773","0.0-4.0-16.1-0.1","5c2cb3b41f8ea700015c44f0","C3","batch3","tol_tohand","464","","","","","","","","","","","","","","tol_peg_1","464","464","0","[[0,0,0],[3,0],[1]]","2","[[1,2,0],[3,0],[0]]","2","0","","","","","","4"
"","","","","","single-stim-button","348","908477","0.0-4.0-16.1-1.1","5c2cb3b41f8ea700015c44f0","C3","batch3","tol_toboard","702","","","","","","","","","","","","","","tol_peg_2","702","702","0","[[0,0,0],[3,2],[1]]","2","[[1,2,0],[3,0],[0]]","2","0","","","","","","4"
"","","","","","single-stim-button","349","909089","0.0-4.0-16.2-0.2","5c2cb3b41f8ea700015c44f0","C3","batch3","tol_tohand","611","","","","","","","","","","","","","","tol_peg_3","611","611","0","[[0,0,0],[3,2],[0]]","3","[[1,2,0],[3,0],[0]]","2","0","","","","","","4"
"","","","","","single-stim-button","350","909857","0.0-4.0-16.2-1.2","5c2cb3b41f8ea700015c44f0","C3","batch3","tol_toboard","767","","","","","","","","","","","","","","tol_peg_1","767","767","0","[[1,0,0],[3,2],[0]]","3","[[1,2,0],[3,0],[0]]","2","0","","","","","","4"
"","","","","","single-stim-button","351","910577","0.0-4.0-16.3-0.3","5c2cb3b41f8ea700015c44f0","C3","batch3","tol_tohand","719","","","","","","","","","","","","","","tol_peg_2","719","719","0","[[1,0,0],[3,0],[0]]","4","[[1,2,0],[3,0],[0]]","2","0","","","","","","4"
"","","","","","single-stim-button","352","911313","0.0-4.0-16.3-1.3","5c2cb3b41f8ea700015c44f0","C3","batch3","tol_toboard","736","","","","","","","","","","","","","","tol_peg_1","736","736","0","[[1,2,0],[3,0],[0]]","4","[[1,2,0],[3,0],[0]]","2","0","","","","","","4"
"","","","","","poldrack-single-stim","353","912316","0.0-4.0-17.0","5c2cb3b41f8ea700015c44f0","C3","batch3","tol_feedback","-1","","","","","true","","","","","","","","","","1000","1000","500","","","","","","-1","none","true","1390","3184",""
"","","","","","html-button-response","354","913348","0.0-4.0-18.0","5c2cb3b41f8ea700015c44f0","C3","batch3","tol_trial_num","1031","<div class = centerbox><p class = center-block-text>problem <strong>4</strong> out of 25 problems</p></div>","0","","","","","","","","","","","","","","","","","","","","","","","","","",""
"","","","","","single-stim-button","355","916216","0.0-4.0-19.0-0.0","5c2cb3b41f8ea700015c44f0","C3","batch3","tol_tohand","2867","","","","","","","","","","","","","","tol_peg_2","2867","2867","0","[[3,0,0],[2,0],[0]]","1","[[3,0,0],[1,0],[2]]","3","0","","","","","","3"
"","","","","","single-stim-button","356","917801","0.0-4.0-19.0-1.0","5c2cb3b41f8ea700015c44f0","C3","batch3","tol_toboard","1583","","","","","","","","","","","","","","tol_peg_3","1583","1583","0","[[3,0,0],[2,0],[1]]","1","[[3,0,0],[1,0],[2]]","3","0","","","","","","3"
"","","","","","single-stim-button","357","918237","0.0-4.0-19.1-0.1","5c2cb3b41f8ea700015c44f0","C3","batch3","tol_tohand","436","","","","","","","","","","","","","","tol_peg_2","436","436","0","[[3,0,0],[0,0],[1]]","2","[[3,0,0],[1,0],[2]]","3","0","","","","","","3"
"","","","","","single-stim-button","358","918957","0.0-4.0-19.1-1.1","5c2cb3b41f8ea700015c44f0","C3","batch3","tol_toboard","719","","","","","","","","","","","","","","tol_peg_1","719","719","0","[[3,2,0],[0,0],[1]]","2","[[3,0,0],[1,0],[2]]","3","0","","","","","","3"
"","","","","","single-stim-button","359","919597","0.0-4.0-19.2-0.2","5c2cb3b41f8ea700015c44f0","C3","batch3","tol_tohand","639","","","","","","","","","","","","","","tol_peg_3","639","639","0","[[3,2,0],[0,0],[0]]","3","[[3,0,0],[1,0],[2]]","3","0","","","","","","3"
"","","","","","single-stim-button","360","920140","0.0-4.0-19.2-1.2","5c2cb3b41f8ea700015c44f0","C3","batch3","tol_toboard","542","","","","","","","","","","","","","","tol_peg_2","542","542","0","[[3,2,0],[1,0],[0]]","3","[[3,0,0],[1,0],[2]]","3","0","","","","","","3"
