"success","timeout","failed_images","failed_audio","failed_video","trial_type","trial_index","time_elapsed","internal_node_id","subject_id","study_id","session_id","view_history","rt","stimulus","response","task","correct","answer","item","fiar_detect_rt","fiar_detect_correct","total_correct_fiar_detect","post_trial_gap","choices","mouse_click","stim_duration","block_duration","timing_post_trial","current_position","tol_num_moves_made","tol_target","tol_problem_id","tol_rt","key_press","possible_responses","tol_correct","preplanning","tol_rt_per_trial","tol_min_moves","spm_correct","spm_rt"
"true","false","[]","[]","[]","preload","0","6272","0.0-0.0","5c2ef42ffe2f3d000130b47b","B2","batch2","","","","","","","","","","","","","","","","","","","","","","","","","","","","","",""
"true","","","","","fullscreen","1","28472","0.0-1.0-0.0","5c2ef42ffe2f3d000130b47b","B2","batch2","","","","","","","","","","","","","","","","","","","","","","","","","","","","","",""
"true","","","","","fullscreen","2","32402","0.0-2.0-0.0","5c2ef42ffe2f3d000130b47b","B2","batch2","","","","","","","","","","","","","","","","","","","","","","","","","","","","","",""
"","","","","","instructions","3","73626","0.0-2.0-1.0-0.0","5c2ef42ffe2f3d000130b47b","B2","batch2","[{""page_index"":0,""viewing_time"":26147},{""page_index"":1,""viewing_time"":15068}]","41216","","","","","","","","","","","","","","","","","","","","","","","","","","","",""
"","","","","","html-button-response","4","77258","0.0-2.0-1.0-1.0-0.0","5c2ef42ffe2f3d000130b47b","B2","batch2","","3624","<p class=block-text> Let's answer a few questions <br>","0","pattern_enter_quiz","","","","","","","","","","","","","","","","","","","","","","","","",""
"","","","","","html-button-response","5","92587","0.0-2.0-1.0-1.0-1.0","5c2ef42ffe2f3d000130b47b","B2","batch2","","15320","<p class = block-text>True or False: You will have as much time as you want to make each choice. <br></p>","1","pattern_quiz","true","","","","","","","","","","","","","","","","","","","","","","","",""
"","","","","","html-button-response","6","95443","0.0-2.0-1.0-1.0-2.0","5c2ef42ffe2f3d000130b47b","B2","batch2","","2851","<p class = block-text>Correct! You should make your choice <strong> as fast as you can</strong>.</p>","0","pattern_quiz_feedback","","","","","","","","","","","","","","","","","","","","","","","","",""
"","","","","","html-button-response","7","103964","0.0-2.0-1.0-1.0-3.0","5c2ef42ffe2f3d000130b47b","B2","batch2","","8516","<p class = block-text>True or False: You will look for 4 pieces in black or white color connected in a row either horizontally, vertically or diagonally. <br></p>","0","pattern_quiz","true","","","","","","","","","","","","","","","","","","","","","","","",""
"","","","","","html-button-response","8","105188","0.0-2.0-1.0-1.0-4.0","5c2ef42ffe2f3d000130b47b","B2","batch2","","1218","<p class = block-text>Correct! </p>","0","pattern_quiz_feedback","","","","","","","","","","","","","","","","","","","","","","","","",""
"","","","","","html-button-response","9","108653","0.0-2.0-2.0","5c2ef42ffe2f3d000130b47b","B2","batch2","","3457","<p class=block-text> Now that you've understood the game, let's do a few practice trials before we start!<br> <br>","0","pattern_enter_practice","","","","","","","","","","","","","","","","","","","","","","","","",""
"","","","","","image-keyboard-response","10","113242","0.0-2.0-3.0-0.0","5c2ef42ffe2f3d000130b47b","B2","batch2","","4561","stim/prac_no_16_1.png","j","pattern_practice","true","j","","","","","","","","","","","","","","","","","","","","","","",""
"","","","","","html-keyboard-response","11","114249","0.0-2.0-3.0-1.0","5c2ef42ffe2f3d000130b47b","B2","batch2","","null","<p style=""font-size:30px;color:green;"">Correct!</p>","null","pattern_feedback","","","","","","","","","","","","","","","","","","","","","","","","",""
"","","","","","image-keyboard-response","12","115419","0.0-2.0-3.0-0.1","5c2ef42ffe2f3d000130b47b","B2","batch2","","1143","stim/prac_yes_18_hor_w1.png","f","pattern_practice","true","f","","","","","","","","","","","","","","","","","","","","","","",""
"","","","","","html-keyboard-response","13","116422","0.0-2.0-3.0-1.1","5c2ef42ffe2f3d000130b47b","B2","batch2","","null","<p style=""font-size:30px;color:green;"">Correct!</p>","null","pattern_feedback","","","","","","","","","","","","","","","","","","","","","","","","",""
"","","","","","image-keyboard-response","14","117975","0.0-2.0-3.0-0.2","5c2ef42ffe2f3d000130b47b","B2","batch2","","1526","stim/prac_no_18_1.png","j","pattern_practice","true","j","","","","","","","","","","","","","","","","","","","","","","",""
"","","","","","html-keyboard-response","15","118978","0.0-2.0-3.0-1.2","5c2ef42ffe2f3d000130b47b","B2","batch2","","null","<p style=""font-size:30px;color:green;"">Correct!</p>","null","pattern_feedback","","","","","","","","","","","","","","","","","","","","","","","","",""
"","","","","","image-keyboard-response","16","121225","0.0-2.0-3.0-0.3","5c2ef42ffe2f3d000130b47b","B2","batch2","","2222","stim/prac_yes_20_dia_b1.png","f","pattern_practice","true","f","","","","","","","","","","","","","","","","","","","","","","",""
"","","","","","html-keyboard-response","17","122229","0.0-2.0-3.0-1.3","5c2ef42ffe2f3d000130b47b","B2","batch2","","null","<p style=""font-size:30px;color:green;"">Correct!</p>","null","pattern_feedback","","","","","","","","","","","","","","","","","","","","","","","","",""
"","","","","","image-keyboard-response","18","123595","0.0-2.0-3.0-0.4","5c2ef42ffe2f3d000130b47b","B2","batch2","","1340","stim/prac_yes_16_ver_w1.png","f","pattern_practice","true","f","","","","","","","","","","","","","","","","","","","","","","",""
"","","","","","html-keyboard-response","19","124598","0.0-2.0-3.0-1.4","5c2ef42ffe2f3d000130b47b","B2","batch2","","null","<p style=""font-size:30px;color:green;"">Correct!</p>","null","pattern_feedback","","","","","","","","","","","","","","","","","","","","","","","","",""
"","","","","","html-button-response","20","133333","0.0-2.0-4.0","5c2ef42ffe2f3d000130b47b","B2","batch2","","8732","<p class=block-text> Good job! You are done with practice trials!<br>
        You responded correctly on 100% of the trials.<br>
        Press the button below to start official trials. Now you won't see any feedback about your response</p>","0","pattern_enter_official_trials","","","","","","","","","","","","","","","","","","","","","","","","",""
"","","","","","html-keyboard-response","21","134138","0.0-2.0-5.0-0.0","5c2ef42ffe2f3d000130b47b","B2","batch2","","null","<p class=block-text>Trial 1 out of 78</p>","null","pattern_show_trial_num","","","","","","","","","","","","","","","","","","","","","","","","",""
"","","","","","image-keyboard-response","22","137675","0.0-2.0-5.0-1.0","5c2ef42ffe2f3d000130b47b","B2","batch2","","3511","stim/no_25_1_b.png","j","pattern_response","true","j","pattern_09","3511","true","1","","","","","","","","","","","","","","","","","","",""
"","","","","","html-keyboard-response","23","138979","0.0-2.0-5.0-0.1","5c2ef42ffe2f3d000130b47b","B2","batch2","","null","<p class=block-text>Trial 2 out of 78</p>","null","pattern_show_trial_num","","","","","","","","","","","","","","","","","","","","","","","","",""
"","","","","","image-keyboard-response","24","142859","0.0-2.0-5.0-1.1","5c2ef42ffe2f3d000130b47b","B2","batch2","","3855","stim/no_45_1_w.png","j","pattern_response","true","j","pattern_25","3855","true","2","","","","","","","","","","","","","","","","","","",""
"","","","","","html-keyboard-response","25","144163","0.0-2.0-5.0-0.2","5c2ef42ffe2f3d000130b47b","B2","batch2","","null","<p class=block-text>Trial 3 out of 78</p>","null","pattern_show_trial_num","","","","","","","","","","","","","","","","","","","","","","","","",""
"","","","","","image-keyboard-response","26","145647","0.0-2.0-5.0-1.2","5c2ef42ffe2f3d000130b47b","B2","batch2","","1460","stim/yes_46_ver_b1_b.png","f","pattern_response","true","f","pattern_68","1460","true","3","","","","","","","","","","","","","","","","","","",""
"","","","","","html-keyboard-response","27","146950","0.0-2.0-5.0-0.3","5c2ef42ffe2f3d000130b47b","B2","batch2","","null","<p class=block-text>Trial 4 out of 78</p>","null","pattern_show_trial_num","","","","","","","","","","","","","","","","","","","","","","","","",""
"","","","","","image-keyboard-response","28","150616","0.0-2.0-5.0-1.3","5c2ef42ffe2f3d000130b47b","B2","batch2","","3640","stim/no_36_1_b.png","j","pattern_response","true","j","pattern_17","3640","true","4","","","","","","","","","","","","","","","","","","",""
"","","","","","html-keyboard-response","29","151920","0.0-2.0-5.0-0.4","5c2ef42ffe2f3d000130b47b","B2","batch2","","null","<p class=block-text>Trial 5 out of 78</p>","null","pattern_show_trial_num","","","","","","","","","","","","","","","","","","","","","","","","",""
"","","","","","image-keyboard-response","30","158061","0.0-2.0-5.0-1.4","5c2ef42ffe2f3d000130b47b","B2","batch2","","6116","stim/yes_51_dia_b1.png","j","pattern_response","false","f","pattern_72","6116","false","4","","","","","","","","","","","","","","","","","","",""
"","","","","","html-keyboard-response","31","159364","0.0-2.0-5.0-0.5","5c2ef42ffe2f3d000130b47b","B2","batch2","","null","<p class=block-text>Trial 6 out of 78</p>","null","pattern_show_trial_num","","","","","","","","","","","","","","","","","","","","","","","","",""
"","","","","","image-keyboard-response","32","164214","0.0-2.0-5.0-1.5","5c2ef42ffe2f3d000130b47b","B2","batch2","","4824","stim/yes_42_dia_w1_w.png","j","pattern_response","false","f","pattern_64","4824","false","4","","","","","","","","","","","","","","","","","","",""
"","","","","","html-keyboard-response","33","165517","0.0-2.0-5.0-0.6","5c2ef42ffe2f3d000130b47b","B2","batch2","","null","<p class=block-text>Trial 7 out of 78</p>","null","pattern_show_trial_num","","","","","","","","","","","","","","","","","","","","","","","","",""
"","","","","","image-keyboard-response","34","166847","0.0-2.0-5.0-1.6","5c2ef42ffe2f3d000130b47b","B2","batch2","","1306","stim/yes_30_ver_b1_b.png","f","pattern_response","true","f","pattern_54","1306","true","5","","","","","","","","","","","","","","","","","","",""
"","","","","","html-keyboard-response","35","168149","0.0-2.0-5.0-0.7","5c2ef42ffe2f3d000130b47b","B2","batch2","","null","<p class=block-text>Trial 8 out of 78</p>","null","pattern_show_trial_num","","","","","","","","","","","","","","","","","","","","","","","","",""
"","","","","","image-keyboard-response","36","169032","0.0-2.0-5.0-1.7","5c2ef42ffe2f3d000130b47b","B2","batch2","","856","stim/yes_29_hor_b1_b.png","f","pattern_response","true","f","pattern_52","856","true","6","","","","","","","","","","","","","","","","","","",""
"","","","","","html-keyboard-response","37","170335","0.0-2.0-5.0-0.8","5c2ef42ffe2f3d000130b47b","B2","batch2","","null","<p class=block-text>Trial 9 out of 78</p>","null","pattern_show_trial_num","","","","","","","","","","","","","","","","","","","","","","","","",""
"","","","","","image-keyboard-response","38","171558","0.0-2.0-5.0-1.8","5c2ef42ffe2f3d000130b47b","B2","batch2","","1197","stim/yes_23_ver_b1.png","f","pattern_response","true","f","pattern_48","1197","true","7","","","","","","","","","","","","","","","","","","",""
"","","","","","html-keyboard-response","39","172859","0.0-2.0-5.0-0.9","5c2ef42ffe2f3d000130b47b","B2","batch2","","null","<p class=block-text>Trial 10 out of 78</p>","null","pattern_show_trial_num","","","","","","","","","","","","","","","","","","","","","","","","",""
"","","","","","image-keyboard-response","40","180327","0.0-2.0-5.0-1.9","5c2ef42ffe2f3d000130b47b","B2","batch2","","7443","stim/yes_63_dia_b1.png","j","pattern_response","false","f","pattern_78","7443","false","7","","","","","","","","","","","","","","","","","","",""
"","","","","","html-keyboard-response","41","181629","0.0-2.0-5.0-0.10","5c2ef42ffe2f3d000130b47b","B2","batch2","","null","<p class=block-text>Trial 11 out of 78</p>","null","pattern_show_trial_num","","","","","","","","","","","","","","","","","","","","","","","","",""
"","","","","","image-keyboard-response","42","184188","0.0-2.0-5.0-1.10","5c2ef42ffe2f3d000130b47b","B2","batch2","","2535","stim/yes_37_hor_w1_w.png","f","pattern_response","true","f","pattern_60","2535","true","8","","","","","","","","","","","","","","","","","","",""
"","","","","","html-keyboard-response","43","185491","0.0-2.0-5.0-0.11","5c2ef42ffe2f3d000130b47b","B2","batch2","","null","<p class=block-text>Trial 12 out of 78</p>","null","pattern_show_trial_num","","","","","","","","","","","","","","","","","","","","","","","","",""
"","","","","","image-keyboard-response","44","189446","0.0-2.0-5.0-1.11","5c2ef42ffe2f3d000130b47b","B2","batch2","","3930","stim/no_43_2_b.png","j","pattern_response","true","j","pattern_23","3930","true","9","","","","","","","","","","","","","","","","","","",""
"","","","","","html-keyboard-response","45","190749","0.0-2.0-5.0-0.12","5c2ef42ffe2f3d000130b47b","B2","batch2","","null","<p class=block-text>Trial 13 out of 78</p>","null","pattern_show_trial_num","","","","","","","","","","","","","","","","","","","","","","","","",""
"","","","","","image-keyboard-response","46","197828","0.0-2.0-5.0-1.12","5c2ef42ffe2f3d000130b47b","B2","batch2","","7054","stim/no_53_1_b.png","j","pattern_response","true","j","pattern_33","7054","true","10","","","","","","","","","","","","","","","","","","",""
"","","","","","html-keyboard-response","47","199130","0.0-2.0-5.0-0.13","5c2ef42ffe2f3d000130b47b","B2","batch2","","null","<p class=block-text>Trial 14 out of 78</p>","null","pattern_show_trial_num","","","","","","","","","","","","","","","","","","","","","","","","",""
"","","","","","image-keyboard-response","48","200704","0.0-2.0-5.0-1.13","5c2ef42ffe2f3d000130b47b","B2","batch2","","1552","stim/no_12_1.png","j","pattern_response","true","j","pattern_01","1552","true","11","","","","","","","","","","","","","","","","","","",""
"","","","","","html-keyboard-response","49","202007","0.0-2.0-5.0-0.14","5c2ef42ffe2f3d000130b47b","B2","batch2","","null","<p class=block-text>Trial 15 out of 78</p>","null","pattern_show_trial_num","","","","","","","","","","","","","","","","","","","","","","","","",""
"","","","","","image-keyboard-response","50","203146","0.0-2.0-5.0-1.14","5c2ef42ffe2f3d000130b47b","B2","batch2","","1113","stim/yes_17_ver_b1_b.png","f","pattern_response","true","f","pattern_46","1113","true","12","","","","","","","","","","","","","","","","","","",""
"","","","","","html-keyboard-response","51","204449","0.0-2.0-5.0-0.15","5c2ef42ffe2f3d000130b47b","B2","batch2","","null","<p class=block-text>Trial 16 out of 78</p>","null","pattern_show_trial_num","","","","","","","","","","","","","","","","","","","","","","","","",""
"","","","","","image-keyboard-response","52","207084","0.0-2.0-5.0-1.15","5c2ef42ffe2f3d000130b47b","B2","batch2","","2610","stim/no_30_1_b.png","j","pattern_response","true","j","pattern_13","2610","true","13","","","","","","","","","","","","","","","","","","",""
"","","","","","html-keyboard-response","53","208387","0.0-2.0-5.0-0.16","5c2ef42ffe2f3d000130b47b","B2","batch2","","null","<p class=block-text>Trial 17 out of 78</p>","null","pattern_show_trial_num","","","","","","","","","","","","","","","","","","","","","","","","",""
"","","","","","image-keyboard-response","54","212857","0.0-2.0-5.0-1.16","5c2ef42ffe2f3d000130b47b","B2","batch2","","4445","stim/yes_58_dia_w1_w.png","j","pattern_response","false","f","pattern_76","4445","false","13","","","","","","","","","","","","","","","","","","",""
"","","","","","html-keyboard-response","55","214159","0.0-2.0-5.0-0.17","5c2ef42ffe2f3d000130b47b","B2","batch2","","null","<p class=block-text>Trial 18 out of 78</p>","null","pattern_show_trial_num","","","","","","","","","","","","","","","","","","","","","","","","",""
"","","","","","image-keyboard-response","56","216111","0.0-2.0-5.0-1.17","5c2ef42ffe2f3d000130b47b","B2","batch2","","1924","stim/yes_33_dia_w1_w.png","f","pattern_response","true","f","pattern_56","1924","true","14","","","","","","","","","","","","","","","","","","",""
"","","","","","html-keyboard-response","57","217414","0.0-2.0-5.0-0.18","5c2ef42ffe2f3d000130b47b","B2","batch2","","null","<p class=block-text>Trial 19 out of 78</p>","null","pattern_show_trial_num","","","","","","","","","","","","","","","","","","","","","","","","",""
"","","","","","image-keyboard-response","58","218699","0.0-2.0-5.0-1.18","5c2ef42ffe2f3d000130b47b","B2","batch2","","1262","stim/yes_44_ver_w1_w.png","f","pattern_response","true","f","pattern_66","1262","true","15","","","","","","","","","","","","","","","","","","",""
"","","","","","html-keyboard-response","59","220002","0.0-2.0-5.0-0.19","5c2ef42ffe2f3d000130b47b","B2","batch2","","null","<p class=block-text>Trial 20 out of 78</p>","null","pattern_show_trial_num","","","","","","","","","","","","","","","","","","","","","","","","",""
"","","","","","image-keyboard-response","60","222472","0.0-2.0-5.0-1.19","5c2ef42ffe2f3d000130b47b","B2","batch2","","2443","stim/no_47_1_b.png","j","pattern_response","true","j","pattern_27","2443","true","16","","","","","","","","","","","","","","","","","","",""
"","","","","","html-keyboard-response","61","223775","0.0-2.0-5.0-0.20","5c2ef42ffe2f3d000130b47b","B2","batch2","","null","<p class=block-text>Trial 21 out of 78</p>","null","pattern_show_trial_num","","","","","","","","","","","","","","","","","","","","","","","","",""
"","","","","","image-keyboard-response","62","225523","0.0-2.0-5.0-1.20","5c2ef42ffe2f3d000130b47b","B2","batch2","","1722","stim/yes_26_dia_w2_w.png","f","pattern_response","true","f","pattern_50","1722","true","17","","","","","","","","","","","","","","","","","","",""
"","","","","","html-keyboard-response","63","226826","0.0-2.0-5.0-0.21","5c2ef42ffe2f3d000130b47b","B2","batch2","","null","<p class=block-text>Trial 22 out of 78</p>","null","pattern_show_trial_num","","","","","","","","","","","","","","","","","","","","","","","","",""
"","","","","","image-keyboard-response","64","231956","0.0-2.0-5.0-1.21","5c2ef42ffe2f3d000130b47b","B2","batch2","","5104","stim/no_22_1_b.png","j","pattern_response","true","j","pattern_07","5104","true","18","","","","","","","","","","","","","","","","","","",""
"","","","","","html-keyboard-response","65","233258","0.0-2.0-5.0-0.22","5c2ef42ffe2f3d000130b47b","B2","batch2","","null","<p class=block-text>Trial 23 out of 78</p>","null","pattern_show_trial_num","","","","","","","","","","","","","","","","","","","","","","","","",""
"","","","","","image-keyboard-response","66","236820","0.0-2.0-5.0-1.22","5c2ef42ffe2f3d000130b47b","B2","batch2","","3537","stim/no_33_1_b.png","j","pattern_response","true","j","pattern_15","3537","true","19","","","","","","","","","","","","","","","","","","",""
"","","","","","html-keyboard-response","67","238123","0.0-2.0-5.0-0.23","5c2ef42ffe2f3d000130b47b","B2","batch2","","null","<p class=block-text>Trial 24 out of 78</p>","null","pattern_show_trial_num","","","","","","","","","","","","","","","","","","","","","","","","",""
"","","","","","image-keyboard-response","68","243739","0.0-2.0-5.0-1.23","5c2ef42ffe2f3d000130b47b","B2","batch2","","5592","stim/no_51_1.png","j","pattern_response","true","j","pattern_31","5592","true","20","","","","","","","","","","","","","","","","","","",""
"","","","","","html-keyboard-response","69","245041","0.0-2.0-5.0-0.24","5c2ef42ffe2f3d000130b47b","B2","batch2","","null","<p class=block-text>Trial 25 out of 78</p>","null","pattern_show_trial_num","","","","","","","","","","","","","","","","","","","","","","","","",""
"","","","","","image-keyboard-response","70","249417","0.0-2.0-5.0-1.24","5c2ef42ffe2f3d000130b47b","B2","batch2","","4349","stim/no_39_1_w.png","j","pattern_response","true","j","pattern_21","4349","true","21","","","","","","","","","","","","","","","","","","",""
"","","","","","html-keyboard-response","71","250720","0.0-2.0-5.0-0.25","5c2ef42ffe2f3d000130b47b","B2","batch2","","null","<p class=block-text>Trial 26 out of 78</p>","null","pattern_show_trial_num","","","","","","","","","","","","","","","","","","","","","","","","",""
"","","","","","image-keyboard-response","72","254825","0.0-2.0-5.0-1.25","5c2ef42ffe2f3d000130b47b","B2","batch2","","4079","stim/no_58_1_w.png","j","pattern_response","true","j","pattern_35","4079","true","22","","","","","","","","","","","","","","","","","","",""
"","","","","","html-keyboard-response","73","256127","0.0-2.0-5.0-0.26","5c2ef42ffe2f3d000130b47b","B2","batch2","","null","<p class=block-text>Trial 27 out of 78</p>","null","pattern_show_trial_num","","","","","","","","","","","","","","","","","","","","","","","","",""
"","","","","","image-keyboard-response","74","259562","0.0-2.0-5.0-1.26","5c2ef42ffe2f3d000130b47b","B2","batch2","","3408","stim/yes_49_hor_w1_b.png","j","pattern_response","false","f","pattern_70","3408","false","22","","","","","","","","","","","","","","","","","","",""
"","","","","","html-keyboard-response","75","260863","0.0-2.0-5.0-0.27","5c2ef42ffe2f3d000130b47b","B2","batch2","","null","<p class=block-text>Trial 28 out of 78</p>","null","pattern_show_trial_num","","","","","","","","","","","","","","","","","","","","","","","","",""
"","","","","","image-keyboard-response","76","262202","0.0-2.0-5.0-1.27","5c2ef42ffe2f3d000130b47b","B2","batch2","","1319","stim/no_15_1_w.png","j","pattern_response","true","j","pattern_03","1319","true","23","","","","","","","","","","","","","","","","","","",""
"","","","","","html-keyboard-response","77","263505","0.0-2.0-5.0-0.28","5c2ef42ffe2f3d000130b47b","B2","batch2","","null","<p class=block-text>Trial 29 out of 78</p>","null","pattern_show_trial_num","","","","","","","","","","","","","","","","","","","","","","","","",""
"","","","","","image-keyboard-response","78","266044","0.0-2.0-5.0-1.28","5c2ef42ffe2f3d000130b47b","B2","batch2","","2515","stim/yes_53_ver_b1_b.png","f","pattern_response","true","f","pattern_74","2515","true","24","","","","","","","","","","","","","","","","","","",""
"","","","","","html-keyboard-response","79","267346","0.0-2.0-5.0-0.29","5c2ef42ffe2f3d000130b47b","B2","batch2","","null","<p class=block-text>Trial 30 out of 78</p>","null","pattern_show_trial_num","","","","","","","","","","","","","","","","","","","","","","","","",""
"","","","","","image-keyboard-response","80","271140","0.0-2.0-5.0-1.29","5c2ef42ffe2f3d000130b47b","B2","batch2","","3766","stim/no_28_2.png","j","pattern_response","true","j","pattern_11","3766","true","25","","","","","","","","","","","","","","","","","","",""
"","","","","","html-keyboard-response","81","272442","0.0-2.0-5.0-0.30","5c2ef42ffe2f3d000130b47b","B2","batch2","","null","<p class=block-text>Trial 31 out of 78</p>","null","pattern_show_trial_num","","","","","","","","","","","","","","","","","","","","","","","","",""
"","","","","","image-keyboard-response","82","275405","0.0-2.0-5.0-1.30","5c2ef42ffe2f3d000130b47b","B2","batch2","","2939","stim/no_37_2_w.png","j","pattern_response","true","j","pattern_19","2939","true","26","","","","","","","","","","","","","","","","","","",""
"","","","","","html-keyboard-response","83","276707","0.0-2.0-5.0-0.31","5c2ef42ffe2f3d000130b47b","B2","batch2","","null","<p class=block-text>Trial 32 out of 78</p>","null","pattern_show_trial_num","","","","","","","","","","","","","","","","","","","","","","","","",""
"","","","","","image-keyboard-response","84","277814","0.0-2.0-5.0-1.31","5c2ef42ffe2f3d000130b47b","B2","batch2","","1081","stim/yes_12_hor_w1_w.png","f","pattern_response","true","f","pattern_42","1081","true","27","","","","","","","","","","","","","","","","","","",""
"","","","","","html-keyboard-response","85","279116","0.0-2.0-5.0-0.32","5c2ef42ffe2f3d000130b47b","B2","batch2","","null","<p class=block-text>Trial 33 out of 78</p>","null","pattern_show_trial_num","","","","","","","","","","","","","","","","","","","","","","","","",""
"","","","","","image-keyboard-response","86","280992","0.0-2.0-5.0-1.32","5c2ef42ffe2f3d000130b47b","B2","batch2","","1850","stim/yes_15_dia_b1u_b.png","f","pattern_response","true","f","pattern_44","1850","true","28","","","","","","","","","","","","","","","","","","",""
"","","","","","html-keyboard-response","87","282295","0.0-2.0-5.0-0.33","5c2ef42ffe2f3d000130b47b","B2","batch2","","null","<p class=block-text>Trial 34 out of 78</p>","null","pattern_show_trial_num","","","","","","","","","","","","","","","","","","","","","","","","",""
"","","","","","image-keyboard-response","88","284219","0.0-2.0-5.0-1.33","5c2ef42ffe2f3d000130b47b","B2","batch2","","1899","stim/no_18_1_b.png","j","pattern_response","true","j","pattern_05","1899","true","29","","","","","","","","","","","","","","","","","","",""
"","","","","","html-keyboard-response","89","285522","0.0-2.0-5.0-0.34","5c2ef42ffe2f3d000130b47b","B2","batch2","","null","<p class=block-text>Trial 35 out of 78</p>","null","pattern_show_trial_num","","","","","","","","","","","","","","","","","","","","","","","","",""
"","","","","","image-keyboard-response","90","287013","0.0-2.0-5.0-1.34","5c2ef42ffe2f3d000130b47b","B2","batch2","","1466","stim/yes_70_ver_b1.png","f","pattern_response","true","f","pattern_80","1466","true","30","","","","","","","","","","","","","","","","","","",""
"","","","","","html-keyboard-response","91","288315","0.0-2.0-5.0-0.35","5c2ef42ffe2f3d000130b47b","B2","batch2","","null","<p class=block-text>Trial 36 out of 78</p>","null","pattern_show_trial_num","","","","","","","","","","","","","","","","","","","","","","","","",""
"","","","","","image-keyboard-response","92","289360","0.0-2.0-5.0-1.35","5c2ef42ffe2f3d000130b47b","B2","batch2","","1018","stim/yes_36_ver_w1_w.png","f","pattern_response","true","f","pattern_58","1018","true","31","","","","","","","","","","","","","","","","","","",""
"","","","","","html-keyboard-response","93","290662","0.0-2.0-5.0-0.36","5c2ef42ffe2f3d000130b47b","B2","batch2","","null","<p class=block-text>Trial 37 out of 78</p>","null","pattern_show_trial_num","","","","","","","","","","","","","","","","","","","","","","","","",""
"","","","","","image-keyboard-response","94","291506","0.0-2.0-5.0-1.36","5c2ef42ffe2f3d000130b47b","B2","batch2","","820","stim/yes_39_hor_w1_w.png","f","pattern_response","true","f","pattern_62","820","true","32","","","","","","","","","","","","","","","","","","",""
"","","","","","html-keyboard-response","95","292809","0.0-2.0-5.0-0.37","5c2ef42ffe2f3d000130b47b","B2","batch2","","null","<p class=block-text>Trial 38 out of 78</p>","null","pattern_show_trial_num","","","","","","","","","","","","","","","","","","","","","","","","",""
"","","","","","image-keyboard-response","96","298440","0.0-2.0-5.0-1.37","5c2ef42ffe2f3d000130b47b","B2","batch2","","5604","stim/no_67_1.png","j","pattern_response","true","j","pattern_39","5604","true","33","","","","","","","","","","","","","","","","","","",""
"","","","","","html-keyboard-response","97","299742","0.0-2.0-5.0-0.38","5c2ef42ffe2f3d000130b47b","B2","batch2","","null","<p class=block-text>Trial 39 out of 78</p>","null","pattern_show_trial_num","","","","","","","","","","","","","","","","","","","","","","","","",""
"","","","","","image-keyboard-response","98","302952","0.0-2.0-5.0-1.38","5c2ef42ffe2f3d000130b47b","B2","batch2","","3183","stim/no_49_2_b.png","j","pattern_response","true","j","pattern_29","3183","true","34","","","","","","","","","","","","","","","","","","",""
"","","","","","image-keyboard-response","99","306969","0.0-2.0-6.0","5c2ef42ffe2f3d000130b47b","B2","batch2","","3490","stim/empty_board.png","j","attention_check","true","j","","","","","500","[""f"",""j""]","","","","","","","","","","","","","","","","",""
"","","","","","html-keyboard-response","100","307772","0.0-2.0-7.0-0.0","5c2ef42ffe2f3d000130b47b","B2","batch2","","null","<p class=block-text>Trial 40 out of 78</p>","null","pattern_show_trial_num","","","","","","","","","","","","","","","","","","","","","","","","",""
"","","","","","image-keyboard-response","101","312559","0.0-2.0-7.0-1.0","5c2ef42ffe2f3d000130b47b","B2","batch2","","4762","stim/no_20_1_w.png","j","pattern_response","true","j","pattern_06","4762","true","35","","","","","","","","","","","","","","","","","","",""
"","","","","","html-keyboard-response","102","313862","0.0-2.0-7.0-0.1","5c2ef42ffe2f3d000130b47b","B2","batch2","","null","<p class=block-text>Trial 41 out of 78</p>","null","pattern_show_trial_num","","","","","","","","","","","","","","","","","","","","","","","","",""
"","","","","","image-keyboard-response","103","315713","0.0-2.0-7.0-1.1","5c2ef42ffe2f3d000130b47b","B2","batch2","","1824","stim/yes_29_ver_w1.png","f","pattern_response","true","f","pattern_53","1824","true","36","","","","","","","","","","","","","","","","","","",""
"","","","","","html-keyboard-response","104","317016","0.0-2.0-7.0-0.2","5c2ef42ffe2f3d000130b47b","B2","batch2","","null","<p class=block-text>Trial 42 out of 78</p>","null","pattern_show_trial_num","","","","","","","","","","","","","","","","","","","","","","","","",""
"","","","","","image-keyboard-response","105","322743","0.0-2.0-7.0-1.2","5c2ef42ffe2f3d000130b47b","B2","batch2","","5701","stim/yes_40_dia_b1_b.png","j","pattern_response","false","f","pattern_63","5701","false","36","","","","","","","","","","","","","","","","","","",""
"","","","","","html-keyboard-response","106","324045","0.0-2.0-7.0-0.3","5c2ef42ffe2f3d000130b47b","B2","batch2","","null","<p class=block-text>Trial 43 out of 78</p>","null","pattern_show_trial_num","","","","","","","","","","","","","","","","","","","","","","","","",""
"","","","","","image-keyboard-response","107","329843","0.0-2.0-7.0-1.3","5c2ef42ffe2f3d000130b47b","B2","batch2","","5771","stim/no_65_1_b.png","j","pattern_response","true","j","pattern_38","5771","true","37","","","","","","","","","","","","","","","","","","",""
"","","","","","html-keyboard-response","108","331144","0.0-2.0-7.0-0.4","5c2ef42ffe2f3d000130b47b","B2","batch2","","null","<p class=block-text>Trial 44 out of 78</p>","null","pattern_show_trial_num","","","","","","","","","","","","","","","","","","","","","","","","",""
"","","","","","image-keyboard-response","109","336519","0.0-2.0-7.0-1.4","5c2ef42ffe2f3d000130b47b","B2","batch2","","5350","stim/no_70_2.png","j","pattern_response","true","j","pattern_40","5350","true","38","","","","","","","","","","","","","","","","","","",""
"","","","","","html-keyboard-response","110","337822","0.0-2.0-7.0-0.5","5c2ef42ffe2f3d000130b47b","B2","batch2","","null","<p class=block-text>Trial 45 out of 78</p>","null","pattern_show_trial_num","","","","","","","","","","","","","","","","","","","","","","","","",""
"","","","","","image-keyboard-response","111","341846","0.0-2.0-7.0-1.5","5c2ef42ffe2f3d000130b47b","B2","batch2","","3999","stim/yes_48_dia_w1_w.png","f","pattern_response","true","f","pattern_69","3999","true","39","","","","","","","","","","","","","","","","","","",""
"","","","","","html-keyboard-response","112","343149","0.0-2.0-7.0-0.6","5c2ef42ffe2f3d000130b47b","B2","batch2","","null","<p class=block-text>Trial 46 out of 78</p>","null","pattern_show_trial_num","","","","","","","","","","","","","","","","","","","","","","","","",""
"","","","","","image-keyboard-response","113","344312","0.0-2.0-7.0-1.6","5c2ef42ffe2f3d000130b47b","B2","batch2","","1138","stim/yes_22_ver_w1.png","f","pattern_response","true","f","pattern_47","1138","true","40","","","","","","","","","","","","","","","","","","",""
"","","","","","html-keyboard-response","114","345614","0.0-2.0-7.0-0.7","5c2ef42ffe2f3d000130b47b","B2","batch2","","null","<p class=block-text>Trial 47 out of 78</p>","null","pattern_show_trial_num","","","","","","","","","","","","","","","","","","","","","","","","",""
"","","","","","image-keyboard-response","115","346994","0.0-2.0-7.0-1.7","5c2ef42ffe2f3d000130b47b","B2","batch2","","1356","stim/yes_28_ver_b1.png","f","pattern_response","true","f","pattern_51","1356","true","41","","","","","","","","","","","","","","","","","","",""
"","","","","","html-keyboard-response","116","348296","0.0-2.0-7.0-0.8","5c2ef42ffe2f3d000130b47b","B2","batch2","","null","<p class=block-text>Trial 48 out of 78</p>","null","pattern_show_trial_num","","","","","","","","","","","","","","","","","","","","","","","","",""
"","","","","","image-keyboard-response","117","352217","0.0-2.0-7.0-1.8","5c2ef42ffe2f3d000130b47b","B2","batch2","","3896","stim/yes_37_dia_w1.png","f","pattern_response","true","f","pattern_59","3896","true","42","","","","","","","","","","","","","","","","","","",""
"","","","","","html-keyboard-response","118","353520","0.0-2.0-7.0-0.9","5c2ef42ffe2f3d000130b47b","B2","batch2","","null","<p class=block-text>Trial 49 out of 78</p>","null","pattern_show_trial_num","","","","","","","","","","","","","","","","","","","","","","","","",""
"","","","","","image-keyboard-response","119","357880","0.0-2.0-7.0-1.9","5c2ef42ffe2f3d000130b47b","B2","batch2","","4335","stim/yes_38_hor_b1_b.png","f","pattern_response","true","f","pattern_61","4335","true","43","","","","","","","","","","","","","","","","","","",""
"","","","","","html-keyboard-response","120","359183","0.0-2.0-7.0-0.10","5c2ef42ffe2f3d000130b47b","B2","batch2","","null","<p class=block-text>Trial 50 out of 78</p>","null","pattern_show_trial_num","","","","","","","","","","","","","","","","","","","","","","","","",""
"","","","","","image-keyboard-response","121","365261","0.0-2.0-7.0-1.10","5c2ef42ffe2f3d000130b47b","B2","batch2","","6052","stim/yes_45_hor_b2_b.png","f","pattern_response","true","f","pattern_67","6052","true","44","","","","","","","","","","","","","","","","","","",""
"","","","","","html-keyboard-response","122","366563","0.0-2.0-7.0-0.11","5c2ef42ffe2f3d000130b47b","B2","batch2","","null","<p class=block-text>Trial 51 out of 78</p>","null","pattern_show_trial_num","","","","","","","","","","","","","","","","","","","","","","","","",""
"","","","","","image-keyboard-response","123","371579","0.0-2.0-7.0-1.11","5c2ef42ffe2f3d000130b47b","B2","batch2","","4989","stim/no_34_1_b.png","j","pattern_response","true","j","pattern_16","4989","true","45","","","","","","","","","","","","","","","","","","",""
"","","","","","html-keyboard-response","124","372880","0.0-2.0-7.0-0.12","5c2ef42ffe2f3d000130b47b","B2","batch2","","null","<p class=block-text>Trial 52 out of 78</p>","null","pattern_show_trial_num","","","","","","","","","","","","","","","","","","","","","","","","",""
"","","","","","image-keyboard-response","125","377505","0.0-2.0-7.0-1.12","5c2ef42ffe2f3d000130b47b","B2","batch2","","4605","stim/no_23_1.png","j","pattern_response","true","j","pattern_08","4605","true","46","","","","","","","","","","","","","","","","","","",""
"","","","","","html-keyboard-response","126","378808","0.0-2.0-7.0-0.13","5c2ef42ffe2f3d000130b47b","B2","batch2","","null","<p class=block-text>Trial 53 out of 78</p>","null","pattern_show_trial_num","","","","","","","","","","","","","","","","","","","","","","","","",""
"","","","","","image-keyboard-response","127","388728","0.0-2.0-7.0-1.13","5c2ef42ffe2f3d000130b47b","B2","batch2","","9894","stim/no_48_1_w.png","j","pattern_response","true","j","pattern_28","9894","true","47","","","","","","","","","","","","","","","","","","",""
"","","","","","html-keyboard-response","128","390030","0.0-2.0-7.0-0.14","5c2ef42ffe2f3d000130b47b","B2","batch2","","null","<p class=block-text>Trial 54 out of 78</p>","null","pattern_show_trial_num","","","","","","","","","","","","","","","","","","","","","","","","",""
"","","","","","image-keyboard-response","129","395760","0.0-2.0-7.0-1.14","5c2ef42ffe2f3d000130b47b","B2","batch2","","5705","stim/no_38_1_b.png","j","pattern_response","true","j","pattern_20","5705","true","48","","","","","","","","","","","","","","","","","","",""
"","","","","","html-keyboard-response","130","397063","0.0-2.0-7.0-0.15","5c2ef42ffe2f3d000130b47b","B2","batch2","","null","<p class=block-text>Trial 55 out of 78</p>","null","pattern_show_trial_num","","","","","","","","","","","","","","","","","","","","","","","","",""
"","","","","","image-keyboard-response","131","402889","0.0-2.0-7.0-1.15","5c2ef42ffe2f3d000130b47b","B2","batch2","","5800","stim/no_29_1_b.png","j","pattern_response","true","j","pattern_12","5800","true","49","","","","","","","","","","","","","","","","","","",""
"","","","","","html-keyboard-response","132","404191","0.0-2.0-7.0-0.16","5c2ef42ffe2f3d000130b47b","B2","batch2","","null","<p class=block-text>Trial 56 out of 78</p>","null","pattern_show_trial_num","","","","","","","","","","","","","","","","","","","","","","","","",""
"","","","","","image-keyboard-response","133","409542","0.0-2.0-7.0-1.16","5c2ef42ffe2f3d000130b47b","B2","batch2","","5326","stim/yes_31_hor_b1.png","f","pattern_response","true","f","pattern_55","5326","true","50","","","","","","","","","","","","","","","","","","",""
"","","","","","html-keyboard-response","134","410845","0.0-2.0-7.0-0.17","5c2ef42ffe2f3d000130b47b","B2","batch2","","null","<p class=block-text>Trial 57 out of 78</p>","null","pattern_show_trial_num","","","","","","","","","","","","","","","","","","","","","","","","",""
"","","","","","image-keyboard-response","135","420890","0.0-2.0-7.0-1.17","5c2ef42ffe2f3d000130b47b","B2","batch2","","10019","stim/no_32_1_w.png","j","pattern_response","true","j","pattern_14","10019","true","51","","","","","","","","","","","","","","","","","","",""
"","","","","","html-keyboard-response","136","422193","0.0-2.0-7.0-0.18","5c2ef42ffe2f3d000130b47b","B2","batch2","","null","<p class=block-text>Trial 58 out of 78</p>","null","pattern_show_trial_num","","","","","","","","","","","","","","","","","","","","","","","","",""
"","","","","","image-keyboard-response","137","428639","0.0-2.0-7.0-1.18","5c2ef42ffe2f3d000130b47b","B2","batch2","","6421","stim/no_42_1_w.png","j","pattern_response","true","j","pattern_22","6421","true","52","","","","","","","","","","","","","","","","","","",""
"","","","","","html-keyboard-response","138","429941","0.0-2.0-7.0-0.19","5c2ef42ffe2f3d000130b47b","B2","batch2","","null","<p class=block-text>Trial 59 out of 78</p>","null","pattern_show_trial_num","","","","","","","","","","","","","","","","","","","","","","","","",""
"","","","","","image-keyboard-response","139","436964","0.0-2.0-7.0-1.19","5c2ef42ffe2f3d000130b47b","B2","batch2","","6999","stim/yes_67_hor_b1.png","j","pattern_response","false","f","pattern_79","6999","false","52","","","","","","","","","","","","","","","","","","",""
"","","","","","html-keyboard-response","140","438267","0.0-2.0-7.0-0.20","5c2ef42ffe2f3d000130b47b","B2","batch2","","null","<p class=block-text>Trial 60 out of 78</p>","null","pattern_show_trial_num","","","","","","","","","","","","","","","","","","","","","","","","",""
"","","","","","image-keyboard-response","141","444219","0.0-2.0-7.0-1.20","5c2ef42ffe2f3d000130b47b","B2","batch2","","5927","stim/yes_60_ver_b1_b.png","j","pattern_response","false","f","pattern_77","5927","false","52","","","","","","","","","","","","","","","","","","",""
"","","","","","html-keyboard-response","142","445522","0.0-2.0-7.0-0.21","5c2ef42ffe2f3d000130b47b","B2","batch2","","null","<p class=block-text>Trial 61 out of 78</p>","null","pattern_show_trial_num","","","","","","","","","","","","","","","","","","","","","","","","",""
"","","","","","image-keyboard-response","143","446774","0.0-2.0-7.0-1.21","5c2ef42ffe2f3d000130b47b","B2","batch2","","1226","stim/yes_14_hor_b1_w.png","f","pattern_response","true","f","pattern_43","1226","true","53","","","","","","","","","","","","","","","","","","",""
"","","","","","html-keyboard-response","144","448075","0.0-2.0-7.0-0.22","5c2ef42ffe2f3d000130b47b","B2","batch2","","null","<p class=block-text>Trial 62 out of 78</p>","null","pattern_show_trial_num","","","","","","","","","","","","","","","","","","","","","","","","",""
"","","","","","image-keyboard-response","145","453760","0.0-2.0-7.0-1.22","5c2ef42ffe2f3d000130b47b","B2","batch2","","5658","stim/no_44_1.png","j","pattern_response","true","j","pattern_24","5658","true","54","","","","","","","","","","","","","","","","","","",""
"","","","","","html-keyboard-response","146","455063","0.0-2.0-7.0-0.23","5c2ef42ffe2f3d000130b47b","B2","batch2","","null","<p class=block-text>Trial 63 out of 78</p>","null","pattern_show_trial_num","","","","","","","","","","","","","","","","","","","","","","","","",""
"","","","","","image-keyboard-response","147","456615","0.0-2.0-7.0-1.23","5c2ef42ffe2f3d000130b47b","B2","batch2","","1530","stim/yes_43_ver_w1_w.png","f","pattern_response","true","f","pattern_65","1530","true","55","","","","","","","","","","","","","","","","","","",""
"","","","","","html-keyboard-response","148","457917","0.0-2.0-7.0-0.24","5c2ef42ffe2f3d000130b47b","B2","batch2","","null","<p class=block-text>Trial 64 out of 78</p>","null","pattern_show_trial_num","","","","","","","","","","","","","","","","","","","","","","","","",""
"","","","","","image-keyboard-response","149","460415","0.0-2.0-7.0-1.24","5c2ef42ffe2f3d000130b47b","B2","batch2","","2474","stim/no_13_2_b.png","j","pattern_response","true","j","pattern_02","2474","true","56","","","","","","","","","","","","","","","","","","",""
"","","","","","html-keyboard-response","150","461717","0.0-2.0-7.0-0.25","5c2ef42ffe2f3d000130b47b","B2","batch2","","null","<p class=block-text>Trial 65 out of 78</p>","null","pattern_show_trial_num","","","","","","","","","","","","","","","","","","","","","","","","",""
"","","","","","image-keyboard-response","151","470316","0.0-2.0-7.0-1.25","5c2ef42ffe2f3d000130b47b","B2","batch2","","8571","stim/no_50_1.png","j","pattern_response","true","j","pattern_30","8571","true","57","","","","","","","","","","","","","","","","","","",""
"","","","","","html-keyboard-response","152","471618","0.0-2.0-7.0-0.26","5c2ef42ffe2f3d000130b47b","B2","batch2","","null","<p class=block-text>Trial 66 out of 78</p>","null","pattern_show_trial_num","","","","","","","","","","","","","","","","","","","","","","","","",""
"","","","","","image-keyboard-response","153","479443","0.0-2.0-7.0-1.26","5c2ef42ffe2f3d000130b47b","B2","batch2","","7801","stim/no_52_1.png","j","pattern_response","true","j","pattern_32","7801","true","58","","","","","","","","","","","","","","","","","","",""
"","","","","","html-keyboard-response","154","480746","0.0-2.0-7.0-0.27","5c2ef42ffe2f3d000130b47b","B2","batch2","","null","<p class=block-text>Trial 67 out of 78</p>","null","pattern_show_trial_num","","","","","","","","","","","","","","","","","","","","","","","","",""
"","","","","","image-keyboard-response","155","482270","0.0-2.0-7.0-1.27","5c2ef42ffe2f3d000130b47b","B2","batch2","","1498","stim/yes_17_dia_w1.png","f","pattern_response","true","f","pattern_45","1498","true","59","","","","","","","","","","","","","","","","","","",""
"","","","","","html-keyboard-response","156","483571","0.0-2.0-7.0-0.28","5c2ef42ffe2f3d000130b47b","B2","batch2","","null","<p class=block-text>Trial 68 out of 78</p>","null","pattern_show_trial_num","","","","","","","","","","","","","","","","","","","","","","","","",""
"","","","","","image-keyboard-response","157","485444","0.0-2.0-7.0-1.28","5c2ef42ffe2f3d000130b47b","B2","batch2","","1854","stim/yes_52_ver_w1.png","f","pattern_response","true","f","pattern_73","1854","true","60","","","","","","","","","","","","","","","","","","",""
"","","","","","html-keyboard-response","158","486747","0.0-2.0-7.0-0.29","5c2ef42ffe2f3d000130b47b","B2","batch2","","null","<p class=block-text>Trial 69 out of 78</p>","null","pattern_show_trial_num","","","","","","","","","","","","","","","","","","","","","","","","",""
"","","","","","image-keyboard-response","159","489612","0.0-2.0-7.0-1.29","5c2ef42ffe2f3d000130b47b","B2","batch2","","2839","stim/no_26_1_w.png","j","pattern_response","true","j","pattern_10","2839","true","61","","","","","","","","","","","","","","","","","","",""
"","","","","","html-keyboard-response","160","490915","0.0-2.0-7.0-0.30","5c2ef42ffe2f3d000130b47b","B2","batch2","","null","<p class=block-text>Trial 70 out of 78</p>","null","pattern_show_trial_num","","","","","","","","","","","","","","","","","","","","","","","","",""
"","","","","","image-keyboard-response","161","498987","0.0-2.0-7.0-1.30","5c2ef42ffe2f3d000130b47b","B2","batch2","","8049","stim/no_55_1_w.png","j","pattern_response","true","j","pattern_34","8049","true","62","","","","","","","","","","","","","","","","","","",""
"","","","","","html-keyboard-response","162","500290","0.0-2.0-7.0-0.31","5c2ef42ffe2f3d000130b47b","B2","batch2","","null","<p class=block-text>Trial 71 out of 78</p>","null","pattern_show_trial_num","","","","","","","","","","","","","","","","","","","","","","","","",""
"","","","","","image-keyboard-response","163","505471","0.0-2.0-7.0-1.31","5c2ef42ffe2f3d000130b47b","B2","batch2","","5156","stim/no_36_2_w.png","j","pattern_response","true","j","pattern_18","5156","true","63","","","","","","","","","","","","","","","","","","",""
"","","","","","html-keyboard-response","164","506773","0.0-2.0-7.0-0.32","5c2ef42ffe2f3d000130b47b","B2","batch2","","null","<p class=block-text>Trial 72 out of 78</p>","null","pattern_show_trial_num","","","","","","","","","","","","","","","","","","","","","","","","",""
"","","","","","image-keyboard-response","165","510964","0.0-2.0-7.0-1.32","5c2ef42ffe2f3d000130b47b","B2","batch2","","4165","stim/no_46_1_b.png","j","pattern_response","true","j","pattern_26","4165","true","64","","","","","","","","","","","","","","","","","","",""
"","","","","","html-keyboard-response","166","512266","0.0-2.0-7.0-0.33","5c2ef42ffe2f3d000130b47b","B2","batch2","","null","<p class=block-text>Trial 73 out of 78</p>","null","pattern_show_trial_num","","","","","","","","","","","","","","","","","","","","","","","","",""
"","","","","","image-keyboard-response","167","518518","0.0-2.0-7.0-1.33","5c2ef42ffe2f3d000130b47b","B2","batch2","","6225","stim/yes_50_dia_w1.png","j","pattern_response","false","f","pattern_71","6225","false","64","","","","","","","","","","","","","","","","","","",""
"","","","","","html-keyboard-response","168","519821","0.0-2.0-7.0-0.34","5c2ef42ffe2f3d000130b47b","B2","batch2","","null","<p class=block-text>Trial 74 out of 78</p>","null","pattern_show_trial_num","","","","","","","","","","","","","","","","","","","","","","","","",""
"","","","","","image-keyboard-response","169","524132","0.0-2.0-7.0-1.34","5c2ef42ffe2f3d000130b47b","B2","batch2","","4285","stim/yes_55_hor_w1_w.png","f","pattern_response","true","f","pattern_75","4285","true","65","","","","","","","","","","","","","","","","","","",""
"","","","","","html-keyboard-response","170","525435","0.0-2.0-7.0-0.35","5c2ef42ffe2f3d000130b47b","B2","batch2","","null","<p class=block-text>Trial 75 out of 78</p>","null","pattern_show_trial_num","","","","","","","","","","","","","","","","","","","","","","","","",""
"","","","","","image-keyboard-response","171","527408","0.0-2.0-7.0-1.35","5c2ef42ffe2f3d000130b47b","B2","batch2","","1949","stim/yes_35_dia_b1.png","f","pattern_response","true","f","pattern_57","1949","true","66","","","","","","","","","","","","","","","","","","",""
"","","","","","html-keyboard-response","172","528710","0.0-2.0-7.0-0.36","5c2ef42ffe2f3d000130b47b","B2","batch2","","null","<p class=block-text>Trial 76 out of 78</p>","null","pattern_show_trial_num","","","","","","","","","","","","","","","","","","","","","","","","",""
"","","","","","image-keyboard-response","173","538275","0.0-2.0-7.0-1.36","5c2ef42ffe2f3d000130b47b","B2","batch2","","9539","stim/no_62_1_w.png","j","pattern_response","true","j","pattern_36","9539","true","67","","","","","","","","","","","","","","","","","","",""
"","","","","","html-keyboard-response","174","539578","0.0-2.0-7.0-0.37","5c2ef42ffe2f3d000130b47b","B2","batch2","","null","<p class=block-text>Trial 77 out of 78</p>","null","pattern_show_trial_num","","","","","","","","","","","","","","","","","","","","","","","","",""
"","","","","","image-keyboard-response","175","540791","0.0-2.0-7.0-1.37","5c2ef42ffe2f3d000130b47b","B2","batch2","","1188","stim/yes_25_hor_b1_b.png","f","pattern_response","true","f","pattern_49","1188","true","68","","","","","","","","","","","","","","","","","","",""
"","","","","","html-keyboard-response","176","542094","0.0-2.0-7.0-0.38","5c2ef42ffe2f3d000130b47b","B2","batch2","","null","<p class=block-text>Trial 78 out of 78</p>","null","pattern_show_trial_num","","","","","","","","","","","","","","","","","","","","","","","","",""
"","","","","","image-keyboard-response","177","547782","0.0-2.0-7.0-1.38","5c2ef42ffe2f3d000130b47b","B2","batch2","","5661","stim/no_17_1_w.png","j","pattern_response","true","j","pattern_04","5661","true","69","","","","","","","","","","","","","","","","","","",""
"","","","","","html-button-response","178","571563","0.0-2.0-8.0","5c2ef42ffe2f3d000130b47b","B2","batch2","","23277","<p class = block-text>This concludes the 4-in-a-row detection game.Thank you for your responses!<br>
            You responded correctly on 88% of the trials.<br>
            When you are ready, press ""Continue"" button to continue </p>","0","","","","","","","","","","","","","","","","","","","","","","","","","",""
"true","","","","","fullscreen","179","576244","0.0-3.0-0.0","5c2ef42ffe2f3d000130b47b","B2","batch2","","","","","","","","","","","","","","","","","","","","","","","","","","","","","",""
"","","","","","instructions","180","671668","0.0-3.0-1.0-0.0-0.0","5c2ef42ffe2f3d000130b47b","B2","batch2","[{""page_index"":0,""viewing_time"":23234},{""page_index"":1,""viewing_time"":9256},{""page_index"":2,""viewing_time"":10333},{""page_index"":3,""viewing_time"":20694},{""page_index"":4,""viewing_time"":8542},{""page_index"":5,""viewing_time"":17549},{""page_index"":6,""viewing_time"":5813}]","95421","","","tol-instructions","","","","","","","","","","","","","","","","","","","","","","","","",""
"","","","","","html-button-response","181","673598","0.0-3.0-1.0-1.0-0.0","5c2ef42ffe2f3d000130b47b","B2","batch2","","1927","<p class=block-text> Let's answer a few questions <br>","0","tol_enter_quiz","","","","","","","","","","","","","","","","","","","","","","","","",""
"","","","","","html-button-response","182","683476","0.0-3.0-1.0-1.0-1.0","5c2ef42ffe2f3d000130b47b","B2","batch2","","9875","<p class = block-text>True or False: You can only move the ball on top of a peg. <br></p>","0","tol_quiz","true","","","","","","","","","","","","","","","","","","","","","","","",""
"","","","","","html-button-response","183","686059","0.0-3.0-1.0-1.0-2.0","5c2ef42ffe2f3d000130b47b","B2","batch2","","2579","<p class = block-text>Correct! You can only move the ball on top of a peg.</p>","0","tol_quiz_feedback","","","","","","","","","","","","","","","","","","","","","","","","",""
"","","","","","html-button-response","184","691673","0.0-3.0-1.0-1.0-3.0","5c2ef42ffe2f3d000130b47b","B2","batch2","","5610","<p class = block-text>True or False: You should try to match your board with the target board with fewest moves possible. <br></p>","0","tol_quiz","true","","","","","","","","","","","","","","","","","","","","","","","",""
"","","","","","html-button-response","185","692753","0.0-3.0-1.0-1.0-4.0","5c2ef42ffe2f3d000130b47b","B2","batch2","","1076","<p class = block-text>Correct! </p>","0","tol_quiz_feedback","","","","","","","","","","","","","","","","","","","","","","","","",""
"","","","","","html-button-response","186","694977","0.0-3.0-2.0","5c2ef42ffe2f3d000130b47b","B2","batch2","","2217","<p class=block-text> Now that you've understood the game, let's practice a few easier examples before we start!<br> <br>","0","","","","","","","","","","","","","","","","","","","","","","","","","",""
"","","","","","single-stim-button","187","698013","0.0-3.0-3.0-0.0","5c2ef42ffe2f3d000130b47b","B2","batch2","","3024","","","tol_practice","","","","","","","","","tol_peg_2","3024","3024","0","[[1,2,0],[0,0],[0]]","1","[[1,2,0],[0,0],[3]]","practice","3024","","","","","","","",""
"","","","","","single-stim-button","188","699690","0.0-3.0-3.0-1.0","5c2ef42ffe2f3d000130b47b","B2","batch2","","1674","","","tol_practice","","","","","","","","","tol_peg_3","1674","1674","0","[[1,2,0],[0,0],[3]]","1","[[1,2,0],[0,0],[3]]","practice","1674","","","","","","","",""
"","","","","","poldrack-single-stim","189","700696","0.0-3.0-4.0","5c2ef42ffe2f3d000130b47b","B2","batch2","","-1","","","tol_feedback","true","","","","","","","","","1000","1000","500","","","","","","-1","none","true","","0","","",""
"","","","","","single-stim-button","190","707721","0.0-3.0-5.0-0.0","5c2ef42ffe2f3d000130b47b","B2","batch2","","7020","","","tol_practice","","","","","","","","","tol_peg_1","7020","7020","0","[[1,0,0],[3,0],[0]]","2","[[0,0,0],[3,1],[2]]","practice","7020","","","","","","","",""
"","","","","","single-stim-button","191","709191","0.0-3.0-5.0-1.0","5c2ef42ffe2f3d000130b47b","B2","batch2","","1468","","","tol_practice","","","","","","","","","tol_peg_3","1468","1468","0","[[1,0,0],[3,0],[2]]","2","[[0,0,0],[3,1],[2]]","practice","1468","","","","","","","",""
"","","","","","single-stim-button","192","710215","0.0-3.0-5.1-0.1","5c2ef42ffe2f3d000130b47b","B2","batch2","","1022","","","tol_practice","","","","","","","","","tol_peg_1","1022","1022","0","[[0,0,0],[3,0],[2]]","3","[[0,0,0],[3,1],[2]]","practice","1022","","","","","","","",""
"","","","","","single-stim-button","193","711032","0.0-3.0-5.1-1.1","5c2ef42ffe2f3d000130b47b","B2","batch2","","813","","","tol_practice","","","","","","","","","tol_peg_2","813","813","0","[[0,0,0],[3,1],[2]]","3","[[0,0,0],[3,1],[2]]","practice","813","","","","","","","",""
"","","","","","poldrack-single-stim","194","712037","0.0-3.0-6.0","5c2ef42ffe2f3d000130b47b","B2","batch2","","-1","","","tol_feedback","true","","","","","","","","","1000","1000","500","","","","","","-1","none","true","","0","","",""
"","","","","","single-stim-button","195","715581","0.0-3.0-7.0-0.0","5c2ef42ffe2f3d000130b47b","B2","batch2","","3541","","","tol_practice","","","","","","","","","tol_peg_2","3541","3541","0","[[1,2,0],[0,0],[0]]","4","[[1,0,0],[2,0],[3]]","practice","3541","","","","","","","",""
"","","","","","single-stim-button","196","716565","0.0-3.0-7.0-1.0","5c2ef42ffe2f3d000130b47b","B2","batch2","","982","","","tol_practice","","","","","","","","","tol_peg_3","982","982","0","[[1,2,0],[0,0],[3]]","4","[[1,0,0],[2,0],[3]]","practice","982","","","","","","","",""
"","","","","","single-stim-button","197","717637","0.0-3.0-7.1-0.1","5c2ef42ffe2f3d000130b47b","B2","batch2","","1069","","","tol_practice","","","","","","","","","tol_peg_1","1069","1069","0","[[1,0,0],[0,0],[3]]","5","[[1,0,0],[2,0],[3]]","practice","1069","","","","","","","",""
"","","","","","single-stim-button","198","718541","0.0-3.0-7.1-1.1","5c2ef42ffe2f3d000130b47b","B2","batch2","","902","","","tol_practice","","","","","","","","","tol_peg_2","902","902","0","[[1,0,0],[2,0],[3]]","5","[[1,0,0],[2,0],[3]]","practice","902","","","","","","","",""
"","","","","","poldrack-single-stim","199","719545","0.0-3.0-8.0","5c2ef42ffe2f3d000130b47b","B2","batch2","","-1","","","tol_feedback","true","","","","","","","","","1000","1000","500","","","","","","-1","none","true","","0","","",""
"","","","","","html-button-response","200","724458","0.0-3.0-9.0","5c2ef42ffe2f3d000130b47b","B2","batch2","","4911","<div class = centerbox><p class = center-block-text>Great job! You are done with practice trials<br>You are about to start official trials.<br> <br> Problem <strong>1</strong> out of 25 problems</p></div>","0","tol_instruction","","","","","","","","","","","","","","","","","","","","","","","","",""
"","","","","","single-stim-button","201","732259","0.0-3.0-10.0-0.0","5c2ef42ffe2f3d000130b47b","B2","batch2","","6794","","","tol_tohand","","","","","","","","","tol_peg_2","6794","6794","0","[[1,2,0],[0,0],[0]]","1","[[1,3,0],[2,0],[0]]","0","0","","","","","","3","",""
"","","","","","single-stim-button","202","739598","0.0-3.0-10.0-1.0","5c2ef42ffe2f3d000130b47b","B2","batch2","","7338","","","tol_toboard","","","","","","","","","tol_peg_3","7338","7338","0","[[1,2,0],[0,0],[3]]","1","[[1,3,0],[2,0],[0]]","0","0","","","","","","3","",""
"","","","","","single-stim-button","203","741703","0.0-3.0-10.1-0.1","5c2ef42ffe2f3d000130b47b","B2","batch2","","2102","","","tol_tohand","","","","","","","","","tol_peg_1","2102","2102","0","[[1,0,0],[0,0],[3]]","2","[[1,3,0],[2,0],[0]]","0","0","","","","","","3","",""
"","","","","","single-stim-button","204","742758","0.0-3.0-10.1-1.1","5c2ef42ffe2f3d000130b47b","B2","batch2","","1053","","","tol_toboard","","","","","","","","","tol_peg_2","1053","1053","0","[[1,0,0],[2,0],[3]]","2","[[1,3,0],[2,0],[0]]","0","0","","","","","","3","",""
"","","","","","single-stim-button","205","743997","0.0-3.0-10.2-0.2","5c2ef42ffe2f3d000130b47b","B2","batch2","","1237","","","tol_tohand","","","","","","","","","tol_peg_3","1237","1237","0","[[1,0,0],[2,0],[0]]","3","[[1,3,0],[2,0],[0]]","0","0","","","","","","3","",""
"","","","","","single-stim-button","206","746205","0.0-3.0-10.2-1.2","5c2ef42ffe2f3d000130b47b","B2","batch2","","2207","","","tol_toboard","","","","","","","","","tol_peg_1","2207","2207","0","[[1,3,0],[2,0],[0]]","3","[[1,3,0],[2,0],[0]]","0","0","","","","","","3","",""
"","","","","","poldrack-single-stim","207","747208","0.0-3.0-11.0","5c2ef42ffe2f3d000130b47b","B2","batch2","","-1","","","tol_feedback","true","","","","","","","","","1000","1000","500","","","","","","-1","none","true","6794","10133","","",""
"","","","","","html-button-response","208","748844","0.0-3.0-12.0","5c2ef42ffe2f3d000130b47b","B2","batch2","","1633","<div class = centerbox><p class = center-block-text>problem <strong>2</strong> out of 25 problems</p></div>","0","tol_trial_num","","","","","","","","","","","","","","","","","","","","","","","","",""
"","","","","","single-stim-button","209","758914","0.0-3.0-13.0-0.0","5c2ef42ffe2f3d000130b47b","B2","batch2","","10066","","","tol_tohand","","","","","","","","","tol_peg_1","10066","10066","0","[[1,0,0],[3,0],[0]]","1","[[2,1,3],[0,0],[0]]","1","0","","","","","","5","",""
"","","","","","single-stim-button","210","759969","0.0-3.0-13.0-1.0","5c2ef42ffe2f3d000130b47b","B2","batch2","","1055","","","tol_toboard","","","","","","","","","tol_peg_3","1055","1055","0","[[1,0,0],[3,0],[2]]","1","[[2,1,3],[0,0],[0]]","1","0","","","","","","5","",""
"","","","","","single-stim-button","211","782615","0.0-3.0-13.1-0.1","5c2ef42ffe2f3d000130b47b","B2","batch2","","22642","","","tol_tohand","","","","","","","","","tol_peg_2","22642","22642","0","[[1,0,0],[0,0],[2]]","2","[[2,1,3],[0,0],[0]]","1","0","","","","","","5","",""
"","","","","","single-stim-button","212","786647","0.0-3.0-13.1-1.1","5c2ef42ffe2f3d000130b47b","B2","batch2","","4030","","","tol_toboard","","","","","","","","","tol_peg_2","4030","4030","0","[[1,0,0],[3,0],[2]]","2","[[2,1,3],[0,0],[0]]","1","0","","","","","","5","",""
"","","","","","single-stim-button","213","789869","0.0-3.0-13.2-0.2","5c2ef42ffe2f3d000130b47b","B2","batch2","","3220","","","tol_tohand","","","","","","","","","tol_peg_1","3220","3220","0","[[0,0,0],[3,0],[2]]","3","[[2,1,3],[0,0],[0]]","1","0","","","","","","5","",""
"","","","","","single-stim-button","214","791224","0.0-3.0-13.2-1.2","5c2ef42ffe2f3d000130b47b","B2","batch2","","1353","","","tol_toboard","","","","","","","","","tol_peg_2","1353","1353","0","[[0,0,0],[3,1],[2]]","3","[[2,1,3],[0,0],[0]]","1","0","","","","","","5","",""
"","","","","","single-stim-button","215","792722","0.0-3.0-13.3-0.3","5c2ef42ffe2f3d000130b47b","B2","batch2","","1496","","","tol_tohand","","","","","","","","","tol_peg_3","1496","1496","0","[[0,0,0],[3,1],[0]]","4","[[2,1,3],[0,0],[0]]","1","0","","","","","","5","",""
"","","","","","single-stim-button","216","793900","0.0-3.0-13.3-1.3","5c2ef42ffe2f3d000130b47b","B2","batch2","","1177","","","tol_toboard","","","","","","","","","tol_peg_1","1177","1177","0","[[2,0,0],[3,1],[0]]","4","[[2,1,3],[0,0],[0]]","1","0","","","","","","5","",""
"","","","","","single-stim-button","217","794774","0.0-3.0-13.4-0.4","5c2ef42ffe2f3d000130b47b","B2","batch2","","872","","","tol_tohand","","","","","","","","","tol_peg_2","872","872","0","[[2,0,0],[3,0],[0]]","5","[[2,1,3],[0,0],[0]]","1","0","","","","","","5","",""
"","","","","","single-stim-button","218","796969","0.0-3.0-13.4-1.4","5c2ef42ffe2f3d000130b47b","B2","batch2","","2194","","","tol_toboard","","","","","","","","","tol_peg_1","2194","2194","0","[[2,1,0],[3,0],[0]]","5","[[2,1,3],[0,0],[0]]","1","0","","","","","","5","",""
"","","","","","single-stim-button","219","797707","0.0-3.0-13.5-0.5","5c2ef42ffe2f3d000130b47b","B2","batch2","","736","","","tol_tohand","","","","","","","","","tol_peg_2","736","736","0","[[2,1,0],[0,0],[0]]","6","[[2,1,3],[0,0],[0]]","1","0","","","","","","5","",""
"","","","","","single-stim-button","220","798668","0.0-3.0-13.5-1.5","5c2ef42ffe2f3d000130b47b","B2","batch2","","958","","","tol_toboard","","","","","","","","","tol_peg_1","958","958","0","[[2,1,3],[0,0],[0]]","6","[[2,1,3],[0,0],[0]]","1","0","","","","","","5","",""
"","","","","","poldrack-single-stim","221","799670","0.0-3.0-14.0","5c2ef42ffe2f3d000130b47b","B2","batch2","","-1","","","tol_feedback","true","","","","","","","","","1000","1000","500","","","","","","-1","none","true","10066","39032","","",""
"","","","","","html-button-response","222","801722","0.0-3.0-15.0","5c2ef42ffe2f3d000130b47b","B2","batch2","","2050","<div class = centerbox><p class = center-block-text>problem <strong>3</strong> out of 25 problems</p></div>","0","tol_trial_num","","","","","","","","","","","","","","","","","","","","","","","","",""
"","","","","","single-stim-button","223","812692","0.0-3.0-16.0-0.0","5c2ef42ffe2f3d000130b47b","B2","batch2","","10967","","","tol_tohand","","","","","","","","","tol_peg_1","10967","10967","0","[[2,0,0],[0,0],[1]]","1","[[1,2,0],[3,0],[0]]","2","0","","","","","","4","",""
"","","","","","single-stim-button","224","813733","0.0-3.0-16.0-1.0","5c2ef42ffe2f3d000130b47b","B2","batch2","","1039","","","tol_toboard","","","","","","","","","tol_peg_2","1039","1039","0","[[2,0,0],[3,0],[1]]","1","[[1,2,0],[3,0],[0]]","2","0","","","","","","4","",""
"","","","","","single-stim-button","225","814656","0.0-3.0-16.1-0.1","5c2ef42ffe2f3d000130b47b","B2","batch2","","921","","","tol_tohand","","","","","","","","","tol_peg_1","921","921","0","[[0,0,0],[3,0],[1]]","2","[[1,2,0],[3,0],[0]]","2","0","","","","","","4","",""
"","","","","","single-stim-button","226","815231","0.0-3.0-16.1-1.1","5c2ef42ffe2f3d000130b47b","B2","batch2","","574","","","tol_toboard","","","","","","","","","tol_peg_2","574","574","0","[[0,0,0],[3,2],[1]]","2","[[1,2,0],[3,0],[0]]","2","0","","","","","","4","",""
"","","","","","single-stim-button","227","816201","0.0-3.0-16.2-0.2","5c2ef42ffe2f3d000130b47b","B2","batch2","","968","","","tol_tohand","","","","","","","","","tol_peg_3","968","968","0","[[0,0,0],[3,2],[0]]","3","[[1,2,0],[3,0],[0]]","2","0","","","","","","4","",""
"","","","","","single-stim-button","228","817570","0.0-3.0-16.2-1.2","5c2ef42ffe2f3d000130b47b","B2","batch2","","1367","","","tol_toboard","","","","","","","","","tol_peg_1","1367","1367","0","[[1,0,0],[3,2],[0]]","3","[[1,2,0],[3,0],[0]]","2","0","","","","","","4","",""
"","","","","","single-stim-button","229","818355","0.0-3.0-16.3-0.3","5c2ef42ffe2f3d000130b47b","B2","batch2","","783","","","tol_tohand","","","","","","","","","tol_peg_2","783","783","0","[[1,0,0],[3,0],[0]]","4","[[1,2,0],[3,0],[0]]","2","0","","","","","","4","",""
"","","","","","single-stim-button","230","819209","0.0-3.0-16.3-1.3","5c2ef42ffe2f3d000130b47b","B2","batch2","","853","","","tol_toboard","","","","","","","","","tol_peg_1","853","853","0","[[1,2,0],[3,0],[0]]","4","[[1,2,0],[3,0],[0]]","2","0","","","","","","4","",""
"","","","","","poldrack-single-stim","231","820212","0.0-3.0-17.0","5c2ef42ffe2f3d000130b47b","B2","batch2","","-1","","","tol_feedback","true","","","","","","","","","1000","1000","500","","","","","","-1","none","true","10967","13639","","",""
"","","","","","html-button-response","232","821566","0.0-3.0-18.0","5c2ef42ffe2f3d000130b47b","B2","batch2","","1352","<div class = centerbox><p class = center-block-text>problem <strong>4</strong> out of 25 problems</p></div>","0","tol_trial_num","","","","","","","","","","","","","","","","","","","","","","","","",""
"","","","","","single-stim-button","233","828967","0.0-3.0-19.0-0.0","5c2ef42ffe2f3d000130b47b","B2","batch2","","7397","","","tol_tohand","","","","","","","","","tol_peg_2","7397","7397","0","[[3,0,0],[2,0],[0]]","1","[[3,0,0],[1,0],[2]]","3","0","","","","","","3","",""
"","","","","","single-stim-button","234","829904","0.0-3.0-19.0-1.0","5c2ef42ffe2f3d000130b47b","B2","batch2","","935","","","tol_toboard","","","","","","","","","tol_peg_1","935","935","0","[[3,1,0],[2,0],[0]]","1","[[3,0,0],[1,0],[2]]","3","0","","","","","","3","",""
"","","","","","single-stim-button","235","830576","0.0-3.0-19.1-0.1","5c2ef42ffe2f3d000130b47b","B2","batch2","","671","","","tol_tohand","","","","","","","","","tol_peg_2","671","671","0","[[3,1,0],[0,0],[0]]","2","[[3,0,0],[1,0],[2]]","3","0","","","","","","3","",""
"","","","","","single-stim-button","236","831449","0.0-3.0-19.1-1.1","5c2ef42ffe2f3d000130b47b","B2","batch2","","871","","","tol_toboard","","","","","","","","","tol_peg_3","871","871","0","[[3,1,0],[0,0],[2]]","2","[[3,0,0],[1,0],[2]]","3","0","","","","","","3","",""
"","","","","","single-stim-button","237","832392","0.0-3.0-19.2-0.2","5c2ef42ffe2f3d000130b47b","B2","batch2","","942","","","tol_tohand","","","","","","","","","tol_peg_1","942","942","0","[[3,0,0],[0,0],[2]]","3","[[3,0,0],[1,0],[2]]","3","0","","","","","","3","",""
"","","","","","single-stim-button","238","833284","0.0-3.0-19.2-1.2","5c2ef42ffe2f3d000130b47b","B2","batch2","","886","","","tol_toboard","","","","","","","","","tol_peg_2","886","886","0","[[3,0,0],[1,0],[2]]","3","[[3,0,0],[1,0],[2]]","3","0","","","","","","3","",""
"","","","","","poldrack-single-stim","239","834287","0.0-3.0-20.0","5c2ef42ffe2f3d000130b47b","B2","batch2","","-1","","","tol_feedback","true","","","","","","","","","1000","1000","500","","","","","","-1","none","true","7397","9010","","",""
"","","","","","html-button-response","240","835798","0.0-3.0-21.0","5c2ef42ffe2f3d000130b47b","B2","batch2","","1511","<div class = centerbox><p class = center-block-text>problem <strong>5</strong> out of 25 problems</p></div>","0","tol_trial_num","","","","","","","","","","","","","","","","","","","","","","","","",""
"","","","","","single-stim-button","241","865774","0.0-3.0-22.0-0.0","5c2ef42ffe2f3d000130b47b","B2","batch2","","29973","","","tol_tohand","","","","","","","","","tol_peg_3","29973","29973","0","[[1,0,0],[2,0],[0]]","1","[[0,0,0],[1,2],[3]]","4","0","","","","","","7","",""
"","","","","","single-stim-button","242","868504","0.0-3.0-22.0-1.0","5c2ef42ffe2f3d000130b47b","B2","batch2","","2727","","","tol_toboard","","","","","","","","","tol_peg_1","2727","2727","0","[[1,3,0],[2,0],[0]]","1","[[0,0,0],[1,2],[3]]","4","0","","","","","","7","",""
"","","","","","single-stim-button","243","869231","0.0-3.0-22.1-0.1","5c2ef42ffe2f3d000130b47b","B2","batch2","","725","","","tol_tohand","","","","","","","","","tol_peg_2","725","725","0","[[1,3,0],[0,0],[0]]","2","[[0,0,0],[1,2],[3]]","4","0","","","","","","7","",""
"","","","","","single-stim-button","244","870336","0.0-3.0-22.1-1.1","5c2ef42ffe2f3d000130b47b","B2","batch2","","1102","","","tol_toboard","","","","","","","","","tol_peg_3","1102","1102","0","[[1,3,0],[0,0],[2]]","2","[[0,0,0],[1,2],[3]]","4","0","","","","","","7","",""
"","","","","","single-stim-button","245","878989","0.0-3.0-22.2-0.2","5c2ef42ffe2f3d000130b47b","B2","batch2","","8651","","","tol_tohand","","","","","","","","","tol_peg_1","8651","8651","0","[[1,0,0],[0,0],[2]]","3","[[0,0,0],[1,2],[3]]","4","0","","","","","","7","",""
"","","","","","single-stim-button","246","882302","0.0-3.0-22.2-1.2","5c2ef42ffe2f3d000130b47b","B2","batch2","","3311","","","tol_toboard","","","","","","","","","tol_peg_2","3311","3311","0","[[1,0,0],[3,0],[2]]","3","[[0,0,0],[1,2],[3]]","4","0","","","","","","7","",""
"","","","","","single-stim-button","247","896413","0.0-3.0-22.3-0.3","5c2ef42ffe2f3d000130b47b","B2","batch2","","14107","","","tol_tohand","","","","","","","","","tol_peg_1","14107","14107","0","[[0,0,0],[3,0],[2]]","4","[[0,0,0],[1,2],[3]]","4","0","","","","","","7","",""
"","","","","","single-stim-button","248","897190","0.0-3.0-22.3-1.3","5c2ef42ffe2f3d000130b47b","B2","batch2","","775","","","tol_toboard","","","","","","","","","tol_peg_2","775","775","0","[[0,0,0],[3,1],[2]]","4","[[0,0,0],[1,2],[3]]","4","0","","","","","","7","",""
"","","","","","single-stim-button","249","897893","0.0-3.0-22.4-0.4","5c2ef42ffe2f3d000130b47b","B2","batch2","","701","","","tol_tohand","","","","","","","","","tol_peg_3","701","701","0","[[0,0,0],[3,1],[0]]","5","[[0,0,0],[1,2],[3]]","4","0","","","","","","7","",""
"","","","","","single-stim-button","250","899485","0.0-3.0-22.4-1.4","5c2ef42ffe2f3d000130b47b","B2","batch2","","1592","","","tol_toboard","","","","","","","","","tol_peg_1","1592","1592","0","[[2,0,0],[3,1],[0]]","5","[[0,0,0],[1,2],[3]]","4","0","","","","","","7","",""
"","","","","","single-stim-button","251","901735","0.0-3.0-22.5-0.5","5c2ef42ffe2f3d000130b47b","B2","batch2","","2248","","","tol_tohand","","","","","","","","","tol_peg_2","2248","2248","0","[[2,0,0],[3,0],[0]]","6","[[0,0,0],[1,2],[3]]","4","0","","","","","","7","",""
"","","","","","single-stim-button","252","902879","0.0-3.0-22.5-1.5","5c2ef42ffe2f3d000130b47b","B2","batch2","","1143","","","tol_toboard","","","","","","","","","tol_peg_3","1143","1143","0","[[2,0,0],[3,0],[1]]","6","[[0,0,0],[1,2],[3]]","4","0","","","","","","7","",""
"","","","","","single-stim-button","253","903582","0.0-3.0-22.6-0.6","5c2ef42ffe2f3d000130b47b","B2","batch2","","702","","","tol_tohand","","","","","","","","","tol_peg_2","702","702","0","[[2,0,0],[0,0],[1]]","7","[[0,0,0],[1,2],[3]]","4","0","","","","","","7","",""
"","","","","","single-stim-button","254","904271","0.0-3.0-22.6-1.6","5c2ef42ffe2f3d000130b47b","B2","batch2","","687","","","tol_toboard","","","","","","","","","tol_peg_1","687","687","0","[[2,3,0],[0,0],[1]]","7","[[0,0,0],[1,2],[3]]","4","0","","","","","","7","",""
"","","","","","single-stim-button","255","904973","0.0-3.0-22.7-0.7","5c2ef42ffe2f3d000130b47b","B2","batch2","","700","","","tol_tohand","","","","","","","","","tol_peg_3","700","700","0","[[2,3,0],[0,0],[0]]","8","[[0,0,0],[1,2],[3]]","4","0","","","","","","7","",""
"","","","","","single-stim-button","256","905596","0.0-3.0-22.7-1.7","5c2ef42ffe2f3d000130b47b","B2","batch2","","621","","","tol_toboard","","","","","","","","","tol_peg_2","621","621","0","[[2,3,0],[1,0],[0]]","8","[[0,0,0],[1,2],[3]]","4","0","","","","","","7","",""
"","","","","","single-stim-button","257","907017","0.0-3.0-22.8-0.8","5c2ef42ffe2f3d000130b47b","B2","batch2","","1420","","","tol_tohand","","","","","","","","","tol_peg_1","1420","1420","0","[[2,0,0],[1,0],[0]]","9","[[0,0,0],[1,2],[3]]","4","0","","","","","","7","",""
"","","","","","single-stim-button","258","908186","0.0-3.0-22.8-1.8","5c2ef42ffe2f3d000130b47b","B2","batch2","","1168","","","tol_toboard","","","","","","","","","tol_peg_3","1168","1168","0","[[2,0,0],[1,0],[3]]","9","[[0,0,0],[1,2],[3]]","4","0","","","","","","7","",""
"","","","","","single-stim-button","259","909056","0.0-3.0-22.9-0.9","5c2ef42ffe2f3d000130b47b","B2","batch2","","869","","","tol_tohand","","","","","","","","","tol_peg_1","869","869","0","[[0,0,0],[1,0],[3]]","10","[[0,0,0],[1,2],[3]]","4","0","","","","","","7","",""
"","","","","","single-stim-button","260","909737","0.0-3.0-22.9-1.9","5c2ef42ffe2f3d000130b47b","B2","batch2","","678","","","tol_toboard","","","","","","","","","tol_peg_2","678","678","0","[[0,0,0],[1,2],[3]]","10","[[0,0,0],[1,2],[3]]","4","0","","","","","","7","",""
"","","","","","poldrack-single-stim","261","910739","0.0-3.0-23.0","5c2ef42ffe2f3d000130b47b","B2","batch2","","-1","","","tol_feedback","true","","","","","","","","","1000","1000","500","","","","","","-1","none","true","29973","60096","","",""
"","","","","","html-button-response","262","914817","0.0-3.0-24.0","5c2ef42ffe2f3d000130b47b","B2","batch2","","4076","<div class = centerbox><p class = center-block-text>problem <strong>6</strong> out of 25 problems</p></div>","0","tol_trial_num","","","","","","","","","","","","","","","","","","","","","","","","",""
"","","","","","single-stim-button","263","987367","0.0-3.0-25.0-0.0","5c2ef42ffe2f3d000130b47b","B2","batch2","","72547","","","tol_tohand","","","","","","","","","tol_peg_3","72547","72547","0","[[0,0,0],[1,2],[0]]","1","[[1,0,0],[2,3],[0]]","5","0","","","","","","6","",""
"","","","","","single-stim-button","264","990288","0.0-3.0-25.0-1.0","5c2ef42ffe2f3d000130b47b","B2","batch2","","2919","","","tol_toboard","","","","","","","","","tol_peg_1","2919","2919","0","[[3,0,0],[1,2],[0]]","1","[[1,0,0],[2,3],[0]]","5","0","","","","","","6","",""
"","","","","","single-stim-button","265","991323","0.0-3.0-25.1-0.1","5c2ef42ffe2f3d000130b47b","B2","batch2","","1034","","","tol_tohand","","","","","","","","","tol_peg_2","1034","1034","0","[[3,0,0],[1,0],[0]]","2","[[1,0,0],[2,3],[0]]","5","0","","","","","","6","",""
"","","","","","single-stim-button","266","992279","0.0-3.0-25.1-1.1","5c2ef42ffe2f3d000130b47b","B2","batch2","","955","","","tol_toboard","","","","","","","","","tol_peg_3","955","955","0","[[3,0,0],[1,0],[2]]","2","[[1,0,0],[2,3],[0]]","5","0","","","","","","6","",""
"","","","","","single-stim-button","267","1008406","0.0-3.0-25.2-0.2","5c2ef42ffe2f3d000130b47b","B2","batch2","","16125","","","tol_tohand","","","","","","","","","tol_peg_2","16125","16125","0","[[3,0,0],[0,0],[2]]","3","[[1,0,0],[2,3],[0]]","5","0","","","","","","6","",""
"","","","","","single-stim-button","268","1009276","0.0-3.0-25.2-1.2","5c2ef42ffe2f3d000130b47b","B2","batch2","","865","","","tol_toboard","","","","","","","","","tol_peg_1","865","865","0","[[3,1,0],[0,0],[2]]","3","[[1,0,0],[2,3],[0]]","5","0","","","","","","6","",""
"","","","","","single-stim-button","269","1009961","0.0-3.0-25.3-0.3","5c2ef42ffe2f3d000130b47b","B2","batch2","","682","","","tol_tohand","","","","","","","","","tol_peg_3","682","682","0","[[3,1,0],[0,0],[0]]","4","[[1,0,0],[2,3],[0]]","5","0","","","","","","6","",""
"","","","","","single-stim-button","270","1011434","0.0-3.0-25.3-1.3","5c2ef42ffe2f3d000130b47b","B2","batch2","","1471","","","tol_toboard","","","","","","","","","tol_peg_2","1471","1471","0","[[3,1,0],[2,0],[0]]","4","[[1,0,0],[2,3],[0]]","5","0","","","","","","6","",""
"","","","","","single-stim-button","271","1012146","0.0-3.0-25.4-0.4","5c2ef42ffe2f3d000130b47b","B2","batch2","","710","","","tol_tohand","","","","","","","","","tol_peg_1","710","710","0","[[3,0,0],[2,0],[0]]","5","[[1,0,0],[2,3],[0]]","5","0","","","","","","6","",""
"","","","","","single-stim-button","272","1013727","0.0-3.0-25.4-1.4","5c2ef42ffe2f3d000130b47b","B2","batch2","","1572","","","tol_toboard","","","","","","","","","tol_peg_3","1572","1572","0","[[3,0,0],[2,0],[1]]","5","[[1,0,0],[2,3],[0]]","5","0","","","","","","6","",""
"","","","","","single-stim-button","273","1014474","0.0-3.0-25.5-0.5","5c2ef42ffe2f3d000130b47b","B2","batch2","","741","","","tol_tohand","","","","","","","","","tol_peg_1","741","741","0","[[0,0,0],[2,0],[1]]","6","[[1,0,0],[2,3],[0]]","5","0","","","","","","6","",""
"","","","","","single-stim-button","274","1015009","0.0-3.0-25.5-1.5","5c2ef42ffe2f3d000130b47b","B2","batch2","","533","","","tol_toboard","","","","","","","","","tol_peg_2","533","533","0","[[0,0,0],[2,3],[1]]","6","[[1,0,0],[2,3],[0]]","5","0","","","","","","6","",""
"","","","","","single-stim-button","275","1015570","0.0-3.0-25.6-0.6","5c2ef42ffe2f3d000130b47b","B2","batch2","","559","","","tol_tohand","","","","","","","","","tol_peg_3","559","559","0","[[0,0,0],[2,3],[0]]","7","[[1,0,0],[2,3],[0]]","5","0","","","","","","6","",""
"","","","","","single-stim-button","276","1016650","0.0-3.0-25.6-1.6","5c2ef42ffe2f3d000130b47b","B2","batch2","","1079","","","tol_toboard","","","","","","","","","tol_peg_1","1079","1079","0","[[1,0,0],[2,3],[0]]","7","[[1,0,0],[2,3],[0]]","5","0","","","","","","6","",""
"","","","","","poldrack-single-stim","277","1017652","0.0-3.0-26.0","5c2ef42ffe2f3d000130b47b","B2","batch2","","-1","","","tol_feedback","true","","","","","","","","","1000","1000","500","","","","","","-1","none","true","72547","92398","","",""
"","","","","","html-button-response","278","1019168","0.0-3.0-27.0","5c2ef42ffe2f3d000130b47b","B2","batch2","","1515","<div class = centerbox><p class = center-block-text>problem <strong>7</strong> out of 25 problems</p></div>","0","tol_trial_num","","","","","","","","","","","","","","","","","","","","","","","","",""
"","","","","","single-stim-button","279","1036380","0.0-3.0-28.0-0.0","5c2ef42ffe2f3d000130b47b","B2","batch2","","17208","","","tol_tohand","","","","","","","","","tol_peg_3","17208","17208","0","[[2,1,0],[0,0],[0]]","1","[[1,2,0],[3,0],[0]]","6","0","","","","","","5","",""
"","","","","","single-stim-button","280","1037845","0.0-3.0-28.0-1.0","5c2ef42ffe2f3d000130b47b","B2","batch2","","1462","","","tol_toboard","","","","","","","","","tol_peg_2","1462","1462","0","[[2,1,0],[3,0],[0]]","1","[[1,2,0],[3,0],[0]]","6","0","","","","","","5","",""
"","","","","","single-stim-button","281","1041693","0.0-3.0-28.1-0.1","5c2ef42ffe2f3d000130b47b","B2","batch2","","3847","","","tol_tohand","","","","","","","","","tol_peg_1","3847","3847","0","[[2,0,0],[3,0],[0]]","2","[[1,2,0],[3,0],[0]]","6","0","","","","","","5","",""
"","","","","","single-stim-button","282","1043143","0.0-3.0-28.1-1.1","5c2ef42ffe2f3d000130b47b","B2","batch2","","1446","","","tol_toboard","","","","","","","","","tol_peg_3","1446","1446","0","[[2,0,0],[3,0],[1]]","2","[[1,2,0],[3,0],[0]]","6","0","","","","","","5","",""
"","","","","","single-stim-button","283","1043983","0.0-3.0-28.2-0.2","5c2ef42ffe2f3d000130b47b","B2","batch2","","838","","","tol_tohand","","","","","","","","","tol_peg_1","838","838","0","[[0,0,0],[3,0],[1]]","3","[[1,2,0],[3,0],[0]]","6","0","","","","","","5","",""
"","","","","","single-stim-button","284","1046183","0.0-3.0-28.2-1.2","5c2ef42ffe2f3d000130b47b","B2","batch2","","2198","","","tol_toboard","","","","","","","","","tol_peg_2","2198","2198","0","[[0,0,0],[3,2],[1]]","3","[[1,2,0],[3,0],[0]]","6","0","","","","","","5","",""
"","","","","","single-stim-button","285","1046992","0.0-3.0-28.3-0.3","5c2ef42ffe2f3d000130b47b","B2","batch2","","807","","","tol_tohand","","","","","","","","","tol_peg_3","807","807","0","[[0,0,0],[3,2],[0]]","4","[[1,2,0],[3,0],[0]]","6","0","","","","","","5","",""
"","","","","","single-stim-button","286","1047792","0.0-3.0-28.3-1.3","5c2ef42ffe2f3d000130b47b","B2","batch2","","799","","","tol_toboard","","","","","","","","","tol_peg_1","799","799","0","[[1,0,0],[3,2],[0]]","4","[[1,2,0],[3,0],[0]]","6","0","","","","","","5","",""
"","","","","","single-stim-button","287","1050329","0.0-3.0-28.4-0.4","5c2ef42ffe2f3d000130b47b","B2","batch2","","2535","","","tol_tohand","","","","","","","","","tol_peg_2","2535","2535","0","[[1,0,0],[3,0],[0]]","5","[[1,2,0],[3,0],[0]]","6","0","","","","","","5","",""
"","","","","","single-stim-button","288","1051321","0.0-3.0-28.4-1.4","5c2ef42ffe2f3d000130b47b","B2","batch2","","990","","","tol_toboard","","","","","","","","","tol_peg_1","990","990","0","[[1,2,0],[3,0],[0]]","5","[[1,2,0],[3,0],[0]]","6","0","","","","","","5","",""
"","","","","","poldrack-single-stim","289","1052325","0.0-3.0-29.0","5c2ef42ffe2f3d000130b47b","B2","batch2","","-1","","","tol_feedback","true","","","","","","","","","1000","1000","500","","","","","","-1","none","true","17208","25235","","",""
"","","","","","html-button-response","290","1053807","0.0-3.0-30.0","5c2ef42ffe2f3d000130b47b","B2","batch2","","1480","<div class = centerbox><p class = center-block-text>problem <strong>8</strong> out of 25 problems</p></div>","0","tol_trial_num","","","","","","","","","","","","","","","","","","","","","","","","",""
"","","","","","single-stim-button","291","1064765","0.0-3.0-31.0-0.0","5c2ef42ffe2f3d000130b47b","B2","batch2","","10956","","","tol_tohand","","","","","","","","","tol_peg_3","10956","10956","0","[[0,0,0],[2,3],[0]]","1","[[1,2,0],[3,0],[0]]","7","0","","","","","","4","",""
"","","","","","single-stim-button","292","1065766","0.0-3.0-31.0-1.0","5c2ef42ffe2f3d000130b47b","B2","batch2","","999","","","tol_toboard","","","","","","","","","tol_peg_1","999","999","0","[[1,0,0],[2,3],[0]]","1","[[1,2,0],[3,0],[0]]","7","0","","","","","","4","",""
"","","","","","single-stim-button","293","1066847","0.0-3.0-31.1-0.1","5c2ef42ffe2f3d000130b47b","B2","batch2","","1079","","","tol_tohand","","","","","","","","","tol_peg_2","1079","1079","0","[[1,0,0],[2,0],[0]]","2","[[1,2,0],[3,0],[0]]","7","0","","","","","","4","",""
"","","","","","single-stim-button","294","1068039","0.0-3.0-31.1-1.1","5c2ef42ffe2f3d000130b47b","B2","batch2","","1191","","","tol_toboard","","","","","","","","","tol_peg_3","1191","1191","0","[[1,0,0],[2,0],[3]]","2","[[1,2,0],[3,0],[0]]","7","0","","","","","","4","",""
"","","","","","single-stim-button","295","1068785","0.0-3.0-31.2-0.2","5c2ef42ffe2f3d000130b47b","B2","batch2","","745","","","tol_tohand","","","","","","","","","tol_peg_2","745","745","0","[[1,0,0],[0,0],[3]]","3","[[1,2,0],[3,0],[0]]","7","0","","","","","","4","",""
"","","","","","single-stim-button","296","1069416","0.0-3.0-31.2-1.2","5c2ef42ffe2f3d000130b47b","B2","batch2","","630","","","tol_toboard","","","","","","","","","tol_peg_1","630","630","0","[[1,2,0],[0,0],[3]]","3","[[1,2,0],[3,0],[0]]","7","0","","","","","","4","",""
"","","","","","single-stim-button","297","1070183","0.0-3.0-31.3-0.3","5c2ef42ffe2f3d000130b47b","B2","batch2","","765","","","tol_tohand","","","","","","","","","tol_peg_3","765","765","0","[[1,2,0],[0,0],[0]]","4","[[1,2,0],[3,0],[0]]","7","0","","","","","","4","",""
"","","","","","single-stim-button","298","1070839","0.0-3.0-31.3-1.3","5c2ef42ffe2f3d000130b47b","B2","batch2","","655","","","tol_toboard","","","","","","","","","tol_peg_2","655","655","0","[[1,2,0],[3,0],[0]]","4","[[1,2,0],[3,0],[0]]","7","0","","","","","","4","",""
"","","","","","poldrack-single-stim","299","1071844","0.0-3.0-32.0","5c2ef42ffe2f3d000130b47b","B2","batch2","","-1","","","tol_feedback","true","","","","","","","","","1000","1000","500","","","","","","-1","none","true","10956","13545","","",""
"","","","","","html-button-response","300","1073120","0.0-3.0-33.0","5c2ef42ffe2f3d000130b47b","B2","batch2","","1274","<div class = centerbox><p class = center-block-text>problem <strong>9</strong> out of 25 problems</p></div>","0","tol_trial_num","","","","","","","","","","","","","","","","","","","","","","","","",""
"","","","","","single-stim-button","301","1090358","0.0-3.0-34.0-0.0","5c2ef42ffe2f3d000130b47b","B2","batch2","","17233","","","tol_tohand","","","","","","","","","tol_peg_1","17233","17233","0","[[3,0,0],[0,0],[1]]","1","[[2,1,0],[3,0],[0]]","8","0","","","","","","6","",""
"","","","","","single-stim-button","302","1091397","0.0-3.0-34.0-1.0","5c2ef42ffe2f3d000130b47b","B2","batch2","","1038","","","tol_toboard","","","","","","","","","tol_peg_2","1038","1038","0","[[3,0,0],[2,0],[1]]","1","[[2,1,0],[3,0],[0]]","8","0","","","","","","6","",""
"","","","","","single-stim-button","303","1092172","0.0-3.0-34.1-0.1","5c2ef42ffe2f3d000130b47b","B2","batch2","","772","","","tol_tohand","","","","","","","","","tol_peg_1","772","772","0","[[0,0,0],[2,0],[1]]","2","[[2,1,0],[3,0],[0]]","8","0","","","","","","6","",""
"","","","","","single-stim-button","304","1099611","0.0-3.0-34.1-1.1","5c2ef42ffe2f3d000130b47b","B2","batch2","","7430","","","tol_toboard","","","","","","","","","tol_peg_1","7430","7430","0","[[3,0,0],[2,0],[1]]","2","[[2,1,0],[3,0],[0]]","8","0","","","","","","6","",""
"","","","","","single-stim-button","305","1116530","0.0-3.0-34.2-0.2","5c2ef42ffe2f3d000130b47b","B2","batch2","","16918","","","tol_tohand","","","","","","","","","tol_peg_3","16918","16918","0","[[3,0,0],[2,0],[0]]","3","[[2,1,0],[3,0],[0]]","8","0","","","","","","6","",""
"","","","","","single-stim-button","306","1117246","0.0-3.0-34.2-1.2","5c2ef42ffe2f3d000130b47b","B2","batch2","","705","","","tol_toboard","","","","","","","","","tol_peg_2","705","705","0","[[3,0,0],[2,1],[0]]","3","[[2,1,0],[3,0],[0]]","8","0","","","","","","6","",""
"","","","","","single-stim-button","307","1119428","0.0-3.0-34.3-0.3","5c2ef42ffe2f3d000130b47b","B2","batch2","","2181","","","tol_tohand","","","","","","","","","tol_peg_1","2181","2181","0","[[0,0,0],[2,1],[0]]","4","[[2,1,0],[3,0],[0]]","8","0","","","","","","6","",""
"","","","","","single-stim-button","308","1120277","0.0-3.0-34.3-1.3","5c2ef42ffe2f3d000130b47b","B2","batch2","","848","","","tol_toboard","","","","","","","","","tol_peg_3","848","848","0","[[0,0,0],[2,1],[3]]","4","[[2,1,0],[3,0],[0]]","8","0","","","","","","6","",""
"","","","","","single-stim-button","309","1125190","0.0-3.0-34.4-0.4","5c2ef42ffe2f3d000130b47b","B2","batch2","","4911","","","tol_tohand","","","","","","","","","tol_peg_2","4911","4911","0","[[0,0,0],[2,0],[3]]","5","[[2,1,0],[3,0],[0]]","8","0","","","","","","6","",""
"","","","","","single-stim-button","310","1129903","0.0-3.0-34.4-1.4","5c2ef42ffe2f3d000130b47b","B2","batch2","","4712","","","tol_toboard","","","","","","","","","tol_peg_1","4712","4712","0","[[1,0,0],[2,0],[3]]","5","[[2,1,0],[3,0],[0]]","8","0","","","","","","6","",""
"","","","","","single-stim-button","311","1135920","0.0-3.0-34.5-0.5","5c2ef42ffe2f3d000130b47b","B2","batch2","","6016","","","tol_tohand","","","","","","","","","tol_peg_3","6016","6016","0","[[1,0,0],[2,0],[0]]","6","[[2,1,0],[3,0],[0]]","8","0","","","","","","6","",""
"","","","","","single-stim-button","312","1136481","0.0-3.0-34.5-1.5","5c2ef42ffe2f3d000130b47b","B2","batch2","","558","","","tol_toboard","","","","","","","","","tol_peg_2","558","558","0","[[1,0,0],[2,3],[0]]","6","[[2,1,0],[3,0],[0]]","8","0","","","","","","6","",""
"","","","","","single-stim-button","313","1137104","0.0-3.0-34.6-0.6","5c2ef42ffe2f3d000130b47b","B2","batch2","","620","","","tol_tohand","","","","","","","","","tol_peg_1","620","620","0","[[0,0,0],[2,3],[0]]","7","[[2,1,0],[3,0],[0]]","8","0","","","","","","6","",""
"","","","","","single-stim-button","314","1138021","0.0-3.0-34.6-1.6","5c2ef42ffe2f3d000130b47b","B2","batch2","","915","","","tol_toboard","","","","","","","","","tol_peg_3","915","915","0","[[0,0,0],[2,3],[1]]","7","[[2,1,0],[3,0],[0]]","8","0","","","","","","6","",""
"","","","","","single-stim-button","315","1140002","0.0-3.0-34.7-0.7","5c2ef42ffe2f3d000130b47b","B2","batch2","","1980","","","tol_tohand","","","","","","","","","tol_peg_2","1980","1980","0","[[0,0,0],[2,0],[1]]","8","[[2,1,0],[3,0],[0]]","8","0","","","","","","6","",""
"","","","","","single-stim-button","316","1140889","0.0-3.0-34.7-1.7","5c2ef42ffe2f3d000130b47b","B2","batch2","","886","","","tol_toboard","","","","","","","","","tol_peg_1","886","886","0","[[3,0,0],[2,0],[1]]","8","[[2,1,0],[3,0],[0]]","8","0","","","","","","6","",""
"","","","","","single-stim-button","317","1146378","0.0-3.0-34.8-0.8","5c2ef42ffe2f3d000130b47b","B2","batch2","","5487","","","tol_tohand","","","","","","","","","tol_peg_2","5487","5487","0","[[3,0,0],[0,0],[1]]","9","[[2,1,0],[3,0],[0]]","8","0","","","","","","6","",""
"","","","","","single-stim-button","318","1151595","0.0-3.0-34.8-1.8","5c2ef42ffe2f3d000130b47b","B2","batch2","","5217","","","tol_toboard","","","","","","","","","tol_peg_2","5217","5217","0","[[3,0,0],[2,0],[1]]","9","[[2,1,0],[3,0],[0]]","8","0","","","","","","6","",""
"","","","","","single-stim-button","319","1169042","0.0-3.0-34.9-0.9","5c2ef42ffe2f3d000130b47b","B2","batch2","","17445","","","tol_tohand","","","","","","","","","tol_peg_3","17445","17445","0","[[3,0,0],[2,0],[0]]","10","[[2,1,0],[3,0],[0]]","8","0","","","","","","6","",""
"","","","","","single-stim-button","320","1169639","0.0-3.0-34.9-1.9","5c2ef42ffe2f3d000130b47b","B2","batch2","","597","","","tol_toboard","","","","","","","","","tol_peg_1","597","597","0","[[3,1,0],[2,0],[0]]","10","[[2,1,0],[3,0],[0]]","8","0","","","","","","6","",""
"","","","","","single-stim-button","321","1170181","0.0-3.0-34.10-0.10","5c2ef42ffe2f3d000130b47b","B2","batch2","","540","","","tol_tohand","","","","","","","","","tol_peg_2","540","540","0","[[3,1,0],[0,0],[0]]","11","[[2,1,0],[3,0],[0]]","8","0","","","","","","6","",""
"","","","","","single-stim-button","322","1171122","0.0-3.0-34.10-1.10","5c2ef42ffe2f3d000130b47b","B2","batch2","","927","","","tol_toboard","","","","","","","","","tol_peg_3","927","927","0","[[3,1,0],[0,0],[2]]","11","[[2,1,0],[3,0],[0]]","8","0","","","","","","6","",""
"","","","","","single-stim-button","323","1171937","0.0-3.0-34.11-0.11","5c2ef42ffe2f3d000130b47b","B2","batch2","","813","","","tol_tohand","","","","","","","","","tol_peg_1","813","813","0","[[3,0,0],[0,0],[2]]","12","[[2,1,0],[3,0],[0]]","8","0","","","","","","6","",""
"","","","","","single-stim-button","324","1172810","0.0-3.0-34.11-1.11","5c2ef42ffe2f3d000130b47b","B2","batch2","","872","","","tol_toboard","","","","","","","","","tol_peg_2","872","872","0","[[3,0,0],[1,0],[2]]","12","[[2,1,0],[3,0],[0]]","8","0","","","","","","6","",""
"","","","","","single-stim-button","325","1175716","0.0-3.0-34.12-0.12","5c2ef42ffe2f3d000130b47b","B2","batch2","","2904","","","tol_tohand","","","","","","","","","tol_peg_1","2904","2904","0","[[0,0,0],[1,0],[2]]","13","[[2,1,0],[3,0],[0]]","8","0","","","","","","6","",""
"","","","","","single-stim-button","326","1176658","0.0-3.0-34.12-1.12","5c2ef42ffe2f3d000130b47b","B2","batch2","","939","","","tol_toboard","","","","","","","","","tol_peg_2","939","939","0","[[0,0,0],[1,3],[2]]","13","[[2,1,0],[3,0],[0]]","8","0","","","","","","6","",""
"","","","","","single-stim-button","327","1177464","0.0-3.0-34.13-0.13","5c2ef42ffe2f3d000130b47b","B2","batch2","","803","","","tol_tohand","","","","","","","","","tol_peg_3","803","803","0","[[0,0,0],[1,3],[0]]","14","[[2,1,0],[3,0],[0]]","8","0","","","","","","6","",""
"","","","","","single-stim-button","328","1178712","0.0-3.0-34.13-1.13","5c2ef42ffe2f3d000130b47b","B2","batch2","","1246","","","tol_toboard","","","","","","","","","tol_peg_1","1246","1246","0","[[2,0,0],[1,3],[0]]","14","[[2,1,0],[3,0],[0]]","8","0","","","","","","6","",""
"","","","","","single-stim-button","329","1179952","0.0-3.0-34.14-0.14","5c2ef42ffe2f3d000130b47b","B2","batch2","","1239","","","tol_tohand","","","","","","","","","tol_peg_2","1239","1239","0","[[2,0,0],[1,0],[0]]","15","[[2,1,0],[3,0],[0]]","8","0","","","","","","6","",""
"","","","","","single-stim-button","330","1181014","0.0-3.0-34.14-1.14","5c2ef42ffe2f3d000130b47b","B2","batch2","","1060","","","tol_toboard","","","","","","","","","tol_peg_3","1060","1060","0","[[2,0,0],[1,0],[3]]","15","[[2,1,0],[3,0],[0]]","8","0","","","","","","6","",""
"","","","","","single-stim-button","331","1181585","0.0-3.0-34.15-0.15","5c2ef42ffe2f3d000130b47b","B2","batch2","","571","","","tol_tohand","","","","","","","","","tol_peg_2","571","571","0","[[2,0,0],[0,0],[3]]","16","[[2,1,0],[3,0],[0]]","8","0","","","","","","6","",""
"","","","","","single-stim-button","332","1182283","0.0-3.0-34.15-1.15","5c2ef42ffe2f3d000130b47b","B2","batch2","","695","","","tol_toboard","","","","","","","","","tol_peg_1","695","695","0","[[2,1,0],[0,0],[3]]","16","[[2,1,0],[3,0],[0]]","8","0","","","","","","6","",""
"","","","","","single-stim-button","333","1184529","0.0-3.0-34.16-0.16","5c2ef42ffe2f3d000130b47b","B2","batch2","","2245","","","tol_tohand","","","","","","","","","tol_peg_3","2245","2245","0","[[2,1,0],[0,0],[0]]","17","[[2,1,0],[3,0],[0]]","8","0","","","","","","6","",""
"","","","","","single-stim-button","334","1185576","0.0-3.0-34.16-1.16","5c2ef42ffe2f3d000130b47b","B2","batch2","","1046","","","tol_toboard","","","","","","","","","tol_peg_2","1046","1046","0","[[2,1,0],[3,0],[0]]","17","[[2,1,0],[3,0],[0]]","8","0","","","","","","6","",""
"","","","","","poldrack-single-stim","335","1186580","0.0-3.0-35.0","5c2ef42ffe2f3d000130b47b","B2","batch2","","-1","","","tol_feedback","true","","","","","","","","","1000","1000","500","","","","","","-1","none","true","17233","82678","","",""
"","","","","","html-button-response","336","1188168","0.0-3.0-36.0","5c2ef42ffe2f3d000130b47b","B2","batch2","","1587","<div class = centerbox><p class = center-block-text>problem <strong>10</strong> out of 25 problems</p></div>","0","tol_trial_num","","","","","","","","","","","","","","","","","","","","","","","","",""
"","","","","","single-stim-button","337","1194028","0.0-3.0-37.0-0.0","5c2ef42ffe2f3d000130b47b","B2","batch2","","5858","","","tol_tohand","","","","","","","","","tol_peg_2","5858","5858","0","[[3,0,0],[0,0],[2]]","1","[[3,0,0],[2,1],[0]]","9","0","","","","","","3","",""
"","","","","","single-stim-button","338","1194658","0.0-3.0-37.0-1.0","5c2ef42ffe2f3d000130b47b","B2","batch2","","626","","","tol_toboard","","","","","","","","","tol_peg_1","626","626","0","[[3,1,0],[0,0],[2]]","1","[[3,0,0],[2,1],[0]]","9","0","","","","","","3","",""
"","","","","","single-stim-button","339","1195507","0.0-3.0-37.1-0.1","5c2ef42ffe2f3d000130b47b","B2","batch2","","835","","","tol_tohand","","","","","","","","","tol_peg_3","835","835","0","[[3,1,0],[0,0],[0]]","2","[[3,0,0],[2,1],[0]]","9","0","","","","","","3","",""
"","","","","","single-stim-button","340","1196667","0.0-3.0-37.1-1.1","5c2ef42ffe2f3d000130b47b","B2","batch2","","1159","","","tol_toboard","","","","","","","","","tol_peg_2","1159","1159","0","[[3,1,0],[2,0],[0]]","2","[[3,0,0],[2,1],[0]]","9","0","","","","","","3","",""
"","","","","","single-stim-button","341","1197828","0.0-3.0-37.2-0.2","5c2ef42ffe2f3d000130b47b","B2","batch2","","1159","","","tol_tohand","","","","","","","","","tol_peg_1","1159","1159","0","[[3,0,0],[2,0],[0]]","3","[[3,0,0],[2,1],[0]]","9","0","","","","","","3","",""
"","","","","","single-stim-button","342","1198659","0.0-3.0-37.2-1.2","5c2ef42ffe2f3d000130b47b","B2","batch2","","829","","","tol_toboard","","","","","","","","","tol_peg_2","829","829","0","[[3,0,0],[2,1],[0]]","3","[[3,0,0],[2,1],[0]]","9","0","","","","","","3","",""
"","","","","","poldrack-single-stim","343","1199661","0.0-3.0-38.0","5c2ef42ffe2f3d000130b47b","B2","batch2","","-1","","","tol_feedback","true","","","","","","","","","1000","1000","500","","","","","","-1","none","true","5858","7852","","",""
"","","","","","html-button-response","344","1200843","0.0-3.0-39.0","5c2ef42ffe2f3d000130b47b","B2","batch2","","1181","<div class = centerbox><p class = center-block-text>problem <strong>11</strong> out of 25 problems</p></div>","0","tol_trial_num","","","","","","","","","","","","","","","","","","","","","","","","",""
"","","","","","single-stim-button","345","1208831","0.0-3.0-40.0-0.0","5c2ef42ffe2f3d000130b47b","B2","batch2","","7979","","","tol_tohand","","","","","","","","","tol_peg_2","7979","7979","0","[[1,2,0],[0,0],[0]]","1","[[2,0,0],[1,3],[0]]","10","0","","","","","","6","",""
"","","","","","single-stim-button","346","1209828","0.0-3.0-40.0-1.0","5c2ef42ffe2f3d000130b47b","B2","batch2","","996","","","tol_toboard","","","","","","","","","tol_peg_3","996","996","0","[[1,2,0],[0,0],[3]]","1","[[2,0,0],[1,3],[0]]","10","0","","","","","","6","",""
"","","","","","single-stim-button","347","1212126","0.0-3.0-40.1-0.1","5c2ef42ffe2f3d000130b47b","B2","batch2","","2296","","","tol_tohand","","","","","","","","","tol_peg_1","2296","2296","0","[[1,0,0],[0,0],[3]]","2","[[2,0,0],[1,3],[0]]","10","0","","","","","","6","",""
"","","","","","single-stim-button","348","1215533","0.0-3.0-40.1-1.1","5c2ef42ffe2f3d000130b47b","B2","batch2","","3406","","","tol_toboard","","","","","","","","","tol_peg_2","3406","3406","0","[[1,0,0],[2,0],[3]]","2","[[2,0,0],[1,3],[0]]","10","0","","","","","","6","",""
"","","","","","single-stim-button","349","1223743","0.0-3.0-40.2-0.2","5c2ef42ffe2f3d000130b47b","B2","batch2","","8209","","","tol_tohand","","","","","","","","","tol_peg_3","8209","8209","0","[[1,0,0],[2,0],[0]]","3","[[2,0,0],[1,3],[0]]","10","0","","","","","","6","",""
"","","","","","single-stim-button","350","1224343","0.0-3.0-40.2-1.2","5c2ef42ffe2f3d000130b47b","B2","batch2","","599","","","tol_toboard","","","","","","","","","tol_peg_2","599","599","0","[[1,0,0],[2,3],[0]]","3","[[2,0,0],[1,3],[0]]","10","0","","","","","","6","",""
"","","","","","single-stim-button","351","1225445","0.0-3.0-40.3-0.3","5c2ef42ffe2f3d000130b47b","B2","batch2","","1099","","","tol_tohand","","","","","","","","","tol_peg_1","1099","1099","0","[[0,0,0],[2,3],[0]]","4","[[2,0,0],[1,3],[0]]","10","0","","","","","","6","",""
"","","","","","single-stim-button","352","1227256","0.0-3.0-40.3-1.3","5c2ef42ffe2f3d000130b47b","B2","batch2","","1810","","","tol_toboard","","","","","","","","","tol_peg_3","1810","1810","0","[[0,0,0],[2,3],[1]]","4","[[2,0,0],[1,3],[0]]","10","0","","","","","","6","",""
"","","","","","single-stim-button","353","1236488","0.0-3.0-40.4-0.4","5c2ef42ffe2f3d000130b47b","B2","batch2","","9231","","","tol_tohand","","","","","","","","","tol_peg_2","9231","9231","0","[[0,0,0],[2,0],[1]]","5","[[2,0,0],[1,3],[0]]","10","0","","","","","","6","",""
"","","","","","single-stim-button","354","1241567","0.0-3.0-40.4-1.4","5c2ef42ffe2f3d000130b47b","B2","batch2","","5077","","","tol_toboard","","","","","","","","","tol_peg_1","5077","5077","0","[[3,0,0],[2,0],[1]]","5","[[2,0,0],[1,3],[0]]","10","0","","","","","","6","",""
"","","","","","single-stim-button","355","1244970","0.0-3.0-40.5-0.5","5c2ef42ffe2f3d000130b47b","B2","batch2","","3394","","","tol_tohand","","","","","","","","","tol_peg_2","3394","3394","0","[[3,0,0],[0,0],[1]]","6","[[2,0,0],[1,3],[0]]","10","0","","","","","","6","",""
