"success","timeout","failed_images","failed_audio","failed_video","trial_type","trial_index","time_elapsed","internal_node_id","subject_id","study_id","session_id","task","rt","stimulus","response","item","answer","correct","spm_correct","spm_rt","view_history","mouse_click","stim_duration","block_duration","timing_post_trial","current_position","tol_num_moves_made","tol_target","tol_problem_id","tol_rt","key_press","possible_responses","tol_correct","preplanning","tol_rt_per_trial","tol_min_moves","fiar_detect_rt","fiar_detect_correct","total_correct_fiar_detect","post_trial_gap","choices"
"true","false","[]","[]","[]","preload","0","1288","0.0-0.0","5c2f6e25ce8e640001b99855","D2","batch4","","","","","","","","","","","","","","","","","","","","","","","","","","","","","",""
"true","","","","","fullscreen","1","19558","0.0-1.0-0.0","5c2f6e25ce8e640001b99855","D2","batch4","","","","","","","","","","","","","","","","","","","","","","","","","","","","","",""
"true","","","","","fullscreen","2","22838","0.0-2.0-0.0","5c2f6e25ce8e640001b99855","D2","batch4","spm_fullscreen","","","","","","","","","","","","","","","","","","","","","","","","","","","","",""
"","","","","","html-button-response","3","37439","0.0-2.0-1.0","5c2f6e25ce8e640001b99855","D2","batch4","","14599.099999904633","<p class = block-text><b>Instructions</b> <br>This is a widely used intelligence test in research. <br>In this test, a figure with a missing piece will be presented.<br>Below the figure are alternative pieces to complete the figure, only one of which is correct.<br> Different figures might involve different principles for obtaining the missing piece<br>Your job is to select the most logical piece to complete the figure.</p>","0","","","","","","","","","","","","","","","","","","","","","","","","","",""
"","","","","","html-keyboard-response","4","38246","0.0-2.0-2.0-0.0","5c2f6e25ce8e640001b99855","D2","batch4","spm_show_trial_num","null","<p class=block-text>Trial 1 out of 60</p>","null","","","","","","","","","","","","","","","","","","","","","","","","","",""
"","","","","","image-button-response","5","47356","0.0-2.0-2.0-1.0","5c2f6e25ce8e640001b99855","D2","batch4","spm_respsonse","9096.100000023842","img/question_1_1.jpeg","3","mat_01","4","1","1","9096.100000023842","","","","","","","","","","","","","","","","","","","","",""
"","","","","","html-keyboard-response","6","48422","0.0-2.0-2.0-0.1","5c2f6e25ce8e640001b99855","D2","batch4","spm_show_trial_num","null","<p class=block-text>Trial 2 out of 60</p>","null","","","","","","","","","","","","","","","","","","","","","","","","","",""
"","","","","","image-button-response","7","50940","0.0-2.0-2.0-1.1","5c2f6e25ce8e640001b99855","D2","batch4","spm_respsonse","2516.100000023842","img/question_1_2.jpeg","4","mat_02","5","1","1","2516.100000023842","","","","","","","","","","","","","","","","","","","","",""
"","","","","","html-keyboard-response","8","52014","0.0-2.0-2.0-0.2","5c2f6e25ce8e640001b99855","D2","batch4","spm_show_trial_num","null","<p class=block-text>Trial 3 out of 60</p>","null","","","","","","","","","","","","","","","","","","","","","","","","","",""
"","","","","","image-button-response","9","54711","0.0-2.0-2.0-1.2","5c2f6e25ce8e640001b99855","D2","batch4","spm_respsonse","2696.399999976158","img/question_1_3.jpeg","0","mat_03","1","1","1","2696.399999976158","","","","","","","","","","","","","","","","","","","","",""
"","","","","","html-keyboard-response","10","55773","0.0-2.0-2.0-0.3","5c2f6e25ce8e640001b99855","D2","batch4","spm_show_trial_num","null","<p class=block-text>Trial 4 out of 60</p>","null","","","","","","","","","","","","","","","","","","","","","","","","","",""
"","","","","","image-button-response","11","59180","0.0-2.0-2.0-1.3","5c2f6e25ce8e640001b99855","D2","batch4","spm_respsonse","3405.399999976158","img/question_1_4.jpeg","1","mat_04","2","1","1","3405.399999976158","","","","","","","","","","","","","","","","","","","","",""
"","","","","","html-keyboard-response","12","60246","0.0-2.0-2.0-0.4","5c2f6e25ce8e640001b99855","D2","batch4","spm_show_trial_num","null","<p class=block-text>Trial 5 out of 60</p>","null","","","","","","","","","","","","","","","","","","","","","","","","","",""
"","","","","","image-button-response","13","65015","0.0-2.0-2.0-1.4","5c2f6e25ce8e640001b99855","D2","batch4","spm_respsonse","4768","img/question_1_5.jpeg","5","mat_05","6","1","1","4768","","","","","","","","","","","","","","","","","","","","",""
"","","","","","html-keyboard-response","14","66077","0.0-2.0-2.0-0.5","5c2f6e25ce8e640001b99855","D2","batch4","spm_show_trial_num","null","<p class=block-text>Trial 6 out of 60</p>","null","","","","","","","","","","","","","","","","","","","","","","","","","",""
"","","","","","image-button-response","15","71489","0.0-2.0-2.0-1.5","5c2f6e25ce8e640001b99855","D2","batch4","spm_respsonse","5410.099999904633","img/question_1_6.jpeg","2","mat_06","3","1","1","5410.099999904633","","","","","","","","","","","","","","","","","","","","",""
"","","","","","html-keyboard-response","16","72549","0.0-2.0-2.0-0.6","5c2f6e25ce8e640001b99855","D2","batch4","spm_show_trial_num","null","<p class=block-text>Trial 7 out of 60</p>","null","","","","","","","","","","","","","","","","","","","","","","","","","",""
"","","","","","image-button-response","17","76753","0.0-2.0-2.0-1.6","5c2f6e25ce8e640001b99855","D2","batch4","spm_respsonse","4202","img/question_1_7.jpeg","5","mat_07","6","1","1","4202","","","","","","","","","","","","","","","","","","","","",""
"","","","","","html-keyboard-response","18","77813","0.0-2.0-2.0-0.7","5c2f6e25ce8e640001b99855","D2","batch4","spm_show_trial_num","null","<p class=block-text>Trial 8 out of 60</p>","null","","","","","","","","","","","","","","","","","","","","","","","","","",""
"","","","","","image-button-response","19","83393","0.0-2.0-2.0-1.7","5c2f6e25ce8e640001b99855","D2","batch4","spm_respsonse","5578.299999952316","img/question_1_8.jpeg","1","mat_08","2","1","1","5578.299999952316","","","","","","","","","","","","","","","","","","","","",""
"","","","","","html-keyboard-response","20","84453","0.0-2.0-2.0-0.8","5c2f6e25ce8e640001b99855","D2","batch4","spm_show_trial_num","null","<p class=block-text>Trial 9 out of 60</p>","null","","","","","","","","","","","","","","","","","","","","","","","","","",""
"","","","","","image-button-response","21","90555","0.0-2.0-2.0-1.8","5c2f6e25ce8e640001b99855","D2","batch4","spm_respsonse","6099.5","img/question_1_9.jpeg","0","mat_09","1","1","1","6099.5","","","","","","","","","","","","","","","","","","","","",""
"","","","","","html-keyboard-response","22","91621","0.0-2.0-2.0-0.9","5c2f6e25ce8e640001b99855","D2","batch4","spm_show_trial_num","null","<p class=block-text>Trial 10 out of 60</p>","null","","","","","","","","","","","","","","","","","","","","","","","","","",""
"","","","","","image-button-response","23","98953","0.0-2.0-2.0-1.9","5c2f6e25ce8e640001b99855","D2","batch4","spm_respsonse","7330.5","img/question_1_10.jpeg","2","mat_10","3","1","1","7330.5","","","","","","","","","","","","","","","","","","","","",""
"","","","","","html-keyboard-response","24","100013","0.0-2.0-2.0-0.10","5c2f6e25ce8e640001b99855","D2","batch4","spm_show_trial_num","null","<p class=block-text>Trial 11 out of 60</p>","null","","","","","","","","","","","","","","","","","","","","","","","","","",""
"","","","","","image-button-response","25","110710","0.0-2.0-2.0-1.10","5c2f6e25ce8e640001b99855","D2","batch4","spm_respsonse","10695.300000071526","img/question_1_11.jpeg","3","mat_11","4","1","1","10695.300000071526","","","","","","","","","","","","","","","","","","","","",""
"","","","","","html-keyboard-response","26","111772","0.0-2.0-2.0-0.11","5c2f6e25ce8e640001b99855","D2","batch4","spm_show_trial_num","null","<p class=block-text>Trial 12 out of 60</p>","null","","","","","","","","","","","","","","","","","","","","","","","","","",""
"","","","","","image-button-response","27","131884","0.0-2.0-2.0-1.11","5c2f6e25ce8e640001b99855","D2","batch4","spm_respsonse","20110","img/question_1_12.jpeg","4","mat_12","5","1","1","20110","","","","","","","","","","","","","","","","","","","","",""
"","","","","","html-keyboard-response","28","132949","0.0-2.0-2.0-0.12","5c2f6e25ce8e640001b99855","D2","batch4","spm_show_trial_num","null","<p class=block-text>Trial 13 out of 60</p>","null","","","","","","","","","","","","","","","","","","","","","","","","","",""
"","","","","","image-button-response","29","136242","0.0-2.0-2.0-1.12","5c2f6e25ce8e640001b99855","D2","batch4","spm_respsonse","3289.7000000476837","img/question_2_1.jpeg","1","mat_13","2","1","1","3289.7000000476837","","","","","","","","","","","","","","","","","","","","",""
"","","","","","html-keyboard-response","30","137309","0.0-2.0-2.0-0.13","5c2f6e25ce8e640001b99855","D2","batch4","spm_show_trial_num","null","<p class=block-text>Trial 14 out of 60</p>","null","","","","","","","","","","","","","","","","","","","","","","","","","",""
"","","","","","image-button-response","31","142150","0.0-2.0-2.0-1.13","5c2f6e25ce8e640001b99855","D2","batch4","spm_respsonse","4838.699999928474","img/question_2_2.jpeg","5","mat_14","6","1","1","4838.699999928474","","","","","","","","","","","","","","","","","","","","",""
"","","","","","html-keyboard-response","32","143211","0.0-2.0-2.0-0.14","5c2f6e25ce8e640001b99855","D2","batch4","spm_show_trial_num","null","<p class=block-text>Trial 15 out of 60</p>","null","","","","","","","","","","","","","","","","","","","","","","","","","",""
"","","","","","image-button-response","33","147394","0.0-2.0-2.0-1.14","5c2f6e25ce8e640001b99855","D2","batch4","spm_respsonse","4180.299999952316","img/question_2_3.jpeg","0","mat_15","1","1","1","4180.299999952316","","","","","","","","","","","","","","","","","","","","",""
"","","","","","html-keyboard-response","34","148460","0.0-2.0-2.0-0.15","5c2f6e25ce8e640001b99855","D2","batch4","spm_show_trial_num","null","<p class=block-text>Trial 16 out of 60</p>","null","","","","","","","","","","","","","","","","","","","","","","","","","",""
"","","","","","image-button-response","35","152250","0.0-2.0-2.0-1.15","5c2f6e25ce8e640001b99855","D2","batch4","spm_respsonse","3788.0999999046326","img/question_2_4.jpeg","1","mat_16","2","1","1","3788.0999999046326","","","","","","","","","","","","","","","","","","","","",""
"","","","","","html-keyboard-response","36","153316","0.0-2.0-2.0-0.16","5c2f6e25ce8e640001b99855","D2","batch4","spm_show_trial_num","null","<p class=block-text>Trial 17 out of 60</p>","null","","","","","","","","","","","","","","","","","","","","","","","","","",""
"","","","","","image-button-response","37","157937","0.0-2.0-2.0-1.16","5c2f6e25ce8e640001b99855","D2","batch4","spm_respsonse","4619.399999976158","img/question_2_5.jpeg","0","mat_17","1","1","1","4619.399999976158","","","","","","","","","","","","","","","","","","","","",""
"","","","","","html-keyboard-response","38","159002","0.0-2.0-2.0-0.17","5c2f6e25ce8e640001b99855","D2","batch4","spm_show_trial_num","null","<p class=block-text>Trial 18 out of 60</p>","null","","","","","","","","","","","","","","","","","","","","","","","","","",""
"","","","","","image-button-response","39","166247","0.0-2.0-2.0-1.17","5c2f6e25ce8e640001b99855","D2","batch4","spm_respsonse","7241.399999976158","img/question_2_6.jpeg","2","mat_18","3","1","1","7241.399999976158","","","","","","","","","","","","","","","","","","","","",""
"","","","","","html-keyboard-response","40","167308","0.0-2.0-2.0-0.18","5c2f6e25ce8e640001b99855","D2","batch4","spm_show_trial_num","null","<p class=block-text>Trial 19 out of 60</p>","null","","","","","","","","","","","","","","","","","","","","","","","","","",""
"","","","","","image-button-response","41","174136","0.0-2.0-2.0-1.18","5c2f6e25ce8e640001b99855","D2","batch4","spm_respsonse","6826.400000095367","img/question_2_7.jpeg","4","mat_19","5","1","1","6826.400000095367","","","","","","","","","","","","","","","","","","","","",""
"","","","","","html-keyboard-response","42","175204","0.0-2.0-2.0-0.19","5c2f6e25ce8e640001b99855","D2","batch4","spm_show_trial_num","null","<p class=block-text>Trial 20 out of 60</p>","null","","","","","","","","","","","","","","","","","","","","","","","","","",""
"","","","","","image-button-response","43","179713","0.0-2.0-2.0-1.19","5c2f6e25ce8e640001b99855","D2","batch4","spm_respsonse","4506.5","img/question_2_8.jpeg","5","mat_20","6","1","1","4506.5","","","","","","","","","","","","","","","","","","","","",""
"","","","","","html-keyboard-response","44","180779","0.0-2.0-2.0-0.20","5c2f6e25ce8e640001b99855","D2","batch4","spm_show_trial_num","null","<p class=block-text>Trial 21 out of 60</p>","null","","","","","","","","","","","","","","","","","","","","","","","","","",""
"","","","","","image-button-response","45","184514","0.0-2.0-2.0-1.20","5c2f6e25ce8e640001b99855","D2","batch4","spm_respsonse","3733.9000000953674","img/question_2_9.jpeg","3","mat_21","4","1","1","3733.9000000953674","","","","","","","","","","","","","","","","","","","","",""
"","","","","","html-keyboard-response","46","185580","0.0-2.0-2.0-0.21","5c2f6e25ce8e640001b99855","D2","batch4","spm_show_trial_num","null","<p class=block-text>Trial 22 out of 60</p>","null","","","","","","","","","","","","","","","","","","","","","","","","","",""
"","","","","","image-button-response","47","192045","0.0-2.0-2.0-1.21","5c2f6e25ce8e640001b99855","D2","batch4","spm_respsonse","6463.300000071526","img/question_2_10.jpeg","2","mat_22","3","1","1","6463.300000071526","","","","","","","","","","","","","","","","","","","","",""
"","","","","","html-keyboard-response","48","193107","0.0-2.0-2.0-0.22","5c2f6e25ce8e640001b99855","D2","batch4","spm_show_trial_num","null","<p class=block-text>Trial 23 out of 60</p>","null","","","","","","","","","","","","","","","","","","","","","","","","","",""
"","","","","","image-button-response","49","197245","0.0-2.0-2.0-1.22","5c2f6e25ce8e640001b99855","D2","batch4","spm_respsonse","4134.5","img/question_2_11.jpeg","3","mat_23","4","1","1","4134.5","","","","","","","","","","","","","","","","","","","","",""
"","","","","","html-keyboard-response","50","198308","0.0-2.0-2.0-0.23","5c2f6e25ce8e640001b99855","D2","batch4","spm_show_trial_num","null","<p class=block-text>Trial 24 out of 60</p>","null","","","","","","","","","","","","","","","","","","","","","","","","","",""
"","","","","","image-button-response","51","213478","0.0-2.0-2.0-1.23","5c2f6e25ce8e640001b99855","D2","batch4","spm_respsonse","15168.5","img/question_2_12.jpeg","4","mat_24","5","1","1","15168.5","","","","","","","","","","","","","","","","","","","","",""
"","","","","","html-button-response","52","215617","0.0-2.0-3.0","5c2f6e25ce8e640001b99855","D2","batch4","attention_check","1883.2999999523163","<p class = block-text>Attention check: Please choose 1<br></p>","0","","","true","","","","","","","","","","","","","","","","","","","","","","",""
"","","","","","html-keyboard-response","53","216419","0.0-2.0-4.0-0.0","5c2f6e25ce8e640001b99855","D2","batch4","spm_show_trial_num","null","<p class=block-text>Trial 25 out of 60</p>","null","","","","","","","","","","","","","","","","","","","","","","","","","",""
"","","","","","image-button-response","54","223523","0.0-2.0-4.0-1.0","5c2f6e25ce8e640001b99855","D2","batch4","spm_respsonse","7101.600000023842","img/question_3_1.jpeg","7","mat_25","8","1","1","7101.600000023842","","","","","","","","","","","","","","","","","","","","",""
"","","","","","html-keyboard-response","55","224587","0.0-2.0-4.0-0.1","5c2f6e25ce8e640001b99855","D2","batch4","spm_show_trial_num","null","<p class=block-text>Trial 26 out of 60</p>","null","","","","","","","","","","","","","","","","","","","","","","","","","",""
"","","","","","image-button-response","56","230309","0.0-2.0-4.0-1.1","5c2f6e25ce8e640001b99855","D2","batch4","spm_respsonse","5719.799999952316","img/question_3_2.jpeg","1","mat_26","2","1","1","5719.799999952316","","","","","","","","","","","","","","","","","","","","",""
"","","","","","html-keyboard-response","57","231371","0.0-2.0-4.0-0.2","5c2f6e25ce8e640001b99855","D2","batch4","spm_show_trial_num","null","<p class=block-text>Trial 27 out of 60</p>","null","","","","","","","","","","","","","","","","","","","","","","","","","",""
"","","","","","image-button-response","58","241086","0.0-2.0-4.0-1.2","5c2f6e25ce8e640001b99855","D2","batch4","spm_respsonse","9713.199999928474","img/question_3_3.jpeg","2","mat_27","3","1","1","9713.199999928474","","","","","","","","","","","","","","","","","","","","",""
"","","","","","html-keyboard-response","59","242147","0.0-2.0-4.0-0.3","5c2f6e25ce8e640001b99855","D2","batch4","spm_show_trial_num","null","<p class=block-text>Trial 28 out of 60</p>","null","","","","","","","","","","","","","","","","","","","","","","","","","",""
"","","","","","image-button-response","60","252348","0.0-2.0-4.0-1.3","5c2f6e25ce8e640001b99855","D2","batch4","spm_respsonse","10199.599999904633","img/question_3_4.jpeg","7","mat_28","8","1","1","10199.599999904633","","","","","","","","","","","","","","","","","","","","",""
"","","","","","html-keyboard-response","61","253411","0.0-2.0-4.0-0.4","5c2f6e25ce8e640001b99855","D2","batch4","spm_show_trial_num","null","<p class=block-text>Trial 29 out of 60</p>","null","","","","","","","","","","","","","","","","","","","","","","","","","",""
"","","","","","image-button-response","62","268018","0.0-2.0-4.0-1.4","5c2f6e25ce8e640001b99855","D2","batch4","spm_respsonse","14607.300000071526","img/question_3_5.jpeg","6","mat_29","7","1","1","14607.300000071526","","","","","","","","","","","","","","","","","","","","",""
"","","","","","html-keyboard-response","63","269078","0.0-2.0-4.0-0.5","5c2f6e25ce8e640001b99855","D2","batch4","spm_show_trial_num","null","<p class=block-text>Trial 30 out of 60</p>","null","","","","","","","","","","","","","","","","","","","","","","","","","",""
"","","","","","image-button-response","64","280420","0.0-2.0-4.0-1.5","5c2f6e25ce8e640001b99855","D2","batch4","spm_respsonse","11359.100000023842","img/question_3_6.jpeg","3","mat_30","4","1","1","11359.100000023842","","","","","","","","","","","","","","","","","","","","",""
"","","","","","html-keyboard-response","65","281482","0.0-2.0-4.0-0.6","5c2f6e25ce8e640001b99855","D2","batch4","spm_show_trial_num","null","<p class=block-text>Trial 31 out of 60</p>","null","","","","","","","","","","","","","","","","","","","","","","","","","",""
"","","","","","image-button-response","66","287106","0.0-2.0-4.0-1.6","5c2f6e25ce8e640001b99855","D2","batch4","spm_respsonse","5626.800000071526","img/question_3_7.jpeg","4","mat_31","5","1","1","5626.800000071526","","","","","","","","","","","","","","","","","","","","",""
"","","","","","html-keyboard-response","67","288172","0.0-2.0-4.0-0.7","5c2f6e25ce8e640001b99855","D2","batch4","spm_show_trial_num","null","<p class=block-text>Trial 32 out of 60</p>","null","","","","","","","","","","","","","","","","","","","","","","","","","",""
"","","","","","image-button-response","68","310675","0.0-2.0-4.0-1.7","5c2f6e25ce8e640001b99855","D2","batch4","spm_respsonse","22509.200000047684","img/question_3_8.jpeg","0","mat_32","1","1","1","22509.200000047684","","","","","","","","","","","","","","","","","","","","",""
"","","","","","html-keyboard-response","69","311742","0.0-2.0-4.0-0.8","5c2f6e25ce8e640001b99855","D2","batch4","spm_show_trial_num","null","<p class=block-text>Trial 33 out of 60</p>","null","","","","","","","","","","","","","","","","","","","","","","","","","",""
"","","","","","image-button-response","70","316935","0.0-2.0-4.0-1.8","5c2f6e25ce8e640001b99855","D2","batch4","spm_respsonse","5191.600000023842","img/question_3_9.jpeg","6","mat_33","7","1","1","5191.600000023842","","","","","","","","","","","","","","","","","","","","",""
"","","","","","html-keyboard-response","71","318002","0.0-2.0-4.0-0.9","5c2f6e25ce8e640001b99855","D2","batch4","spm_show_trial_num","null","<p class=block-text>Trial 34 out of 60</p>","null","","","","","","","","","","","","","","","","","","","","","","","","","",""
"","","","","","image-button-response","72","363065","0.0-2.0-4.0-1.9","5c2f6e25ce8e640001b99855","D2","batch4","spm_respsonse","45063.800000071526","img/question_3_10.jpeg","5","mat_34","6","1","1","45063.800000071526","","","","","","","","","","","","","","","","","","","","",""
"","","","","","html-keyboard-response","73","364128","0.0-2.0-4.0-0.10","5c2f6e25ce8e640001b99855","D2","batch4","spm_show_trial_num","null","<p class=block-text>Trial 35 out of 60</p>","null","","","","","","","","","","","","","","","","","","","","","","","","","",""
"","","","","","image-button-response","74","382649","0.0-2.0-4.0-1.10","5c2f6e25ce8e640001b99855","D2","batch4","spm_respsonse","18519.399999976158","img/question_3_11.jpeg","0","mat_35","1","1","1","18519.399999976158","","","","","","","","","","","","","","","","","","","","",""
"","","","","","html-keyboard-response","75","383710","0.0-2.0-4.0-0.11","5c2f6e25ce8e640001b99855","D2","batch4","spm_show_trial_num","null","<p class=block-text>Trial 36 out of 60</p>","null","","","","","","","","","","","","","","","","","","","","","","","","","",""
"","","","","","image-button-response","76","408903","0.0-2.0-4.0-1.11","5c2f6e25ce8e640001b99855","D2","batch4","spm_respsonse","25192.200000047684","img/question_3_12.jpeg","1","mat_36","2","1","1","25192.200000047684","","","","","","","","","","","","","","","","","","","","",""
"","","","","","html-keyboard-response","77","409965","0.0-2.0-4.0-0.12","5c2f6e25ce8e640001b99855","D2","batch4","spm_show_trial_num","null","<p class=block-text>Trial 37 out of 60</p>","null","","","","","","","","","","","","","","","","","","","","","","","","","",""
"","","","","","image-button-response","78","414674","0.0-2.0-4.0-1.12","5c2f6e25ce8e640001b99855","D2","batch4","spm_respsonse","4706.900000095367","img/question_4_1.jpeg","2","mat_37","3","1","1","4706.900000095367","","","","","","","","","","","","","","","","","","","","",""
"","","","","","html-keyboard-response","79","415741","0.0-2.0-4.0-0.13","5c2f6e25ce8e640001b99855","D2","batch4","spm_show_trial_num","null","<p class=block-text>Trial 38 out of 60</p>","null","","","","","","","","","","","","","","","","","","","","","","","","","",""
"","","","","","image-button-response","80","432381","0.0-2.0-4.0-1.13","5c2f6e25ce8e640001b99855","D2","batch4","spm_respsonse","16639","img/question_4_2.jpeg","3","mat_38","4","1","1","16639","","","","","","","","","","","","","","","","","","","","",""
"","","","","","html-keyboard-response","81","433444","0.0-2.0-4.0-0.14","5c2f6e25ce8e640001b99855","D2","batch4","spm_show_trial_num","null","<p class=block-text>Trial 39 out of 60</p>","null","","","","","","","","","","","","","","","","","","","","","","","","","",""
"","","","","","image-button-response","82","443053","0.0-2.0-4.0-1.14","5c2f6e25ce8e640001b99855","D2","batch4","spm_respsonse","9606.700000047684","img/question_4_3.jpeg","2","mat_39","3","1","1","9606.700000047684","","","","","","","","","","","","","","","","","","","","",""
"","","","","","html-keyboard-response","83","444116","0.0-2.0-4.0-0.15","5c2f6e25ce8e640001b99855","D2","batch4","spm_show_trial_num","null","<p class=block-text>Trial 40 out of 60</p>","null","","","","","","","","","","","","","","","","","","","","","","","","","",""
"","","","","","image-button-response","84","450773","0.0-2.0-4.0-1.15","5c2f6e25ce8e640001b99855","D2","batch4","spm_respsonse","6654.899999976158","img/question_4_4.jpeg","6","mat_40","7","1","1","6654.899999976158","","","","","","","","","","","","","","","","","","","","",""
"","","","","","html-keyboard-response","85","451836","0.0-2.0-4.0-0.16","5c2f6e25ce8e640001b99855","D2","batch4","spm_show_trial_num","null","<p class=block-text>Trial 41 out of 60</p>","null","","","","","","","","","","","","","","","","","","","","","","","","","",""
"","","","","","image-button-response","86","458244","0.0-2.0-4.0-1.16","5c2f6e25ce8e640001b99855","D2","batch4","spm_respsonse","6407.399999976158","img/question_4_5.jpeg","7","mat_41","8","1","1","6407.399999976158","","","","","","","","","","","","","","","","","","","","",""
"","","","","","html-keyboard-response","87","459307","0.0-2.0-4.0-0.17","5c2f6e25ce8e640001b99855","D2","batch4","spm_show_trial_num","null","<p class=block-text>Trial 42 out of 60</p>","null","","","","","","","","","","","","","","","","","","","","","","","","","",""
"","","","","","image-button-response","88","471144","0.0-2.0-4.0-1.17","5c2f6e25ce8e640001b99855","D2","batch4","spm_respsonse","11835.5","img/question_4_6.jpeg","5","mat_42","6","1","1","11835.5","","","","","","","","","","","","","","","","","","","","",""
"","","","","","html-keyboard-response","89","472211","0.0-2.0-4.0-0.18","5c2f6e25ce8e640001b99855","D2","batch4","spm_show_trial_num","null","<p class=block-text>Trial 43 out of 60</p>","null","","","","","","","","","","","","","","","","","","","","","","","","","",""
"","","","","","image-button-response","90","490084","0.0-2.0-4.0-1.18","5c2f6e25ce8e640001b99855","D2","batch4","spm_respsonse","17871.5","img/question_4_7.jpeg","4","mat_43","5","1","1","17871.5","","","","","","","","","","","","","","","","","","","","",""
"","","","","","html-keyboard-response","91","491146","0.0-2.0-4.0-0.19","5c2f6e25ce8e640001b99855","D2","batch4","spm_show_trial_num","null","<p class=block-text>Trial 44 out of 60</p>","null","","","","","","","","","","","","","","","","","","","","","","","","","",""
"","","","","","image-button-response","92","507802","0.0-2.0-4.0-1.19","5c2f6e25ce8e640001b99855","D2","batch4","spm_respsonse","16654.5","img/question_4_8.jpeg","3","mat_44","4","1","1","16654.5","","","","","","","","","","","","","","","","","","","","",""
"","","","","","html-keyboard-response","93","508866","0.0-2.0-4.0-0.20","5c2f6e25ce8e640001b99855","D2","batch4","spm_show_trial_num","null","<p class=block-text>Trial 45 out of 60</p>","null","","","","","","","","","","","","","","","","","","","","","","","","","",""
"","","","","","image-button-response","94","529605","0.0-2.0-4.0-1.20","5c2f6e25ce8e640001b99855","D2","batch4","spm_respsonse","20737.699999928474","img/question_4_9.jpeg","0","mat_45","1","1","1","20737.699999928474","","","","","","","","","","","","","","","","","","","","",""
"","","","","","html-keyboard-response","95","530664","0.0-2.0-4.0-0.21","5c2f6e25ce8e640001b99855","D2","batch4","spm_show_trial_num","null","<p class=block-text>Trial 46 out of 60</p>","null","","","","","","","","","","","","","","","","","","","","","","","","","",""
"","","","","","image-button-response","96","550426","0.0-2.0-4.0-1.21","5c2f6e25ce8e640001b99855","D2","batch4","spm_respsonse","19760.099999904633","img/question_4_10.jpeg","1","mat_46","2","1","1","19760.099999904633","","","","","","","","","","","","","","","","","","","","",""
"","","","","","html-keyboard-response","97","551488","0.0-2.0-4.0-0.22","5c2f6e25ce8e640001b99855","D2","batch4","spm_show_trial_num","null","<p class=block-text>Trial 47 out of 60</p>","null","","","","","","","","","","","","","","","","","","","","","","","","","",""
"","","","","","image-button-response","98","652222","0.0-2.0-4.0-1.22","5c2f6e25ce8e640001b99855","D2","batch4","spm_respsonse","100735.5","img/question_4_11.jpeg","4","mat_47","5","1","1","100735.5","","","","","","","","","","","","","","","","","","","","",""
"","","","","","html-keyboard-response","99","653282","0.0-2.0-4.0-0.23","5c2f6e25ce8e640001b99855","D2","batch4","spm_show_trial_num","null","<p class=block-text>Trial 48 out of 60</p>","null","","","","","","","","","","","","","","","","","","","","","","","","","",""
"","","","","","image-button-response","100","699333","0.0-2.0-4.0-1.23","5c2f6e25ce8e640001b99855","D2","batch4","spm_respsonse","46050.10000002384","img/question_4_12.jpeg","5","mat_48","6","1","1","46050.10000002384","","","","","","","","","","","","","","","","","","","","",""
"","","","","","html-keyboard-response","101","700394","0.0-2.0-4.0-0.24","5c2f6e25ce8e640001b99855","D2","batch4","spm_show_trial_num","null","<p class=block-text>Trial 49 out of 60</p>","null","","","","","","","","","","","","","","","","","","","","","","","","","",""
"","","","","","image-button-response","102","712193","0.0-2.0-4.0-1.24","5c2f6e25ce8e640001b99855","D2","batch4","spm_respsonse","11796.600000023842","img/question_5_1.jpeg","6","mat_49","7","1","1","11796.600000023842","","","","","","","","","","","","","","","","","","","","",""
"","","","","","html-keyboard-response","103","713257","0.0-2.0-4.0-0.25","5c2f6e25ce8e640001b99855","D2","batch4","spm_show_trial_num","null","<p class=block-text>Trial 50 out of 60</p>","null","","","","","","","","","","","","","","","","","","","","","","","","","",""
"","","","","","image-button-response","104","722080","0.0-2.0-4.0-1.25","5c2f6e25ce8e640001b99855","D2","batch4","spm_respsonse","8820.899999976158","img/question_5_2.jpeg","5","mat_50","6","1","1","8820.899999976158","","","","","","","","","","","","","","","","","","","","",""
"","","","","","html-keyboard-response","105","723144","0.0-2.0-4.0-0.26","5c2f6e25ce8e640001b99855","D2","batch4","spm_show_trial_num","null","<p class=block-text>Trial 51 out of 60</p>","null","","","","","","","","","","","","","","","","","","","","","","","","","",""
"","","","","","image-button-response","106","738294","0.0-2.0-4.0-1.26","5c2f6e25ce8e640001b99855","D2","batch4","spm_respsonse","15148.799999952316","img/question_5_3.jpeg","7","mat_51","8","1","1","15148.799999952316","","","","","","","","","","","","","","","","","","","","",""
"","","","","","html-keyboard-response","107","739360","0.0-2.0-4.0-0.27","5c2f6e25ce8e640001b99855","D2","batch4","spm_show_trial_num","null","<p class=block-text>Trial 52 out of 60</p>","null","","","","","","","","","","","","","","","","","","","","","","","","","",""
"","","","","","image-button-response","108","753119","0.0-2.0-4.0-1.27","5c2f6e25ce8e640001b99855","D2","batch4","spm_respsonse","13757.299999952316","img/question_5_4.jpeg","1","mat_52","2","1","1","13757.299999952316","","","","","","","","","","","","","","","","","","","","",""
"","","","","","html-keyboard-response","109","754184","0.0-2.0-4.0-0.28","5c2f6e25ce8e640001b99855","D2","batch4","spm_show_trial_num","null","<p class=block-text>Trial 53 out of 60</p>","null","","","","","","","","","","","","","","","","","","","","","","","","","",""
"","","","","","image-button-response","110","762655","0.0-2.0-4.0-1.28","5c2f6e25ce8e640001b99855","D2","batch4","spm_respsonse","8469.399999976158","img/question_5_5.jpeg","0","mat_53","1","1","1","8469.399999976158","","","","","","","","","","","","","","","","","","","","",""
"","","","","","html-keyboard-response","111","763720","0.0-2.0-4.0-0.29","5c2f6e25ce8e640001b99855","D2","batch4","spm_show_trial_num","null","<p class=block-text>Trial 54 out of 60</p>","null","","","","","","","","","","","","","","","","","","","","","","","","","",""
"","","","","","image-button-response","112","776827","0.0-2.0-4.0-1.29","5c2f6e25ce8e640001b99855","D2","batch4","spm_respsonse","13105.5","img/question_5_6.jpeg","4","mat_54","5","1","1","13105.5","","","","","","","","","","","","","","","","","","","","",""
"","","","","","html-keyboard-response","113","777887","0.0-2.0-4.0-0.30","5c2f6e25ce8e640001b99855","D2","batch4","spm_show_trial_num","null","<p class=block-text>Trial 55 out of 60</p>","null","","","","","","","","","","","","","","","","","","","","","","","","","",""
"","","","","","image-button-response","114","831009","0.0-2.0-4.0-1.30","5c2f6e25ce8e640001b99855","D2","batch4","spm_respsonse","53122","img/question_5_7.jpeg","0","mat_55","1","1","1","53122","","","","","","","","","","","","","","","","","","","","",""
"","","","","","html-keyboard-response","115","832068","0.0-2.0-4.0-0.31","5c2f6e25ce8e640001b99855","D2","batch4","spm_show_trial_num","null","<p class=block-text>Trial 56 out of 60</p>","null","","","","","","","","","","","","","","","","","","","","","","","","","",""
"","","","","","image-button-response","116","926887","0.0-2.0-4.0-1.31","5c2f6e25ce8e640001b99855","D2","batch4","spm_respsonse","94820.69999992847","img/question_5_8.jpeg","1","mat_56","6","0","0","94820.69999992847","","","","","","","","","","","","","","","","","","","","",""
"","","","","","html-keyboard-response","117","927954","0.0-2.0-4.0-0.32","5c2f6e25ce8e640001b99855","D2","batch4","spm_show_trial_num","null","<p class=block-text>Trial 57 out of 60</p>","null","","","","","","","","","","","","","","","","","","","","","","","","","",""
"","","","","","image-button-response","118","998110","0.0-2.0-4.0-1.32","5c2f6e25ce8e640001b99855","D2","batch4","spm_respsonse","70153.29999995232","img/question_5_9.jpeg","2","mat_57","3","1","1","70153.29999995232","","","","","","","","","","","","","","","","","","","","",""
"","","","","","html-keyboard-response","119","999171","0.0-2.0-4.0-0.33","5c2f6e25ce8e640001b99855","D2","batch4","spm_show_trial_num","null","<p class=block-text>Trial 58 out of 60</p>","null","","","","","","","","","","","","","","","","","","","","","","","","","",""
"","","","","","image-button-response","120","1077996","0.0-2.0-4.0-1.33","5c2f6e25ce8e640001b99855","D2","batch4","spm_respsonse","78824","img/question_5_10.jpeg","4","mat_58","2","0","0","78824","","","","","","","","","","","","","","","","","","","","",""
"","","","","","html-keyboard-response","121","1079059","0.0-2.0-4.0-0.34","5c2f6e25ce8e640001b99855","D2","batch4","spm_show_trial_num","null","<p class=block-text>Trial 59 out of 60</p>","null","","","","","","","","","","","","","","","","","","","","","","","","","",""
"","","","","","image-button-response","122","1220064","0.0-2.0-4.0-1.34","5c2f6e25ce8e640001b99855","D2","batch4","spm_respsonse","141008.30000007153","img/question_5_11.jpeg","6","mat_59","4","0","0","141008.30000007153","","","","","","","","","","","","","","","","","","","","",""
"","","","","","html-keyboard-response","123","1221129","0.0-2.0-4.0-0.35","5c2f6e25ce8e640001b99855","D2","batch4","spm_show_trial_num","null","<p class=block-text>Trial 60 out of 60</p>","null","","","","","","","","","","","","","","","","","","","","","","","","","",""
"","","","","","image-button-response","124","1383550","0.0-2.0-4.0-1.35","5c2f6e25ce8e640001b99855","D2","batch4","spm_respsonse","162425.39999997616","img/question_5_12.jpeg","1","mat_60","5","0","0","162425.39999997616","","","","","","","","","","","","","","","","","","","","",""
"","","","","","html-button-response","125","1385942","0.0-2.0-5.0","5c2f6e25ce8e640001b99855","D2","batch4","spm_goodbye","2138","<p class= block-text>This concludes the Standard Progressive Matrix game. Thank you for your responses!<br> When you are ready, click the button continue</p>","0","","","","","","","","","","","","","","","","","","","","","","","","","",""
"true","","","","","fullscreen","126","1389024","0.0-3.0-0.0","5c2f6e25ce8e640001b99855","D2","batch4","","","","","","","","","","","","","","","","","","","","","","","","","","","","","",""
"","","","","","instructions","127","1447474","0.0-3.0-1.0-0.0-0.0","5c2f6e25ce8e640001b99855","D2","batch4","tol-instructions","58451.5","","","","","","","","[{""page_index"":0,""viewing_time"":7555.600000023842},{""page_index"":1,""viewing_time"":9766.899999976158},{""page_index"":2,""viewing_time"":2798.2999999523163},{""page_index"":3,""viewing_time"":10159.5},{""page_index"":4,""viewing_time"":4898.700000047684},{""page_index"":5,""viewing_time"":20397.899999976158},{""page_index"":6,""viewing_time"":2874.3000000715256}]","","","","","","","","","","","","","","","","","","","",""
"","","","","","html-button-response","128","1448508","0.0-3.0-1.0-1.0-0.0","5c2f6e25ce8e640001b99855","D2","batch4","tol_enter_quiz","1033.2999999523163","<p class=block-text> Let's answer a few questions <br>","0","","","","","","","","","","","","","","","","","","","","","","","","","",""
"","","","","","html-button-response","129","1454278","0.0-3.0-1.0-1.0-1.0","5c2f6e25ce8e640001b99855","D2","batch4","tol_quiz","5767.799999952316","<p class = block-text>True or False: You can only move the ball on top of a peg. <br></p>","0","","","true","","","","","","","","","","","","","","","","","","","","","","",""
"","","","","","html-button-response","130","1455393","0.0-3.0-1.0-1.0-2.0","5c2f6e25ce8e640001b99855","D2","batch4","tol_quiz_feedback","1111.4000000953674","<p class = block-text>Correct! You can only move the ball on top of a peg.</p>","0","","","","","","","","","","","","","","","","","","","","","","","","","",""
"","","","","","html-button-response","131","1458234","0.0-3.0-1.0-1.0-3.0","5c2f6e25ce8e640001b99855","D2","batch4","tol_quiz","2840.600000023842","<p class = block-text>True or False: You should try to match your board with the target board with fewest moves possible. <br></p>","0","","","true","","","","","","","","","","","","","","","","","","","","","","",""
"","","","","","html-button-response","132","1458932","0.0-3.0-1.0-1.0-4.0","5c2f6e25ce8e640001b99855","D2","batch4","tol_quiz_feedback","697.1000000238419","<p class = block-text>Correct! </p>","0","","","","","","","","","","","","","","","","","","","","","","","","","",""
"","","","","","html-button-response","133","1461294","0.0-3.0-2.0","5c2f6e25ce8e640001b99855","D2","batch4","","2359.2000000476837","<p class=block-text> Now that you've understood the game, let's practice a few easier examples before we start!<br> <br>","0","","","","","","","","","","","","","","","","","","","","","","","","","",""
"","","","","","single-stim-button","134","1463632","0.0-3.0-3.0-0.0","5c2f6e25ce8e640001b99855","D2","batch4","tol_practice","2336","","","","","","","","","tol_peg_2","2336","2336","0","[[1,2,0],[0,0],[0]]","1","[[1,2,0],[0,0],[3]]","practice","2336","","","","","","","","","","",""
"","","","","","single-stim-button","135","1464912","0.0-3.0-3.0-1.0","5c2f6e25ce8e640001b99855","D2","batch4","tol_practice","1279","","","","","","","","","tol_peg_3","1279","1279","0","[[1,2,0],[0,0],[3]]","1","[[1,2,0],[0,0],[3]]","practice","1279","","","","","","","","","","",""
"","","","","","poldrack-single-stim","136","1465921","0.0-3.0-4.0","5c2f6e25ce8e640001b99855","D2","batch4","tol_feedback","-1","","","","","true","","","","","1000","1000","500","","","","","","-1","none","true","","0","","","","","",""
"","","","","","single-stim-button","137","1470344","0.0-3.0-5.0-0.0","5c2f6e25ce8e640001b99855","D2","batch4","tol_practice","4423","","","","","","","","","tol_peg_1","4423","4423","0","[[1,0,0],[3,0],[0]]","2","[[0,0,0],[3,1],[2]]","practice","4423","","","","","","","","","","",""
"","","","","","single-stim-button","138","1471552","0.0-3.0-5.0-1.0","5c2f6e25ce8e640001b99855","D2","batch4","tol_practice","1207","","","","","","","","","tol_peg_3","1207","1207","0","[[1,0,0],[3,0],[2]]","2","[[0,0,0],[3,1],[2]]","practice","1207","","","","","","","","","","",""
"","","","","","single-stim-button","139","1472554","0.0-3.0-5.1-0.1","5c2f6e25ce8e640001b99855","D2","batch4","tol_practice","1000","","","","","","","","","tol_peg_1","1000","1000","0","[[0,0,0],[3,0],[2]]","3","[[0,0,0],[3,1],[2]]","practice","1000","","","","","","","","","","",""
"","","","","","single-stim-button","140","1473451","0.0-3.0-5.1-1.1","5c2f6e25ce8e640001b99855","D2","batch4","tol_practice","897","","","","","","","","","tol_peg_2","897","897","0","[[0,0,0],[3,1],[2]]","3","[[0,0,0],[3,1],[2]]","practice","897","","","","","","","","","","",""
"","","","","","poldrack-single-stim","141","1474462","0.0-3.0-6.0","5c2f6e25ce8e640001b99855","D2","batch4","tol_feedback","-1","","","","","true","","","","","1000","1000","500","","","","","","-1","none","true","","0","","","","","",""
"","","","","","single-stim-button","142","1476940","0.0-3.0-7.0-0.0","5c2f6e25ce8e640001b99855","D2","batch4","tol_practice","2478","","","","","","","","","tol_peg_2","2478","2478","0","[[1,2,0],[0,0],[0]]","4","[[1,0,0],[2,0],[3]]","practice","2478","","","","","","","","","","",""
"","","","","","single-stim-button","143","1477770","0.0-3.0-7.0-1.0","5c2f6e25ce8e640001b99855","D2","batch4","tol_practice","829","","","","","","","","","tol_peg_3","829","829","0","[[1,2,0],[0,0],[3]]","4","[[1,0,0],[2,0],[3]]","practice","829","","","","","","","","","","",""
"","","","","","single-stim-button","144","1478580","0.0-3.0-7.1-0.1","5c2f6e25ce8e640001b99855","D2","batch4","tol_practice","807","","","","","","","","","tol_peg_1","807","807","0","[[1,0,0],[0,0],[3]]","5","[[1,0,0],[2,0],[3]]","practice","807","","","","","","","","","","",""
"","","","","","single-stim-button","145","1479614","0.0-3.0-7.1-1.1","5c2f6e25ce8e640001b99855","D2","batch4","tol_practice","1032","","","","","","","","","tol_peg_2","1032","1032","0","[[1,0,0],[2,0],[3]]","5","[[1,0,0],[2,0],[3]]","practice","1032","","","","","","","","","","",""
"","","","","","poldrack-single-stim","146","1480621","0.0-3.0-8.0","5c2f6e25ce8e640001b99855","D2","batch4","tol_feedback","-1","","","","","true","","","","","1000","1000","500","","","","","","-1","none","true","","0","","","","","",""
"","","","","","html-button-response","147","1483330","0.0-3.0-9.0","5c2f6e25ce8e640001b99855","D2","batch4","tol_instruction","2707.600000023842","<div class = centerbox><p class = center-block-text>Great job! You are done with practice trials<br>You are about to start official trials.<br> <br> Problem <strong>1</strong> out of 25 problems</p></div>","0","","","","","","","","","","","","","","","","","","","","","","","","","",""
"","","","","","single-stim-button","148","1494864","0.0-3.0-10.0-0.0","5c2f6e25ce8e640001b99855","D2","batch4","tol_tohand","10532","","","","","","","","","tol_peg_1","10532","10532","0","[[1,0,0],[3,0],[0]]","1","[[1,3,0],[2,0],[0]]","0","0","","","","","","3","","","","",""
"","","","","","single-stim-button","149","1495987","0.0-3.0-10.0-1.0","5c2f6e25ce8e640001b99855","D2","batch4","tol_toboard","1121","","","","","","","","","tol_peg_3","1121","1121","0","[[1,0,0],[3,0],[2]]","1","[[1,3,0],[2,0],[0]]","0","0","","","","","","3","","","","",""
"","","","","","single-stim-button","150","1496814","0.0-3.0-10.1-0.1","5c2f6e25ce8e640001b99855","D2","batch4","tol_tohand","824","","","","","","","","","tol_peg_2","824","824","0","[[1,0,0],[0,0],[2]]","2","[[1,3,0],[2,0],[0]]","0","0","","","","","","3","","","","",""
"","","","","","single-stim-button","151","1497521","0.0-3.0-10.1-1.1","5c2f6e25ce8e640001b99855","D2","batch4","tol_toboard","707","","","","","","","","","tol_peg_1","707","707","0","[[1,3,0],[0,0],[2]]","2","[[1,3,0],[2,0],[0]]","0","0","","","","","","3","","","","",""
"","","","","","single-stim-button","152","1498369","0.0-3.0-10.2-0.2","5c2f6e25ce8e640001b99855","D2","batch4","tol_tohand","846","","","","","","","","","tol_peg_3","846","846","0","[[1,3,0],[0,0],[0]]","3","[[1,3,0],[2,0],[0]]","0","0","","","","","","3","","","","",""
"","","","","","single-stim-button","153","1499119","0.0-3.0-10.2-1.2","5c2f6e25ce8e640001b99855","D2","batch4","tol_toboard","748","","","","","","","","","tol_peg_2","748","748","0","[[1,3,0],[2,0],[0]]","3","[[1,3,0],[2,0],[0]]","0","0","","","","","","3","","","","",""
"","","","","","poldrack-single-stim","154","1500124","0.0-3.0-11.0","5c2f6e25ce8e640001b99855","D2","batch4","tol_feedback","-1","","","","","true","","","","","1000","1000","500","","","","","","-1","none","true","10532","12202","","","","","",""
"","","","","","html-button-response","155","1501138","0.0-3.0-12.0","5c2f6e25ce8e640001b99855","D2","batch4","tol_trial_num","1009.4000000953674","<div class = centerbox><p class = center-block-text>problem <strong>2</strong> out of 25 problems</p></div>","0","","","","","","","","","","","","","","","","","","","","","","","","","",""
"","","","","","single-stim-button","156","1506308","0.0-3.0-13.0-0.0","5c2f6e25ce8e640001b99855","D2","batch4","tol_tohand","5169","","","","","","","","","tol_peg_1","5169","5169","0","[[1,0,0],[3,0],[0]]","1","[[2,1,3],[0,0],[0]]","1","0","","","","","","5","","","","",""
"","","","","","single-stim-button","157","1510306","0.0-3.0-13.0-1.0","5c2f6e25ce8e640001b99855","D2","batch4","tol_toboard","3997","","","","","","","","","tol_peg_3","3997","3997","0","[[1,0,0],[3,0],[2]]","1","[[2,1,3],[0,0],[0]]","1","0","","","","","","5","","","","",""
"","","","","","single-stim-button","158","1511090","0.0-3.0-13.1-0.1","5c2f6e25ce8e640001b99855","D2","batch4","tol_tohand","784","","","","","","","","","tol_peg_1","784","784","0","[[0,0,0],[3,0],[2]]","2","[[2,1,3],[0,0],[0]]","1","0","","","","","","5","","","","",""
"","","","","","single-stim-button","159","1512006","0.0-3.0-13.1-1.1","5c2f6e25ce8e640001b99855","D2","batch4","tol_toboard","915","","","","","","","","","tol_peg_2","915","915","0","[[0,0,0],[3,1],[2]]","2","[[2,1,3],[0,0],[0]]","1","0","","","","","","5","","","","",""
"","","","","","single-stim-button","160","1512710","0.0-3.0-13.2-0.2","5c2f6e25ce8e640001b99855","D2","batch4","tol_tohand","703","","","","","","","","","tol_peg_3","703","703","0","[[0,0,0],[3,1],[0]]","3","[[2,1,3],[0,0],[0]]","1","0","","","","","","5","","","","",""
"","","","","","single-stim-button","161","1513733","0.0-3.0-13.2-1.2","5c2f6e25ce8e640001b99855","D2","batch4","tol_toboard","1023","","","","","","","","","tol_peg_1","1023","1023","0","[[2,0,0],[3,1],[0]]","3","[[2,1,3],[0,0],[0]]","1","0","","","","","","5","","","","",""
"","","","","","single-stim-button","162","1514631","0.0-3.0-13.3-0.3","5c2f6e25ce8e640001b99855","D2","batch4","tol_tohand","897","","","","","","","","","tol_peg_2","897","897","0","[[2,0,0],[3,0],[0]]","4","[[2,1,3],[0,0],[0]]","1","0","","","","","","5","","","","",""
"","","","","","single-stim-button","163","1515577","0.0-3.0-13.3-1.3","5c2f6e25ce8e640001b99855","D2","batch4","tol_toboard","944","","","","","","","","","tol_peg_1","944","944","0","[[2,1,0],[3,0],[0]]","4","[[2,1,3],[0,0],[0]]","1","0","","","","","","5","","","","",""
"","","","","","single-stim-button","164","1516460","0.0-3.0-13.4-0.4","5c2f6e25ce8e640001b99855","D2","batch4","tol_tohand","881","","","","","","","","","tol_peg_2","881","881","0","[[2,1,0],[0,0],[0]]","5","[[2,1,3],[0,0],[0]]","1","0","","","","","","5","","","","",""
"","","","","","single-stim-button","165","1517446","0.0-3.0-13.4-1.4","5c2f6e25ce8e640001b99855","D2","batch4","tol_toboard","985","","","","","","","","","tol_peg_1","985","985","0","[[2,1,3],[0,0],[0]]","5","[[2,1,3],[0,0],[0]]","1","0","","","","","","5","","","","",""
"","","","","","poldrack-single-stim","166","1518447","0.0-3.0-14.0","5c2f6e25ce8e640001b99855","D2","batch4","tol_feedback","-1","","","","","true","","","","","1000","1000","500","","","","","","-1","none","true","5169","8434","","","","","",""
"","","","","","html-button-response","167","1519502","0.0-3.0-15.0","5c2f6e25ce8e640001b99855","D2","batch4","tol_trial_num","1054","<div class = centerbox><p class = center-block-text>problem <strong>3</strong> out of 25 problems</p></div>","0","","","","","","","","","","","","","","","","","","","","","","","","","",""
"","","","","","single-stim-button","168","1524801","0.0-3.0-16.0-0.0","5c2f6e25ce8e640001b99855","D2","batch4","tol_tohand","5298","","","","","","","","","tol_peg_1","5298","5298","0","[[2,0,0],[0,0],[1]]","1","[[1,2,0],[3,0],[0]]","2","0","","","","","","4","","","","",""
"","","","","","single-stim-button","169","1525980","0.0-3.0-16.0-1.0","5c2f6e25ce8e640001b99855","D2","batch4","tol_toboard","1177","","","","","","","","","tol_peg_2","1177","1177","0","[[2,0,0],[3,0],[1]]","1","[[1,2,0],[3,0],[0]]","2","0","","","","","","4","","","","",""
"","","","","","single-stim-button","170","1526793","0.0-3.0-16.1-0.1","5c2f6e25ce8e640001b99855","D2","batch4","tol_tohand","813","","","","","","","","","tol_peg_1","813","813","0","[[0,0,0],[3,0],[1]]","2","[[1,2,0],[3,0],[0]]","2","0","","","","","","4","","","","",""
"","","","","","single-stim-button","171","1527835","0.0-3.0-16.1-1.1","5c2f6e25ce8e640001b99855","D2","batch4","tol_toboard","1040","","","","","","","","","tol_peg_2","1040","1040","0","[[0,0,0],[3,2],[1]]","2","[[1,2,0],[3,0],[0]]","2","0","","","","","","4","","","","",""
"","","","","","single-stim-button","172","1528711","0.0-3.0-16.2-0.2","5c2f6e25ce8e640001b99855","D2","batch4","tol_tohand","876","","","","","","","","","tol_peg_3","876","876","0","[[0,0,0],[3,2],[0]]","3","[[1,2,0],[3,0],[0]]","2","0","","","","","","4","","","","",""
"","","","","","single-stim-button","173","1530057","0.0-3.0-16.2-1.2","5c2f6e25ce8e640001b99855","D2","batch4","tol_toboard","1345","","","","","","","","","tol_peg_1","1345","1345","0","[[1,0,0],[3,2],[0]]","3","[[1,2,0],[3,0],[0]]","2","0","","","","","","4","","","","",""
"","","","","","single-stim-button","174","1530710","0.0-3.0-16.3-0.3","5c2f6e25ce8e640001b99855","D2","batch4","tol_tohand","652","","","","","","","","","tol_peg_2","652","652","0","[[1,0,0],[3,0],[0]]","4","[[1,2,0],[3,0],[0]]","2","0","","","","","","4","","","","",""
"","","","","","single-stim-button","175","1531600","0.0-3.0-16.3-1.3","5c2f6e25ce8e640001b99855","D2","batch4","tol_toboard","890","","","","","","","","","tol_peg_1","890","890","0","[[1,2,0],[3,0],[0]]","4","[[1,2,0],[3,0],[0]]","2","0","","","","","","4","","","","",""
"","","","","","poldrack-single-stim","176","1532603","0.0-3.0-17.0","5c2f6e25ce8e640001b99855","D2","batch4","tol_feedback","-1","","","","","true","","","","","1000","1000","500","","","","","","-1","none","true","5298","7639","","","","","",""
"","","","","","html-button-response","177","1533571","0.0-3.0-18.0","5c2f6e25ce8e640001b99855","D2","batch4","tol_trial_num","967.9000000953674","<div class = centerbox><p class = center-block-text>problem <strong>4</strong> out of 25 problems</p></div>","0","","","","","","","","","","","","","","","","","","","","","","","","","",""
"","","","","","single-stim-button","178","1537393","0.0-3.0-19.0-0.0","5c2f6e25ce8e640001b99855","D2","batch4","tol_tohand","3821","","","","","","","","","tol_peg_2","3821","3821","0","[[3,0,0],[2,0],[0]]","1","[[3,0,0],[1,0],[2]]","3","0","","","","","","3","","","","",""
"","","","","","single-stim-button","179","1538331","0.0-3.0-19.0-1.0","5c2f6e25ce8e640001b99855","D2","batch4","tol_toboard","937","","","","","","","","","tol_peg_1","937","937","0","[[3,1,0],[2,0],[0]]","1","[[3,0,0],[1,0],[2]]","3","0","","","","","","3","","","","",""
"","","","","","single-stim-button","180","1539089","0.0-3.0-19.1-0.1","5c2f6e25ce8e640001b99855","D2","batch4","tol_tohand","758","","","","","","","","","tol_peg_2","758","758","0","[[3,1,0],[0,0],[0]]","2","[[3,0,0],[1,0],[2]]","3","0","","","","","","3","","","","",""
"","","","","","single-stim-button","181","1539979","0.0-3.0-19.1-1.1","5c2f6e25ce8e640001b99855","D2","batch4","tol_toboard","890","","","","","","","","","tol_peg_3","890","890","0","[[3,1,0],[0,0],[2]]","2","[[3,0,0],[1,0],[2]]","3","0","","","","","","3","","","","",""
"","","","","","single-stim-button","182","1540813","0.0-3.0-19.2-0.2","5c2f6e25ce8e640001b99855","D2","batch4","tol_tohand","833","","","","","","","","","tol_peg_1","833","833","0","[[3,0,0],[0,0],[2]]","3","[[3,0,0],[1,0],[2]]","3","0","","","","","","3","","","","",""
"","","","","","single-stim-button","183","1541638","0.0-3.0-19.2-1.2","5c2f6e25ce8e640001b99855","D2","batch4","tol_toboard","824","","","","","","","","","tol_peg_2","824","824","0","[[3,0,0],[1,0],[2]]","3","[[3,0,0],[1,0],[2]]","3","0","","","","","","3","","","","",""
"","","","","","poldrack-single-stim","184","1542645","0.0-3.0-20.0","5c2f6e25ce8e640001b99855","D2","batch4","tol_feedback","-1","","","","","true","","","","","1000","1000","500","","","","","","-1","none","true","3821","5412","","","","","",""
"","","","","","html-button-response","185","1543721","0.0-3.0-21.0","5c2f6e25ce8e640001b99855","D2","batch4","tol_trial_num","1075.0999999046326","<div class = centerbox><p class = center-block-text>problem <strong>5</strong> out of 25 problems</p></div>","0","","","","","","","","","","","","","","","","","","","","","","","","","",""
"","","","","","single-stim-button","186","1595207","0.0-3.0-22.0-0.0","5c2f6e25ce8e640001b99855","D2","batch4","tol_tohand","51485","","","","","","","","","tol_peg_1","51485","51485","0","[[0,0,0],[2,0],[3]]","1","[[0,0,0],[1,2],[3]]","4","0","","","","","","7","","","","",""
"","","","","","single-stim-button","187","1596019","0.0-3.0-22.0-1.0","5c2f6e25ce8e640001b99855","D2","batch4","tol_toboard","811","","","","","","","","","tol_peg_2","811","811","0","[[0,0,0],[2,1],[3]]","1","[[0,0,0],[1,2],[3]]","4","0","","","","","","7","","","","",""
"","","","","","single-stim-button","188","1596804","0.0-3.0-22.1-0.1","5c2f6e25ce8e640001b99855","D2","batch4","tol_tohand","785","","","","","","","","","tol_peg_3","785","785","0","[[0,0,0],[2,1],[0]]","2","[[0,0,0],[1,2],[3]]","4","0","","","","","","7","","","","",""
"","","","","","single-stim-button","189","1597870","0.0-3.0-22.1-1.1","5c2f6e25ce8e640001b99855","D2","batch4","tol_toboard","1065","","","","","","","","","tol_peg_1","1065","1065","0","[[3,0,0],[2,1],[0]]","2","[[0,0,0],[1,2],[3]]","4","0","","","","","","7","","","","",""
"","","","","","single-stim-button","190","1598624","0.0-3.0-22.2-0.2","5c2f6e25ce8e640001b99855","D2","batch4","tol_tohand","753","","","","","","","","","tol_peg_2","753","753","0","[[3,0,0],[2,0],[0]]","3","[[0,0,0],[1,2],[3]]","4","0","","","","","","7","","","","",""
"","","","","","single-stim-button","191","1599459","0.0-3.0-22.2-1.2","5c2f6e25ce8e640001b99855","D2","batch4","tol_toboard","833","","","","","","","","","tol_peg_3","833","833","0","[[3,0,0],[2,0],[1]]","3","[[0,0,0],[1,2],[3]]","4","0","","","","","","7","","","","",""
"","","","","","single-stim-button","192","1600544","0.0-3.0-22.3-0.3","5c2f6e25ce8e640001b99855","D2","batch4","tol_tohand","1085","","","","","","","","","tol_peg_2","1085","1085","0","[[3,0,0],[0,0],[1]]","4","[[0,0,0],[1,2],[3]]","4","0","","","","","","7","","","","",""
"","","","","","single-stim-button","193","1601291","0.0-3.0-22.3-1.3","5c2f6e25ce8e640001b99855","D2","batch4","tol_toboard","746","","","","","","","","","tol_peg_1","746","746","0","[[3,2,0],[0,0],[1]]","4","[[0,0,0],[1,2],[3]]","4","0","","","","","","7","","","","",""
"","","","","","single-stim-button","194","1602148","0.0-3.0-22.4-0.4","5c2f6e25ce8e640001b99855","D2","batch4","tol_tohand","857","","","","","","","","","tol_peg_3","857","857","0","[[3,2,0],[0,0],[0]]","5","[[0,0,0],[1,2],[3]]","4","0","","","","","","7","","","","",""
"","","","","","single-stim-button","195","1603022","0.0-3.0-22.4-1.4","5c2f6e25ce8e640001b99855","D2","batch4","tol_toboard","874","","","","","","","","","tol_peg_2","874","874","0","[[3,2,0],[1,0],[0]]","5","[[0,0,0],[1,2],[3]]","4","0","","","","","","7","","","","",""
"","","","","","single-stim-button","196","1603712","0.0-3.0-22.5-0.5","5c2f6e25ce8e640001b99855","D2","batch4","tol_tohand","688","","","","","","","","","tol_peg_1","688","688","0","[[3,0,0],[1,0],[0]]","6","[[0,0,0],[1,2],[3]]","4","0","","","","","","7","","","","",""
"","","","","","single-stim-button","197","1604300","0.0-3.0-22.5-1.5","5c2f6e25ce8e640001b99855","D2","batch4","tol_toboard","587","","","","","","","","","tol_peg_2","587","587","0","[[3,0,0],[1,2],[0]]","6","[[0,0,0],[1,2],[3]]","4","0","","","","","","7","","","","",""
"","","","","","single-stim-button","198","1604846","0.0-3.0-22.6-0.6","5c2f6e25ce8e640001b99855","D2","batch4","tol_tohand","546","","","","","","","","","tol_peg_1","546","546","0","[[0,0,0],[1,2],[0]]","7","[[0,0,0],[1,2],[3]]","4","0","","","","","","7","","","","",""
"","","","","","single-stim-button","199","1605761","0.0-3.0-22.6-1.6","5c2f6e25ce8e640001b99855","D2","batch4","tol_toboard","913","","","","","","","","","tol_peg_3","913","913","0","[[0,0,0],[1,2],[3]]","7","[[0,0,0],[1,2],[3]]","4","0","","","","","","7","","","","",""
"","","","","","poldrack-single-stim","200","1606770","0.0-3.0-23.0","5c2f6e25ce8e640001b99855","D2","batch4","tol_feedback","-1","","","","","true","","","","","1000","1000","500","","","","","","-1","none","true","51485","56199","","","","","",""
"","","","","","html-button-response","201","1607702","0.0-3.0-24.0","5c2f6e25ce8e640001b99855","D2","batch4","tol_trial_num","929","<div class = centerbox><p class = center-block-text>problem <strong>6</strong> out of 25 problems</p></div>","0","","","","","","","","","","","","","","","","","","","","","","","","","",""
"","","","","","single-stim-button","202","1634295","0.0-3.0-25.0-0.0","5c2f6e25ce8e640001b99855","D2","batch4","tol_tohand","26592","","","","","","","","","tol_peg_2","26592","26592","0","[[0,0,0],[1,0],[3]]","1","[[1,0,0],[2,3],[0]]","5","0","","","","","","6","","","","",""
"","","","","","single-stim-button","203","1635155","0.0-3.0-25.0-1.0","5c2f6e25ce8e640001b99855","D2","batch4","tol_toboard","859","","","","","","","","","tol_peg_1","859","859","0","[[2,0,0],[1,0],[3]]","1","[[1,0,0],[2,3],[0]]","5","0","","","","","","6","","","","",""
"","","","","","single-stim-button","204","1635941","0.0-3.0-25.1-0.1","5c2f6e25ce8e640001b99855","D2","batch4","tol_tohand","786","","","","","","","","","tol_peg_3","786","786","0","[[2,0,0],[1,0],[0]]","2","[[1,0,0],[2,3],[0]]","5","0","","","","","","6","","","","",""
"","","","","","single-stim-button","205","1636919","0.0-3.0-25.1-1.1","5c2f6e25ce8e640001b99855","D2","batch4","tol_toboard","978","","","","","","","","","tol_peg_1","978","978","0","[[2,3,0],[1,0],[0]]","2","[[1,0,0],[2,3],[0]]","5","0","","","","","","6","","","","",""
"","","","","","single-stim-button","206","1637569","0.0-3.0-25.2-0.2","5c2f6e25ce8e640001b99855","D2","batch4","tol_tohand","649","","","","","","","","","tol_peg_2","649","649","0","[[2,3,0],[0,0],[0]]","3","[[1,0,0],[2,3],[0]]","5","0","","","","","","6","","","","",""
"","","","","","single-stim-button","207","1638495","0.0-3.0-25.2-1.2","5c2f6e25ce8e640001b99855","D2","batch4","tol_toboard","926","","","","","","","","","tol_peg_3","926","926","0","[[2,3,0],[0,0],[1]]","3","[[1,0,0],[2,3],[0]]","5","0","","","","","","6","","","","",""
"","","","","","single-stim-button","208","1645178","0.0-3.0-25.3-0.3","5c2f6e25ce8e640001b99855","D2","batch4","tol_tohand","6683","","","","","","","","","tol_peg_1","6683","6683","0","[[2,0,0],[0,0],[1]]","4","[[1,0,0],[2,3],[0]]","5","0","","","","","","6","","","","",""
"","","","","","single-stim-button","209","1646903","0.0-3.0-25.3-1.3","5c2f6e25ce8e640001b99855","D2","batch4","tol_toboard","1724","","","","","","","","","tol_peg_2","1724","1724","0","[[2,0,0],[3,0],[1]]","4","[[1,0,0],[2,3],[0]]","5","0","","","","","","6","","","","",""
"","","","","","single-stim-button","210","1648390","0.0-3.0-25.4-0.4","5c2f6e25ce8e640001b99855","D2","batch4","tol_tohand","1487","","","","","","","","","tol_peg_1","1487","1487","0","[[0,0,0],[3,0],[1]]","5","[[1,0,0],[2,3],[0]]","5","0","","","","","","6","","","","",""
"","","","","","single-stim-button","211","1649522","0.0-3.0-25.4-1.4","5c2f6e25ce8e640001b99855","D2","batch4","tol_toboard","1131","","","","","","","","","tol_peg_2","1131","1131","0","[[0,0,0],[3,2],[1]]","5","[[1,0,0],[2,3],[0]]","5","0","","","","","","6","","","","",""
"","","","","","single-stim-button","212","1650194","0.0-3.0-25.5-0.5","5c2f6e25ce8e640001b99855","D2","batch4","tol_tohand","672","","","","","","","","","tol_peg_3","672","672","0","[[0,0,0],[3,2],[0]]","6","[[1,0,0],[2,3],[0]]","5","0","","","","","","6","","","","",""
"","","","","","single-stim-button","213","1651116","0.0-3.0-25.5-1.5","5c2f6e25ce8e640001b99855","D2","batch4","tol_toboard","922","","","","","","","","","tol_peg_1","922","922","0","[[1,0,0],[3,2],[0]]","6","[[1,0,0],[2,3],[0]]","5","0","","","","","","6","","","","",""
"","","","","","single-stim-button","214","1652037","0.0-3.0-25.6-0.6","5c2f6e25ce8e640001b99855","D2","batch4","tol_tohand","921","","","","","","","","","tol_peg_2","921","921","0","[[1,0,0],[3,0],[0]]","7","[[1,0,0],[2,3],[0]]","5","0","","","","","","6","","","","",""
"","","","","","single-stim-button","215","1652931","0.0-3.0-25.6-1.6","5c2f6e25ce8e640001b99855","D2","batch4","tol_toboard","894","","","","","","","","","tol_peg_3","894","894","0","[[1,0,0],[3,0],[2]]","7","[[1,0,0],[2,3],[0]]","5","0","","","","","","6","","","","",""
"","","","","","single-stim-button","216","1653646","0.0-3.0-25.7-0.7","5c2f6e25ce8e640001b99855","D2","batch4","tol_tohand","714","","","","","","","","","tol_peg_2","714","714","0","[[1,0,0],[0,0],[2]]","8","[[1,0,0],[2,3],[0]]","5","0","","","","","","6","","","","",""
"","","","","","single-stim-button","217","1654393","0.0-3.0-25.7-1.7","5c2f6e25ce8e640001b99855","D2","batch4","tol_toboard","746","","","","","","","","","tol_peg_1","746","746","0","[[1,3,0],[0,0],[2]]","8","[[1,0,0],[2,3],[0]]","5","0","","","","","","6","","","","",""
"","","","","","single-stim-button","218","1655234","0.0-3.0-25.8-0.8","5c2f6e25ce8e640001b99855","D2","batch4","tol_tohand","841","","","","","","","","","tol_peg_3","841","841","0","[[1,3,0],[0,0],[0]]","9","[[1,0,0],[2,3],[0]]","5","0","","","","","","6","","","","",""
"","","","","","single-stim-button","219","1655948","0.0-3.0-25.8-1.8","5c2f6e25ce8e640001b99855","D2","batch4","tol_toboard","714","","","","","","","","","tol_peg_2","714","714","0","[[1,3,0],[2,0],[0]]","9","[[1,0,0],[2,3],[0]]","5","0","","","","","","6","","","","",""
"","","","","","single-stim-button","220","1656948","0.0-3.0-25.9-0.9","5c2f6e25ce8e640001b99855","D2","batch4","tol_tohand","1000","","","","","","","","","tol_peg_1","1000","1000","0","[[1,0,0],[2,0],[0]]","10","[[1,0,0],[2,3],[0]]","5","0","","","","","","6","","","","",""
"","","","","","single-stim-button","221","1657836","0.0-3.0-25.9-1.9","5c2f6e25ce8e640001b99855","D2","batch4","tol_toboard","888","","","","","","","","","tol_peg_2","888","888","0","[[1,0,0],[2,3],[0]]","10","[[1,0,0],[2,3],[0]]","5","0","","","","","","6","","","","",""
"","","","","","poldrack-single-stim","222","1658846","0.0-3.0-26.0","5c2f6e25ce8e640001b99855","D2","batch4","tol_feedback","-1","","","","","true","","","","","1000","1000","500","","","","","","-1","none","true","26592","40345","","","","","",""
"","","","","","html-button-response","223","1659857","0.0-3.0-27.0","5c2f6e25ce8e640001b99855","D2","batch4","tol_trial_num","1010.1000000238419","<div class = centerbox><p class = center-block-text>problem <strong>7</strong> out of 25 problems</p></div>","0","","","","","","","","","","","","","","","","","","","","","","","","","",""
"","","","","","single-stim-button","224","1669513","0.0-3.0-28.0-0.0","5c2f6e25ce8e640001b99855","D2","batch4","tol_tohand","9655","","","","","","","","","tol_peg_3","9655","9655","0","[[2,1,0],[0,0],[0]]","1","[[1,2,0],[3,0],[0]]","6","0","","","","","","5","","","","",""
"","","","","","single-stim-button","225","1670942","0.0-3.0-28.0-1.0","5c2f6e25ce8e640001b99855","D2","batch4","tol_toboard","1429","","","","","","","","","tol_peg_2","1429","1429","0","[[2,1,0],[3,0],[0]]","1","[[1,2,0],[3,0],[0]]","6","0","","","","","","5","","","","",""
"","","","","","single-stim-button","226","1672297","0.0-3.0-28.1-0.1","5c2f6e25ce8e640001b99855","D2","batch4","tol_tohand","1354","","","","","","","","","tol_peg_1","1354","1354","0","[[2,0,0],[3,0],[0]]","2","[[1,2,0],[3,0],[0]]","6","0","","","","","","5","","","","",""
"","","","","","single-stim-button","227","1673392","0.0-3.0-28.1-1.1","5c2f6e25ce8e640001b99855","D2","batch4","tol_toboard","1093","","","","","","","","","tol_peg_3","1093","1093","0","[[2,0,0],[3,0],[1]]","2","[[1,2,0],[3,0],[0]]","6","0","","","","","","5","","","","",""
"","","","","","single-stim-button","228","1674401","0.0-3.0-28.2-0.2","5c2f6e25ce8e640001b99855","D2","batch4","tol_tohand","1009","","","","","","","","","tol_peg_1","1009","1009","0","[[0,0,0],[3,0],[1]]","3","[[1,2,0],[3,0],[0]]","6","0","","","","","","5","","","","",""
"","","","","","single-stim-button","229","1675259","0.0-3.0-28.2-1.2","5c2f6e25ce8e640001b99855","D2","batch4","tol_toboard","856","","","","","","","","","tol_peg_2","856","856","0","[[0,0,0],[3,2],[1]]","3","[[1,2,0],[3,0],[0]]","6","0","","","","","","5","","","","",""
"","","","","","single-stim-button","230","1675926","0.0-3.0-28.3-0.3","5c2f6e25ce8e640001b99855","D2","batch4","tol_tohand","666","","","","","","","","","tol_peg_3","666","666","0","[[0,0,0],[3,2],[0]]","4","[[1,2,0],[3,0],[0]]","6","0","","","","","","5","","","","",""
"","","","","","single-stim-button","231","1676810","0.0-3.0-28.3-1.3","5c2f6e25ce8e640001b99855","D2","batch4","tol_toboard","884","","","","","","","","","tol_peg_1","884","884","0","[[1,0,0],[3,2],[0]]","4","[[1,2,0],[3,0],[0]]","6","0","","","","","","5","","","","",""
"","","","","","single-stim-button","232","1677494","0.0-3.0-28.4-0.4","5c2f6e25ce8e640001b99855","D2","batch4","tol_tohand","684","","","","","","","","","tol_peg_2","684","684","0","[[1,0,0],[3,0],[0]]","5","[[1,2,0],[3,0],[0]]","6","0","","","","","","5","","","","",""
"","","","","","single-stim-button","233","1678360","0.0-3.0-28.4-1.4","5c2f6e25ce8e640001b99855","D2","batch4","tol_toboard","865","","","","","","","","","tol_peg_1","865","865","0","[[1,2,0],[3,0],[0]]","5","[[1,2,0],[3,0],[0]]","6","0","","","","","","5","","","","",""
"","","","","","poldrack-single-stim","234","1679366","0.0-3.0-29.0","5c2f6e25ce8e640001b99855","D2","batch4","tol_feedback","-1","","","","","true","","","","","1000","1000","500","","","","","","-1","none","true","9655","13368","","","","","",""
"","","","","","html-button-response","235","1680356","0.0-3.0-30.0","5c2f6e25ce8e640001b99855","D2","batch4","tol_trial_num","989.8999999761581","<div class = centerbox><p class = center-block-text>problem <strong>8</strong> out of 25 problems</p></div>","0","","","","","","","","","","","","","","","","","","","","","","","","","",""
"","","","","","single-stim-button","236","1683592","0.0-3.0-31.0-0.0","5c2f6e25ce8e640001b99855","D2","batch4","tol_tohand","3235","","","","","","","","","tol_peg_3","3235","3235","0","[[0,0,0],[2,3],[0]]","1","[[1,2,0],[3,0],[0]]","7","0","","","","","","4","","","","",""
"","","","","","single-stim-button","237","1684797","0.0-3.0-31.0-1.0","5c2f6e25ce8e640001b99855","D2","batch4","tol_toboard","1205","","","","","","","","","tol_peg_1","1205","1205","0","[[1,0,0],[2,3],[0]]","1","[[1,2,0],[3,0],[0]]","7","0","","","","","","4","","","","",""
"","","","","","single-stim-button","238","1685393","0.0-3.0-31.1-0.1","5c2f6e25ce8e640001b99855","D2","batch4","tol_tohand","595","","","","","","","","","tol_peg_2","595","595","0","[[1,0,0],[2,0],[0]]","2","[[1,2,0],[3,0],[0]]","7","0","","","","","","4","","","","",""
"","","","","","single-stim-button","239","1686155","0.0-3.0-31.1-1.1","5c2f6e25ce8e640001b99855","D2","batch4","tol_toboard","761","","","","","","","","","tol_peg_3","761","761","0","[[1,0,0],[2,0],[3]]","2","[[1,2,0],[3,0],[0]]","7","0","","","","","","4","","","","",""
"","","","","","single-stim-button","240","1686750","0.0-3.0-31.2-0.2","5c2f6e25ce8e640001b99855","D2","batch4","tol_tohand","594","","","","","","","","","tol_peg_2","594","594","0","[[1,0,0],[0,0],[3]]","3","[[1,2,0],[3,0],[0]]","7","0","","","","","","4","","","","",""
"","","","","","single-stim-button","241","1687590","0.0-3.0-31.2-1.2","5c2f6e25ce8e640001b99855","D2","batch4","tol_toboard","840","","","","","","","","","tol_peg_1","840","840","0","[[1,2,0],[0,0],[3]]","3","[[1,2,0],[3,0],[0]]","7","0","","","","","","4","","","","",""
"","","","","","single-stim-button","242","1688329","0.0-3.0-31.3-0.3","5c2f6e25ce8e640001b99855","D2","batch4","tol_tohand","737","","","","","","","","","tol_peg_3","737","737","0","[[1,2,0],[0,0],[0]]","4","[[1,2,0],[3,0],[0]]","7","0","","","","","","4","","","","",""
"","","","","","single-stim-button","243","1689181","0.0-3.0-31.3-1.3","5c2f6e25ce8e640001b99855","D2","batch4","tol_toboard","852","","","","","","","","","tol_peg_2","852","852","0","[[1,2,0],[3,0],[0]]","4","[[1,2,0],[3,0],[0]]","7","0","","","","","","4","","","","",""
"","","","","","poldrack-single-stim","244","1690189","0.0-3.0-32.0","5c2f6e25ce8e640001b99855","D2","batch4","tol_feedback","-1","","","","","true","","","","","1000","1000","500","","","","","","-1","none","true","3235","5161","","","","","",""
"","","","","","html-button-response","245","1691636","0.0-3.0-33.0","5c2f6e25ce8e640001b99855","D2","batch4","tol_trial_num","1446.6000000238419","<div class = centerbox><p class = center-block-text>problem <strong>9</strong> out of 25 problems</p></div>","0","","","","","","","","","","","","","","","","","","","","","","","","","",""
"","","","","","single-stim-button","246","1698888","0.0-3.0-34.0-0.0","5c2f6e25ce8e640001b99855","D2","batch4","tol_tohand","7251","","","","","","","","","tol_peg_1","7251","7251","0","[[3,0,0],[0,0],[1]]","1","[[2,1,0],[3,0],[0]]","8","0","","","","","","6","","","","",""
"","","","","","single-stim-button","247","1703318","0.0-3.0-34.0-1.0","5c2f6e25ce8e640001b99855","D2","batch4","tol_toboard","4429","","","","","","","","","tol_peg_1","4429","4429","0","[[3,2,0],[0,0],[1]]","1","[[2,1,0],[3,0],[0]]","8","0","","","","","","6","","","","",""
"","","","","","single-stim-button","248","1704204","0.0-3.0-34.1-0.1","5c2f6e25ce8e640001b99855","D2","batch4","tol_tohand","885","","","","","","","","","tol_peg_3","885","885","0","[[3,2,0],[0,0],[0]]","2","[[2,1,0],[3,0],[0]]","8","0","","","","","","6","","","","",""
"","","","","","single-stim-button","249","1704998","0.0-3.0-34.1-1.1","5c2f6e25ce8e640001b99855","D2","batch4","tol_toboard","793","","","","","","","","","tol_peg_2","793","793","0","[[3,2,0],[1,0],[0]]","2","[[2,1,0],[3,0],[0]]","8","0","","","","","","6","","","","",""
"","","","","","single-stim-button","250","1706530","0.0-3.0-34.2-0.2","5c2f6e25ce8e640001b99855","D2","batch4","tol_tohand","1531","","","","","","","","","tol_peg_1","1531","1531","0","[[3,0,0],[1,0],[0]]","3","[[2,1,0],[3,0],[0]]","8","0","","","","","","6","","","","",""
"","","","","","single-stim-button","251","1707284","0.0-3.0-34.2-1.2","5c2f6e25ce8e640001b99855","D2","batch4","tol_toboard","754","","","","","","","","","tol_peg_2","754","754","0","[[3,0,0],[1,2],[0]]","3","[[2,1,0],[3,0],[0]]","8","0","","","","","","6","","","","",""
"","","","","","single-stim-button","252","1708820","0.0-3.0-34.3-0.3","5c2f6e25ce8e640001b99855","D2","batch4","tol_tohand","1535","","","","","","","","","tol_peg_1","1535","1535","0","[[0,0,0],[1,2],[0]]","4","[[2,1,0],[3,0],[0]]","8","0","","","","","","6","","","","",""
"","","","","","single-stim-button","253","1709870","0.0-3.0-34.3-1.3","5c2f6e25ce8e640001b99855","D2","batch4","tol_toboard","1048","","","","","","","","","tol_peg_3","1048","1048","0","[[0,0,0],[1,2],[3]]","4","[[2,1,0],[3,0],[0]]","8","0","","","","","","6","","","","",""
"","","","","","single-stim-button","254","1710542","0.0-3.0-34.4-0.4","5c2f6e25ce8e640001b99855","D2","batch4","tol_tohand","672","","","","","","","","","tol_peg_2","672","672","0","[[0,0,0],[1,0],[3]]","5","[[2,1,0],[3,0],[0]]","8","0","","","","","","6","","","","",""
"","","","","","single-stim-button","255","1711334","0.0-3.0-34.4-1.4","5c2f6e25ce8e640001b99855","D2","batch4","tol_toboard","792","","","","","","","","","tol_peg_1","792","792","0","[[2,0,0],[1,0],[3]]","5","[[2,1,0],[3,0],[0]]","8","0","","","","","","6","","","","",""
"","","","","","single-stim-button","256","1711924","0.0-3.0-34.5-0.5","5c2f6e25ce8e640001b99855","D2","batch4","tol_tohand","590","","","","","","","","","tol_peg_2","590","590","0","[[2,0,0],[0,0],[3]]","6","[[2,1,0],[3,0],[0]]","8","0","","","","","","6","","","","",""
"","","","","","single-stim-button","257","1712808","0.0-3.0-34.5-1.5","5c2f6e25ce8e640001b99855","D2","batch4","tol_toboard","882","","","","","","","","","tol_peg_1","882","882","0","[[2,1,0],[0,0],[3]]","6","[[2,1,0],[3,0],[0]]","8","0","","","","","","6","","","","",""
"","","","","","single-stim-button","258","1714853","0.0-3.0-34.6-0.6","5c2f6e25ce8e640001b99855","D2","batch4","tol_tohand","2044","","","","","","","","","tol_peg_3","2044","2044","0","[[2,1,0],[0,0],[0]]","7","[[2,1,0],[3,0],[0]]","8","0","","","","","","6","","","","",""
"","","","","","single-stim-button","259","1715716","0.0-3.0-34.6-1.6","5c2f6e25ce8e640001b99855","D2","batch4","tol_toboard","863","","","","","","","","","tol_peg_2","863","863","0","[[2,1,0],[3,0],[0]]","7","[[2,1,0],[3,0],[0]]","8","0","","","","","","6","","","","",""
"","","","","","poldrack-single-stim","260","1716724","0.0-3.0-35.0","5c2f6e25ce8e640001b99855","D2","batch4","tol_feedback","-1","","","","","true","","","","","1000","1000","500","","","","","","-1","none","true","7251","14508","","","","","",""
"","","","","","html-button-response","261","1717855","0.0-3.0-36.0","5c2f6e25ce8e640001b99855","D2","batch4","tol_trial_num","1129.3999999761581","<div class = centerbox><p class = center-block-text>problem <strong>10</strong> out of 25 problems</p></div>","0","","","","","","","","","","","","","","","","","","","","","","","","","",""
"","","","","","single-stim-button","262","1722482","0.0-3.0-37.0-0.0","5c2f6e25ce8e640001b99855","D2","batch4","tol_tohand","4626","","","","","","","","","tol_peg_2","4626","4626","0","[[3,0,0],[0,0],[2]]","1","[[3,0,0],[2,1],[0]]","9","0","","","","","","3","","","","",""
"","","","","","single-stim-button","263","1723324","0.0-3.0-37.0-1.0","5c2f6e25ce8e640001b99855","D2","batch4","tol_toboard","841","","","","","","","","","tol_peg_1","841","841","0","[[3,1,0],[0,0],[2]]","1","[[3,0,0],[2,1],[0]]","9","0","","","","","","3","","","","",""
"","","","","","single-stim-button","264","1724074","0.0-3.0-37.1-0.1","5c2f6e25ce8e640001b99855","D2","batch4","tol_tohand","749","","","","","","","","","tol_peg_3","749","749","0","[[3,1,0],[0,0],[0]]","2","[[3,0,0],[2,1],[0]]","9","0","","","","","","3","","","","",""
"","","","","","single-stim-button","265","1724836","0.0-3.0-37.1-1.1","5c2f6e25ce8e640001b99855","D2","batch4","tol_toboard","761","","","","","","","","","tol_peg_2","761","761","0","[[3,1,0],[2,0],[0]]","2","[[3,0,0],[2,1],[0]]","9","0","","","","","","3","","","","",""
"","","","","","single-stim-button","266","1725572","0.0-3.0-37.2-0.2","5c2f6e25ce8e640001b99855","D2","batch4","tol_tohand","735","","","","","","","","","tol_peg_1","735","735","0","[[3,0,0],[2,0],[0]]","3","[[3,0,0],[2,1],[0]]","9","0","","","","","","3","","","","",""
"","","","","","single-stim-button","267","1726751","0.0-3.0-37.2-1.2","5c2f6e25ce8e640001b99855","D2","batch4","tol_toboard","1179","","","","","","","","","tol_peg_2","1179","1179","0","[[3,0,0],[2,1],[0]]","3","[[3,0,0],[2,1],[0]]","9","0","","","","","","3","","","","",""
"","","","","","poldrack-single-stim","268","1727756","0.0-3.0-38.0","5c2f6e25ce8e640001b99855","D2","batch4","tol_feedback","-1","","","","","true","","","","","1000","1000","500","","","","","","-1","none","true","4626","6110","","","","","",""
"","","","","","html-button-response","269","1728615","0.0-3.0-39.0","5c2f6e25ce8e640001b99855","D2","batch4","tol_trial_num","858","<div class = centerbox><p class = center-block-text>problem <strong>11</strong> out of 25 problems</p></div>","0","","","","","","","","","","","","","","","","","","","","","","","","","",""
"","","","","","single-stim-button","270","1731461","0.0-3.0-40.0-0.0","5c2f6e25ce8e640001b99855","D2","batch4","tol_tohand","2845","","","","","","","","","tol_peg_1","2845","2845","0","[[1,0,0],[3,0],[0]]","1","[[2,0,0],[1,3],[0]]","10","0","","","","","","6","","","","",""
"","","","","","single-stim-button","271","1734121","0.0-3.0-40.0-1.0","5c2f6e25ce8e640001b99855","D2","batch4","tol_toboard","2660","","","","","","","","","tol_peg_2","2660","2660","0","[[1,0,0],[3,2],[0]]","1","[[2,0,0],[1,3],[0]]","10","0","","","","","","6","","","","",""
"","","","","","single-stim-button","272","1734785","0.0-3.0-40.1-0.1","5c2f6e25ce8e640001b99855","D2","batch4","tol_tohand","663","","","","","","","","","tol_peg_1","663","663","0","[[0,0,0],[3,2],[0]]","2","[[2,0,0],[1,3],[0]]","10","0","","","","","","6","","","","",""
"","","","","","single-stim-button","273","1735964","0.0-3.0-40.1-1.1","5c2f6e25ce8e640001b99855","D2","batch4","tol_toboard","1179","","","","","","","","","tol_peg_3","1179","1179","0","[[0,0,0],[3,2],[1]]","2","[[2,0,0],[1,3],[0]]","10","0","","","","","","6","","","","",""
"","","","","","single-stim-button","274","1736814","0.0-3.0-40.2-0.2","5c2f6e25ce8e640001b99855","D2","batch4","tol_tohand","849","","","","","","","","","tol_peg_2","849","849","0","[[0,0,0],[3,0],[1]]","3","[[2,0,0],[1,3],[0]]","10","0","","","","","","6","","","","",""
"","","","","","single-stim-button","275","1737961","0.0-3.0-40.2-1.2","5c2f6e25ce8e640001b99855","D2","batch4","tol_toboard","1145","","","","","","","","","tol_peg_1","1145","1145","0","[[2,0,0],[3,0],[1]]","3","[[2,0,0],[1,3],[0]]","10","0","","","","","","6","","","","",""
"","","","","","single-stim-button","276","1738598","0.0-3.0-40.3-0.3","5c2f6e25ce8e640001b99855","D2","batch4","tol_tohand","637","","","","","","","","","tol_peg_2","637","637","0","[[2,0,0],[0,0],[1]]","4","[[2,0,0],[1,3],[0]]","10","0","","","","","","6","","","","",""
"","","","","","single-stim-button","277","1739400","0.0-3.0-40.3-1.3","5c2f6e25ce8e640001b99855","D2","batch4","tol_toboard","801","","","","","","","","","tol_peg_1","801","801","0","[[2,3,0],[0,0],[1]]","4","[[2,0,0],[1,3],[0]]","10","0","","","","","","6","","","","",""
"","","","","","single-stim-button","278","1740137","0.0-3.0-40.4-0.4","5c2f6e25ce8e640001b99855","D2","batch4","tol_tohand","735","","","","","","","","","tol_peg_3","735","735","0","[[2,3,0],[0,0],[0]]","5","[[2,0,0],[1,3],[0]]","10","0","","","","","","6","","","","",""
"","","","","","single-stim-button","279","1741021","0.0-3.0-40.4-1.4","5c2f6e25ce8e640001b99855","D2","batch4","tol_toboard","884","","","","","","","","","tol_peg_2","884","884","0","[[2,3,0],[1,0],[0]]","5","[[2,0,0],[1,3],[0]]","10","0","","","","","","6","","","","",""
"","","","","","single-stim-button","280","1741757","0.0-3.0-40.5-0.5","5c2f6e25ce8e640001b99855","D2","batch4","tol_tohand","735","","","","","","","","","tol_peg_1","735","735","0","[[2,0,0],[1,0],[0]]","6","[[2,0,0],[1,3],[0]]","10","0","","","","","","6","","","","",""
"","","","","","single-stim-button","281","1742748","0.0-3.0-40.5-1.5","5c2f6e25ce8e640001b99855","D2","batch4","tol_toboard","989","","","","","","","","","tol_peg_2","989","989","0","[[2,0,0],[1,3],[0]]","6","[[2,0,0],[1,3],[0]]","10","0","","","","","","6","","","","",""
"","","","","","poldrack-single-stim","282","1743755","0.0-3.0-41.0","5c2f6e25ce8e640001b99855","D2","batch4","tol_feedback","-1","","","","","true","","","","","1000","1000","500","","","","","","-1","none","true","2845","6464","","","","","",""
"","","","","","html-button-response","283","1745242","0.0-3.0-42.0","5c2f6e25ce8e640001b99855","D2","batch4","tol_trial_num","1485.8999999761581","<div class = centerbox><p class = center-block-text>problem <strong>12</strong> out of 25 problems</p></div>","0","","","","","","","","","","","","","","","","","","","","","","","","","",""
"","","","","","single-stim-button","284","1749904","0.0-3.0-43.0-0.0","5c2f6e25ce8e640001b99855","D2","batch4","tol_tohand","4661","","","","","","","","","tol_peg_1","4661","4661","0","[[1,0,0],[3,0],[0]]","1","[[2,3,0],[0,0],[1]]","11","0","","","","","","4","","","","",""
"","","","","","single-stim-button","285","1750755","0.0-3.0-43.0-1.0","5c2f6e25ce8e640001b99855","D2","batch4","tol_toboard","849","","","","","","","","","tol_peg_2","849","849","0","[[1,0,0],[3,2],[0]]","1","[[2,3,0],[0,0],[1]]","11","0","","","","","","4","","","","",""
"","","","","","single-stim-button","286","1751376","0.0-3.0-43.1-0.1","5c2f6e25ce8e640001b99855","D2","batch4","tol_tohand","621","","","","","","","","","tol_peg_1","621","621","0","[[0,0,0],[3,2],[0]]","2","[[2,3,0],[0,0],[1]]","11","0","","","","","","4","","","","",""
"","","","","","single-stim-button","287","1752443","0.0-3.0-43.1-1.1","5c2f6e25ce8e640001b99855","D2","batch4","tol_toboard","1065","","","","","","","","","tol_peg_3","1065","1065","0","[[0,0,0],[3,2],[1]]","2","[[2,3,0],[0,0],[1]]","11","0","","","","","","4","","","","",""
"","","","","","single-stim-button","288","1753292","0.0-3.0-43.2-0.2","5c2f6e25ce8e640001b99855","D2","batch4","tol_tohand","849","","","","","","","","","tol_peg_2","849","849","0","[[0,0,0],[3,0],[1]]","3","[[2,3,0],[0,0],[1]]","11","0","","","","","","4","","","","",""
"","","","","","single-stim-button","289","1754286","0.0-3.0-43.2-1.2","5c2f6e25ce8e640001b99855","D2","batch4","tol_toboard","993","","","","","","","","","tol_peg_1","993","993","0","[[2,0,0],[3,0],[1]]","3","[[2,3,0],[0,0],[1]]","11","0","","","","","","4","","","","",""
"","","","","","single-stim-button","290","1755016","0.0-3.0-43.3-0.3","5c2f6e25ce8e640001b99855","D2","batch4","tol_tohand","730","","","","","","","","","tol_peg_2","730","730","0","[[2,0,0],[0,0],[1]]","4","[[2,3,0],[0,0],[1]]","11","0","","","","","","4","","","","",""
"","","","","","single-stim-button","291","1755942","0.0-3.0-43.3-1.3","5c2f6e25ce8e640001b99855","D2","batch4","tol_toboard","925","","","","","","","","","tol_peg_1","925","925","0","[[2,3,0],[0,0],[1]]","4","[[2,3,0],[0,0],[1]]","11","0","","","","","","4","","","","",""
"","","","","","poldrack-single-stim","292","1756945","0.0-3.0-44.0","5c2f6e25ce8e640001b99855","D2","batch4","tol_feedback","-1","","","","","true","","","","","1000","1000","500","","","","","","-1","none","true","4661","6861","","","","","",""
"","","","","","html-button-response","293","1758035","0.0-3.0-45.0","5c2f6e25ce8e640001b99855","D2","batch4","tol_trial_num","1089.3000000715256","<div class = centerbox><p class = center-block-text>problem <strong>13</strong> out of 25 problems</p></div>","0","","","","","","","","","","","","","","","","","","","","","","","","","",""
"","","","","","single-stim-button","294","1765914","0.0-3.0-46.0-0.0","5c2f6e25ce8e640001b99855","D2","batch4","tol_tohand","7877","","","","","","","","","tol_peg_1","7877","7877","0","[[1,0,0],[3,0],[0]]","1","[[0,0,0],[2,3],[1]]","12","0","","","","","","4","","","","",""
"","","","","","single-stim-button","295","1766819","0.0-3.0-46.0-1.0","5c2f6e25ce8e640001b99855","D2","batch4","tol_toboard","905","","","","","","","","","tol_peg_3","905","905","0","[[1,0,0],[3,0],[2]]","1","[[0,0,0],[2,3],[1]]","12","0","","","","","","4","","","","",""
"","","","","","single-stim-button","296","1767388","0.0-3.0-46.1-0.1","5c2f6e25ce8e640001b99855","D2","batch4","tol_tohand","568","","","","","","","","","tol_peg_2","568","568","0","[[1,0,0],[0,0],[2]]","2","[[0,0,0],[2,3],[1]]","12","0","","","","","","4","","","","",""
"","","","","","single-stim-button","297","1768110","0.0-3.0-46.1-1.1","5c2f6e25ce8e640001b99855","D2","batch4","tol_toboard","721","","","","","","","","","tol_peg_1","721","721","0","[[1,3,0],[0,0],[2]]","2","[[0,0,0],[2,3],[1]]","12","0","","","","","","4","","","","",""
"","","","","","single-stim-button","298","1768815","0.0-3.0-46.2-0.2","5c2f6e25ce8e640001b99855","D2","batch4","tol_tohand","705","","","","","","","","","tol_peg_3","705","705","0","[[1,3,0],[0,0],[0]]","3","[[0,0,0],[2,3],[1]]","12","0","","","","","","4","","","","",""
"","","","","","single-stim-button","299","1770080","0.0-3.0-46.2-1.2","5c2f6e25ce8e640001b99855","D2","batch4","tol_toboard","1264","","","","","","","","","tol_peg_2","1264","1264","0","[[1,3,0],[2,0],[0]]","3","[[0,0,0],[2,3],[1]]","12","0","","","","","","4","","","","",""
"","","","","","single-stim-button","300","1770738","0.0-3.0-46.3-0.3","5c2f6e25ce8e640001b99855","D2","batch4","tol_tohand","657","","","","","","","","","tol_peg_1","657","657","0","[[1,0,0],[2,0],[0]]","4","[[0,0,0],[2,3],[1]]","12","0","","","","","","4","","","","",""
"","","","","","single-stim-button","301","1771626","0.0-3.0-46.3-1.3","5c2f6e25ce8e640001b99855","D2","batch4","tol_toboard","888","","","","","","","","","tol_peg_2","888","888","0","[[1,0,0],[2,3],[0]]","4","[[0,0,0],[2,3],[1]]","12","0","","","","","","4","","","","",""
"","","","","","single-stim-button","302","1772210","0.0-3.0-46.4-0.4","5c2f6e25ce8e640001b99855","D2","batch4","tol_tohand","583","","","","","","","","","tol_peg_1","583","583","0","[[0,0,0],[2,3],[0]]","5","[[0,0,0],[2,3],[1]]","12","0","","","","","","4","","","","",""
"","","","","","single-stim-button","303","1773470","0.0-3.0-46.4-1.4","5c2f6e25ce8e640001b99855","D2","batch4","tol_toboard","1259","","","","","","","","","tol_peg_3","1259","1259","0","[[0,0,0],[2,3],[1]]","5","[[0,0,0],[2,3],[1]]","12","0","","","","","","4","","","","",""
"","","","","","poldrack-single-stim","304","1774475","0.0-3.0-47.0","5c2f6e25ce8e640001b99855","D2","batch4","tol_feedback","-1","","","","","true","","","","","1000","1000","500","","","","","","-1","none","true","7877","10390","","","","","",""
"","","","","","html-button-response","305","1776721","0.0-3.0-48.0","5c2f6e25ce8e640001b99855","D2","batch4","attention_check","2245.399999976158","<p class = block-text>How many balls are in your board<br></p>","1","","","true","","","","","","","","","","","","","","","","","","","","","","",""
"","","","","","html-button-response","306","1777490","0.0-3.0-49.0","5c2f6e25ce8e640001b99855","D2","batch4","tol_trial_num","768.1000000238419","<div class = centerbox><p class = center-block-text>problem <strong>14</strong> out of 25 problems</p></div>","0","","","","","","","","","","","","","","","","","","","","","","","","","",""
"","","","","","single-stim-button","307","1780943","0.0-3.0-50.0-0.0","5c2f6e25ce8e640001b99855","D2","batch4","tol_tohand","3453","","","","","","","","","tol_peg_1","3453","3453","0","[[2,0,0],[3,0],[0]]","1","[[1,2,0],[3,0],[0]]","13","0","","","","","","4","","","","",""
"","","","","","single-stim-button","308","1782384","0.0-3.0-50.0-1.0","5c2f6e25ce8e640001b99855","D2","batch4","tol_toboard","1439","","","","","","","","","tol_peg_3","1439","1439","0","[[2,0,0],[3,0],[1]]","1","[[1,2,0],[3,0],[0]]","13","0","","","","","","4","","","","",""
"","","","","","single-stim-button","309","1783242","0.0-3.0-50.1-0.1","5c2f6e25ce8e640001b99855","D2","batch4","tol_tohand","857","","","","","","","","","tol_peg_1","857","857","0","[[0,0,0],[3,0],[1]]","2","[[1,2,0],[3,0],[0]]","13","0","","","","","","4","","","","",""
"","","","","","single-stim-button","310","1784019","0.0-3.0-50.1-1.1","5c2f6e25ce8e640001b99855","D2","batch4","tol_toboard","776","","","","","","","","","tol_peg_2","776","776","0","[[0,0,0],[3,2],[1]]","2","[[1,2,0],[3,0],[0]]","13","0","","","","","","4","","","","",""
"","","","","","single-stim-button","311","1784709","0.0-3.0-50.2-0.2","5c2f6e25ce8e640001b99855","D2","batch4","tol_tohand","689","","","","","","","","","tol_peg_3","689","689","0","[[0,0,0],[3,2],[0]]","3","[[1,2,0],[3,0],[0]]","13","0","","","","","","4","","","","",""
"","","","","","single-stim-button","312","1785927","0.0-3.0-50.2-1.2","5c2f6e25ce8e640001b99855","D2","batch4","tol_toboard","1218","","","","","","","","","tol_peg_1","1218","1218","0","[[1,0,0],[3,2],[0]]","3","[[1,2,0],[3,0],[0]]","13","0","","","","","","4","","","","",""
"","","","","","single-stim-button","313","1786645","0.0-3.0-50.3-0.3","5c2f6e25ce8e640001b99855","D2","batch4","tol_tohand","718","","","","","","","","","tol_peg_2","718","718","0","[[1,0,0],[3,0],[0]]","4","[[1,2,0],[3,0],[0]]","13","0","","","","","","4","","","","",""
"","","","","","single-stim-button","314","1787431","0.0-3.0-50.3-1.3","5c2f6e25ce8e640001b99855","D2","batch4","tol_toboard","786","","","","","","","","","tol_peg_1","786","786","0","[[1,2,0],[3,0],[0]]","4","[[1,2,0],[3,0],[0]]","13","0","","","","","","4","","","","",""
"","","","","","poldrack-single-stim","315","1788437","0.0-3.0-51.0","5c2f6e25ce8e640001b99855","D2","batch4","tol_feedback","-1","","","","","true","","","","","1000","1000","500","","","","","","-1","none","true","3453","5717","","","","","",""
"","","","","","html-button-response","316","1789202","0.0-3.0-52.0","5c2f6e25ce8e640001b99855","D2","batch4","tol_trial_num","764.3000000715256","<div class = centerbox><p class = center-block-text>problem <strong>15</strong> out of 25 problems</p></div>","0","","","","","","","","","","","","","","","","","","","","","","","","","",""
"","","","","","single-stim-button","317","1793209","0.0-3.0-53.0-0.0","5c2f6e25ce8e640001b99855","D2","batch4","tol_tohand","4006","","","","","","","","","tol_peg_1","4006","4006","0","[[1,0,0],[3,0],[0]]","1","[[2,0,0],[3,0],[1]]","14","0","","","","","","3","","","","",""
"","","","","","single-stim-button","318","1794195","0.0-3.0-53.0-1.0","5c2f6e25ce8e640001b99855","D2","batch4","tol_toboard","985","","","","","","","","","tol_peg_2","985","985","0","[[1,0,0],[3,2],[0]]","1","[[2,0,0],[3,0],[1]]","14","0","","","","","","3","","","","",""
"","","","","","single-stim-button","319","1794855","0.0-3.0-53.1-0.1","5c2f6e25ce8e640001b99855","D2","batch4","tol_tohand","660","","","","","","","","","tol_peg_1","660","660","0","[[0,0,0],[3,2],[0]]","2","[[2,0,0],[3,0],[1]]","14","0","","","","","","3","","","","",""
"","","","","","single-stim-button","320","1795994","0.0-3.0-53.1-1.1","5c2f6e25ce8e640001b99855","D2","batch4","tol_toboard","1139","","","","","","","","","tol_peg_3","1139","1139","0","[[0,0,0],[3,2],[1]]","2","[[2,0,0],[3,0],[1]]","14","0","","","","","","3","","","","",""
"","","","","","single-stim-button","321","1796724","0.0-3.0-53.2-0.2","5c2f6e25ce8e640001b99855","D2","batch4","tol_tohand","729","","","","","","","","","tol_peg_2","729","729","0","[[0,0,0],[3,0],[1]]","3","[[2,0,0],[3,0],[1]]","14","0","","","","","","3","","","","",""
"","","","","","single-stim-button","322","1797799","0.0-3.0-53.2-1.2","5c2f6e25ce8e640001b99855","D2","batch4","tol_toboard","1074","","","","","","","","","tol_peg_1","1074","1074","0","[[2,0,0],[3,0],[1]]","3","[[2,0,0],[3,0],[1]]","14","0","","","","","","3","","","","",""
"","","","","","poldrack-single-stim","323","1798801","0.0-3.0-54.0","5c2f6e25ce8e640001b99855","D2","batch4","tol_feedback","-1","","","","","true","","","","","1000","1000","500","","","","","","-1","none","true","4006","5395","","","","","",""
"","","","","","html-button-response","324","1800080","0.0-3.0-55.0","5c2f6e25ce8e640001b99855","D2","batch4","tol_trial_num","1278","<div class = centerbox><p class = center-block-text>problem <strong>16</strong> out of 25 problems</p></div>","0","","","","","","","","","","","","","","","","","","","","","","","","","",""
"","","","","","single-stim-button","325","1809331","0.0-3.0-56.0-0.0","5c2f6e25ce8e640001b99855","D2","batch4","tol_tohand","9249","","","","","","","","","tol_peg_3","9249","9249","0","[[0,0,0],[2,3],[0]]","1","[[2,3,0],[1,0],[0]]","15","0","","","","","","7","","","","",""
"","","","","","single-stim-button","326","1812877","0.0-3.0-56.0-1.0","5c2f6e25ce8e640001b99855","D2","batch4","tol_toboard","3546","","","","","","","","","tol_peg_3","3546","3546","0","[[0,0,0],[2,3],[1]]","1","[[2,3,0],[1,0],[0]]","15","0","","","","","","7","","","","",""
"","","","","","single-stim-button","327","1813526","0.0-3.0-56.1-0.1","5c2f6e25ce8e640001b99855","D2","batch4","tol_tohand","649","","","","","","","","","tol_peg_2","649","649","0","[[0,0,0],[2,0],[1]]","2","[[2,3,0],[1,0],[0]]","15","0","","","","","","7","","","","",""
"","","","","","single-stim-button","328","1814697","0.0-3.0-56.1-1.1","5c2f6e25ce8e640001b99855","D2","batch4","tol_toboard","1170","","","","","","","","","tol_peg_1","1170","1170","0","[[3,0,0],[2,0],[1]]","2","[[2,3,0],[1,0],[0]]","15","0","","","","","","7","","","","",""
"","","","","","single-stim-button","329","1818879","0.0-3.0-56.2-0.2","5c2f6e25ce8e640001b99855","D2","batch4","tol_tohand","4181","","","","","","","","","tol_peg_2","4181","4181","0","[[3,0,0],[0,0],[1]]","3","[[2,3,0],[1,0],[0]]","15","0","","","","","","7","","","","",""
"","","","","","single-stim-button","330","1819712","0.0-3.0-56.2-1.2","5c2f6e25ce8e640001b99855","D2","batch4","tol_toboard","833","","","","","","","","","tol_peg_1","833","833","0","[[3,2,0],[0,0],[1]]","3","[[2,3,0],[1,0],[0]]","15","0","","","","","","7","","","","",""
"","","","","","single-stim-button","331","1820587","0.0-3.0-56.3-0.3","5c2f6e25ce8e640001b99855","D2","batch4","tol_tohand","874","","","","","","","","","tol_peg_3","874","874","0","[[3,2,0],[0,0],[0]]","4","[[2,3,0],[1,0],[0]]","15","0","","","","","","7","","","","",""
"","","","","","single-stim-button","332","1821522","0.0-3.0-56.3-1.3","5c2f6e25ce8e640001b99855","D2","batch4","tol_toboard","935","","","","","","","","","tol_peg_2","935","935","0","[[3,2,0],[1,0],[0]]","4","[[2,3,0],[1,0],[0]]","15","0","","","","","","7","","","","",""
"","","","","","single-stim-button","333","1822410","0.0-3.0-56.4-0.4","5c2f6e25ce8e640001b99855","D2","batch4","tol_tohand","888","","","","","","","","","tol_peg_1","888","888","0","[[3,0,0],[1,0],[0]]","5","[[2,3,0],[1,0],[0]]","15","0","","","","","","7","","","","",""
"","","","","","single-stim-button","334","1823381","0.0-3.0-56.4-1.4","5c2f6e25ce8e640001b99855","D2","batch4","tol_toboard","971","","","","","","","","","tol_peg_3","971","971","0","[[3,0,0],[1,0],[2]]","5","[[2,3,0],[1,0],[0]]","15","0","","","","","","7","","","","",""
"","","","","","single-stim-button","335","1824593","0.0-3.0-56.5-0.5","5c2f6e25ce8e640001b99855","D2","batch4","tol_tohand","1212","","","","","","","","","tol_peg_1","1212","1212","0","[[0,0,0],[1,0],[2]]","6","[[2,3,0],[1,0],[0]]","15","0","","","","","","7","","","","",""
"","","","","","single-stim-button","336","1825388","0.0-3.0-56.5-1.5","5c2f6e25ce8e640001b99855","D2","batch4","tol_toboard","795","","","","","","","","","tol_peg_2","795","795","0","[[0,0,0],[1,3],[2]]","6","[[2,3,0],[1,0],[0]]","15","0","","","","","","7","","","","",""
"","","","","","single-stim-button","337","1826279","0.0-3.0-56.6-0.6","5c2f6e25ce8e640001b99855","D2","batch4","tol_tohand","891","","","","","","","","","tol_peg_3","891","891","0","[[0,0,0],[1,3],[0]]","7","[[2,3,0],[1,0],[0]]","15","0","","","","","","7","","","","",""
"","","","","","single-stim-button","338","1827235","0.0-3.0-56.6-1.6","5c2f6e25ce8e640001b99855","D2","batch4","tol_toboard","956","","","","","","","","","tol_peg_1","956","956","0","[[2,0,0],[1,3],[0]]","7","[[2,3,0],[1,0],[0]]","15","0","","","","","","7","","","","",""
"","","","","","single-stim-button","339","1827963","0.0-3.0-56.7-0.7","5c2f6e25ce8e640001b99855","D2","batch4","tol_tohand","727","","","","","","","","","tol_peg_2","727","727","0","[[2,0,0],[1,0],[0]]","8","[[2,3,0],[1,0],[0]]","15","0","","","","","","7","","","","",""
"","","","","","single-stim-button","340","1828794","0.0-3.0-56.7-1.7","5c2f6e25ce8e640001b99855","D2","batch4","tol_toboard","830","","","","","","","","","tol_peg_1","830","830","0","[[2,3,0],[1,0],[0]]","8","[[2,3,0],[1,0],[0]]","15","0","","","","","","7","","","","",""
"","","","","","poldrack-single-stim","341","1829799","0.0-3.0-57.0","5c2f6e25ce8e640001b99855","D2","batch4","tol_feedback","-1","","","","","true","","","","","1000","1000","500","","","","","","-1","none","true","9249","18671","","","","","",""
"","","","","","html-button-response","342","1830790","0.0-3.0-58.0","5c2f6e25ce8e640001b99855","D2","batch4","tol_trial_num","990.5","<div class = centerbox><p class = center-block-text>problem <strong>17</strong> out of 25 problems</p></div>","0","","","","","","","","","","","","","","","","","","","","","","","","","",""
"","","","","","single-stim-button","343","1837115","0.0-3.0-59.0-0.0","5c2f6e25ce8e640001b99855","D2","batch4","tol_tohand","6323","","","","","","","","","tol_peg_1","6323","6323","0","[[1,0,0],[3,0],[0]]","1","[[3,1,0],[2,0],[0]]","16","0","","","","","","5","","","","",""
"","","","","","single-stim-button","344","1844489","0.0-3.0-59.0-1.0","5c2f6e25ce8e640001b99855","D2","batch4","tol_toboard","7374","","","","","","","","","tol_peg_2","7374","7374","0","[[1,0,0],[3,2],[0]]","1","[[3,1,0],[2,0],[0]]","16","0","","","","","","5","","","","",""
"","","","","","single-stim-button","345","1845274","0.0-3.0-59.1-0.1","5c2f6e25ce8e640001b99855","D2","batch4","tol_tohand","784","","","","","","","","","tol_peg_1","784","784","0","[[0,0,0],[3,2],[0]]","2","[[3,1,0],[2,0],[0]]","16","0","","","","","","5","","","","",""
"","","","","","single-stim-button","346","1846228","0.0-3.0-59.1-1.1","5c2f6e25ce8e640001b99855","D2","batch4","tol_toboard","953","","","","","","","","","tol_peg_3","953","953","0","[[0,0,0],[3,2],[1]]","2","[[3,1,0],[2,0],[0]]","16","0","","","","","","5","","","","",""
"","","","","","single-stim-button","347","1846927","0.0-3.0-59.2-0.2","5c2f6e25ce8e640001b99855","D2","batch4","tol_tohand","698","","","","","","","","","tol_peg_2","698","698","0","[[0,0,0],[3,0],[1]]","3","[[3,1,0],[2,0],[0]]","16","0","","","","","","5","","","","",""
"","","","","","single-stim-button","348","1847824","0.0-3.0-59.2-1.2","5c2f6e25ce8e640001b99855","D2","batch4","tol_toboard","897","","","","","","","","","tol_peg_1","897","897","0","[[2,0,0],[3,0],[1]]","3","[[3,1,0],[2,0],[0]]","16","0","","","","","","5","","","","",""
"","","","","","single-stim-button","349","1848573","0.0-3.0-59.3-0.3","5c2f6e25ce8e640001b99855","D2","batch4","tol_tohand","748","","","","","","","","","tol_peg_2","748","748","0","[[2,0,0],[0,0],[1]]","4","[[3,1,0],[2,0],[0]]","16","0","","","","","","5","","","","",""
"","","","","","single-stim-button","350","1849357","0.0-3.0-59.3-1.3","5c2f6e25ce8e640001b99855","D2","batch4","tol_toboard","784","","","","","","","","","tol_peg_1","784","784","0","[[2,3,0],[0,0],[1]]","4","[[3,1,0],[2,0],[0]]","16","0","","","","","","5","","","","",""
"","","","","","single-stim-button","351","1850505","0.0-3.0-59.4-0.4","5c2f6e25ce8e640001b99855","D2","batch4","tol_tohand","1147","","","","","","","","","tol_peg_3","1147","1147","0","[[2,3,0],[0,0],[0]]","5","[[3,1,0],[2,0],[0]]","16","0","","","","","","5","","","","",""
"","","","","","single-stim-button","352","1851701","0.0-3.0-59.4-1.4","5c2f6e25ce8e640001b99855","D2","batch4","tol_toboard","1195","","","","","","","","","tol_peg_2","1195","1195","0","[[2,3,0],[1,0],[0]]","5","[[3,1,0],[2,0],[0]]","16","0","","","","","","5","","","","",""
"","","","","","single-stim-button","353","1852466","0.0-3.0-59.5-0.5","5c2f6e25ce8e640001b99855","D2","batch4","tol_tohand","765","","","","","","","","","tol_peg_1","765","765","0","[[2,0,0],[1,0],[0]]","6","[[3,1,0],[2,0],[0]]","16","0","","","","","","5","","","","",""
"","","","","","single-stim-button","354","1853532","0.0-3.0-59.5-1.5","5c2f6e25ce8e640001b99855","D2","batch4","tol_toboard","1065","","","","","","","","","tol_peg_2","1065","1065","0","[[2,0,0],[1,3],[0]]","6","[[3,1,0],[2,0],[0]]","16","0","","","","","","5","","","","",""
