"success","timeout","failed_images","failed_audio","failed_video","trial_type","trial_index","time_elapsed","internal_node_id","subject_id","study_id","session_id","view_history","rt","stimulus","response","task","correct","answer","item","fiar_detect_rt","fiar_detect_correct","total_correct_fiar_detect","post_trial_gap","choices","mouse_click","stim_duration","block_duration","timing_post_trial","current_position","tol_num_moves_made","tol_target","tol_problem_id","tol_rt","key_press","possible_responses","tol_correct","preplanning","tol_rt_per_trial","tol_min_moves","spm_correct","spm_rt"
"true","false","[]","[]","[]","preload","0","1206","0.0-0.0","5c314de6d5fc960001d2cb93","B2","batch2","","","","","","","","","","","","","","","","","","","","","","","","","","","","","",""
"true","","","","","fullscreen","1","59346","0.0-1.0-0.0","5c314de6d5fc960001d2cb93","B2","batch2","","","","","","","","","","","","","","","","","","","","","","","","","","","","","",""
"true","","","","","fullscreen","2","61703","0.0-2.0-0.0","5c314de6d5fc960001d2cb93","B2","batch2","","","","","","","","","","","","","","","","","","","","","","","","","","","","","",""
"","","","","","instructions","3","80871","0.0-2.0-1.0-0.0","5c314de6d5fc960001d2cb93","B2","batch2","[{""page_index"":0,""viewing_time"":2794.600000023842},{""page_index"":1,""viewing_time"":16371.899999976158}]","19166.899999976158","","","","","","","","","","","","","","","","","","","","","","","","","","","",""
"","","","","","html-button-response","4","83425","0.0-2.0-1.0-1.0-0.0","5c314de6d5fc960001d2cb93","B2","batch2","","2552.2000000476837","<p class=block-text> Let's answer a few questions <br>","0","pattern_enter_quiz","","","","","","","","","","","","","","","","","","","","","","","","",""
"","","","","","html-button-response","5","87588","0.0-2.0-1.0-1.0-1.0","5c314de6d5fc960001d2cb93","B2","batch2","","4160.699999928474","<p class = block-text>True or False: You will have as much time as you want to make each choice. <br></p>","1","pattern_quiz","true","","","","","","","","","","","","","","","","","","","","","","","",""
"","","","","","html-button-response","6","90328","0.0-2.0-1.0-1.0-2.0","5c314de6d5fc960001d2cb93","B2","batch2","","2737.2999999523163","<p class = block-text>Correct! You should make your choice <strong> as fast as you can</strong>.</p>","0","pattern_quiz_feedback","","","","","","","","","","","","","","","","","","","","","","","","",""
"","","","","","html-button-response","7","93957","0.0-2.0-1.0-1.0-3.0","5c314de6d5fc960001d2cb93","B2","batch2","","3627.6999999284744","<p class = block-text>True or False: You will look for 4 pieces in black or white color connected in a row either horizontally, vertically or diagonally. <br></p>","0","pattern_quiz","true","","","","","","","","","","","","","","","","","","","","","","","",""
"","","","","","html-button-response","8","94991","0.0-2.0-1.0-1.0-4.0","5c314de6d5fc960001d2cb93","B2","batch2","","1032.7000000476837","<p class = block-text>Correct! </p>","0","pattern_quiz_feedback","","","","","","","","","","","","","","","","","","","","","","","","",""
"","","","","","html-button-response","9","97036","0.0-2.0-2.0","5c314de6d5fc960001d2cb93","B2","batch2","","2042.7999999523163","<p class=block-text> Now that you've understood the game, let's do a few practice trials before we start!<br> <br>","0","pattern_enter_practice","","","","","","","","","","","","","","","","","","","","","","","","",""
"","","","","","image-keyboard-response","10","102096","0.0-2.0-3.0-0.0","5c314de6d5fc960001d2cb93","B2","batch2","","5042.5","stim/prac_no_16_1.png","j","pattern_practice","true","j","","","","","","","","","","","","","","","","","","","","","","",""
"","","","","","html-keyboard-response","11","103107","0.0-2.0-3.0-1.0","5c314de6d5fc960001d2cb93","B2","batch2","","null","<p style=""font-size:30px;color:green;"">Correct!</p>","null","pattern_feedback","","","","","","","","","","","","","","","","","","","","","","","","",""
"","","","","","image-keyboard-response","12","104240","0.0-2.0-3.0-0.1","5c314de6d5fc960001d2cb93","B2","batch2","","1131.1000000238419","stim/prac_yes_20_dia_b1.png","f","pattern_practice","true","f","","","","","","","","","","","","","","","","","","","","","","",""
"","","","","","html-keyboard-response","13","105250","0.0-2.0-3.0-1.1","5c314de6d5fc960001d2cb93","B2","batch2","","null","<p style=""font-size:30px;color:green;"">Correct!</p>","null","pattern_feedback","","","","","","","","","","","","","","","","","","","","","","","","",""
"","","","","","image-keyboard-response","14","106080","0.0-2.0-3.0-0.2","5c314de6d5fc960001d2cb93","B2","batch2","","828.7000000476837","stim/prac_yes_18_hor_w1.png","f","pattern_practice","true","f","","","","","","","","","","","","","","","","","","","","","","",""
"","","","","","html-keyboard-response","15","107091","0.0-2.0-3.0-1.2","5c314de6d5fc960001d2cb93","B2","batch2","","null","<p style=""font-size:30px;color:green;"">Correct!</p>","null","pattern_feedback","","","","","","","","","","","","","","","","","","","","","","","","",""
"","","","","","image-keyboard-response","16","108461","0.0-2.0-3.0-0.3","5c314de6d5fc960001d2cb93","B2","batch2","","1368.1999999284744","stim/prac_no_18_1.png","j","pattern_practice","true","j","","","","","","","","","","","","","","","","","","","","","","",""
"","","","","","html-keyboard-response","17","109471","0.0-2.0-3.0-1.3","5c314de6d5fc960001d2cb93","B2","batch2","","null","<p style=""font-size:30px;color:green;"">Correct!</p>","null","pattern_feedback","","","","","","","","","","","","","","","","","","","","","","","","",""
"","","","","","image-keyboard-response","18","110248","0.0-2.0-3.0-0.4","5c314de6d5fc960001d2cb93","B2","batch2","","775.2000000476837","stim/prac_yes_16_ver_w1.png","f","pattern_practice","true","f","","","","","","","","","","","","","","","","","","","","","","",""
"","","","","","html-keyboard-response","19","111259","0.0-2.0-3.0-1.4","5c314de6d5fc960001d2cb93","B2","batch2","","null","<p style=""font-size:30px;color:green;"">Correct!</p>","null","pattern_feedback","","","","","","","","","","","","","","","","","","","","","","","","",""
"","","","","","html-button-response","20","115826","0.0-2.0-4.0","5c314de6d5fc960001d2cb93","B2","batch2","","4565.5","<p class=block-text> Good job! You are done with practice trials!<br>
        You responded correctly on 100% of the trials.<br>
        Press the button below to start official trials. Now you won't see any feedback about your response</p>","0","pattern_enter_official_trials","","","","","","","","","","","","","","","","","","","","","","","","",""
"","","","","","html-keyboard-response","21","116631","0.0-2.0-5.0-0.0","5c314de6d5fc960001d2cb93","B2","batch2","","null","<p class=block-text>Trial 1 out of 78</p>","null","pattern_show_trial_num","","","","","","","","","","","","","","","","","","","","","","","","",""
"","","","","","image-keyboard-response","22","120966","0.0-2.0-5.0-1.0","5c314de6d5fc960001d2cb93","B2","batch2","","4332.300000071526","stim/no_53_1_b.png","j","pattern_response","true","j","pattern_33","4332.300000071526","true","1","","","","","","","","","","","","","","","","","","",""
"","","","","","html-keyboard-response","23","122276","0.0-2.0-5.0-0.1","5c314de6d5fc960001d2cb93","B2","batch2","","null","<p class=block-text>Trial 2 out of 78</p>","null","pattern_show_trial_num","","","","","","","","","","","","","","","","","","","","","","","","",""
"","","","","","image-keyboard-response","24","123766","0.0-2.0-5.0-1.1","5c314de6d5fc960001d2cb93","B2","batch2","","1488.3999999761581","stim/yes_30_ver_b1_b.png","f","pattern_response","true","f","pattern_54","1488.3999999761581","true","2","","","","","","","","","","","","","","","","","","",""
"","","","","","html-keyboard-response","25","125068","0.0-2.0-5.0-0.2","5c314de6d5fc960001d2cb93","B2","batch2","","null","<p class=block-text>Trial 3 out of 78</p>","null","pattern_show_trial_num","","","","","","","","","","","","","","","","","","","","","","","","",""
"","","","","","image-keyboard-response","26","129282","0.0-2.0-5.0-1.2","5c314de6d5fc960001d2cb93","B2","batch2","","4211.800000071526","stim/no_39_1_w.png","j","pattern_response","true","j","pattern_21","4211.800000071526","true","3","","","","","","","","","","","","","","","","","","",""
"","","","","","html-keyboard-response","27","130593","0.0-2.0-5.0-0.3","5c314de6d5fc960001d2cb93","B2","batch2","","null","<p class=block-text>Trial 4 out of 78</p>","null","pattern_show_trial_num","","","","","","","","","","","","","","","","","","","","","","","","",""
"","","","","","image-keyboard-response","28","133674","0.0-2.0-5.0-1.3","5c314de6d5fc960001d2cb93","B2","batch2","","3078.100000023842","stim/no_33_1_b.png","j","pattern_response","true","j","pattern_15","3078.100000023842","true","4","","","","","","","","","","","","","","","","","","",""
"","","","","","html-keyboard-response","29","134981","0.0-2.0-5.0-0.4","5c314de6d5fc960001d2cb93","B2","batch2","","null","<p class=block-text>Trial 5 out of 78</p>","null","pattern_show_trial_num","","","","","","","","","","","","","","","","","","","","","","","","",""
"","","","","","image-keyboard-response","30","139463","0.0-2.0-5.0-1.4","5c314de6d5fc960001d2cb93","B2","batch2","","4479.299999952316","stim/yes_63_dia_b1.png","f","pattern_response","true","f","pattern_78","4479.299999952316","true","5","","","","","","","","","","","","","","","","","","",""
"","","","","","html-keyboard-response","31","140770","0.0-2.0-5.0-0.5","5c314de6d5fc960001d2cb93","B2","batch2","","null","<p class=block-text>Trial 6 out of 78</p>","null","pattern_show_trial_num","","","","","","","","","","","","","","","","","","","","","","","","",""
"","","","","","image-keyboard-response","32","147766","0.0-2.0-5.0-1.5","5c314de6d5fc960001d2cb93","B2","batch2","","6993.800000071526","stim/no_25_1_b.png","f","pattern_response","false","j","pattern_09","6993.800000071526","false","5","","","","","","","","","","","","","","","","","","",""
"","","","","","html-keyboard-response","33","149074","0.0-2.0-5.0-0.6","5c314de6d5fc960001d2cb93","B2","batch2","","null","<p class=block-text>Trial 7 out of 78</p>","null","pattern_show_trial_num","","","","","","","","","","","","","","","","","","","","","","","","",""
"","","","","","image-keyboard-response","34","154977","0.0-2.0-5.0-1.6","5c314de6d5fc960001d2cb93","B2","batch2","","5900.200000047684","stim/no_45_1_w.png","j","pattern_response","true","j","pattern_25","5900.200000047684","true","6","","","","","","","","","","","","","","","","","","",""
"","","","","","html-keyboard-response","35","156289","0.0-2.0-5.0-0.7","5c314de6d5fc960001d2cb93","B2","batch2","","null","<p class=block-text>Trial 8 out of 78</p>","null","pattern_show_trial_num","","","","","","","","","","","","","","","","","","","","","","","","",""
"","","","","","image-keyboard-response","36","157612","0.0-2.0-5.0-1.7","5c314de6d5fc960001d2cb93","B2","batch2","","1321.5","stim/yes_37_hor_w1_w.png","f","pattern_response","true","f","pattern_60","1321.5","true","7","","","","","","","","","","","","","","","","","","",""
"","","","","","html-keyboard-response","37","158923","0.0-2.0-5.0-0.8","5c314de6d5fc960001d2cb93","B2","batch2","","null","<p class=block-text>Trial 9 out of 78</p>","null","pattern_show_trial_num","","","","","","","","","","","","","","","","","","","","","","","","",""
"","","","","","image-keyboard-response","38","160695","0.0-2.0-5.0-1.8","5c314de6d5fc960001d2cb93","B2","batch2","","1769.7999999523163","stim/no_22_1_b.png","j","pattern_response","true","j","pattern_07","1769.7999999523163","true","8","","","","","","","","","","","","","","","","","","",""
"","","","","","html-keyboard-response","39","162002","0.0-2.0-5.0-0.9","5c314de6d5fc960001d2cb93","B2","batch2","","null","<p class=block-text>Trial 10 out of 78</p>","null","pattern_show_trial_num","","","","","","","","","","","","","","","","","","","","","","","","",""
"","","","","","image-keyboard-response","40","164260","0.0-2.0-5.0-1.9","5c314de6d5fc960001d2cb93","B2","batch2","","2255.4000000953674","stim/no_47_1_b.png","j","pattern_response","true","j","pattern_27","2255.4000000953674","true","9","","","","","","","","","","","","","","","","","","",""
"","","","","","html-keyboard-response","41","165564","0.0-2.0-5.0-0.10","5c314de6d5fc960001d2cb93","B2","batch2","","null","<p class=block-text>Trial 11 out of 78</p>","null","pattern_show_trial_num","","","","","","","","","","","","","","","","","","","","","","","","",""
"","","","","","image-keyboard-response","42","168797","0.0-2.0-5.0-1.10","5c314de6d5fc960001d2cb93","B2","batch2","","3231.3000000715256","stim/no_43_2_b.png","j","pattern_response","true","j","pattern_23","3231.3000000715256","true","10","","","","","","","","","","","","","","","","","","",""
"","","","","","html-keyboard-response","43","170103","0.0-2.0-5.0-0.11","5c314de6d5fc960001d2cb93","B2","batch2","","null","<p class=block-text>Trial 12 out of 78</p>","null","pattern_show_trial_num","","","","","","","","","","","","","","","","","","","","","","","","",""
"","","","","","image-keyboard-response","44","173559","0.0-2.0-5.0-1.11","5c314de6d5fc960001d2cb93","B2","batch2","","3453.4000000953674","stim/no_51_1.png","j","pattern_response","true","j","pattern_31","3453.4000000953674","true","11","","","","","","","","","","","","","","","","","","",""
"","","","","","html-keyboard-response","45","174871","0.0-2.0-5.0-0.12","5c314de6d5fc960001d2cb93","B2","batch2","","null","<p class=block-text>Trial 13 out of 78</p>","null","pattern_show_trial_num","","","","","","","","","","","","","","","","","","","","","","","","",""
"","","","","","image-keyboard-response","46","176224","0.0-2.0-5.0-1.12","5c314de6d5fc960001d2cb93","B2","batch2","","1351","stim/no_15_1_w.png","j","pattern_response","true","j","pattern_03","1351","true","12","","","","","","","","","","","","","","","","","","",""
"","","","","","html-keyboard-response","47","177535","0.0-2.0-5.0-0.13","5c314de6d5fc960001d2cb93","B2","batch2","","null","<p class=block-text>Trial 14 out of 78</p>","null","pattern_show_trial_num","","","","","","","","","","","","","","","","","","","","","","","","",""
"","","","","","image-keyboard-response","48","179573","0.0-2.0-5.0-1.13","5c314de6d5fc960001d2cb93","B2","batch2","","2036.2000000476837","stim/no_18_1_b.png","j","pattern_response","true","j","pattern_05","2036.2000000476837","true","13","","","","","","","","","","","","","","","","","","",""
"","","","","","html-keyboard-response","49","180883","0.0-2.0-5.0-0.14","5c314de6d5fc960001d2cb93","B2","batch2","","null","<p class=block-text>Trial 15 out of 78</p>","null","pattern_show_trial_num","","","","","","","","","","","","","","","","","","","","","","","","",""
"","","","","","image-keyboard-response","50","184223","0.0-2.0-5.0-1.14","5c314de6d5fc960001d2cb93","B2","batch2","","3338.1999999284744","stim/no_36_1_b.png","j","pattern_response","true","j","pattern_17","3338.1999999284744","true","14","","","","","","","","","","","","","","","","","","",""
"","","","","","html-keyboard-response","51","185532","0.0-2.0-5.0-0.15","5c314de6d5fc960001d2cb93","B2","batch2","","null","<p class=block-text>Trial 16 out of 78</p>","null","pattern_show_trial_num","","","","","","","","","","","","","","","","","","","","","","","","",""
"","","","","","image-keyboard-response","52","186392","0.0-2.0-5.0-1.15","5c314de6d5fc960001d2cb93","B2","batch2","","857.9000000953674","stim/yes_26_dia_w2_w.png","f","pattern_response","true","f","pattern_50","857.9000000953674","true","15","","","","","","","","","","","","","","","","","","",""
"","","","","","html-keyboard-response","53","187703","0.0-2.0-5.0-0.16","5c314de6d5fc960001d2cb93","B2","batch2","","null","<p class=block-text>Trial 17 out of 78</p>","null","pattern_show_trial_num","","","","","","","","","","","","","","","","","","","","","","","","",""
"","","","","","image-keyboard-response","54","188975","0.0-2.0-5.0-1.16","5c314de6d5fc960001d2cb93","B2","batch2","","1270.1999999284744","stim/yes_29_hor_b1_b.png","f","pattern_response","true","f","pattern_52","1270.1999999284744","true","16","","","","","","","","","","","","","","","","","","",""
"","","","","","html-keyboard-response","55","190286","0.0-2.0-5.0-0.17","5c314de6d5fc960001d2cb93","B2","batch2","","null","<p class=block-text>Trial 18 out of 78</p>","null","pattern_show_trial_num","","","","","","","","","","","","","","","","","","","","","","","","",""
"","","","","","image-keyboard-response","56","191142","0.0-2.0-5.0-1.17","5c314de6d5fc960001d2cb93","B2","batch2","","854.3999999761581","stim/yes_33_dia_w1_w.png","f","pattern_response","true","f","pattern_56","854.3999999761581","true","17","","","","","","","","","","","","","","","","","","",""
"","","","","","html-keyboard-response","57","192452","0.0-2.0-5.0-0.18","5c314de6d5fc960001d2cb93","B2","batch2","","null","<p class=block-text>Trial 19 out of 78</p>","null","pattern_show_trial_num","","","","","","","","","","","","","","","","","","","","","","","","",""
"","","","","","image-keyboard-response","58","193388","0.0-2.0-5.0-1.18","5c314de6d5fc960001d2cb93","B2","batch2","","934.1000000238419","stim/yes_46_ver_b1_b.png","f","pattern_response","true","f","pattern_68","934.1000000238419","true","18","","","","","","","","","","","","","","","","","","",""
"","","","","","html-keyboard-response","59","194699","0.0-2.0-5.0-0.19","5c314de6d5fc960001d2cb93","B2","batch2","","null","<p class=block-text>Trial 20 out of 78</p>","null","pattern_show_trial_num","","","","","","","","","","","","","","","","","","","","","","","","",""
"","","","","","image-keyboard-response","60","196915","0.0-2.0-5.0-1.19","5c314de6d5fc960001d2cb93","B2","batch2","","2214","stim/yes_58_dia_w1_w.png","f","pattern_response","true","f","pattern_76","2214","true","19","","","","","","","","","","","","","","","","","","",""
"","","","","","html-keyboard-response","61","198220","0.0-2.0-5.0-0.20","5c314de6d5fc960001d2cb93","B2","batch2","","null","<p class=block-text>Trial 21 out of 78</p>","null","pattern_show_trial_num","","","","","","","","","","","","","","","","","","","","","","","","",""
"","","","","","image-keyboard-response","62","203316","0.0-2.0-5.0-1.20","5c314de6d5fc960001d2cb93","B2","batch2","","5094.799999952316","stim/no_37_2_w.png","j","pattern_response","true","j","pattern_19","5094.799999952316","true","20","","","","","","","","","","","","","","","","","","",""
"","","","","","html-keyboard-response","63","204627","0.0-2.0-5.0-0.21","5c314de6d5fc960001d2cb93","B2","batch2","","null","<p class=block-text>Trial 22 out of 78</p>","null","pattern_show_trial_num","","","","","","","","","","","","","","","","","","","","","","","","",""
"","","","","","image-keyboard-response","64","205663","0.0-2.0-5.0-1.21","5c314de6d5fc960001d2cb93","B2","batch2","","1033.6000000238419","stim/yes_23_ver_b1.png","f","pattern_response","true","f","pattern_48","1033.6000000238419","true","21","","","","","","","","","","","","","","","","","","",""
"","","","","","html-keyboard-response","65","206969","0.0-2.0-5.0-0.22","5c314de6d5fc960001d2cb93","B2","batch2","","null","<p class=block-text>Trial 23 out of 78</p>","null","pattern_show_trial_num","","","","","","","","","","","","","","","","","","","","","","","","",""
"","","","","","image-keyboard-response","66","208204","0.0-2.0-5.0-1.22","5c314de6d5fc960001d2cb93","B2","batch2","","1233.8000000715256","stim/yes_49_hor_w1_b.png","f","pattern_response","true","f","pattern_70","1233.8000000715256","true","22","","","","","","","","","","","","","","","","","","",""
"","","","","","html-keyboard-response","67","209512","0.0-2.0-5.0-0.23","5c314de6d5fc960001d2cb93","B2","batch2","","null","<p class=block-text>Trial 24 out of 78</p>","null","pattern_show_trial_num","","","","","","","","","","","","","","","","","","","","","","","","",""
"","","","","","image-keyboard-response","68","214552","0.0-2.0-5.0-1.23","5c314de6d5fc960001d2cb93","B2","batch2","","5038.299999952316","stim/yes_51_dia_b1.png","j","pattern_response","false","f","pattern_72","5038.299999952316","false","22","","","","","","","","","","","","","","","","","","",""
"","","","","","html-keyboard-response","69","215860","0.0-2.0-5.0-0.24","5c314de6d5fc960001d2cb93","B2","batch2","","null","<p class=block-text>Trial 25 out of 78</p>","null","pattern_show_trial_num","","","","","","","","","","","","","","","","","","","","","","","","",""
"","","","","","image-keyboard-response","70","216863","0.0-2.0-5.0-1.24","5c314de6d5fc960001d2cb93","B2","batch2","","1001.0999999046326","stim/yes_36_ver_w1_w.png","f","pattern_response","true","f","pattern_58","1001.0999999046326","true","23","","","","","","","","","","","","","","","","","","",""
"","","","","","html-keyboard-response","71","218168","0.0-2.0-5.0-0.25","5c314de6d5fc960001d2cb93","B2","batch2","","null","<p class=block-text>Trial 26 out of 78</p>","null","pattern_show_trial_num","","","","","","","","","","","","","","","","","","","","","","","","",""
"","","","","","image-keyboard-response","72","218736","0.0-2.0-5.0-1.25","5c314de6d5fc960001d2cb93","B2","batch2","","566.1000000238419","stim/yes_39_hor_w1_w.png","f","pattern_response","true","f","pattern_62","566.1000000238419","true","24","","","","","","","","","","","","","","","","","","",""
"","","","","","html-keyboard-response","73","220040","0.0-2.0-5.0-0.26","5c314de6d5fc960001d2cb93","B2","batch2","","null","<p class=block-text>Trial 27 out of 78</p>","null","pattern_show_trial_num","","","","","","","","","","","","","","","","","","","","","","","","",""
"","","","","","image-keyboard-response","74","220603","0.0-2.0-5.0-1.26","5c314de6d5fc960001d2cb93","B2","batch2","","560.1000000238419","stim/yes_15_dia_b1u_b.png","f","pattern_response","true","f","pattern_44","560.1000000238419","true","25","","","","","","","","","","","","","","","","","","",""
"","","","","","html-keyboard-response","75","221908","0.0-2.0-5.0-0.27","5c314de6d5fc960001d2cb93","B2","batch2","","null","<p class=block-text>Trial 28 out of 78</p>","null","pattern_show_trial_num","","","","","","","","","","","","","","","","","","","","","","","","",""
"","","","","","image-keyboard-response","76","225721","0.0-2.0-5.0-1.27","5c314de6d5fc960001d2cb93","B2","batch2","","3811.2999999523163","stim/no_58_1_w.png","j","pattern_response","true","j","pattern_35","3811.2999999523163","true","26","","","","","","","","","","","","","","","","","","",""
"","","","","","html-keyboard-response","77","227024","0.0-2.0-5.0-0.28","5c314de6d5fc960001d2cb93","B2","batch2","","null","<p class=block-text>Trial 29 out of 78</p>","null","pattern_show_trial_num","","","","","","","","","","","","","","","","","","","","","","","","",""
"","","","","","image-keyboard-response","78","227854","0.0-2.0-5.0-1.28","5c314de6d5fc960001d2cb93","B2","batch2","","827.1000000238419","stim/yes_70_ver_b1.png","f","pattern_response","true","f","pattern_80","827.1000000238419","true","27","","","","","","","","","","","","","","","","","","",""
"","","","","","html-keyboard-response","79","229160","0.0-2.0-5.0-0.29","5c314de6d5fc960001d2cb93","B2","batch2","","null","<p class=block-text>Trial 30 out of 78</p>","null","pattern_show_trial_num","","","","","","","","","","","","","","","","","","","","","","","","",""
"","","","","","image-keyboard-response","80","231981","0.0-2.0-5.0-1.29","5c314de6d5fc960001d2cb93","B2","batch2","","2820","stim/no_49_2_b.png","j","pattern_response","true","j","pattern_29","2820","true","28","","","","","","","","","","","","","","","","","","",""
"","","","","","html-keyboard-response","81","233290","0.0-2.0-5.0-0.30","5c314de6d5fc960001d2cb93","B2","batch2","","null","<p class=block-text>Trial 31 out of 78</p>","null","pattern_show_trial_num","","","","","","","","","","","","","","","","","","","","","","","","",""
"","","","","","image-keyboard-response","82","237251","0.0-2.0-5.0-1.30","5c314de6d5fc960001d2cb93","B2","batch2","","3959.5","stim/no_67_1.png","j","pattern_response","true","j","pattern_39","3959.5","true","29","","","","","","","","","","","","","","","","","","",""
"","","","","","html-keyboard-response","83","238562","0.0-2.0-5.0-0.31","5c314de6d5fc960001d2cb93","B2","batch2","","null","<p class=block-text>Trial 32 out of 78</p>","null","pattern_show_trial_num","","","","","","","","","","","","","","","","","","","","","","","","",""
"","","","","","image-keyboard-response","84","239647","0.0-2.0-5.0-1.31","5c314de6d5fc960001d2cb93","B2","batch2","","1082.2999999523163","stim/no_12_1.png","j","pattern_response","true","j","pattern_01","1082.2999999523163","true","30","","","","","","","","","","","","","","","","","","",""
"","","","","","html-keyboard-response","85","240955","0.0-2.0-5.0-0.32","5c314de6d5fc960001d2cb93","B2","batch2","","null","<p class=block-text>Trial 33 out of 78</p>","null","pattern_show_trial_num","","","","","","","","","","","","","","","","","","","","","","","","",""
"","","","","","image-keyboard-response","86","243137","0.0-2.0-5.0-1.32","5c314de6d5fc960001d2cb93","B2","batch2","","2179.7000000476837","stim/yes_44_ver_w1_w.png","j","pattern_response","false","f","pattern_66","2179.7000000476837","false","30","","","","","","","","","","","","","","","","","","",""
"","","","","","html-keyboard-response","87","244440","0.0-2.0-5.0-0.33","5c314de6d5fc960001d2cb93","B2","batch2","","null","<p class=block-text>Trial 34 out of 78</p>","null","pattern_show_trial_num","","","","","","","","","","","","","","","","","","","","","","","","",""
"","","","","","image-keyboard-response","88","245090","0.0-2.0-5.0-1.33","5c314de6d5fc960001d2cb93","B2","batch2","","648","stim/yes_17_ver_b1_b.png","f","pattern_response","true","f","pattern_46","648","true","31","","","","","","","","","","","","","","","","","","",""
"","","","","","html-keyboard-response","89","246397","0.0-2.0-5.0-0.34","5c314de6d5fc960001d2cb93","B2","batch2","","null","<p class=block-text>Trial 35 out of 78</p>","null","pattern_show_trial_num","","","","","","","","","","","","","","","","","","","","","","","","",""
"","","","","","image-keyboard-response","90","247621","0.0-2.0-5.0-1.34","5c314de6d5fc960001d2cb93","B2","batch2","","1223.0999999046326","stim/no_28_2.png","j","pattern_response","true","j","pattern_11","1223.0999999046326","true","32","","","","","","","","","","","","","","","","","","",""
"","","","","","html-keyboard-response","91","248926","0.0-2.0-5.0-0.35","5c314de6d5fc960001d2cb93","B2","batch2","","null","<p class=block-text>Trial 36 out of 78</p>","null","pattern_show_trial_num","","","","","","","","","","","","","","","","","","","","","","","","",""
"","","","","","image-keyboard-response","92","249602","0.0-2.0-5.0-1.35","5c314de6d5fc960001d2cb93","B2","batch2","","673.8999999761581","stim/yes_12_hor_w1_w.png","f","pattern_response","true","f","pattern_42","673.8999999761581","true","33","","","","","","","","","","","","","","","","","","",""
"","","","","","html-keyboard-response","93","250904","0.0-2.0-5.0-0.36","5c314de6d5fc960001d2cb93","B2","batch2","","null","<p class=block-text>Trial 37 out of 78</p>","null","pattern_show_trial_num","","","","","","","","","","","","","","","","","","","","","","","","",""
"","","","","","image-keyboard-response","94","252259","0.0-2.0-5.0-1.36","5c314de6d5fc960001d2cb93","B2","batch2","","1352.9000000953674","stim/no_30_1_b.png","j","pattern_response","true","j","pattern_13","1352.9000000953674","true","34","","","","","","","","","","","","","","","","","","",""
"","","","","","html-keyboard-response","95","253569","0.0-2.0-5.0-0.37","5c314de6d5fc960001d2cb93","B2","batch2","","null","<p class=block-text>Trial 38 out of 78</p>","null","pattern_show_trial_num","","","","","","","","","","","","","","","","","","","","","","","","",""
"","","","","","image-keyboard-response","96","254928","0.0-2.0-5.0-1.37","5c314de6d5fc960001d2cb93","B2","batch2","","1356.6000000238419","stim/yes_53_ver_b1_b.png","f","pattern_response","true","f","pattern_74","1356.6000000238419","true","35","","","","","","","","","","","","","","","","","","",""
"","","","","","html-keyboard-response","97","256238","0.0-2.0-5.0-0.38","5c314de6d5fc960001d2cb93","B2","batch2","","null","<p class=block-text>Trial 39 out of 78</p>","null","pattern_show_trial_num","","","","","","","","","","","","","","","","","","","","","","","","",""
"","","","","","image-keyboard-response","98","258262","0.0-2.0-5.0-1.38","5c314de6d5fc960001d2cb93","B2","batch2","","2021.8000000715256","stim/yes_42_dia_w1_w.png","j","pattern_response","false","f","pattern_64","2021.8000000715256","false","35","","","","","","","","","","","","","","","","","","",""
"","","","","","image-keyboard-response","99","262266","0.0-2.0-6.0","5c314de6d5fc960001d2cb93","B2","batch2","","3498.600000023842","stim/empty_board.png","j","attention_check","true","j","","","","","500","[""f"",""j""]","","","","","","","","","","","","","","","","",""
"","","","","","html-keyboard-response","100","263069","0.0-2.0-7.0-0.0","5c314de6d5fc960001d2cb93","B2","batch2","","null","<p class=block-text>Trial 40 out of 78</p>","null","pattern_show_trial_num","","","","","","","","","","","","","","","","","","","","","","","","",""
"","","","","","image-keyboard-response","101","268973","0.0-2.0-7.0-1.0","5c314de6d5fc960001d2cb93","B2","batch2","","5901.399999976158","stim/no_62_1_w.png","j","pattern_response","true","j","pattern_36","5901.399999976158","true","36","","","","","","","","","","","","","","","","","","",""
"","","","","","html-keyboard-response","102","270281","0.0-2.0-7.0-0.1","5c314de6d5fc960001d2cb93","B2","batch2","","null","<p class=block-text>Trial 41 out of 78</p>","null","pattern_show_trial_num","","","","","","","","","","","","","","","","","","","","","","","","",""
"","","","","","image-keyboard-response","103","273194","0.0-2.0-7.0-1.1","5c314de6d5fc960001d2cb93","B2","batch2","","2911.6999999284744","stim/no_42_1_w.png","j","pattern_response","true","j","pattern_22","2911.6999999284744","true","37","","","","","","","","","","","","","","","","","","",""
"","","","","","html-keyboard-response","104","274501","0.0-2.0-7.0-0.2","5c314de6d5fc960001d2cb93","B2","batch2","","null","<p class=block-text>Trial 42 out of 78</p>","null","pattern_show_trial_num","","","","","","","","","","","","","","","","","","","","","","","","",""
"","","","","","image-keyboard-response","105","280662","0.0-2.0-7.0-1.2","5c314de6d5fc960001d2cb93","B2","batch2","","6158","stim/no_65_1_b.png","j","pattern_response","true","j","pattern_38","6158","true","38","","","","","","","","","","","","","","","","","","",""
"","","","","","html-keyboard-response","106","281968","0.0-2.0-7.0-0.3","5c314de6d5fc960001d2cb93","B2","batch2","","null","<p class=block-text>Trial 43 out of 78</p>","null","pattern_show_trial_num","","","","","","","","","","","","","","","","","","","","","","","","",""
"","","","","","image-keyboard-response","107","283646","0.0-2.0-7.0-1.3","5c314de6d5fc960001d2cb93","B2","batch2","","1663.7999999523163","stim/yes_52_ver_w1.png","f","pattern_response","true","f","pattern_73","1663.7999999523163","true","39","","","","","","","","","","","","","","","","","","",""
"","","","","","html-keyboard-response","108","284954","0.0-2.0-7.0-0.4","5c314de6d5fc960001d2cb93","B2","batch2","","null","<p class=block-text>Trial 44 out of 78</p>","null","pattern_show_trial_num","","","","","","","","","","","","","","","","","","","","","","","","",""
"","","","","","image-keyboard-response","109","288947","0.0-2.0-7.0-1.4","5c314de6d5fc960001d2cb93","B2","batch2","","3991.2000000476837","stim/no_46_1_b.png","j","pattern_response","true","j","pattern_26","3991.2000000476837","true","40","","","","","","","","","","","","","","","","","","",""
"","","","","","html-keyboard-response","110","290248","0.0-2.0-7.0-0.5","5c314de6d5fc960001d2cb93","B2","batch2","","null","<p class=block-text>Trial 45 out of 78</p>","null","pattern_show_trial_num","","","","","","","","","","","","","","","","","","","","","","","","",""
"","","","","","image-keyboard-response","111","292787","0.0-2.0-7.0-1.5","5c314de6d5fc960001d2cb93","B2","batch2","","2536.399999976158","stim/yes_67_hor_b1.png","f","pattern_response","true","f","pattern_79","2536.399999976158","true","41","","","","","","","","","","","","","","","","","","",""
"","","","","","html-keyboard-response","112","294098","0.0-2.0-7.0-0.6","5c314de6d5fc960001d2cb93","B2","batch2","","null","<p class=block-text>Trial 46 out of 78</p>","null","pattern_show_trial_num","","","","","","","","","","","","","","","","","","","","","","","","",""
"","","","","","image-keyboard-response","113","298820","0.0-2.0-7.0-1.6","5c314de6d5fc960001d2cb93","B2","batch2","","4720.099999904633","stim/no_48_1_w.png","j","pattern_response","true","j","pattern_28","4720.099999904633","true","42","","","","","","","","","","","","","","","","","","",""
"","","","","","html-keyboard-response","114","300127","0.0-2.0-7.0-0.7","5c314de6d5fc960001d2cb93","B2","batch2","","null","<p class=block-text>Trial 47 out of 78</p>","null","pattern_show_trial_num","","","","","","","","","","","","","","","","","","","","","","","","",""
"","","","","","image-keyboard-response","115","301337","0.0-2.0-7.0-1.7","5c314de6d5fc960001d2cb93","B2","batch2","","1207","stim/yes_45_hor_b2_b.png","f","pattern_response","true","f","pattern_67","1207","true","43","","","","","","","","","","","","","","","","","","",""
"","","","","","html-keyboard-response","116","302643","0.0-2.0-7.0-0.8","5c314de6d5fc960001d2cb93","B2","batch2","","null","<p class=block-text>Trial 48 out of 78</p>","null","pattern_show_trial_num","","","","","","","","","","","","","","","","","","","","","","","","",""
"","","","","","image-keyboard-response","117","303768","0.0-2.0-7.0-1.8","5c314de6d5fc960001d2cb93","B2","batch2","","1123.5","stim/yes_60_ver_b1_b.png","f","pattern_response","true","f","pattern_77","1123.5","true","44","","","","","","","","","","","","","","","","","","",""
"","","","","","html-keyboard-response","118","305076","0.0-2.0-7.0-0.9","5c314de6d5fc960001d2cb93","B2","batch2","","null","<p class=block-text>Trial 49 out of 78</p>","null","pattern_show_trial_num","","","","","","","","","","","","","","","","","","","","","","","","",""
"","","","","","image-keyboard-response","119","305980","0.0-2.0-7.0-1.9","5c314de6d5fc960001d2cb93","B2","batch2","","901.6999999284744","stim/yes_55_hor_w1_w.png","f","pattern_response","true","f","pattern_75","901.6999999284744","true","45","","","","","","","","","","","","","","","","","","",""
"","","","","","html-keyboard-response","120","307291","0.0-2.0-7.0-0.10","5c314de6d5fc960001d2cb93","B2","batch2","","null","<p class=block-text>Trial 50 out of 78</p>","null","pattern_show_trial_num","","","","","","","","","","","","","","","","","","","","","","","","",""
"","","","","","image-keyboard-response","121","310446","0.0-2.0-7.0-1.10","5c314de6d5fc960001d2cb93","B2","batch2","","3153.399999976158","stim/no_26_1_w.png","j","pattern_response","true","j","pattern_10","3153.399999976158","true","46","","","","","","","","","","","","","","","","","","",""
"","","","","","html-keyboard-response","122","311755","0.0-2.0-7.0-0.11","5c314de6d5fc960001d2cb93","B2","batch2","","null","<p class=block-text>Trial 51 out of 78</p>","null","pattern_show_trial_num","","","","","","","","","","","","","","","","","","","","","","","","",""
"","","","","","image-keyboard-response","123","314669","0.0-2.0-7.0-1.11","5c314de6d5fc960001d2cb93","B2","batch2","","2912.7000000476837","stim/yes_31_hor_b1.png","f","pattern_response","true","f","pattern_55","2912.7000000476837","true","47","","","","","","","","","","","","","","","","","","",""
"","","","","","html-keyboard-response","124","315979","0.0-2.0-7.0-0.12","5c314de6d5fc960001d2cb93","B2","batch2","","null","<p class=block-text>Trial 52 out of 78</p>","null","pattern_show_trial_num","","","","","","","","","","","","","","","","","","","","","","","","",""
"","","","","","image-keyboard-response","125","316949","0.0-2.0-7.0-1.12","5c314de6d5fc960001d2cb93","B2","batch2","","967.2000000476837","stim/yes_29_ver_w1.png","f","pattern_response","true","f","pattern_53","967.2000000476837","true","48","","","","","","","","","","","","","","","","","","",""
"","","","","","html-keyboard-response","126","318257","0.0-2.0-7.0-0.13","5c314de6d5fc960001d2cb93","B2","batch2","","null","<p class=block-text>Trial 53 out of 78</p>","null","pattern_show_trial_num","","","","","","","","","","","","","","","","","","","","","","","","",""
"","","","","","image-keyboard-response","127","321345","0.0-2.0-7.0-1.13","5c314de6d5fc960001d2cb93","B2","batch2","","3086","stim/yes_40_dia_b1_b.png","j","pattern_response","false","f","pattern_63","3086","false","48","","","","","","","","","","","","","","","","","","",""
"","","","","","html-keyboard-response","128","322650","0.0-2.0-7.0-0.14","5c314de6d5fc960001d2cb93","B2","batch2","","null","<p class=block-text>Trial 54 out of 78</p>","null","pattern_show_trial_num","","","","","","","","","","","","","","","","","","","","","","","","",""
"","","","","","image-keyboard-response","129","325684","0.0-2.0-7.0-1.14","5c314de6d5fc960001d2cb93","B2","batch2","","3032","stim/no_34_1_b.png","j","pattern_response","true","j","pattern_16","3032","true","49","","","","","","","","","","","","","","","","","","",""
"","","","","","html-keyboard-response","130","326995","0.0-2.0-7.0-0.15","5c314de6d5fc960001d2cb93","B2","batch2","","null","<p class=block-text>Trial 55 out of 78</p>","null","pattern_show_trial_num","","","","","","","","","","","","","","","","","","","","","","","","",""
"","","","","","image-keyboard-response","131","328628","0.0-2.0-7.0-1.15","5c314de6d5fc960001d2cb93","B2","batch2","","1631","stim/yes_38_hor_b1_b.png","f","pattern_response","true","f","pattern_61","1631","true","50","","","","","","","","","","","","","","","","","","",""
"","","","","","html-keyboard-response","132","329937","0.0-2.0-7.0-0.16","5c314de6d5fc960001d2cb93","B2","batch2","","null","<p class=block-text>Trial 56 out of 78</p>","null","pattern_show_trial_num","","","","","","","","","","","","","","","","","","","","","","","","",""
"","","","","","image-keyboard-response","133","331202","0.0-2.0-7.0-1.16","5c314de6d5fc960001d2cb93","B2","batch2","","1263.1000000238419","stim/no_20_1_w.png","j","pattern_response","true","j","pattern_06","1263.1000000238419","true","51","","","","","","","","","","","","","","","","","","",""
"","","","","","html-keyboard-response","134","332508","0.0-2.0-7.0-0.17","5c314de6d5fc960001d2cb93","B2","batch2","","null","<p class=block-text>Trial 57 out of 78</p>","null","pattern_show_trial_num","","","","","","","","","","","","","","","","","","","","","","","","",""
"","","","","","image-keyboard-response","135","336695","0.0-2.0-7.0-1.17","5c314de6d5fc960001d2cb93","B2","batch2","","4185.5","stim/no_36_2_w.png","j","pattern_response","true","j","pattern_18","4185.5","true","52","","","","","","","","","","","","","","","","","","",""
"","","","","","html-keyboard-response","136","338004","0.0-2.0-7.0-0.18","5c314de6d5fc960001d2cb93","B2","batch2","","null","<p class=block-text>Trial 58 out of 78</p>","null","pattern_show_trial_num","","","","","","","","","","","","","","","","","","","","","","","","",""
"","","","","","image-keyboard-response","137","341551","0.0-2.0-7.0-1.18","5c314de6d5fc960001d2cb93","B2","batch2","","3545.6999999284744","stim/no_44_1.png","j","pattern_response","true","j","pattern_24","3545.6999999284744","true","53","","","","","","","","","","","","","","","","","","",""
"","","","","","html-keyboard-response","138","342860","0.0-2.0-7.0-0.19","5c314de6d5fc960001d2cb93","B2","batch2","","null","<p class=block-text>Trial 59 out of 78</p>","null","pattern_show_trial_num","","","","","","","","","","","","","","","","","","","","","","","","",""
"","","","","","image-keyboard-response","139","344013","0.0-2.0-7.0-1.19","5c314de6d5fc960001d2cb93","B2","batch2","","1150.8000000715256","stim/yes_28_ver_b1.png","f","pattern_response","true","f","pattern_51","1150.8000000715256","true","54","","","","","","","","","","","","","","","","","","",""
"","","","","","html-keyboard-response","140","345320","0.0-2.0-7.0-0.20","5c314de6d5fc960001d2cb93","B2","batch2","","null","<p class=block-text>Trial 60 out of 78</p>","null","pattern_show_trial_num","","","","","","","","","","","","","","","","","","","","","","","","",""
"","","","","","image-keyboard-response","141","347465","0.0-2.0-7.0-1.20","5c314de6d5fc960001d2cb93","B2","batch2","","2143.5","stim/no_32_1_w.png","j","pattern_response","true","j","pattern_14","2143.5","true","55","","","","","","","","","","","","","","","","","","",""
"","","","","","html-keyboard-response","142","348776","0.0-2.0-7.0-0.21","5c314de6d5fc960001d2cb93","B2","batch2","","null","<p class=block-text>Trial 61 out of 78</p>","null","pattern_show_trial_num","","","","","","","","","","","","","","","","","","","","","","","","",""
"","","","","","image-keyboard-response","143","352832","0.0-2.0-7.0-1.21","5c314de6d5fc960001d2cb93","B2","batch2","","4054.2999999523163","stim/yes_48_dia_w1_w.png","j","pattern_response","false","f","pattern_69","4054.2999999523163","false","55","","","","","","","","","","","","","","","","","","",""
"","","","","","html-keyboard-response","144","354142","0.0-2.0-7.0-0.22","5c314de6d5fc960001d2cb93","B2","batch2","","null","<p class=block-text>Trial 62 out of 78</p>","null","pattern_show_trial_num","","","","","","","","","","","","","","","","","","","","","","","","",""
"","","","","","image-keyboard-response","145","362941","0.0-2.0-7.0-1.22","5c314de6d5fc960001d2cb93","B2","batch2","","8797.5","stim/no_70_2.png","j","pattern_response","true","j","pattern_40","8797.5","true","56","","","","","","","","","","","","","","","","","","",""
"","","","","","html-keyboard-response","146","364249","0.0-2.0-7.0-0.23","5c314de6d5fc960001d2cb93","B2","batch2","","null","<p class=block-text>Trial 63 out of 78</p>","null","pattern_show_trial_num","","","","","","","","","","","","","","","","","","","","","","","","",""
"","","","","","image-keyboard-response","147","366437","0.0-2.0-7.0-1.23","5c314de6d5fc960001d2cb93","B2","batch2","","2185.5","stim/no_23_1.png","j","pattern_response","true","j","pattern_08","2185.5","true","57","","","","","","","","","","","","","","","","","","",""
"","","","","","html-keyboard-response","148","367748","0.0-2.0-7.0-0.24","5c314de6d5fc960001d2cb93","B2","batch2","","null","<p class=block-text>Trial 64 out of 78</p>","null","pattern_show_trial_num","","","","","","","","","","","","","","","","","","","","","","","","",""
"","","","","","image-keyboard-response","149","369361","0.0-2.0-7.0-1.24","5c314de6d5fc960001d2cb93","B2","batch2","","1611.3999999761581","stim/no_29_1_b.png","j","pattern_response","true","j","pattern_12","1611.3999999761581","true","58","","","","","","","","","","","","","","","","","","",""
"","","","","","html-keyboard-response","150","370667","0.0-2.0-7.0-0.25","5c314de6d5fc960001d2cb93","B2","batch2","","null","<p class=block-text>Trial 65 out of 78</p>","null","pattern_show_trial_num","","","","","","","","","","","","","","","","","","","","","","","","",""
"","","","","","image-keyboard-response","151","371528","0.0-2.0-7.0-1.25","5c314de6d5fc960001d2cb93","B2","batch2","","858.7000000476837","stim/yes_22_ver_w1.png","f","pattern_response","true","f","pattern_47","858.7000000476837","true","59","","","","","","","","","","","","","","","","","","",""
"","","","","","html-keyboard-response","152","372839","0.0-2.0-7.0-0.26","5c314de6d5fc960001d2cb93","B2","batch2","","null","<p class=block-text>Trial 66 out of 78</p>","null","pattern_show_trial_num","","","","","","","","","","","","","","","","","","","","","","","","",""
"","","","","","image-keyboard-response","153","373798","0.0-2.0-7.0-1.26","5c314de6d5fc960001d2cb93","B2","batch2","","956.7999999523163","stim/yes_25_hor_b1_b.png","f","pattern_response","true","f","pattern_49","956.7999999523163","true","60","","","","","","","","","","","","","","","","","","",""
"","","","","","html-keyboard-response","154","375109","0.0-2.0-7.0-0.27","5c314de6d5fc960001d2cb93","B2","batch2","","null","<p class=block-text>Trial 67 out of 78</p>","null","pattern_show_trial_num","","","","","","","","","","","","","","","","","","","","","","","","",""
"","","","","","image-keyboard-response","155","377079","0.0-2.0-7.0-1.27","5c314de6d5fc960001d2cb93","B2","batch2","","1968.2000000476837","stim/yes_35_dia_b1.png","f","pattern_response","true","f","pattern_57","1968.2000000476837","true","61","","","","","","","","","","","","","","","","","","",""
"","","","","","html-keyboard-response","156","378389","0.0-2.0-7.0-0.28","5c314de6d5fc960001d2cb93","B2","batch2","","null","<p class=block-text>Trial 68 out of 78</p>","null","pattern_show_trial_num","","","","","","","","","","","","","","","","","","","","","","","","",""
"","","","","","image-keyboard-response","157","380176","0.0-2.0-7.0-1.28","5c314de6d5fc960001d2cb93","B2","batch2","","1784.6999999284744","stim/no_17_1_w.png","j","pattern_response","true","j","pattern_04","1784.6999999284744","true","62","","","","","","","","","","","","","","","","","","",""
"","","","","","html-keyboard-response","158","381498","0.0-2.0-7.0-0.29","5c314de6d5fc960001d2cb93","B2","batch2","","null","<p class=block-text>Trial 69 out of 78</p>","null","pattern_show_trial_num","","","","","","","","","","","","","","","","","","","","","","","","",""
"","","","","","image-keyboard-response","159","382540","0.0-2.0-7.0-1.29","5c314de6d5fc960001d2cb93","B2","batch2","","1040.2999999523163","stim/yes_50_dia_w1.png","j","pattern_response","false","f","pattern_71","1040.2999999523163","false","62","","","","","","","","","","","","","","","","","","",""
"","","","","","html-keyboard-response","160","383850","0.0-2.0-7.0-0.30","5c314de6d5fc960001d2cb93","B2","batch2","","null","<p class=block-text>Trial 70 out of 78</p>","null","pattern_show_trial_num","","","","","","","","","","","","","","","","","","","","","","","","",""
"","","","","","image-keyboard-response","161","384846","0.0-2.0-7.0-1.30","5c314de6d5fc960001d2cb93","B2","batch2","","994.0999999046326","stim/no_13_2_b.png","j","pattern_response","true","j","pattern_02","994.0999999046326","true","63","","","","","","","","","","","","","","","","","","",""
"","","","","","html-keyboard-response","162","386157","0.0-2.0-7.0-0.31","5c314de6d5fc960001d2cb93","B2","batch2","","null","<p class=block-text>Trial 71 out of 78</p>","null","pattern_show_trial_num","","","","","","","","","","","","","","","","","","","","","","","","",""
"","","","","","image-keyboard-response","163","392640","0.0-2.0-7.0-1.31","5c314de6d5fc960001d2cb93","B2","batch2","","6481.600000023842","stim/no_50_1.png","j","pattern_response","true","j","pattern_30","6481.600000023842","true","64","","","","","","","","","","","","","","","","","","",""
"","","","","","html-keyboard-response","164","393951","0.0-2.0-7.0-0.32","5c314de6d5fc960001d2cb93","B2","batch2","","null","<p class=block-text>Trial 72 out of 78</p>","null","pattern_show_trial_num","","","","","","","","","","","","","","","","","","","","","","","","",""
"","","","","","image-keyboard-response","165","394925","0.0-2.0-7.0-1.32","5c314de6d5fc960001d2cb93","B2","batch2","","972","stim/yes_17_dia_w1.png","f","pattern_response","true","f","pattern_45","972","true","65","","","","","","","","","","","","","","","","","","",""
"","","","","","html-keyboard-response","166","396234","0.0-2.0-7.0-0.33","5c314de6d5fc960001d2cb93","B2","batch2","","null","<p class=block-text>Trial 73 out of 78</p>","null","pattern_show_trial_num","","","","","","","","","","","","","","","","","","","","","","","","",""
"","","","","","image-keyboard-response","167","399774","0.0-2.0-7.0-1.33","5c314de6d5fc960001d2cb93","B2","batch2","","3538.5","stim/no_52_1.png","j","pattern_response","true","j","pattern_32","3538.5","true","66","","","","","","","","","","","","","","","","","","",""
"","","","","","html-keyboard-response","168","401080","0.0-2.0-7.0-0.34","5c314de6d5fc960001d2cb93","B2","batch2","","null","<p class=block-text>Trial 74 out of 78</p>","null","pattern_show_trial_num","","","","","","","","","","","","","","","","","","","","","","","","",""
"","","","","","image-keyboard-response","169","405274","0.0-2.0-7.0-1.34","5c314de6d5fc960001d2cb93","B2","batch2","","4192.600000023842","stim/yes_37_dia_w1.png","j","pattern_response","false","f","pattern_59","4192.600000023842","false","66","","","","","","","","","","","","","","","","","","",""
"","","","","","html-keyboard-response","170","406585","0.0-2.0-7.0-0.35","5c314de6d5fc960001d2cb93","B2","batch2","","null","<p class=block-text>Trial 75 out of 78</p>","null","pattern_show_trial_num","","","","","","","","","","","","","","","","","","","","","","","","",""
"","","","","","image-keyboard-response","171","409256","0.0-2.0-7.0-1.35","5c314de6d5fc960001d2cb93","B2","batch2","","2668.100000023842","stim/no_38_1_b.png","j","pattern_response","true","j","pattern_20","2668.100000023842","true","67","","","","","","","","","","","","","","","","","","",""
"","","","","","html-keyboard-response","172","410557","0.0-2.0-7.0-0.36","5c314de6d5fc960001d2cb93","B2","batch2","","null","<p class=block-text>Trial 76 out of 78</p>","null","pattern_show_trial_num","","","","","","","","","","","","","","","","","","","","","","","","",""
"","","","","","image-keyboard-response","173","411344","0.0-2.0-7.0-1.36","5c314de6d5fc960001d2cb93","B2","batch2","","784.3999999761581","stim/yes_14_hor_b1_w.png","f","pattern_response","true","f","pattern_43","784.3999999761581","true","68","","","","","","","","","","","","","","","","","","",""
"","","","","","html-keyboard-response","174","412651","0.0-2.0-7.0-0.37","5c314de6d5fc960001d2cb93","B2","batch2","","null","<p class=block-text>Trial 77 out of 78</p>","null","pattern_show_trial_num","","","","","","","","","","","","","","","","","","","","","","","","",""
"","","","","","image-keyboard-response","175","414096","0.0-2.0-7.0-1.37","5c314de6d5fc960001d2cb93","B2","batch2","","1443.8000000715256","stim/yes_43_ver_w1_w.png","f","pattern_response","true","f","pattern_65","1443.8000000715256","true","69","","","","","","","","","","","","","","","","","","",""
"","","","","","html-keyboard-response","176","415402","0.0-2.0-7.0-0.38","5c314de6d5fc960001d2cb93","B2","batch2","","null","<p class=block-text>Trial 78 out of 78</p>","null","pattern_show_trial_num","","","","","","","","","","","","","","","","","","","","","","","","",""
"","","","","","image-keyboard-response","177","418554","0.0-2.0-7.0-1.38","5c314de6d5fc960001d2cb93","B2","batch2","","3150.1999999284744","stim/no_55_1_w.png","j","pattern_response","true","j","pattern_34","3150.1999999284744","true","70","","","","","","","","","","","","","","","","","","",""
"","","","","","html-button-response","178","422397","0.0-2.0-8.0","5c314de6d5fc960001d2cb93","B2","batch2","","3338.600000023842","<p class = block-text>This concludes the 4-in-a-row detection game.Thank you for your responses!<br>
            You responded correctly on 90% of the trials.<br>
            When you are ready, press ""Continue"" button to continue </p>","0","","","","","","","","","","","","","","","","","","","","","","","","","",""
"true","","","","","fullscreen","179","425857","0.0-3.0-0.0","5c314de6d5fc960001d2cb93","B2","batch2","","","","","","","","","","","","","","","","","","","","","","","","","","","","","",""
"","","","","","instructions","180","485301","0.0-3.0-1.0-0.0-0.0","5c314de6d5fc960001d2cb93","B2","batch2","[{""page_index"":0,""viewing_time"":13970.899999976158},{""page_index"":1,""viewing_time"":7517},{""page_index"":2,""viewing_time"":5019},{""page_index"":3,""viewing_time"":9981.699999928474},{""page_index"":4,""viewing_time"":5310.5},{""page_index"":5,""viewing_time"":15106.800000071526},{""page_index"":6,""viewing_time"":2538}]","59444.09999990463","","","tol-instructions","","","","","","","","","","","","","","","","","","","","","","","","",""
"","","","","","html-button-response","181","486295","0.0-3.0-1.0-1.0-0.0","5c314de6d5fc960001d2cb93","B2","batch2","","992.7999999523163","<p class=block-text> Let's answer a few questions <br>","0","tol_enter_quiz","","","","","","","","","","","","","","","","","","","","","","","","",""
"","","","","","html-button-response","182","492341","0.0-3.0-1.0-1.0-1.0","5c314de6d5fc960001d2cb93","B2","batch2","","6045","<p class = block-text>True or False: You can only move the ball on top of a peg. <br></p>","0","tol_quiz","true","","","","","","","","","","","","","","","","","","","","","","","",""
"","","","","","html-button-response","183","494039","0.0-3.0-1.0-1.0-2.0","5c314de6d5fc960001d2cb93","B2","batch2","","1696.3999999761581","<p class = block-text>Correct! You can only move the ball on top of a peg.</p>","0","tol_quiz_feedback","","","","","","","","","","","","","","","","","","","","","","","","",""
"","","","","","html-button-response","184","496747","0.0-3.0-1.0-1.0-3.0","5c314de6d5fc960001d2cb93","B2","batch2","","2706.6999999284744","<p class = block-text>True or False: You should try to match your board with the target board with fewest moves possible. <br></p>","0","tol_quiz","true","","","","","","","","","","","","","","","","","","","","","","","",""
"","","","","","html-button-response","185","497579","0.0-3.0-1.0-1.0-4.0","5c314de6d5fc960001d2cb93","B2","batch2","","831","<p class = block-text>Correct! </p>","0","tol_quiz_feedback","","","","","","","","","","","","","","","","","","","","","","","","",""
"","","","","","html-button-response","186","499051","0.0-3.0-2.0","5c314de6d5fc960001d2cb93","B2","batch2","","1470","<p class=block-text> Now that you've understood the game, let's practice a few easier examples before we start!<br> <br>","0","","","","","","","","","","","","","","","","","","","","","","","","","",""
"","","","","","single-stim-button","187","501957","0.0-3.0-3.0-0.0","5c314de6d5fc960001d2cb93","B2","batch2","","2903","","","tol_practice","","","","","","","","","tol_peg_2","2903","2903","0","[[1,2,0],[0,0],[0]]","1","[[1,2,0],[0,0],[3]]","practice","2903","","","","","","","",""
"","","","","","single-stim-button","188","503699","0.0-3.0-3.0-1.0","5c314de6d5fc960001d2cb93","B2","batch2","","1740","","","tol_practice","","","","","","","","","tol_peg_3","1740","1740","0","[[1,2,0],[0,0],[3]]","1","[[1,2,0],[0,0],[3]]","practice","1740","","","","","","","",""
"","","","","","poldrack-single-stim","189","504705","0.0-3.0-4.0","5c314de6d5fc960001d2cb93","B2","batch2","","-1","","","tol_feedback","true","","","","","","","","","1000","1000","500","","","","","","-1","none","true","","0","","",""
"","","","","","single-stim-button","190","508533","0.0-3.0-5.0-0.0","5c314de6d5fc960001d2cb93","B2","batch2","","3827","","","tol_practice","","","","","","","","","tol_peg_1","3827","3827","0","[[1,0,0],[3,0],[0]]","2","[[0,0,0],[3,1],[2]]","practice","3827","","","","","","","",""
"","","","","","single-stim-button","191","509745","0.0-3.0-5.0-1.0","5c314de6d5fc960001d2cb93","B2","batch2","","1211","","","tol_practice","","","","","","","","","tol_peg_3","1211","1211","0","[[1,0,0],[3,0],[2]]","2","[[0,0,0],[3,1],[2]]","practice","1211","","","","","","","",""
"","","","","","single-stim-button","192","510529","0.0-3.0-5.1-0.1","5c314de6d5fc960001d2cb93","B2","batch2","","783","","","tol_practice","","","","","","","","","tol_peg_1","783","783","0","[[0,0,0],[3,0],[2]]","3","[[0,0,0],[3,1],[2]]","practice","783","","","","","","","",""
"","","","","","single-stim-button","193","511879","0.0-3.0-5.1-1.1","5c314de6d5fc960001d2cb93","B2","batch2","","1349","","","tol_practice","","","","","","","","","tol_peg_2","1349","1349","0","[[0,0,0],[3,1],[2]]","3","[[0,0,0],[3,1],[2]]","practice","1349","","","","","","","",""
"","","","","","poldrack-single-stim","194","512886","0.0-3.0-6.0","5c314de6d5fc960001d2cb93","B2","batch2","","-1","","","tol_feedback","true","","","","","","","","","1000","1000","500","","","","","","-1","none","true","","0","","",""
"","","","","","single-stim-button","195","517764","0.0-3.0-7.0-0.0","5c314de6d5fc960001d2cb93","B2","batch2","","4877","","","tol_practice","","","","","","","","","tol_peg_2","4877","4877","0","[[1,2,0],[0,0],[0]]","4","[[1,0,0],[2,0],[3]]","practice","4877","","","","","","","",""
"","","","","","single-stim-button","196","518937","0.0-3.0-7.0-1.0","5c314de6d5fc960001d2cb93","B2","batch2","","1171","","","tol_practice","","","","","","","","","tol_peg_3","1171","1171","0","[[1,2,0],[0,0],[3]]","4","[[1,0,0],[2,0],[3]]","practice","1171","","","","","","","",""
"","","","","","single-stim-button","197","519697","0.0-3.0-7.1-0.1","5c314de6d5fc960001d2cb93","B2","batch2","","759","","","tol_practice","","","","","","","","","tol_peg_1","759","759","0","[[1,0,0],[0,0],[3]]","5","[[1,0,0],[2,0],[3]]","practice","759","","","","","","","",""
"","","","","","single-stim-button","198","521030","0.0-3.0-7.1-1.1","5c314de6d5fc960001d2cb93","B2","batch2","","1333","","","tol_practice","","","","","","","","","tol_peg_2","1333","1333","0","[[1,0,0],[2,0],[3]]","5","[[1,0,0],[2,0],[3]]","practice","1333","","","","","","","",""
"","","","","","poldrack-single-stim","199","522037","0.0-3.0-8.0","5c314de6d5fc960001d2cb93","B2","batch2","","-1","","","tol_feedback","true","","","","","","","","","1000","1000","500","","","","","","-1","none","true","","0","","",""
"","","","","","html-button-response","200","525234","0.0-3.0-9.0","5c314de6d5fc960001d2cb93","B2","batch2","","3195.2999999523163","<div class = centerbox><p class = center-block-text>Great job! You are done with practice trials<br>You are about to start official trials.<br> <br> Problem <strong>1</strong> out of 25 problems</p></div>","0","tol_instruction","","","","","","","","","","","","","","","","","","","","","","","","",""
"","","","","","single-stim-button","201","534499","0.0-3.0-10.0-0.0","5c314de6d5fc960001d2cb93","B2","batch2","","8263","","","tol_tohand","","","","","","","","","tol_peg_1","8263","8263","0","[[1,0,0],[3,0],[0]]","1","[[1,3,0],[2,0],[0]]","0","0","","","","","","3","",""
"","","","","","single-stim-button","202","535687","0.0-3.0-10.0-1.0","5c314de6d5fc960001d2cb93","B2","batch2","","1186","","","tol_toboard","","","","","","","","","tol_peg_3","1186","1186","0","[[1,0,0],[3,0],[2]]","1","[[1,3,0],[2,0],[0]]","0","0","","","","","","3","",""
"","","","","","single-stim-button","203","538427","0.0-3.0-10.1-0.1","5c314de6d5fc960001d2cb93","B2","batch2","","2739","","","tol_tohand","","","","","","","","","tol_peg_2","2739","2739","0","[[1,0,0],[0,0],[2]]","2","[[1,3,0],[2,0],[0]]","0","0","","","","","","3","",""
"","","","","","single-stim-button","204","539527","0.0-3.0-10.1-1.1","5c314de6d5fc960001d2cb93","B2","batch2","","1098","","","tol_toboard","","","","","","","","","tol_peg_1","1098","1098","0","[[1,3,0],[0,0],[2]]","2","[[1,3,0],[2,0],[0]]","0","0","","","","","","3","",""
"","","","","","single-stim-button","205","540691","0.0-3.0-10.2-0.2","5c314de6d5fc960001d2cb93","B2","batch2","","1164","","","tol_tohand","","","","","","","","","tol_peg_3","1164","1164","0","[[1,3,0],[0,0],[0]]","3","[[1,3,0],[2,0],[0]]","0","0","","","","","","3","",""
"","","","","","single-stim-button","206","541613","0.0-3.0-10.2-1.2","5c314de6d5fc960001d2cb93","B2","batch2","","920","","","tol_toboard","","","","","","","","","tol_peg_2","920","920","0","[[1,3,0],[2,0],[0]]","3","[[1,3,0],[2,0],[0]]","0","0","","","","","","3","",""
"","","","","","poldrack-single-stim","207","542619","0.0-3.0-11.0","5c314de6d5fc960001d2cb93","B2","batch2","","-1","","","tol_feedback","true","","","","","","","","","1000","1000","500","","","","","","-1","none","true","8263","12166","","",""
"","","","","","html-button-response","208","543933","0.0-3.0-12.0","5c314de6d5fc960001d2cb93","B2","batch2","","1311.6999999284744","<div class = centerbox><p class = center-block-text>problem <strong>2</strong> out of 25 problems</p></div>","0","tol_trial_num","","","","","","","","","","","","","","","","","","","","","","","","",""
"","","","","","single-stim-button","209","550862","0.0-3.0-13.0-0.0","5c314de6d5fc960001d2cb93","B2","batch2","","6927","","","tol_tohand","","","","","","","","","tol_peg_1","6927","6927","0","[[1,0,0],[3,0],[0]]","1","[[2,1,3],[0,0],[0]]","1","0","","","","","","5","",""
"","","","","","single-stim-button","210","553124","0.0-3.0-13.0-1.0","5c314de6d5fc960001d2cb93","B2","batch2","","2262","","","tol_toboard","","","","","","","","","tol_peg_3","2262","2262","0","[[1,0,0],[3,0],[2]]","1","[[2,1,3],[0,0],[0]]","1","0","","","","","","5","",""
"","","","","","single-stim-button","211","559325","0.0-3.0-13.1-0.1","5c314de6d5fc960001d2cb93","B2","batch2","","6200","","","tol_tohand","","","","","","","","","tol_peg_3","6200","6200","0","[[1,0,0],[3,0],[0]]","2","[[2,1,3],[0,0],[0]]","1","0","","","","","","5","",""
"","","","","","single-stim-button","212","561654","0.0-3.0-13.1-1.1","5c314de6d5fc960001d2cb93","B2","batch2","","2327","","","tol_toboard","","","","","","","","","tol_peg_2","2327","2327","0","[[1,0,0],[3,2],[0]]","2","[[2,1,3],[0,0],[0]]","1","0","","","","","","5","",""
"","","","","","single-stim-button","213","562397","0.0-3.0-13.2-0.2","5c314de6d5fc960001d2cb93","B2","batch2","","743","","","tol_tohand","","","","","","","","","tol_peg_1","743","743","0","[[0,0,0],[3,2],[0]]","3","[[2,1,3],[0,0],[0]]","1","0","","","","","","5","",""
"","","","","","single-stim-button","214","563554","0.0-3.0-13.2-1.2","5c314de6d5fc960001d2cb93","B2","batch2","","1155","","","tol_toboard","","","","","","","","","tol_peg_3","1155","1155","0","[[0,0,0],[3,2],[1]]","3","[[2,1,3],[0,0],[0]]","1","0","","","","","","5","",""
"","","","","","single-stim-button","215","565074","0.0-3.0-13.3-0.3","5c314de6d5fc960001d2cb93","B2","batch2","","1519","","","tol_tohand","","","","","","","","","tol_peg_2","1519","1519","0","[[0,0,0],[3,0],[1]]","4","[[2,1,3],[0,0],[0]]","1","0","","","","","","5","",""
"","","","","","single-stim-button","216","566149","0.0-3.0-13.3-1.3","5c314de6d5fc960001d2cb93","B2","batch2","","1074","","","tol_toboard","","","","","","","","","tol_peg_1","1074","1074","0","[[2,0,0],[3,0],[1]]","4","[[2,1,3],[0,0],[0]]","1","0","","","","","","5","",""
"","","","","","single-stim-button","217","567855","0.0-3.0-13.4-0.4","5c314de6d5fc960001d2cb93","B2","batch2","","1705","","","tol_tohand","","","","","","","","","tol_peg_3","1705","1705","0","[[2,0,0],[3,0],[0]]","5","[[2,1,3],[0,0],[0]]","1","0","","","","","","5","",""
"","","","","","single-stim-button","218","569116","0.0-3.0-13.4-1.4","5c314de6d5fc960001d2cb93","B2","batch2","","1260","","","tol_toboard","","","","","","","","","tol_peg_1","1260","1260","0","[[2,1,0],[3,0],[0]]","5","[[2,1,3],[0,0],[0]]","1","0","","","","","","5","",""
"","","","","","single-stim-button","219","569851","0.0-3.0-13.5-0.5","5c314de6d5fc960001d2cb93","B2","batch2","","735","","","tol_tohand","","","","","","","","","tol_peg_2","735","735","0","[[2,1,0],[0,0],[0]]","6","[[2,1,3],[0,0],[0]]","1","0","","","","","","5","",""
"","","","","","single-stim-button","220","570603","0.0-3.0-13.5-1.5","5c314de6d5fc960001d2cb93","B2","batch2","","750","","","tol_toboard","","","","","","","","","tol_peg_1","750","750","0","[[2,1,3],[0,0],[0]]","6","[[2,1,3],[0,0],[0]]","1","0","","","","","","5","",""
"","","","","","poldrack-single-stim","221","571610","0.0-3.0-14.0","5c314de6d5fc960001d2cb93","B2","batch2","","-1","","","tol_feedback","true","","","","","","","","","1000","1000","500","","","","","","-1","none","true","6927","17829","","",""
"","","","","","html-button-response","222","572575","0.0-3.0-15.0","5c314de6d5fc960001d2cb93","B2","batch2","","963.5","<div class = centerbox><p class = center-block-text>problem <strong>3</strong> out of 25 problems</p></div>","0","tol_trial_num","","","","","","","","","","","","","","","","","","","","","","","","",""
"","","","","","single-stim-button","223","576626","0.0-3.0-16.0-0.0","5c314de6d5fc960001d2cb93","B2","batch2","","4049","","","tol_tohand","","","","","","","","","tol_peg_1","4049","4049","0","[[2,0,0],[0,0],[1]]","1","[[1,2,0],[3,0],[0]]","2","0","","","","","","4","",""
"","","","","","single-stim-button","224","578234","0.0-3.0-16.0-1.0","5c314de6d5fc960001d2cb93","B2","batch2","","1608","","","tol_toboard","","","","","","","","","tol_peg_2","1608","1608","0","[[2,0,0],[3,0],[1]]","1","[[1,2,0],[3,0],[0]]","2","0","","","","","","4","",""
"","","","","","single-stim-button","225","579180","0.0-3.0-16.1-0.1","5c314de6d5fc960001d2cb93","B2","batch2","","945","","","tol_tohand","","","","","","","","","tol_peg_1","945","945","0","[[0,0,0],[3,0],[1]]","2","[[1,2,0],[3,0],[0]]","2","0","","","","","","4","",""
"","","","","","single-stim-button","226","580425","0.0-3.0-16.1-1.1","5c314de6d5fc960001d2cb93","B2","batch2","","1244","","","tol_toboard","","","","","","","","","tol_peg_2","1244","1244","0","[[0,0,0],[3,2],[1]]","2","[[1,2,0],[3,0],[0]]","2","0","","","","","","4","",""
"","","","","","single-stim-button","227","581129","0.0-3.0-16.2-0.2","5c314de6d5fc960001d2cb93","B2","batch2","","702","","","tol_tohand","","","","","","","","","tol_peg_3","702","702","0","[[0,0,0],[3,2],[0]]","3","[[1,2,0],[3,0],[0]]","2","0","","","","","","4","",""
"","","","","","single-stim-button","228","582261","0.0-3.0-16.2-1.2","5c314de6d5fc960001d2cb93","B2","batch2","","1131","","","tol_toboard","","","","","","","","","tol_peg_1","1131","1131","0","[[1,0,0],[3,2],[0]]","3","[[1,2,0],[3,0],[0]]","2","0","","","","","","4","",""
"","","","","","single-stim-button","229","583021","0.0-3.0-16.3-0.3","5c314de6d5fc960001d2cb93","B2","batch2","","759","","","tol_tohand","","","","","","","","","tol_peg_2","759","759","0","[[1,0,0],[3,0],[0]]","4","[[1,2,0],[3,0],[0]]","2","0","","","","","","4","",""
"","","","","","single-stim-button","230","583675","0.0-3.0-16.3-1.3","5c314de6d5fc960001d2cb93","B2","batch2","","654","","","tol_toboard","","","","","","","","","tol_peg_1","654","654","0","[[1,2,0],[3,0],[0]]","4","[[1,2,0],[3,0],[0]]","2","0","","","","","","4","",""
"","","","","","poldrack-single-stim","231","584679","0.0-3.0-17.0","5c314de6d5fc960001d2cb93","B2","batch2","","-1","","","tol_feedback","true","","","","","","","","","1000","1000","500","","","","","","-1","none","true","4049","6455","","",""
"","","","","","html-button-response","232","585373","0.0-3.0-18.0","5c314de6d5fc960001d2cb93","B2","batch2","","692.8000000715256","<div class = centerbox><p class = center-block-text>problem <strong>4</strong> out of 25 problems</p></div>","0","tol_trial_num","","","","","","","","","","","","","","","","","","","","","","","","",""
"","","","","","single-stim-button","233","589205","0.0-3.0-19.0-0.0","5c314de6d5fc960001d2cb93","B2","batch2","","3831","","","tol_tohand","","","","","","","","","tol_peg_2","3831","3831","0","[[3,0,0],[2,0],[0]]","1","[[3,0,0],[1,0],[2]]","3","0","","","","","","3","",""
"","","","","","single-stim-button","234","590200","0.0-3.0-19.0-1.0","5c314de6d5fc960001d2cb93","B2","batch2","","993","","","tol_toboard","","","","","","","","","tol_peg_1","993","993","0","[[3,1,0],[2,0],[0]]","1","[[3,0,0],[1,0],[2]]","3","0","","","","","","3","",""
"","","","","","single-stim-button","235","590741","0.0-3.0-19.1-0.1","5c314de6d5fc960001d2cb93","B2","batch2","","540","","","tol_tohand","","","","","","","","","tol_peg_2","540","540","0","[[3,1,0],[0,0],[0]]","2","[[3,0,0],[1,0],[2]]","3","0","","","","","","3","",""
"","","","","","single-stim-button","236","591582","0.0-3.0-19.1-1.1","5c314de6d5fc960001d2cb93","B2","batch2","","840","","","tol_toboard","","","","","","","","","tol_peg_3","840","840","0","[[3,1,0],[0,0],[2]]","2","[[3,0,0],[1,0],[2]]","3","0","","","","","","3","",""
"","","","","","single-stim-button","237","592399","0.0-3.0-19.2-0.2","5c314de6d5fc960001d2cb93","B2","batch2","","815","","","tol_tohand","","","","","","","","","tol_peg_1","815","815","0","[[3,0,0],[0,0],[2]]","3","[[3,0,0],[1,0],[2]]","3","0","","","","","","3","",""
"","","","","","single-stim-button","238","593126","0.0-3.0-19.2-1.2","5c314de6d5fc960001d2cb93","B2","batch2","","726","","","tol_toboard","","","","","","","","","tol_peg_2","726","726","0","[[3,0,0],[1,0],[2]]","3","[[3,0,0],[1,0],[2]]","3","0","","","","","","3","",""
"","","","","","poldrack-single-stim","239","594133","0.0-3.0-20.0","5c314de6d5fc960001d2cb93","B2","batch2","","-1","","","tol_feedback","true","","","","","","","","","1000","1000","500","","","","","","-1","none","true","3831","5186","","",""
"","","","","","html-button-response","240","595277","0.0-3.0-21.0","5c314de6d5fc960001d2cb93","B2","batch2","","1142","<div class = centerbox><p class = center-block-text>problem <strong>5</strong> out of 25 problems</p></div>","0","tol_trial_num","","","","","","","","","","","","","","","","","","","","","","","","",""
"","","","","","single-stim-button","241","607993","0.0-3.0-22.0-0.0","5c314de6d5fc960001d2cb93","B2","batch2","","12716","","","tol_tohand","","","","","","","","","tol_peg_3","12716","12716","0","[[1,0,0],[2,0],[0]]","1","[[0,0,0],[1,2],[3]]","4","0","","","","","","7","",""
"","","","","","single-stim-button","242","614687","0.0-3.0-22.0-1.0","5c314de6d5fc960001d2cb93","B2","batch2","","6692","","","tol_toboard","","","","","","","","","tol_peg_2","6692","6692","0","[[1,0,0],[2,3],[0]]","1","[[0,0,0],[1,2],[3]]","4","0","","","","","","7","",""
"","","","","","single-stim-button","243","615552","0.0-3.0-22.1-0.1","5c314de6d5fc960001d2cb93","B2","batch2","","863","","","tol_tohand","","","","","","","","","tol_peg_1","863","863","0","[[0,0,0],[2,3],[0]]","2","[[0,0,0],[1,2],[3]]","4","0","","","","","","7","",""
"","","","","","single-stim-button","244","618374","0.0-3.0-22.1-1.1","5c314de6d5fc960001d2cb93","B2","batch2","","2821","","","tol_toboard","","","","","","","","","tol_peg_3","2821","2821","0","[[0,0,0],[2,3],[1]]","2","[[0,0,0],[1,2],[3]]","4","0","","","","","","7","",""
"","","","","","single-stim-button","245","624607","0.0-3.0-22.2-0.2","5c314de6d5fc960001d2cb93","B2","batch2","","6231","","","tol_tohand","","","","","","","","","tol_peg_2","6231","6231","0","[[0,0,0],[2,0],[1]]","3","[[0,0,0],[1,2],[3]]","4","0","","","","","","7","",""
"","","","","","single-stim-button","246","625650","0.0-3.0-22.2-1.2","5c314de6d5fc960001d2cb93","B2","batch2","","1041","","","tol_toboard","","","","","","","","","tol_peg_1","1041","1041","0","[[3,0,0],[2,0],[1]]","3","[[0,0,0],[1,2],[3]]","4","0","","","","","","7","",""
"","","","","","single-stim-button","247","626280","0.0-3.0-22.3-0.3","5c314de6d5fc960001d2cb93","B2","batch2","","630","","","tol_tohand","","","","","","","","","tol_peg_2","630","630","0","[[3,0,0],[0,0],[1]]","4","[[0,0,0],[1,2],[3]]","4","0","","","","","","7","",""
"","","","","","single-stim-button","248","627121","0.0-3.0-22.3-1.3","5c314de6d5fc960001d2cb93","B2","batch2","","839","","","tol_toboard","","","","","","","","","tol_peg_1","839","839","0","[[3,2,0],[0,0],[1]]","4","[[0,0,0],[1,2],[3]]","4","0","","","","","","7","",""
"","","","","","single-stim-button","249","627849","0.0-3.0-22.4-0.4","5c314de6d5fc960001d2cb93","B2","batch2","","727","","","tol_tohand","","","","","","","","","tol_peg_3","727","727","0","[[3,2,0],[0,0],[0]]","5","[[0,0,0],[1,2],[3]]","4","0","","","","","","7","",""
"","","","","","single-stim-button","250","628649","0.0-3.0-22.4-1.4","5c314de6d5fc960001d2cb93","B2","batch2","","799","","","tol_toboard","","","","","","","","","tol_peg_2","799","799","0","[[3,2,0],[1,0],[0]]","5","[[0,0,0],[1,2],[3]]","4","0","","","","","","7","",""
"","","","","","single-stim-button","251","629376","0.0-3.0-22.5-0.5","5c314de6d5fc960001d2cb93","B2","batch2","","727","","","tol_tohand","","","","","","","","","tol_peg_1","727","727","0","[[3,0,0],[1,0],[0]]","6","[[0,0,0],[1,2],[3]]","4","0","","","","","","7","",""
"","","","","","single-stim-button","252","630152","0.0-3.0-22.5-1.5","5c314de6d5fc960001d2cb93","B2","batch2","","775","","","tol_toboard","","","","","","","","","tol_peg_2","775","775","0","[[3,0,0],[1,2],[0]]","6","[[0,0,0],[1,2],[3]]","4","0","","","","","","7","",""
"","","","","","single-stim-button","253","630735","0.0-3.0-22.6-0.6","5c314de6d5fc960001d2cb93","B2","batch2","","581","","","tol_tohand","","","","","","","","","tol_peg_1","581","581","0","[[0,0,0],[1,2],[0]]","7","[[0,0,0],[1,2],[3]]","4","0","","","","","","7","",""
"","","","","","single-stim-button","254","631495","0.0-3.0-22.6-1.6","5c314de6d5fc960001d2cb93","B2","batch2","","759","","","tol_toboard","","","","","","","","","tol_peg_3","759","759","0","[[0,0,0],[1,2],[3]]","7","[[0,0,0],[1,2],[3]]","4","0","","","","","","7","",""
"","","","","","poldrack-single-stim","255","632497","0.0-3.0-23.0","5c314de6d5fc960001d2cb93","B2","batch2","","-1","","","tol_feedback","true","","","","","","","","","1000","1000","500","","","","","","-1","none","true","12716","22475","","",""
"","","","","","html-button-response","256","633273","0.0-3.0-24.0","5c314de6d5fc960001d2cb93","B2","batch2","","774.6999999284744","<div class = centerbox><p class = center-block-text>problem <strong>6</strong> out of 25 problems</p></div>","0","tol_trial_num","","","","","","","","","","","","","","","","","","","","","","","","",""
"","","","","","single-stim-button","257","644164","0.0-3.0-25.0-0.0","5c314de6d5fc960001d2cb93","B2","batch2","","10890","","","tol_tohand","","","","","","","","","tol_peg_2","10890","10890","0","[[0,0,0],[1,0],[3]]","1","[[1,0,0],[2,3],[0]]","5","0","","","","","","6","",""
"","","","","","single-stim-button","258","663672","0.0-3.0-25.0-1.0","5c314de6d5fc960001d2cb93","B2","batch2","","19507","","","tol_toboard","","","","","","","","","tol_peg_2","19507","19507","0","[[0,0,0],[1,2],[3]]","1","[[1,0,0],[2,3],[0]]","5","0","","","","","","6","",""
"","","","","","single-stim-button","259","665928","0.0-3.0-25.1-0.1","5c314de6d5fc960001d2cb93","B2","batch2","","2254","","","tol_tohand","","","","","","","","","tol_peg_3","2254","2254","0","[[0,0,0],[1,2],[0]]","2","[[1,0,0],[2,3],[0]]","5","0","","","","","","6","",""
"","","","","","single-stim-button","260","670197","0.0-3.0-25.1-1.1","5c314de6d5fc960001d2cb93","B2","batch2","","4267","","","tol_toboard","","","","","","","","","tol_peg_1","4267","4267","0","[[3,0,0],[1,2],[0]]","2","[[1,0,0],[2,3],[0]]","5","0","","","","","","6","",""
"","","","","","single-stim-button","261","671054","0.0-3.0-25.2-0.2","5c314de6d5fc960001d2cb93","B2","batch2","","856","","","tol_tohand","","","","","","","","","tol_peg_2","856","856","0","[[3,0,0],[1,0],[0]]","3","[[1,0,0],[2,3],[0]]","5","0","","","","","","6","",""
"","","","","","single-stim-button","262","673592","0.0-3.0-25.2-1.2","5c314de6d5fc960001d2cb93","B2","batch2","","2536","","","tol_toboard","","","","","","","","","tol_peg_1","2536","2536","0","[[3,2,0],[1,0],[0]]","3","[[1,0,0],[2,3],[0]]","5","0","","","","","","6","",""
"","","","","","single-stim-button","263","674401","0.0-3.0-25.3-0.3","5c314de6d5fc960001d2cb93","B2","batch2","","808","","","tol_tohand","","","","","","","","","tol_peg_2","808","808","0","[[3,2,0],[0,0],[0]]","4","[[1,0,0],[2,3],[0]]","5","0","","","","","","6","",""
"","","","","","single-stim-button","264","676462","0.0-3.0-25.3-1.3","5c314de6d5fc960001d2cb93","B2","batch2","","2060","","","tol_toboard","","","","","","","","","tol_peg_3","2060","2060","0","[[3,2,0],[0,0],[1]]","4","[[1,0,0],[2,3],[0]]","5","0","","","","","","6","",""
"","","","","","single-stim-button","265","678103","0.0-3.0-25.4-0.4","5c314de6d5fc960001d2cb93","B2","batch2","","1640","","","tol_tohand","","","","","","","","","tol_peg_1","1640","1640","0","[[3,0,0],[0,0],[1]]","5","[[1,0,0],[2,3],[0]]","5","0","","","","","","6","",""
"","","","","","single-stim-button","266","678919","0.0-3.0-25.4-1.4","5c314de6d5fc960001d2cb93","B2","batch2","","816","","","tol_toboard","","","","","","","","","tol_peg_2","816","816","0","[[3,0,0],[2,0],[1]]","5","[[1,0,0],[2,3],[0]]","5","0","","","","","","6","",""
"","","","","","single-stim-button","267","679509","0.0-3.0-25.5-0.5","5c314de6d5fc960001d2cb93","B2","batch2","","589","","","tol_tohand","","","","","","","","","tol_peg_1","589","589","0","[[0,0,0],[2,0],[1]]","6","[[1,0,0],[2,3],[0]]","5","0","","","","","","6","",""
"","","","","","single-stim-button","268","680932","0.0-3.0-25.5-1.5","5c314de6d5fc960001d2cb93","B2","batch2","","1422","","","tol_toboard","","","","","","","","","tol_peg_2","1422","1422","0","[[0,0,0],[2,3],[1]]","6","[[1,0,0],[2,3],[0]]","5","0","","","","","","6","",""
"","","","","","single-stim-button","269","681943","0.0-3.0-25.6-0.6","5c314de6d5fc960001d2cb93","B2","batch2","","1010","","","tol_tohand","","","","","","","","","tol_peg_3","1010","1010","0","[[0,0,0],[2,3],[0]]","7","[[1,0,0],[2,3],[0]]","5","0","","","","","","6","",""
"","","","","","single-stim-button","270","682678","0.0-3.0-25.6-1.6","5c314de6d5fc960001d2cb93","B2","batch2","","734","","","tol_toboard","","","","","","","","","tol_peg_1","734","734","0","[[1,0,0],[2,3],[0]]","7","[[1,0,0],[2,3],[0]]","5","0","","","","","","6","",""
"","","","","","poldrack-single-stim","271","683685","0.0-3.0-26.0","5c314de6d5fc960001d2cb93","B2","batch2","","-1","","","tol_feedback","true","","","","","","","","","1000","1000","500","","","","","","-1","none","true","10890","18047","","",""
"","","","","","html-button-response","272","684869","0.0-3.0-27.0","5c314de6d5fc960001d2cb93","B2","batch2","","1182.3999999761581","<div class = centerbox><p class = center-block-text>problem <strong>7</strong> out of 25 problems</p></div>","0","tol_trial_num","","","","","","","","","","","","","","","","","","","","","","","","",""
"","","","","","single-stim-button","273","691087","0.0-3.0-28.0-0.0","5c314de6d5fc960001d2cb93","B2","batch2","","6216","","","tol_tohand","","","","","","","","","tol_peg_1","6216","6216","0","[[2,0,0],[0,0],[3]]","1","[[1,2,0],[3,0],[0]]","6","0","","","","","","5","",""
"","","","","","single-stim-button","274","691847","0.0-3.0-28.0-1.0","5c314de6d5fc960001d2cb93","B2","batch2","","759","","","tol_toboard","","","","","","","","","tol_peg_2","759","759","0","[[2,0,0],[1,0],[3]]","1","[[1,2,0],[3,0],[0]]","6","0","","","","","","5","",""
"","","","","","single-stim-button","275","693408","0.0-3.0-28.1-0.1","5c314de6d5fc960001d2cb93","B2","batch2","","1560","","","tol_tohand","","","","","","","","","tol_peg_1","1560","1560","0","[[0,0,0],[1,0],[3]]","2","[[1,2,0],[3,0],[0]]","6","0","","","","","","5","",""
"","","","","","single-stim-button","276","699212","0.0-3.0-28.1-1.1","5c314de6d5fc960001d2cb93","B2","batch2","","5803","","","tol_toboard","","","","","","","","","tol_peg_2","5803","5803","0","[[0,0,0],[1,2],[3]]","2","[[1,2,0],[3,0],[0]]","6","0","","","","","","5","",""
"","","","","","single-stim-button","277","703530","0.0-3.0-28.2-0.2","5c314de6d5fc960001d2cb93","B2","batch2","","4316","","","tol_tohand","","","","","","","","","tol_peg_2","4316","4316","0","[[0,0,0],[1,0],[3]]","3","[[1,2,0],[3,0],[0]]","6","0","","","","","","5","",""
"","","","","","single-stim-button","278","704193","0.0-3.0-28.2-1.2","5c314de6d5fc960001d2cb93","B2","batch2","","662","","","tol_toboard","","","","","","","","","tol_peg_1","662","662","0","[[2,0,0],[1,0],[3]]","3","[[1,2,0],[3,0],[0]]","6","0","","","","","","5","",""
"","","","","","single-stim-button","279","704767","0.0-3.0-28.3-0.3","5c314de6d5fc960001d2cb93","B2","batch2","","574","","","tol_tohand","","","","","","","","","tol_peg_2","574","574","0","[[2,0,0],[0,0],[3]]","4","[[1,2,0],[3,0],[0]]","6","0","","","","","","5","",""
"","","","","","single-stim-button","280","705389","0.0-3.0-28.3-1.3","5c314de6d5fc960001d2cb93","B2","batch2","","621","","","tol_toboard","","","","","","","","","tol_peg_1","621","621","0","[[2,1,0],[0,0],[3]]","4","[[1,2,0],[3,0],[0]]","6","0","","","","","","5","",""
"","","","","","single-stim-button","281","707791","0.0-3.0-28.4-0.4","5c314de6d5fc960001d2cb93","B2","batch2","","2401","","","tol_tohand","","","","","","","","","tol_peg_3","2401","2401","0","[[2,1,0],[0,0],[0]]","5","[[1,2,0],[3,0],[0]]","6","0","","","","","","5","",""
"","","","","","single-stim-button","282","709125","0.0-3.0-28.4-1.4","5c314de6d5fc960001d2cb93","B2","batch2","","1332","","","tol_toboard","","","","","","","","","tol_peg_2","1332","1332","0","[[2,1,0],[3,0],[0]]","5","[[1,2,0],[3,0],[0]]","6","0","","","","","","5","",""
"","","","","","single-stim-button","283","709707","0.0-3.0-28.5-0.5","5c314de6d5fc960001d2cb93","B2","batch2","","582","","","tol_tohand","","","","","","","","","tol_peg_1","582","582","0","[[2,0,0],[3,0],[0]]","6","[[1,2,0],[3,0],[0]]","6","0","","","","","","5","",""
"","","","","","single-stim-button","284","710516","0.0-3.0-28.5-1.5","5c314de6d5fc960001d2cb93","B2","batch2","","807","","","tol_toboard","","","","","","","","","tol_peg_2","807","807","0","[[2,0,0],[3,1],[0]]","6","[[1,2,0],[3,0],[0]]","6","0","","","","","","5","",""
"","","","","","single-stim-button","285","711154","0.0-3.0-28.6-0.6","5c314de6d5fc960001d2cb93","B2","batch2","","636","","","tol_tohand","","","","","","","","","tol_peg_1","636","636","0","[[0,0,0],[3,1],[0]]","7","[[1,2,0],[3,0],[0]]","6","0","","","","","","5","",""
"","","","","","single-stim-button","286","711865","0.0-3.0-28.6-1.6","5c314de6d5fc960001d2cb93","B2","batch2","","711","","","tol_toboard","","","","","","","","","tol_peg_3","711","711","0","[[0,0,0],[3,1],[2]]","7","[[1,2,0],[3,0],[0]]","6","0","","","","","","5","",""
"","","","","","single-stim-button","287","712577","0.0-3.0-28.7-0.7","5c314de6d5fc960001d2cb93","B2","batch2","","711","","","tol_tohand","","","","","","","","","tol_peg_2","711","711","0","[[0,0,0],[3,0],[2]]","8","[[1,2,0],[3,0],[0]]","6","0","","","","","","5","",""
"","","","","","single-stim-button","288","713571","0.0-3.0-28.7-1.7","5c314de6d5fc960001d2cb93","B2","batch2","","993","","","tol_toboard","","","","","","","","","tol_peg_1","993","993","0","[[1,0,0],[3,0],[2]]","8","[[1,2,0],[3,0],[0]]","6","0","","","","","","5","",""
"","","","","","single-stim-button","289","714187","0.0-3.0-28.8-0.8","5c314de6d5fc960001d2cb93","B2","batch2","","614","","","tol_tohand","","","","","","","","","tol_peg_3","614","614","0","[[1,0,0],[3,0],[0]]","9","[[1,2,0],[3,0],[0]]","6","0","","","","","","5","",""
"","","","","","single-stim-button","290","714832","0.0-3.0-28.8-1.8","5c314de6d5fc960001d2cb93","B2","batch2","","645","","","tol_toboard","","","","","","","","","tol_peg_1","645","645","0","[[1,2,0],[3,0],[0]]","9","[[1,2,0],[3,0],[0]]","6","0","","","","","","5","",""
"","","","","","poldrack-single-stim","291","715839","0.0-3.0-29.0","5c314de6d5fc960001d2cb93","B2","batch2","","-1","","","tol_feedback","true","","","","","","","","","1000","1000","500","","","","","","-1","none","true","6216","17610","","",""
"","","","","","html-button-response","292","716724","0.0-3.0-30.0","5c314de6d5fc960001d2cb93","B2","batch2","","883.5","<div class = centerbox><p class = center-block-text>problem <strong>8</strong> out of 25 problems</p></div>","0","tol_trial_num","","","","","","","","","","","","","","","","","","","","","","","","",""
"","","","","","single-stim-button","293","720743","0.0-3.0-31.0-0.0","5c314de6d5fc960001d2cb93","B2","batch2","","4017","","","tol_tohand","","","","","","","","","tol_peg_3","4017","4017","0","[[0,0,0],[2,3],[0]]","1","[[1,2,0],[3,0],[0]]","7","0","","","","","","4","",""
"","","","","","single-stim-button","294","721624","0.0-3.0-31.0-1.0","5c314de6d5fc960001d2cb93","B2","batch2","","880","","","tol_toboard","","","","","","","","","tol_peg_1","880","880","0","[[1,0,0],[2,3],[0]]","1","[[1,2,0],[3,0],[0]]","7","0","","","","","","4","",""
"","","","","","single-stim-button","295","724114","0.0-3.0-31.1-0.1","5c314de6d5fc960001d2cb93","B2","batch2","","2489","","","tol_tohand","","","","","","","","","tol_peg_2","2489","2489","0","[[1,0,0],[2,0],[0]]","2","[[1,2,0],[3,0],[0]]","7","0","","","","","","4","",""
"","","","","","single-stim-button","296","725223","0.0-3.0-31.1-1.1","5c314de6d5fc960001d2cb93","B2","batch2","","1107","","","tol_toboard","","","","","","","","","tol_peg_3","1107","1107","0","[[1,0,0],[2,0],[3]]","2","[[1,2,0],[3,0],[0]]","7","0","","","","","","4","",""
"","","","","","single-stim-button","297","725836","0.0-3.0-31.2-0.2","5c314de6d5fc960001d2cb93","B2","batch2","","613","","","tol_tohand","","","","","","","","","tol_peg_2","613","613","0","[[1,0,0],[0,0],[3]]","3","[[1,2,0],[3,0],[0]]","7","0","","","","","","4","",""
"","","","","","single-stim-button","298","726612","0.0-3.0-31.2-1.2","5c314de6d5fc960001d2cb93","B2","batch2","","775","","","tol_toboard","","","","","","","","","tol_peg_1","775","775","0","[[1,2,0],[0,0],[3]]","3","[[1,2,0],[3,0],[0]]","7","0","","","","","","4","",""
"","","","","","single-stim-button","299","727721","0.0-3.0-31.3-0.3","5c314de6d5fc960001d2cb93","B2","batch2","","1108","","","tol_tohand","","","","","","","","","tol_peg_3","1108","1108","0","[[1,2,0],[0,0],[0]]","4","[[1,2,0],[3,0],[0]]","7","0","","","","","","4","",""
"","","","","","single-stim-button","300","728294","0.0-3.0-31.3-1.3","5c314de6d5fc960001d2cb93","B2","batch2","","571","","","tol_toboard","","","","","","","","","tol_peg_2","571","571","0","[[1,2,0],[3,0],[0]]","4","[[1,2,0],[3,0],[0]]","7","0","","","","","","4","",""
"","","","","","poldrack-single-stim","301","729300","0.0-3.0-32.0","5c314de6d5fc960001d2cb93","B2","batch2","","-1","","","tol_feedback","true","","","","","","","","","1000","1000","500","","","","","","-1","none","true","4017","8227","","",""
"","","","","","html-button-response","302","730031","0.0-3.0-33.0","5c314de6d5fc960001d2cb93","B2","batch2","","729.7000000476837","<div class = centerbox><p class = center-block-text>problem <strong>9</strong> out of 25 problems</p></div>","0","tol_trial_num","","","","","","","","","","","","","","","","","","","","","","","","",""
"","","","","","single-stim-button","303","739953","0.0-3.0-34.0-0.0","5c314de6d5fc960001d2cb93","B2","batch2","","9921","","","tol_tohand","","","","","","","","","tol_peg_3","9921","9921","0","[[3,2,0],[0,0],[0]]","1","[[2,1,0],[3,0],[0]]","8","0","","","","","","6","",""
"","","","","","single-stim-button","304","742288","0.0-3.0-34.0-1.0","5c314de6d5fc960001d2cb93","B2","batch2","","2334","","","tol_toboard","","","","","","","","","tol_peg_2","2334","2334","0","[[3,2,0],[1,0],[0]]","1","[[2,1,0],[3,0],[0]]","8","0","","","","","","6","",""
"","","","","","single-stim-button","305","742951","0.0-3.0-34.1-0.1","5c314de6d5fc960001d2cb93","B2","batch2","","662","","","tol_tohand","","","","","","","","","tol_peg_1","662","662","0","[[3,0,0],[1,0],[0]]","2","[[2,1,0],[3,0],[0]]","8","0","","","","","","6","",""
"","","","","","single-stim-button","306","744892","0.0-3.0-34.1-1.1","5c314de6d5fc960001d2cb93","B2","batch2","","1940","","","tol_toboard","","","","","","","","","tol_peg_2","1940","1940","0","[[3,0,0],[1,2],[0]]","2","[[2,1,0],[3,0],[0]]","8","0","","","","","","6","",""
"","","","","","single-stim-button","307","745749","0.0-3.0-34.2-0.2","5c314de6d5fc960001d2cb93","B2","batch2","","856","","","tol_tohand","","","","","","","","","tol_peg_1","856","856","0","[[0,0,0],[1,2],[0]]","3","[[2,1,0],[3,0],[0]]","8","0","","","","","","6","",""
"","","","","","single-stim-button","308","746517","0.0-3.0-34.2-1.2","5c314de6d5fc960001d2cb93","B2","batch2","","767","","","tol_toboard","","","","","","","","","tol_peg_3","767","767","0","[[0,0,0],[1,2],[3]]","3","[[2,1,0],[3,0],[0]]","8","0","","","","","","6","",""
"","","","","","single-stim-button","309","747189","0.0-3.0-34.3-0.3","5c314de6d5fc960001d2cb93","B2","batch2","","670","","","tol_tohand","","","","","","","","","tol_peg_2","670","670","0","[[0,0,0],[1,0],[3]]","4","[[2,1,0],[3,0],[0]]","8","0","","","","","","6","",""
"","","","","","single-stim-button","310","747802","0.0-3.0-34.3-1.3","5c314de6d5fc960001d2cb93","B2","batch2","","613","","","tol_toboard","","","","","","","","","tol_peg_1","613","613","0","[[2,0,0],[1,0],[3]]","4","[[2,1,0],[3,0],[0]]","8","0","","","","","","6","",""
"","","","","","single-stim-button","311","748296","0.0-3.0-34.4-0.4","5c314de6d5fc960001d2cb93","B2","batch2","","492","","","tol_tohand","","","","","","","","","tol_peg_2","492","492","0","[[2,0,0],[0,0],[3]]","5","[[2,1,0],[3,0],[0]]","8","0","","","","","","6","",""
"","","","","","single-stim-button","312","749023","0.0-3.0-34.4-1.4","5c314de6d5fc960001d2cb93","B2","batch2","","727","","","tol_toboard","","","","","","","","","tol_peg_1","727","727","0","[[2,1,0],[0,0],[3]]","5","[[2,1,0],[3,0],[0]]","8","0","","","","","","6","",""
"","","","","","single-stim-button","313","749727","0.0-3.0-34.5-0.5","5c314de6d5fc960001d2cb93","B2","batch2","","702","","","tol_tohand","","","","","","","","","tol_peg_3","702","702","0","[[2,1,0],[0,0],[0]]","6","[[2,1,0],[3,0],[0]]","8","0","","","","","","6","",""
"","","","","","single-stim-button","314","750268","0.0-3.0-34.5-1.5","5c314de6d5fc960001d2cb93","B2","batch2","","541","","","tol_toboard","","","","","","","","","tol_peg_2","541","541","0","[[2,1,0],[3,0],[0]]","6","[[2,1,0],[3,0],[0]]","8","0","","","","","","6","",""
"","","","","","poldrack-single-stim","315","751270","0.0-3.0-35.0","5c314de6d5fc960001d2cb93","B2","batch2","","-1","","","tol_feedback","true","","","","","","","","","1000","1000","500","","","","","","-1","none","true","9921","13303","","",""
"","","","","","html-button-response","316","752200","0.0-3.0-36.0","5c314de6d5fc960001d2cb93","B2","batch2","","929.3999999761581","<div class = centerbox><p class = center-block-text>problem <strong>10</strong> out of 25 problems</p></div>","0","tol_trial_num","","","","","","","","","","","","","","","","","","","","","","","","",""
"","","","","","single-stim-button","317","755984","0.0-3.0-37.0-0.0","5c314de6d5fc960001d2cb93","B2","batch2","","3782","","","tol_tohand","","","","","","","","","tol_peg_2","3782","3782","0","[[3,0,0],[0,0],[2]]","1","[[3,0,0],[2,1],[0]]","9","0","","","","","","3","",""
"","","","","","single-stim-button","318","756631","0.0-3.0-37.0-1.0","5c314de6d5fc960001d2cb93","B2","batch2","","646","","","tol_toboard","","","","","","","","","tol_peg_1","646","646","0","[[3,1,0],[0,0],[2]]","1","[[3,0,0],[2,1],[0]]","9","0","","","","","","3","",""
"","","","","","single-stim-button","319","757197","0.0-3.0-37.1-0.1","5c314de6d5fc960001d2cb93","B2","batch2","","565","","","tol_tohand","","","","","","","","","tol_peg_3","565","565","0","[[3,1,0],[0,0],[0]]","2","[[3,0,0],[2,1],[0]]","9","0","","","","","","3","",""
"","","","","","single-stim-button","320","757682","0.0-3.0-37.1-1.1","5c314de6d5fc960001d2cb93","B2","batch2","","483","","","tol_toboard","","","","","","","","","tol_peg_2","483","483","0","[[3,1,0],[2,0],[0]]","2","[[3,0,0],[2,1],[0]]","9","0","","","","","","3","",""
"","","","","","single-stim-button","321","758216","0.0-3.0-37.2-0.2","5c314de6d5fc960001d2cb93","B2","batch2","","533","","","tol_tohand","","","","","","","","","tol_peg_1","533","533","0","[[3,0,0],[2,0],[0]]","3","[[3,0,0],[2,1],[0]]","9","0","","","","","","3","",""
"","","","","","single-stim-button","322","758805","0.0-3.0-37.2-1.2","5c314de6d5fc960001d2cb93","B2","batch2","","588","","","tol_toboard","","","","","","","","","tol_peg_2","588","588","0","[[3,0,0],[2,1],[0]]","3","[[3,0,0],[2,1],[0]]","9","0","","","","","","3","",""
"","","","","","poldrack-single-stim","323","759808","0.0-3.0-38.0","5c314de6d5fc960001d2cb93","B2","batch2","","-1","","","tol_feedback","true","","","","","","","","","1000","1000","500","","","","","","-1","none","true","3782","4880","","",""
"","","","","","html-button-response","324","766639","0.0-3.0-39.0","5c314de6d5fc960001d2cb93","B2","batch2","","6829.899999976158","<div class = centerbox><p class = center-block-text>problem <strong>11</strong> out of 25 problems</p></div>","0","tol_trial_num","","","","","","","","","","","","","","","","","","","","","","","","",""
"","","","","","single-stim-button","325","769986","0.0-3.0-40.0-0.0","5c314de6d5fc960001d2cb93","B2","batch2","","3346","","","tol_tohand","","","","","","","","","tol_peg_1","3346","3346","0","[[1,0,0],[3,0],[0]]","1","[[2,0,0],[1,3],[0]]","10","0","","","","","","6","",""
"","","","","","single-stim-button","326","771078","0.0-3.0-40.0-1.0","5c314de6d5fc960001d2cb93","B2","batch2","","1090","","","tol_toboard","","","","","","","","","tol_peg_3","1090","1090","0","[[1,0,0],[3,0],[2]]","1","[[2,0,0],[1,3],[0]]","10","0","","","","","","6","",""
"","","","","","single-stim-button","327","780157","0.0-3.0-40.1-0.1","5c314de6d5fc960001d2cb93","B2","batch2","","9077","","","tol_tohand","","","","","","","","","tol_peg_1","9077","9077","0","[[0,0,0],[3,0],[2]]","2","[[2,0,0],[1,3],[0]]","10","0","","","","","","6","",""
"","","","","","single-stim-button","328","780973","0.0-3.0-40.1-1.1","5c314de6d5fc960001d2cb93","B2","batch2","","815","","","tol_toboard","","","","","","","","","tol_peg_2","815","815","0","[[0,0,0],[3,1],[2]]","2","[[2,0,0],[1,3],[0]]","10","0","","","","","","6","",""
"","","","","","single-stim-button","329","781596","0.0-3.0-40.2-0.2","5c314de6d5fc960001d2cb93","B2","batch2","","621","","","tol_tohand","","","","","","","","","tol_peg_3","621","621","0","[[0,0,0],[3,1],[0]]","3","[[2,0,0],[1,3],[0]]","10","0","","","","","","6","",""
"","","","","","single-stim-button","330","782429","0.0-3.0-40.2-1.2","5c314de6d5fc960001d2cb93","B2","batch2","","832","","","tol_toboard","","","","","","","","","tol_peg_1","832","832","0","[[2,0,0],[3,1],[0]]","3","[[2,0,0],[1,3],[0]]","10","0","","","","","","6","",""
"","","","","","single-stim-button","331","783521","0.0-3.0-40.3-0.3","5c314de6d5fc960001d2cb93","B2","batch2","","1092","","","tol_tohand","","","","","","","","","tol_peg_2","1092","1092","0","[[2,0,0],[3,0],[0]]","4","[[2,0,0],[1,3],[0]]","10","0","","","","","","6","",""
"","","","","","single-stim-button","332","785356","0.0-3.0-40.3-1.3","5c314de6d5fc960001d2cb93","B2","batch2","","1833","","","tol_toboard","","","","","","","","","tol_peg_1","1833","1833","0","[[2,1,0],[3,0],[0]]","4","[[2,0,0],[1,3],[0]]","10","0","","","","","","6","",""
"","","","","","single-stim-button","333","785970","0.0-3.0-40.4-0.4","5c314de6d5fc960001d2cb93","B2","batch2","","613","","","tol_tohand","","","","","","","","","tol_peg_2","613","613","0","[[2,1,0],[0,0],[0]]","5","[[2,0,0],[1,3],[0]]","10","0","","","","","","6","",""
"","","","","","single-stim-button","334","786916","0.0-3.0-40.4-1.4","5c314de6d5fc960001d2cb93","B2","batch2","","945","","","tol_toboard","","","","","","","","","tol_peg_3","945","945","0","[[2,1,0],[0,0],[3]]","5","[[2,0,0],[1,3],[0]]","10","0","","","","","","6","",""
"","","","","","single-stim-button","335","787579","0.0-3.0-40.5-0.5","5c314de6d5fc960001d2cb93","B2","batch2","","663","","","tol_tohand","","","","","","","","","tol_peg_1","663","663","0","[[2,0,0],[0,0],[3]]","6","[[2,0,0],[1,3],[0]]","10","0","","","","","","6","",""
"","","","","","single-stim-button","336","788265","0.0-3.0-40.5-1.5","5c314de6d5fc960001d2cb93","B2","batch2","","685","","","tol_toboard","","","","","","","","","tol_peg_2","685","685","0","[[2,0,0],[1,0],[3]]","6","[[2,0,0],[1,3],[0]]","10","0","","","","","","6","",""
"","","","","","single-stim-button","337","788800","0.0-3.0-40.6-0.6","5c314de6d5fc960001d2cb93","B2","batch2","","534","","","tol_tohand","","","","","","","","","tol_peg_3","534","534","0","[[2,0,0],[1,0],[0]]","7","[[2,0,0],[1,3],[0]]","10","0","","","","","","6","",""
"","","","","","single-stim-button","338","789373","0.0-3.0-40.6-1.6","5c314de6d5fc960001d2cb93","B2","batch2","","572","","","tol_toboard","","","","","","","","","tol_peg_2","572","572","0","[[2,0,0],[1,3],[0]]","7","[[2,0,0],[1,3],[0]]","10","0","","","","","","6","",""
"","","","","","poldrack-single-stim","339","790374","0.0-3.0-41.0","5c314de6d5fc960001d2cb93","B2","batch2","","-1","","","tol_feedback","true","","","","","","","","","1000","1000","500","","","","","","-1","none","true","3346","15946","","",""
"","","","","","html-button-response","340","791079","0.0-3.0-42.0","5c314de6d5fc960001d2cb93","B2","batch2","","702.8999999761581","<div class = centerbox><p class = center-block-text>problem <strong>12</strong> out of 25 problems</p></div>","0","tol_trial_num","","","","","","","","","","","","","","","","","","","","","","","","",""
"","","","","","single-stim-button","341","795365","0.0-3.0-43.0-0.0","5c314de6d5fc960001d2cb93","B2","batch2","","4284","","","tol_tohand","","","","","","","","","tol_peg_1","4284","4284","0","[[1,0,0],[3,0],[0]]","1","[[2,3,0],[0,0],[1]]","11","0","","","","","","4","",""
"","","","","","single-stim-button","342","796002","0.0-3.0-43.0-1.0","5c314de6d5fc960001d2cb93","B2","batch2","","636","","","tol_toboard","","","","","","","","","tol_peg_2","636","636","0","[[1,0,0],[3,2],[0]]","1","[[2,3,0],[0,0],[1]]","11","0","","","","","","4","",""
"","","","","","single-stim-button","343","796828","0.0-3.0-43.1-0.1","5c314de6d5fc960001d2cb93","B2","batch2","","824","","","tol_tohand","","","","","","","","","tol_peg_1","824","824","0","[[0,0,0],[3,2],[0]]","2","[[2,3,0],[0,0],[1]]","11","0","","","","","","4","",""
"","","","","","single-stim-button","344","797663","0.0-3.0-43.1-1.1","5c314de6d5fc960001d2cb93","B2","batch2","","833","","","tol_toboard","","","","","","","","","tol_peg_3","833","833","0","[[0,0,0],[3,2],[1]]","2","[[2,3,0],[0,0],[1]]","11","0","","","","","","4","",""
"","","","","","single-stim-button","345","798177","0.0-3.0-43.2-0.2","5c314de6d5fc960001d2cb93","B2","batch2","","513","","","tol_tohand","","","","","","","","","tol_peg_2","513","513","0","[[0,0,0],[3,0],[1]]","3","[[2,3,0],[0,0],[1]]","11","0","","","","","","4","",""
"","","","","","single-stim-button","346","799043","0.0-3.0-43.2-1.2","5c314de6d5fc960001d2cb93","B2","batch2","","865","","","tol_toboard","","","","","","","","","tol_peg_1","865","865","0","[[2,0,0],[3,0],[1]]","3","[[2,3,0],[0,0],[1]]","11","0","","","","","","4","",""
"","","","","","single-stim-button","347","799529","0.0-3.0-43.3-0.3","5c314de6d5fc960001d2cb93","B2","batch2","","484","","","tol_tohand","","","","","","","","","tol_peg_2","484","484","0","[[2,0,0],[0,0],[1]]","4","[[2,3,0],[0,0],[1]]","11","0","","","","","","4","",""
"","","","","","single-stim-button","348","800547","0.0-3.0-43.3-1.3","5c314de6d5fc960001d2cb93","B2","batch2","","1017","","","tol_toboard","","","","","","","","","tol_peg_1","1017","1017","0","[[2,3,0],[0,0],[1]]","4","[[2,3,0],[0,0],[1]]","11","0","","","","","","4","",""
"","","","","","poldrack-single-stim","349","801549","0.0-3.0-44.0","5c314de6d5fc960001d2cb93","B2","batch2","","-1","","","tol_feedback","true","","","","","","","","","1000","1000","500","","","","","","-1","none","true","4284","6105","","",""
