"success","timeout","failed_images","failed_audio","failed_video","trial_type","trial_index","time_elapsed","internal_node_id","subject_id","study_id","session_id","view_history","rt","stimulus","response","task","correct","answer","item","fiar_detect_rt","fiar_detect_correct","total_correct_fiar_detect","post_trial_gap","choices","spm_correct","spm_rt","mouse_click","stim_duration","block_duration","timing_post_trial","current_position","tol_num_moves_made","tol_target","tol_problem_id","tol_rt","key_press","possible_responses","tol_correct","preplanning","tol_rt_per_trial","tol_min_moves"
"true","false","[]","[]","[]","preload","0","4093","0.0-0.0","5c31847f10677f0001ddc781","A3","batch1","","","","","","","","","","","","","","","","","","","","","","","","","","","","","",""
"true","","","","","fullscreen","1","129494","0.0-1.0-0.0","5c31847f10677f0001ddc781","A3","batch1","","","","","","","","","","","","","","","","","","","","","","","","","","","","","",""
"true","","","","","fullscreen","2","131968","0.0-2.0-0.0","5c31847f10677f0001ddc781","A3","batch1","","","","","","","","","","","","","","","","","","","","","","","","","","","","","",""
"","","","","","instructions","3","162984","0.0-2.0-1.0-0.0","5c31847f10677f0001ddc781","A3","batch1","[{""page_index"":0,""viewing_time"":14524},{""page_index"":1,""viewing_time"":16488}]","31013","","","","","","","","","","","","","","","","","","","","","","","","","","","",""
"","","","","","html-button-response","4","167097","0.0-2.0-1.0-1.0-0.0","5c31847f10677f0001ddc781","A3","batch1","","4110","<p class=block-text> Let's answer a few questions <br>","0","pattern_enter_quiz","","","","","","","","","","","","","","","","","","","","","","","","",""
"","","","","","html-button-response","5","171251","0.0-2.0-1.0-1.0-1.0","5c31847f10677f0001ddc781","A3","batch1","","4151","<p class = block-text>True or False: You will have as much time as you want to make each choice. <br></p>","1","pattern_quiz","true","","","","","","","","","","","","","","","","","","","","","","","",""
"","","","","","html-button-response","6","172256","0.0-2.0-1.0-1.0-2.0","5c31847f10677f0001ddc781","A3","batch1","","1002","<p class = block-text>Correct! You should make your choice <strong> as fast as you can</strong>.</p>","0","pattern_quiz_feedback","","","","","","","","","","","","","","","","","","","","","","","","",""
"","","","","","html-button-response","7","175062","0.0-2.0-1.0-1.0-3.0","5c31847f10677f0001ddc781","A3","batch1","","2802","<p class = block-text>True or False: You will look for 4 pieces in black or white color connected in a row either horizontally, vertically or diagonally. <br></p>","0","pattern_quiz","true","","","","","","","","","","","","","","","","","","","","","","","",""
"","","","","","html-button-response","8","175758","0.0-2.0-1.0-1.0-4.0","5c31847f10677f0001ddc781","A3","batch1","","693","<p class = block-text>Correct! </p>","0","pattern_quiz_feedback","","","","","","","","","","","","","","","","","","","","","","","","",""
"","","","","","html-button-response","9","176928","0.0-2.0-2.0","5c31847f10677f0001ddc781","A3","batch1","","1166","<p class=block-text> Now that you've understood the game, let's do a few practice trials before we start!<br> <br>","0","pattern_enter_practice","","","","","","","","","","","","","","","","","","","","","","","","",""
"","","","","","image-keyboard-response","10","179830","0.0-2.0-3.0-0.0","5c31847f10677f0001ddc781","A3","batch1","","2794","stim/prac_yes_16_ver_w1.png","f","pattern_practice","true","f","","","","","","","","","","","","","","","","","","","","","","",""
"","","","","","html-keyboard-response","11","180861","0.0-2.0-3.0-1.0","5c31847f10677f0001ddc781","A3","batch1","","null","<p style=""font-size:30px;color:green;"">Correct!</p>","null","pattern_feedback","","","","","","","","","","","","","","","","","","","","","","","","",""
"","","","","","image-keyboard-response","12","183951","0.0-2.0-3.0-0.1","5c31847f10677f0001ddc781","A3","batch1","","3087","stim/prac_no_18_1.png","j","pattern_practice","true","j","","","","","","","","","","","","","","","","","","","","","","",""
"","","","","","html-keyboard-response","13","184973","0.0-2.0-3.0-1.1","5c31847f10677f0001ddc781","A3","batch1","","null","<p style=""font-size:30px;color:green;"">Correct!</p>","null","pattern_feedback","","","","","","","","","","","","","","","","","","","","","","","","",""
"","","","","","image-keyboard-response","14","186482","0.0-2.0-3.0-0.2","5c31847f10677f0001ddc781","A3","batch1","","1502","stim/prac_yes_18_hor_w1.png","f","pattern_practice","true","f","","","","","","","","","","","","","","","","","","","","","","",""
"","","","","","html-keyboard-response","15","187509","0.0-2.0-3.0-1.2","5c31847f10677f0001ddc781","A3","batch1","","null","<p style=""font-size:30px;color:green;"">Correct!</p>","null","pattern_feedback","","","","","","","","","","","","","","","","","","","","","","","","",""
"","","","","","image-keyboard-response","16","188324","0.0-2.0-3.0-0.3","5c31847f10677f0001ddc781","A3","batch1","","811","stim/prac_yes_20_dia_b1.png","j","pattern_practice","false","f","","","","","","","","","","","","","","","","","","","","","","",""
"","","","","","html-keyboard-response","17","189333","0.0-2.0-3.0-1.3","5c31847f10677f0001ddc781","A3","batch1","","null","<p style=""font-size:30px;color:red;"">Wrong.</p>","null","pattern_feedback","","","","","","","","","","","","","","","","","","","","","","","","",""
"","","","","","image-keyboard-response","18","191198","0.0-2.0-3.0-0.4","5c31847f10677f0001ddc781","A3","batch1","","1860","stim/prac_no_16_1.png","j","pattern_practice","true","j","","","","","","","","","","","","","","","","","","","","","","",""
"","","","","","html-keyboard-response","19","192220","0.0-2.0-3.0-1.4","5c31847f10677f0001ddc781","A3","batch1","","null","<p style=""font-size:30px;color:green;"">Correct!</p>","null","pattern_feedback","","","","","","","","","","","","","","","","","","","","","","","","",""
"","","","","","html-button-response","20","194146","0.0-2.0-4.0","5c31847f10677f0001ddc781","A3","batch1","","1922","<p class=block-text> Good job! You are done with practice trials!<br>
        You responded correctly on 80% of the trials.<br>
        Press the button below to start official trials. Now you won't see any feedback about your response</p>","0","pattern_enter_official_trials","","","","","","","","","","","","","","","","","","","","","","","","",""
"","","","","","html-keyboard-response","21","194951","0.0-2.0-5.0-0.0","5c31847f10677f0001ddc781","A3","batch1","","null","<p class=block-text>Trial 1 out of 78</p>","null","pattern_show_trial_num","","","","","","","","","","","","","","","","","","","","","","","","",""
"","","","","","image-keyboard-response","22","199077","0.0-2.0-5.0-1.0","5c31847f10677f0001ddc781","A3","batch1","","4123","stim/yes_42_dia_w1_w.png","j","pattern_response","false","f","pattern_64","4123","false","0","","","","","","","","","","","","","","","","","","",""
"","","","","","html-keyboard-response","23","200390","0.0-2.0-5.0-0.1","5c31847f10677f0001ddc781","A3","batch1","","null","<p class=block-text>Trial 2 out of 78</p>","null","pattern_show_trial_num","","","","","","","","","","","","","","","","","","","","","","","","",""
"","","","","","image-keyboard-response","24","206522","0.0-2.0-5.0-1.1","5c31847f10677f0001ddc781","A3","batch1","","6130","stim/no_49_2_b.png","j","pattern_response","true","j","pattern_29","6130","true","1","","","","","","","","","","","","","","","","","","",""
"","","","","","html-keyboard-response","25","207838","0.0-2.0-5.0-0.2","5c31847f10677f0001ddc781","A3","batch1","","null","<p class=block-text>Trial 3 out of 78</p>","null","pattern_show_trial_num","","","","","","","","","","","","","","","","","","","","","","","","",""
"","","","","","image-keyboard-response","26","219044","0.0-2.0-5.0-1.2","5c31847f10677f0001ddc781","A3","batch1","","11204","stim/no_58_1_w.png","j","pattern_response","true","j","pattern_35","11204","true","2","","","","","","","","","","","","","","","","","","",""
"","","","","","html-keyboard-response","27","220367","0.0-2.0-5.0-0.3","5c31847f10677f0001ddc781","A3","batch1","","null","<p class=block-text>Trial 4 out of 78</p>","null","pattern_show_trial_num","","","","","","","","","","","","","","","","","","","","","","","","",""
"","","","","","image-keyboard-response","28","224654","0.0-2.0-5.0-1.3","5c31847f10677f0001ddc781","A3","batch1","","4285","stim/no_18_1_b.png","j","pattern_response","true","j","pattern_05","4285","true","3","","","","","","","","","","","","","","","","","","",""
"","","","","","html-keyboard-response","29","225970","0.0-2.0-5.0-0.4","5c31847f10677f0001ddc781","A3","batch1","","null","<p class=block-text>Trial 5 out of 78</p>","null","pattern_show_trial_num","","","","","","","","","","","","","","","","","","","","","","","","",""
"","","","","","image-keyboard-response","30","231625","0.0-2.0-5.0-1.4","5c31847f10677f0001ddc781","A3","batch1","","5652","stim/yes_63_dia_b1.png","f","pattern_response","true","f","pattern_78","5652","true","4","","","","","","","","","","","","","","","","","","",""
"","","","","","html-keyboard-response","31","232943","0.0-2.0-5.0-0.5","5c31847f10677f0001ddc781","A3","batch1","","null","<p class=block-text>Trial 6 out of 78</p>","null","pattern_show_trial_num","","","","","","","","","","","","","","","","","","","","","","","","",""
"","","","","","image-keyboard-response","32","237455","0.0-2.0-5.0-1.5","5c31847f10677f0001ddc781","A3","batch1","","4507","stim/yes_37_hor_w1_w.png","f","pattern_response","true","f","pattern_60","4507","true","5","","","","","","","","","","","","","","","","","","",""
"","","","","","html-keyboard-response","33","238772","0.0-2.0-5.0-0.6","5c31847f10677f0001ddc781","A3","batch1","","null","<p class=block-text>Trial 7 out of 78</p>","null","pattern_show_trial_num","","","","","","","","","","","","","","","","","","","","","","","","",""
"","","","","","image-keyboard-response","34","250612","0.0-2.0-5.0-1.6","5c31847f10677f0001ddc781","A3","batch1","","11838","stim/no_67_1.png","j","pattern_response","true","j","pattern_39","11838","true","6","","","","","","","","","","","","","","","","","","",""
"","","","","","html-keyboard-response","35","251923","0.0-2.0-5.0-0.7","5c31847f10677f0001ddc781","A3","batch1","","null","<p class=block-text>Trial 8 out of 78</p>","null","pattern_show_trial_num","","","","","","","","","","","","","","","","","","","","","","","","",""
"","","","","","image-keyboard-response","36","258971","0.0-2.0-5.0-1.7","5c31847f10677f0001ddc781","A3","batch1","","7043","stim/no_51_1.png","j","pattern_response","true","j","pattern_31","7043","true","7","","","","","","","","","","","","","","","","","","",""
"","","","","","html-keyboard-response","37","260289","0.0-2.0-5.0-0.8","5c31847f10677f0001ddc781","A3","batch1","","null","<p class=block-text>Trial 9 out of 78</p>","null","pattern_show_trial_num","","","","","","","","","","","","","","","","","","","","","","","","",""
"","","","","","image-keyboard-response","38","261191","0.0-2.0-5.0-1.8","5c31847f10677f0001ddc781","A3","batch1","","899","stim/yes_29_hor_b1_b.png","f","pattern_response","true","f","pattern_52","899","true","8","","","","","","","","","","","","","","","","","","",""
"","","","","","html-keyboard-response","39","262504","0.0-2.0-5.0-0.9","5c31847f10677f0001ddc781","A3","batch1","","null","<p class=block-text>Trial 10 out of 78</p>","null","pattern_show_trial_num","","","","","","","","","","","","","","","","","","","","","","","","",""
"","","","","","image-keyboard-response","40","263326","0.0-2.0-5.0-1.9","5c31847f10677f0001ddc781","A3","batch1","","819","stim/yes_36_ver_w1_w.png","f","pattern_response","true","f","pattern_58","819","true","9","","","","","","","","","","","","","","","","","","",""
"","","","","","html-keyboard-response","41","264647","0.0-2.0-5.0-0.10","5c31847f10677f0001ddc781","A3","batch1","","null","<p class=block-text>Trial 11 out of 78</p>","null","pattern_show_trial_num","","","","","","","","","","","","","","","","","","","","","","","","",""
"","","","","","image-keyboard-response","42","266200","0.0-2.0-5.0-1.10","5c31847f10677f0001ddc781","A3","batch1","","1551","stim/no_15_1_w.png","j","pattern_response","true","j","pattern_03","1551","true","10","","","","","","","","","","","","","","","","","","",""
"","","","","","html-keyboard-response","43","267524","0.0-2.0-5.0-0.11","5c31847f10677f0001ddc781","A3","batch1","","null","<p class=block-text>Trial 12 out of 78</p>","null","pattern_show_trial_num","","","","","","","","","","","","","","","","","","","","","","","","",""
"","","","","","image-keyboard-response","44","278441","0.0-2.0-5.0-1.11","5c31847f10677f0001ddc781","A3","batch1","","10915","stim/yes_53_ver_b1_b.png","j","pattern_response","false","f","pattern_74","10915","false","10","","","","","","","","","","","","","","","","","","",""
"","","","","","html-keyboard-response","45","279756","0.0-2.0-5.0-0.12","5c31847f10677f0001ddc781","A3","batch1","","null","<p class=block-text>Trial 13 out of 78</p>","null","pattern_show_trial_num","","","","","","","","","","","","","","","","","","","","","","","","",""
"","","","","","image-keyboard-response","46","281063","0.0-2.0-5.0-1.12","5c31847f10677f0001ddc781","A3","batch1","","1301","stim/no_12_1.png","j","pattern_response","true","j","pattern_01","1301","true","11","","","","","","","","","","","","","","","","","","",""
"","","","","","html-keyboard-response","47","282387","0.0-2.0-5.0-0.13","5c31847f10677f0001ddc781","A3","batch1","","null","<p class=block-text>Trial 14 out of 78</p>","null","pattern_show_trial_num","","","","","","","","","","","","","","","","","","","","","","","","",""
"","","","","","image-keyboard-response","48","283396","0.0-2.0-5.0-1.13","5c31847f10677f0001ddc781","A3","batch1","","1007","stim/yes_15_dia_b1u_b.png","f","pattern_response","true","f","pattern_44","1007","true","12","","","","","","","","","","","","","","","","","","",""
"","","","","","html-keyboard-response","49","284723","0.0-2.0-5.0-0.14","5c31847f10677f0001ddc781","A3","batch1","","null","<p class=block-text>Trial 15 out of 78</p>","null","pattern_show_trial_num","","","","","","","","","","","","","","","","","","","","","","","","",""
"","","","","","image-keyboard-response","50","285622","0.0-2.0-5.0-1.14","5c31847f10677f0001ddc781","A3","batch1","","897","stim/yes_30_ver_b1_b.png","f","pattern_response","true","f","pattern_54","897","true","13","","","","","","","","","","","","","","","","","","",""
"","","","","","html-keyboard-response","51","286938","0.0-2.0-5.0-0.15","5c31847f10677f0001ddc781","A3","batch1","","null","<p class=block-text>Trial 16 out of 78</p>","null","pattern_show_trial_num","","","","","","","","","","","","","","","","","","","","","","","","",""
"","","","","","image-keyboard-response","52","287515","0.0-2.0-5.0-1.15","5c31847f10677f0001ddc781","A3","batch1","","575","stim/yes_17_ver_b1_b.png","f","pattern_response","true","f","pattern_46","575","true","14","","","","","","","","","","","","","","","","","","",""
"","","","","","html-keyboard-response","53","288833","0.0-2.0-5.0-0.16","5c31847f10677f0001ddc781","A3","batch1","","null","<p class=block-text>Trial 17 out of 78</p>","null","pattern_show_trial_num","","","","","","","","","","","","","","","","","","","","","","","","",""
"","","","","","image-keyboard-response","54","289687","0.0-2.0-5.0-1.16","5c31847f10677f0001ddc781","A3","batch1","","853","stim/no_53_1_b.png","f","pattern_response","false","j","pattern_33","853","false","14","","","","","","","","","","","","","","","","","","",""
"","","","","","html-keyboard-response","55","291005","0.0-2.0-5.0-0.17","5c31847f10677f0001ddc781","A3","batch1","","null","<p class=block-text>Trial 18 out of 78</p>","null","pattern_show_trial_num","","","","","","","","","","","","","","","","","","","","","","","","",""
"","","","","","image-keyboard-response","56","297586","0.0-2.0-5.0-1.17","5c31847f10677f0001ddc781","A3","batch1","","6578","stim/no_36_1_b.png","j","pattern_response","true","j","pattern_17","6578","true","15","","","","","","","","","","","","","","","","","","",""
"","","","","","html-keyboard-response","57","298902","0.0-2.0-5.0-0.18","5c31847f10677f0001ddc781","A3","batch1","","null","<p class=block-text>Trial 19 out of 78</p>","null","pattern_show_trial_num","","","","","","","","","","","","","","","","","","","","","","","","",""
"","","","","","image-keyboard-response","58","305457","0.0-2.0-5.0-1.18","5c31847f10677f0001ddc781","A3","batch1","","6554","stim/no_33_1_b.png","j","pattern_response","true","j","pattern_15","6554","true","16","","","","","","","","","","","","","","","","","","",""
"","","","","","html-keyboard-response","59","306768","0.0-2.0-5.0-0.19","5c31847f10677f0001ddc781","A3","batch1","","null","<p class=block-text>Trial 20 out of 78</p>","null","pattern_show_trial_num","","","","","","","","","","","","","","","","","","","","","","","","",""
"","","","","","image-keyboard-response","60","307895","0.0-2.0-5.0-1.19","5c31847f10677f0001ddc781","A3","batch1","","1126","stim/yes_70_ver_b1.png","f","pattern_response","true","f","pattern_80","1126","true","17","","","","","","","","","","","","","","","","","","",""
"","","","","","html-keyboard-response","61","309201","0.0-2.0-5.0-0.20","5c31847f10677f0001ddc781","A3","batch1","","null","<p class=block-text>Trial 21 out of 78</p>","null","pattern_show_trial_num","","","","","","","","","","","","","","","","","","","","","","","","",""
"","","","","","image-keyboard-response","62","311656","0.0-2.0-5.0-1.20","5c31847f10677f0001ddc781","A3","batch1","","2453","stim/no_30_1_b.png","j","pattern_response","true","j","pattern_13","2453","true","18","","","","","","","","","","","","","","","","","","",""
"","","","","","html-keyboard-response","63","312978","0.0-2.0-5.0-0.21","5c31847f10677f0001ddc781","A3","batch1","","null","<p class=block-text>Trial 22 out of 78</p>","null","pattern_show_trial_num","","","","","","","","","","","","","","","","","","","","","","","","",""
"","","","","","image-keyboard-response","64","316108","0.0-2.0-5.0-1.21","5c31847f10677f0001ddc781","A3","batch1","","3127","stim/no_22_1_b.png","j","pattern_response","true","j","pattern_07","3127","true","19","","","","","","","","","","","","","","","","","","",""
"","","","","","html-keyboard-response","65","317426","0.0-2.0-5.0-0.22","5c31847f10677f0001ddc781","A3","batch1","","null","<p class=block-text>Trial 23 out of 78</p>","null","pattern_show_trial_num","","","","","","","","","","","","","","","","","","","","","","","","",""
"","","","","","image-keyboard-response","66","318200","0.0-2.0-5.0-1.22","5c31847f10677f0001ddc781","A3","batch1","","771","stim/yes_12_hor_w1_w.png","f","pattern_response","true","f","pattern_42","771","true","20","","","","","","","","","","","","","","","","","","",""
"","","","","","html-keyboard-response","67","319525","0.0-2.0-5.0-0.23","5c31847f10677f0001ddc781","A3","batch1","","null","<p class=block-text>Trial 24 out of 78</p>","null","pattern_show_trial_num","","","","","","","","","","","","","","","","","","","","","","","","",""
"","","","","","image-keyboard-response","68","320746","0.0-2.0-5.0-1.23","5c31847f10677f0001ddc781","A3","batch1","","1219","stim/yes_23_ver_b1.png","f","pattern_response","true","f","pattern_48","1219","true","21","","","","","","","","","","","","","","","","","","",""
"","","","","","html-keyboard-response","69","322067","0.0-2.0-5.0-0.24","5c31847f10677f0001ddc781","A3","batch1","","null","<p class=block-text>Trial 25 out of 78</p>","null","pattern_show_trial_num","","","","","","","","","","","","","","","","","","","","","","","","",""
"","","","","","image-keyboard-response","70","325528","0.0-2.0-5.0-1.24","5c31847f10677f0001ddc781","A3","batch1","","3459","stim/no_43_2_b.png","j","pattern_response","true","j","pattern_23","3459","true","22","","","","","","","","","","","","","","","","","","",""
"","","","","","html-keyboard-response","71","326842","0.0-2.0-5.0-0.25","5c31847f10677f0001ddc781","A3","batch1","","null","<p class=block-text>Trial 26 out of 78</p>","null","pattern_show_trial_num","","","","","","","","","","","","","","","","","","","","","","","","",""
"","","","","","image-keyboard-response","72","332211","0.0-2.0-5.0-1.25","5c31847f10677f0001ddc781","A3","batch1","","5366","stim/no_45_1_w.png","j","pattern_response","true","j","pattern_25","5366","true","23","","","","","","","","","","","","","","","","","","",""
"","","","","","html-keyboard-response","73","333528","0.0-2.0-5.0-0.26","5c31847f10677f0001ddc781","A3","batch1","","null","<p class=block-text>Trial 27 out of 78</p>","null","pattern_show_trial_num","","","","","","","","","","","","","","","","","","","","","","","","",""
"","","","","","image-keyboard-response","74","337068","0.0-2.0-5.0-1.26","5c31847f10677f0001ddc781","A3","batch1","","3537","stim/no_25_1_b.png","j","pattern_response","true","j","pattern_09","3537","true","24","","","","","","","","","","","","","","","","","","",""
"","","","","","html-keyboard-response","75","338392","0.0-2.0-5.0-0.27","5c31847f10677f0001ddc781","A3","batch1","","null","<p class=block-text>Trial 28 out of 78</p>","null","pattern_show_trial_num","","","","","","","","","","","","","","","","","","","","","","","","",""
"","","","","","image-keyboard-response","76","343338","0.0-2.0-5.0-1.27","5c31847f10677f0001ddc781","A3","batch1","","4943","stim/yes_49_hor_w1_b.png","f","pattern_response","true","f","pattern_70","4943","true","25","","","","","","","","","","","","","","","","","","",""
"","","","","","html-keyboard-response","77","344652","0.0-2.0-5.0-0.28","5c31847f10677f0001ddc781","A3","batch1","","null","<p class=block-text>Trial 29 out of 78</p>","null","pattern_show_trial_num","","","","","","","","","","","","","","","","","","","","","","","","",""
"","","","","","image-keyboard-response","78","352279","0.0-2.0-5.0-1.28","5c31847f10677f0001ddc781","A3","batch1","","7625","stim/yes_58_dia_w1_w.png","f","pattern_response","true","f","pattern_76","7625","true","26","","","","","","","","","","","","","","","","","","",""
"","","","","","html-keyboard-response","79","353598","0.0-2.0-5.0-0.29","5c31847f10677f0001ddc781","A3","batch1","","null","<p class=block-text>Trial 30 out of 78</p>","null","pattern_show_trial_num","","","","","","","","","","","","","","","","","","","","","","","","",""
"","","","","","image-keyboard-response","80","354294","0.0-2.0-5.0-1.29","5c31847f10677f0001ddc781","A3","batch1","","693","stim/yes_39_hor_w1_w.png","f","pattern_response","true","f","pattern_62","693","true","27","","","","","","","","","","","","","","","","","","",""
"","","","","","html-keyboard-response","81","355609","0.0-2.0-5.0-0.30","5c31847f10677f0001ddc781","A3","batch1","","null","<p class=block-text>Trial 31 out of 78</p>","null","pattern_show_trial_num","","","","","","","","","","","","","","","","","","","","","","","","",""
"","","","","","image-keyboard-response","82","362137","0.0-2.0-5.0-1.30","5c31847f10677f0001ddc781","A3","batch1","","6526","stim/no_37_2_w.png","j","pattern_response","true","j","pattern_19","6526","true","28","","","","","","","","","","","","","","","","","","",""
"","","","","","html-keyboard-response","83","363447","0.0-2.0-5.0-0.31","5c31847f10677f0001ddc781","A3","batch1","","null","<p class=block-text>Trial 32 out of 78</p>","null","pattern_show_trial_num","","","","","","","","","","","","","","","","","","","","","","","","",""
"","","","","","image-keyboard-response","84","372375","0.0-2.0-5.0-1.31","5c31847f10677f0001ddc781","A3","batch1","","8926","stim/yes_51_dia_b1.png","f","pattern_response","true","f","pattern_72","8926","true","29","","","","","","","","","","","","","","","","","","",""
"","","","","","html-keyboard-response","85","373696","0.0-2.0-5.0-0.32","5c31847f10677f0001ddc781","A3","batch1","","null","<p class=block-text>Trial 33 out of 78</p>","null","pattern_show_trial_num","","","","","","","","","","","","","","","","","","","","","","","","",""
"","","","","","image-keyboard-response","86","374604","0.0-2.0-5.0-1.32","5c31847f10677f0001ddc781","A3","batch1","","904","stim/yes_46_ver_b1_b.png","f","pattern_response","true","f","pattern_68","904","true","30","","","","","","","","","","","","","","","","","","",""
"","","","","","html-keyboard-response","87","375920","0.0-2.0-5.0-0.33","5c31847f10677f0001ddc781","A3","batch1","","null","<p class=block-text>Trial 34 out of 78</p>","null","pattern_show_trial_num","","","","","","","","","","","","","","","","","","","","","","","","",""
"","","","","","image-keyboard-response","88","380945","0.0-2.0-5.0-1.33","5c31847f10677f0001ddc781","A3","batch1","","5022","stim/no_28_2.png","j","pattern_response","true","j","pattern_11","5022","true","31","","","","","","","","","","","","","","","","","","",""
"","","","","","html-keyboard-response","89","382259","0.0-2.0-5.0-0.34","5c31847f10677f0001ddc781","A3","batch1","","null","<p class=block-text>Trial 35 out of 78</p>","null","pattern_show_trial_num","","","","","","","","","","","","","","","","","","","","","","","","",""
"","","","","","image-keyboard-response","90","383622","0.0-2.0-5.0-1.34","5c31847f10677f0001ddc781","A3","batch1","","1361","stim/yes_33_dia_w1_w.png","f","pattern_response","true","f","pattern_56","1361","true","32","","","","","","","","","","","","","","","","","","",""
"","","","","","html-keyboard-response","91","384940","0.0-2.0-5.0-0.35","5c31847f10677f0001ddc781","A3","batch1","","null","<p class=block-text>Trial 36 out of 78</p>","null","pattern_show_trial_num","","","","","","","","","","","","","","","","","","","","","","","","",""
"","","","","","image-keyboard-response","92","390453","0.0-2.0-5.0-1.35","5c31847f10677f0001ddc781","A3","batch1","","5511","stim/yes_44_ver_w1_w.png","j","pattern_response","false","f","pattern_66","5511","false","32","","","","","","","","","","","","","","","","","","",""
"","","","","","html-keyboard-response","93","391775","0.0-2.0-5.0-0.36","5c31847f10677f0001ddc781","A3","batch1","","null","<p class=block-text>Trial 37 out of 78</p>","null","pattern_show_trial_num","","","","","","","","","","","","","","","","","","","","","","","","",""
"","","","","","image-keyboard-response","94","397613","0.0-2.0-5.0-1.36","5c31847f10677f0001ddc781","A3","batch1","","5833","stim/no_47_1_b.png","j","pattern_response","true","j","pattern_27","5833","true","33","","","","","","","","","","","","","","","","","","",""
"","","","","","html-keyboard-response","95","398927","0.0-2.0-5.0-0.37","5c31847f10677f0001ddc781","A3","batch1","","null","<p class=block-text>Trial 38 out of 78</p>","null","pattern_show_trial_num","","","","","","","","","","","","","","","","","","","","","","","","",""
"","","","","","image-keyboard-response","96","408062","0.0-2.0-5.0-1.37","5c31847f10677f0001ddc781","A3","batch1","","9130","stim/no_39_1_w.png","j","pattern_response","true","j","pattern_21","9130","true","34","","","","","","","","","","","","","","","","","","",""
"","","","","","html-keyboard-response","97","409368","0.0-2.0-5.0-0.38","5c31847f10677f0001ddc781","A3","batch1","","null","<p class=block-text>Trial 39 out of 78</p>","null","pattern_show_trial_num","","","","","","","","","","","","","","","","","","","","","","","","",""
"","","","","","image-keyboard-response","98","410414","0.0-2.0-5.0-1.38","5c31847f10677f0001ddc781","A3","batch1","","1043","stim/yes_26_dia_w2_w.png","f","pattern_response","true","f","pattern_50","1043","true","35","","","","","","","","","","","","","","","","","","",""
"","","","","","image-keyboard-response","99","412577","0.0-2.0-6.0","5c31847f10677f0001ddc781","A3","batch1","","1660","stim/empty_board.png","j","attention_check","true","j","","","","","500","[""f"",""j""]","","","","","","","","","","","","","","","","",""
"","","","","","html-keyboard-response","100","413388","0.0-2.0-7.0-0.0","5c31847f10677f0001ddc781","A3","batch1","","null","<p class=block-text>Trial 40 out of 78</p>","null","pattern_show_trial_num","","","","","","","","","","","","","","","","","","","","","","","","",""
"","","","","","image-keyboard-response","101","416242","0.0-2.0-7.0-1.0","5c31847f10677f0001ddc781","A3","batch1","","2851","stim/yes_43_ver_w1_w.png","f","pattern_response","true","f","pattern_65","2851","true","36","","","","","","","","","","","","","","","","","","",""
"","","","","","html-keyboard-response","102","417563","0.0-2.0-7.0-0.1","5c31847f10677f0001ddc781","A3","batch1","","null","<p class=block-text>Trial 41 out of 78</p>","null","pattern_show_trial_num","","","","","","","","","","","","","","","","","","","","","","","","",""
"","","","","","image-keyboard-response","103","426177","0.0-2.0-7.0-1.1","5c31847f10677f0001ddc781","A3","batch1","","8609","stim/no_62_1_w.png","j","pattern_response","true","j","pattern_36","8609","true","37","","","","","","","","","","","","","","","","","","",""
"","","","","","html-keyboard-response","104","427492","0.0-2.0-7.0-0.2","5c31847f10677f0001ddc781","A3","batch1","","null","<p class=block-text>Trial 42 out of 78</p>","null","pattern_show_trial_num","","","","","","","","","","","","","","","","","","","","","","","","",""
"","","","","","image-keyboard-response","105","431069","0.0-2.0-7.0-1.2","5c31847f10677f0001ddc781","A3","batch1","","3575","stim/no_32_1_w.png","j","pattern_response","true","j","pattern_14","3575","true","38","","","","","","","","","","","","","","","","","","",""
"","","","","","html-keyboard-response","106","432384","0.0-2.0-7.0-0.3","5c31847f10677f0001ddc781","A3","batch1","","null","<p class=block-text>Trial 43 out of 78</p>","null","pattern_show_trial_num","","","","","","","","","","","","","","","","","","","","","","","","",""
"","","","","","image-keyboard-response","107","433192","0.0-2.0-7.0-1.3","5c31847f10677f0001ddc781","A3","batch1","","804","stim/yes_25_hor_b1_b.png","f","pattern_response","true","f","pattern_49","804","true","39","","","","","","","","","","","","","","","","","","",""
"","","","","","html-keyboard-response","108","434516","0.0-2.0-7.0-0.4","5c31847f10677f0001ddc781","A3","batch1","","null","<p class=block-text>Trial 44 out of 78</p>","null","pattern_show_trial_num","","","","","","","","","","","","","","","","","","","","","","","","",""
"","","","","","image-keyboard-response","109","440505","0.0-2.0-7.0-1.4","5c31847f10677f0001ddc781","A3","batch1","","5987","stim/no_44_1.png","j","pattern_response","true","j","pattern_24","5987","true","40","","","","","","","","","","","","","","","","","","",""
"","","","","","html-keyboard-response","110","441831","0.0-2.0-7.0-0.5","5c31847f10677f0001ddc781","A3","batch1","","null","<p class=block-text>Trial 45 out of 78</p>","null","pattern_show_trial_num","","","","","","","","","","","","","","","","","","","","","","","","",""
"","","","","","image-keyboard-response","111","453077","0.0-2.0-7.0-1.5","5c31847f10677f0001ddc781","A3","batch1","","11241","stim/no_70_2.png","j","pattern_response","true","j","pattern_40","11241","true","41","","","","","","","","","","","","","","","","","","",""
"","","","","","html-keyboard-response","112","454390","0.0-2.0-7.0-0.6","5c31847f10677f0001ddc781","A3","batch1","","null","<p class=block-text>Trial 46 out of 78</p>","null","pattern_show_trial_num","","","","","","","","","","","","","","","","","","","","","","","","",""
"","","","","","image-keyboard-response","113","458324","0.0-2.0-7.0-1.6","5c31847f10677f0001ddc781","A3","batch1","","3931","stim/no_26_1_w.png","j","pattern_response","true","j","pattern_10","3931","true","42","","","","","","","","","","","","","","","","","","",""
"","","","","","html-keyboard-response","114","459650","0.0-2.0-7.0-0.7","5c31847f10677f0001ddc781","A3","batch1","","null","<p class=block-text>Trial 47 out of 78</p>","null","pattern_show_trial_num","","","","","","","","","","","","","","","","","","","","","","","","",""
"","","","","","image-keyboard-response","115","462899","0.0-2.0-7.0-1.7","5c31847f10677f0001ddc781","A3","batch1","","3246","stim/no_20_1_w.png","j","pattern_response","true","j","pattern_06","3246","true","43","","","","","","","","","","","","","","","","","","",""
"","","","","","html-keyboard-response","116","464213","0.0-2.0-7.0-0.8","5c31847f10677f0001ddc781","A3","batch1","","null","<p class=block-text>Trial 48 out of 78</p>","null","pattern_show_trial_num","","","","","","","","","","","","","","","","","","","","","","","","",""
"","","","","","image-keyboard-response","117","471097","0.0-2.0-7.0-1.8","5c31847f10677f0001ddc781","A3","batch1","","6882","stim/no_34_1_b.png","j","pattern_response","true","j","pattern_16","6882","true","44","","","","","","","","","","","","","","","","","","",""
"","","","","","html-keyboard-response","118","472410","0.0-2.0-7.0-0.9","5c31847f10677f0001ddc781","A3","batch1","","null","<p class=block-text>Trial 49 out of 78</p>","null","pattern_show_trial_num","","","","","","","","","","","","","","","","","","","","","","","","",""
"","","","","","image-keyboard-response","119","474441","0.0-2.0-7.0-1.9","5c31847f10677f0001ddc781","A3","batch1","","2027","stim/yes_50_dia_w1.png","f","pattern_response","true","f","pattern_71","2027","true","45","","","","","","","","","","","","","","","","","","",""
"","","","","","html-keyboard-response","120","475764","0.0-2.0-7.0-0.10","5c31847f10677f0001ddc781","A3","batch1","","null","<p class=block-text>Trial 50 out of 78</p>","null","pattern_show_trial_num","","","","","","","","","","","","","","","","","","","","","","","","",""
"","","","","","image-keyboard-response","121","482970","0.0-2.0-7.0-1.10","5c31847f10677f0001ddc781","A3","batch1","","7204","stim/no_52_1.png","j","pattern_response","true","j","pattern_32","7204","true","46","","","","","","","","","","","","","","","","","","",""
"","","","","","html-keyboard-response","122","484281","0.0-2.0-7.0-0.11","5c31847f10677f0001ddc781","A3","batch1","","null","<p class=block-text>Trial 51 out of 78</p>","null","pattern_show_trial_num","","","","","","","","","","","","","","","","","","","","","","","","",""
"","","","","","image-keyboard-response","123","488499","0.0-2.0-7.0-1.11","5c31847f10677f0001ddc781","A3","batch1","","4215","stim/no_29_1_b.png","j","pattern_response","true","j","pattern_12","4215","true","47","","","","","","","","","","","","","","","","","","",""
"","","","","","html-keyboard-response","124","489804","0.0-2.0-7.0-0.12","5c31847f10677f0001ddc781","A3","batch1","","null","<p class=block-text>Trial 52 out of 78</p>","null","pattern_show_trial_num","","","","","","","","","","","","","","","","","","","","","","","","",""
"","","","","","image-keyboard-response","125","500999","0.0-2.0-7.0-1.12","5c31847f10677f0001ddc781","A3","batch1","","11190","stim/no_65_1_b.png","j","pattern_response","true","j","pattern_38","11190","true","48","","","","","","","","","","","","","","","","","","",""
"","","","","","html-keyboard-response","126","502301","0.0-2.0-7.0-0.13","5c31847f10677f0001ddc781","A3","batch1","","null","<p class=block-text>Trial 53 out of 78</p>","null","pattern_show_trial_num","","","","","","","","","","","","","","","","","","","","","","","","",""
"","","","","","image-keyboard-response","127","511788","0.0-2.0-7.0-1.13","5c31847f10677f0001ddc781","A3","batch1","","9466","stim/no_48_1_w.png","j","pattern_response","true","j","pattern_28","9466","true","49","","","","","","","","","","","","","","","","","","",""
"","","","","","html-keyboard-response","128","513093","0.0-2.0-7.0-0.14","5c31847f10677f0001ddc781","A3","batch1","","null","<p class=block-text>Trial 54 out of 78</p>","null","pattern_show_trial_num","","","","","","","","","","","","","","","","","","","","","","","","",""
"","","","","","image-keyboard-response","129","519645","0.0-2.0-7.0-1.14","5c31847f10677f0001ddc781","A3","batch1","","6549","stim/no_46_1_b.png","j","pattern_response","true","j","pattern_26","6549","true","50","","","","","","","","","","","","","","","","","","",""
"","","","","","html-keyboard-response","130","520974","0.0-2.0-7.0-0.15","5c31847f10677f0001ddc781","A3","batch1","","null","<p class=block-text>Trial 55 out of 78</p>","null","pattern_show_trial_num","","","","","","","","","","","","","","","","","","","","","","","","",""
"","","","","","image-keyboard-response","131","524460","0.0-2.0-7.0-1.15","5c31847f10677f0001ddc781","A3","batch1","","3481","stim/yes_29_ver_w1.png","f","pattern_response","true","f","pattern_53","3481","true","51","","","","","","","","","","","","","","","","","","",""
"","","","","","html-keyboard-response","132","525763","0.0-2.0-7.0-0.16","5c31847f10677f0001ddc781","A3","batch1","","null","<p class=block-text>Trial 56 out of 78</p>","null","pattern_show_trial_num","","","","","","","","","","","","","","","","","","","","","","","","",""
"","","","","","image-keyboard-response","133","533118","0.0-2.0-7.0-1.16","5c31847f10677f0001ddc781","A3","batch1","","7352","stim/yes_37_dia_w1.png","j","pattern_response","false","f","pattern_59","7352","false","51","","","","","","","","","","","","","","","","","","",""
"","","","","","html-keyboard-response","134","534426","0.0-2.0-7.0-0.17","5c31847f10677f0001ddc781","A3","batch1","","null","<p class=block-text>Trial 57 out of 78</p>","null","pattern_show_trial_num","","","","","","","","","","","","","","","","","","","","","","","","",""
"","","","","","image-keyboard-response","135","539388","0.0-2.0-7.0-1.17","5c31847f10677f0001ddc781","A3","batch1","","4961","stim/yes_38_hor_b1_b.png","f","pattern_response","true","f","pattern_61","4961","true","52","","","","","","","","","","","","","","","","","","",""
"","","","","","html-keyboard-response","136","540708","0.0-2.0-7.0-0.18","5c31847f10677f0001ddc781","A3","batch1","","null","<p class=block-text>Trial 58 out of 78</p>","null","pattern_show_trial_num","","","","","","","","","","","","","","","","","","","","","","","","",""
"","","","","","image-keyboard-response","137","542233","0.0-2.0-7.0-1.18","5c31847f10677f0001ddc781","A3","batch1","","1522","stim/no_13_2_b.png","j","pattern_response","true","j","pattern_02","1522","true","53","","","","","","","","","","","","","","","","","","",""
"","","","","","html-keyboard-response","138","543536","0.0-2.0-7.0-0.19","5c31847f10677f0001ddc781","A3","batch1","","null","<p class=block-text>Trial 59 out of 78</p>","null","pattern_show_trial_num","","","","","","","","","","","","","","","","","","","","","","","","",""
"","","","","","image-keyboard-response","139","553193","0.0-2.0-7.0-1.19","5c31847f10677f0001ddc781","A3","batch1","","9655","stim/no_38_1_b.png","j","pattern_response","true","j","pattern_20","9655","true","54","","","","","","","","","","","","","","","","","","",""
"","","","","","html-keyboard-response","140","554503","0.0-2.0-7.0-0.20","5c31847f10677f0001ddc781","A3","batch1","","null","<p class=block-text>Trial 60 out of 78</p>","null","pattern_show_trial_num","","","","","","","","","","","","","","","","","","","","","","","","",""
"","","","","","image-keyboard-response","141","555810","0.0-2.0-7.0-1.20","5c31847f10677f0001ddc781","A3","batch1","","1304","stim/yes_28_ver_b1.png","f","pattern_response","true","f","pattern_51","1304","true","55","","","","","","","","","","","","","","","","","","",""
"","","","","","html-keyboard-response","142","557111","0.0-2.0-7.0-0.21","5c31847f10677f0001ddc781","A3","batch1","","null","<p class=block-text>Trial 61 out of 78</p>","null","pattern_show_trial_num","","","","","","","","","","","","","","","","","","","","","","","","",""
"","","","","","image-keyboard-response","143","558089","0.0-2.0-7.0-1.21","5c31847f10677f0001ddc781","A3","batch1","","975","stim/yes_35_dia_b1.png","f","pattern_response","true","f","pattern_57","975","true","56","","","","","","","","","","","","","","","","","","",""
"","","","","","html-keyboard-response","144","559398","0.0-2.0-7.0-0.22","5c31847f10677f0001ddc781","A3","batch1","","null","<p class=block-text>Trial 62 out of 78</p>","null","pattern_show_trial_num","","","","","","","","","","","","","","","","","","","","","","","","",""
"","","","","","image-keyboard-response","145","567346","0.0-2.0-7.0-1.22","5c31847f10677f0001ddc781","A3","batch1","","7946","stim/no_50_1.png","j","pattern_response","true","j","pattern_30","7946","true","57","","","","","","","","","","","","","","","","","","",""
"","","","","","html-keyboard-response","146","568657","0.0-2.0-7.0-0.23","5c31847f10677f0001ddc781","A3","batch1","","null","<p class=block-text>Trial 63 out of 78</p>","null","pattern_show_trial_num","","","","","","","","","","","","","","","","","","","","","","","","",""
"","","","","","image-keyboard-response","147","569873","0.0-2.0-7.0-1.23","5c31847f10677f0001ddc781","A3","batch1","","1214","stim/no_17_1_w.png","j","pattern_response","true","j","pattern_04","1214","true","58","","","","","","","","","","","","","","","","","","",""
"","","","","","html-keyboard-response","148","571193","0.0-2.0-7.0-0.24","5c31847f10677f0001ddc781","A3","batch1","","null","<p class=block-text>Trial 64 out of 78</p>","null","pattern_show_trial_num","","","","","","","","","","","","","","","","","","","","","","","","",""
"","","","","","image-keyboard-response","149","572585","0.0-2.0-7.0-1.24","5c31847f10677f0001ddc781","A3","batch1","","1391","stim/yes_60_ver_b1_b.png","f","pattern_response","true","f","pattern_77","1391","true","59","","","","","","","","","","","","","","","","","","",""
"","","","","","html-keyboard-response","150","573897","0.0-2.0-7.0-0.25","5c31847f10677f0001ddc781","A3","batch1","","null","<p class=block-text>Trial 65 out of 78</p>","null","pattern_show_trial_num","","","","","","","","","","","","","","","","","","","","","","","","",""
"","","","","","image-keyboard-response","151","575017","0.0-2.0-7.0-1.25","5c31847f10677f0001ddc781","A3","batch1","","1116","stim/yes_17_dia_w1.png","f","pattern_response","true","f","pattern_45","1116","true","60","","","","","","","","","","","","","","","","","","",""
"","","","","","html-keyboard-response","152","576343","0.0-2.0-7.0-0.26","5c31847f10677f0001ddc781","A3","batch1","","null","<p class=block-text>Trial 66 out of 78</p>","null","pattern_show_trial_num","","","","","","","","","","","","","","","","","","","","","","","","",""
"","","","","","image-keyboard-response","153","580112","0.0-2.0-7.0-1.26","5c31847f10677f0001ddc781","A3","batch1","","3766","stim/yes_67_hor_b1.png","f","pattern_response","true","f","pattern_79","3766","true","61","","","","","","","","","","","","","","","","","","",""
"","","","","","html-keyboard-response","154","581426","0.0-2.0-7.0-0.27","5c31847f10677f0001ddc781","A3","batch1","","null","<p class=block-text>Trial 67 out of 78</p>","null","pattern_show_trial_num","","","","","","","","","","","","","","","","","","","","","","","","",""
"","","","","","image-keyboard-response","155","582910","0.0-2.0-7.0-1.27","5c31847f10677f0001ddc781","A3","batch1","","1482","stim/yes_52_ver_w1.png","f","pattern_response","true","f","pattern_73","1482","true","62","","","","","","","","","","","","","","","","","","",""
"","","","","","html-keyboard-response","156","584221","0.0-2.0-7.0-0.28","5c31847f10677f0001ddc781","A3","batch1","","null","<p class=block-text>Trial 68 out of 78</p>","null","pattern_show_trial_num","","","","","","","","","","","","","","","","","","","","","","","","",""
"","","","","","image-keyboard-response","157","585426","0.0-2.0-7.0-1.28","5c31847f10677f0001ddc781","A3","batch1","","1204","stim/yes_40_dia_b1_b.png","f","pattern_response","true","f","pattern_63","1204","true","63","","","","","","","","","","","","","","","","","","",""
"","","","","","html-keyboard-response","158","586742","0.0-2.0-7.0-0.29","5c31847f10677f0001ddc781","A3","batch1","","null","<p class=block-text>Trial 69 out of 78</p>","null","pattern_show_trial_num","","","","","","","","","","","","","","","","","","","","","","","","",""
"","","","","","image-keyboard-response","159","587507","0.0-2.0-7.0-1.29","5c31847f10677f0001ddc781","A3","batch1","","763","stim/yes_55_hor_w1_w.png","f","pattern_response","true","f","pattern_75","763","true","64","","","","","","","","","","","","","","","","","","",""
"","","","","","html-keyboard-response","160","588830","0.0-2.0-7.0-0.30","5c31847f10677f0001ddc781","A3","batch1","","null","<p class=block-text>Trial 70 out of 78</p>","null","pattern_show_trial_num","","","","","","","","","","","","","","","","","","","","","","","","",""
"","","","","","image-keyboard-response","161","592341","0.0-2.0-7.0-1.30","5c31847f10677f0001ddc781","A3","batch1","","3508","stim/yes_31_hor_b1.png","f","pattern_response","true","f","pattern_55","3508","true","65","","","","","","","","","","","","","","","","","","",""
"","","","","","html-keyboard-response","162","593649","0.0-2.0-7.0-0.31","5c31847f10677f0001ddc781","A3","batch1","","null","<p class=block-text>Trial 71 out of 78</p>","null","pattern_show_trial_num","","","","","","","","","","","","","","","","","","","","","","","","",""
"","","","","","image-keyboard-response","163","598135","0.0-2.0-7.0-1.31","5c31847f10677f0001ddc781","A3","batch1","","4484","stim/yes_48_dia_w1_w.png","j","pattern_response","false","f","pattern_69","4484","false","65","","","","","","","","","","","","","","","","","","",""
"","","","","","html-keyboard-response","164","599446","0.0-2.0-7.0-0.32","5c31847f10677f0001ddc781","A3","batch1","","null","<p class=block-text>Trial 72 out of 78</p>","null","pattern_show_trial_num","","","","","","","","","","","","","","","","","","","","","","","","",""
"","","","","","image-keyboard-response","165","601585","0.0-2.0-7.0-1.32","5c31847f10677f0001ddc781","A3","batch1","","2136","stim/no_23_1.png","j","pattern_response","true","j","pattern_08","2136","true","66","","","","","","","","","","","","","","","","","","",""
"","","","","","html-keyboard-response","166","602903","0.0-2.0-7.0-0.33","5c31847f10677f0001ddc781","A3","batch1","","null","<p class=block-text>Trial 73 out of 78</p>","null","pattern_show_trial_num","","","","","","","","","","","","","","","","","","","","","","","","",""
"","","","","","image-keyboard-response","167","604074","0.0-2.0-7.0-1.33","5c31847f10677f0001ddc781","A3","batch1","","1169","stim/yes_45_hor_b2_b.png","f","pattern_response","true","f","pattern_67","1169","true","67","","","","","","","","","","","","","","","","","","",""
"","","","","","html-keyboard-response","168","605382","0.0-2.0-7.0-0.34","5c31847f10677f0001ddc781","A3","batch1","","null","<p class=block-text>Trial 74 out of 78</p>","null","pattern_show_trial_num","","","","","","","","","","","","","","","","","","","","","","","","",""
"","","","","","image-keyboard-response","169","614912","0.0-2.0-7.0-1.34","5c31847f10677f0001ddc781","A3","batch1","","9528","stim/no_36_2_w.png","j","pattern_response","true","j","pattern_18","9528","true","68","","","","","","","","","","","","","","","","","","",""
"","","","","","html-keyboard-response","170","616234","0.0-2.0-7.0-0.35","5c31847f10677f0001ddc781","A3","batch1","","null","<p class=block-text>Trial 75 out of 78</p>","null","pattern_show_trial_num","","","","","","","","","","","","","","","","","","","","","","","","",""
"","","","","","image-keyboard-response","171","616912","0.0-2.0-7.0-1.35","5c31847f10677f0001ddc781","A3","batch1","","676","stim/yes_22_ver_w1.png","f","pattern_response","true","f","pattern_47","676","true","69","","","","","","","","","","","","","","","","","","",""
"","","","","","html-keyboard-response","172","618227","0.0-2.0-7.0-0.36","5c31847f10677f0001ddc781","A3","batch1","","null","<p class=block-text>Trial 76 out of 78</p>","null","pattern_show_trial_num","","","","","","","","","","","","","","","","","","","","","","","","",""
"","","","","","image-keyboard-response","173","622599","0.0-2.0-7.0-1.36","5c31847f10677f0001ddc781","A3","batch1","","4367","stim/no_42_1_w.png","j","pattern_response","true","j","pattern_22","4367","true","70","","","","","","","","","","","","","","","","","","",""
"","","","","","html-keyboard-response","174","623923","0.0-2.0-7.0-0.37","5c31847f10677f0001ddc781","A3","batch1","","null","<p class=block-text>Trial 77 out of 78</p>","null","pattern_show_trial_num","","","","","","","","","","","","","","","","","","","","","","","","",""
"","","","","","image-keyboard-response","175","624474","0.0-2.0-7.0-1.37","5c31847f10677f0001ddc781","A3","batch1","","548","stim/yes_14_hor_b1_w.png","f","pattern_response","true","f","pattern_43","548","true","71","","","","","","","","","","","","","","","","","","",""
"","","","","","html-keyboard-response","176","625787","0.0-2.0-7.0-0.38","5c31847f10677f0001ddc781","A3","batch1","","null","<p class=block-text>Trial 78 out of 78</p>","null","pattern_show_trial_num","","","","","","","","","","","","","","","","","","","","","","","","",""
"","","","","","image-keyboard-response","177","632779","0.0-2.0-7.0-1.38","5c31847f10677f0001ddc781","A3","batch1","","6988","stim/no_55_1_w.png","j","pattern_response","true","j","pattern_34","6988","true","72","","","","","","","","","","","","","","","","","","",""
"","","","","","html-button-response","178","638782","0.0-2.0-8.0","5c31847f10677f0001ddc781","A3","batch1","","5498","<p class = block-text>This concludes the 4-in-a-row detection game.Thank you for your responses!<br>
            You responded correctly on 92% of the trials.<br>
            When you are ready, press ""Continue"" button to continue </p>","0","","","","","","","","","","","","","","","","","","","","","","","","","",""
"true","","","","","fullscreen","179","643902","0.0-3.0-0.0","5c31847f10677f0001ddc781","A3","batch1","","","","","spm_fullscreen","","","","","","","","","","","","","","","","","","","","","","","","",""
"","","","","","html-button-response","180","649832","0.0-3.0-1.0","5c31847f10677f0001ddc781","A3","batch1","","5927","<p class = block-text><b>Instructions</b> <br>This is a widely used intelligence test in research. <br>In this test, a figure with a missing piece will be presented.<br>Below the figure are alternative pieces to complete the figure, only one of which is correct.<br> Different figures might involve different principles for obtaining the missing piece<br>Your job is to select the most logical piece to complete the figure.</p>","0","","","","","","","","","","","","","","","","","","","","","","","","","",""
"","","","","","html-keyboard-response","181","650635","0.0-3.0-2.0-0.0","5c31847f10677f0001ddc781","A3","batch1","","null","<p class=block-text>Trial 1 out of 60</p>","null","spm_show_trial_num","","","","","","","","","","","","","","","","","","","","","","","","",""
"","","","","","image-button-response","182","655979","0.0-3.0-2.0-1.0","5c31847f10677f0001ddc781","A3","batch1","","5336","img/question_1_1.jpeg","1","spm_respsonse","0","4","mat_01","","","","","","0","5336","","","","","","","","","","","","","","",""
"","","","","","html-keyboard-response","183","657038","0.0-3.0-2.0-0.1","5c31847f10677f0001ddc781","A3","batch1","","null","<p class=block-text>Trial 2 out of 60</p>","null","spm_show_trial_num","","","","","","","","","","","","","","","","","","","","","","","","",""
"","","","","","image-button-response","184","659599","0.0-3.0-2.0-1.1","5c31847f10677f0001ddc781","A3","batch1","","2555","img/question_1_2.jpeg","4","spm_respsonse","1","5","mat_02","","","","","","1","2555","","","","","","","","","","","","","","",""
"","","","","","html-keyboard-response","185","660667","0.0-3.0-2.0-0.2","5c31847f10677f0001ddc781","A3","batch1","","null","<p class=block-text>Trial 3 out of 60</p>","null","spm_show_trial_num","","","","","","","","","","","","","","","","","","","","","","","","",""
"","","","","","image-button-response","186","662880","0.0-3.0-2.0-1.2","5c31847f10677f0001ddc781","A3","batch1","","2207","img/question_1_3.jpeg","0","spm_respsonse","1","1","mat_03","","","","","","1","2207","","","","","","","","","","","","","","",""
"","","","","","html-keyboard-response","187","663955","0.0-3.0-2.0-0.3","5c31847f10677f0001ddc781","A3","batch1","","null","<p class=block-text>Trial 4 out of 60</p>","null","spm_show_trial_num","","","","","","","","","","","","","","","","","","","","","","","","",""
"","","","","","image-button-response","188","671114","0.0-3.0-2.0-1.3","5c31847f10677f0001ddc781","A3","batch1","","7153","img/question_1_4.jpeg","1","spm_respsonse","1","2","mat_04","","","","","","1","7153","","","","","","","","","","","","","","",""
"","","","","","html-keyboard-response","189","672180","0.0-3.0-2.0-0.4","5c31847f10677f0001ddc781","A3","batch1","","null","<p class=block-text>Trial 5 out of 60</p>","null","spm_show_trial_num","","","","","","","","","","","","","","","","","","","","","","","","",""
"","","","","","image-button-response","190","675567","0.0-3.0-2.0-1.4","5c31847f10677f0001ddc781","A3","batch1","","3381","img/question_1_5.jpeg","5","spm_respsonse","1","6","mat_05","","","","","","1","3381","","","","","","","","","","","","","","",""
"","","","","","html-keyboard-response","191","676636","0.0-3.0-2.0-0.5","5c31847f10677f0001ddc781","A3","batch1","","null","<p class=block-text>Trial 6 out of 60</p>","null","spm_show_trial_num","","","","","","","","","","","","","","","","","","","","","","","","",""
"","","","","","image-button-response","192","679728","0.0-3.0-2.0-1.5","5c31847f10677f0001ddc781","A3","batch1","","3089","img/question_1_6.jpeg","2","spm_respsonse","1","3","mat_06","","","","","","1","3089","","","","","","","","","","","","","","",""
"","","","","","html-keyboard-response","193","680793","0.0-3.0-2.0-0.6","5c31847f10677f0001ddc781","A3","batch1","","null","<p class=block-text>Trial 7 out of 60</p>","null","spm_show_trial_num","","","","","","","","","","","","","","","","","","","","","","","","",""
"","","","","","image-button-response","194","687368","0.0-3.0-2.0-1.6","5c31847f10677f0001ddc781","A3","batch1","","6569","img/question_1_7.jpeg","5","spm_respsonse","1","6","mat_07","","","","","","1","6569","","","","","","","","","","","","","","",""
"","","","","","html-keyboard-response","195","688428","0.0-3.0-2.0-0.7","5c31847f10677f0001ddc781","A3","batch1","","null","<p class=block-text>Trial 8 out of 60</p>","null","spm_show_trial_num","","","","","","","","","","","","","","","","","","","","","","","","",""
"","","","","","image-button-response","196","694830","0.0-3.0-2.0-1.7","5c31847f10677f0001ddc781","A3","batch1","","6398","img/question_1_8.jpeg","1","spm_respsonse","1","2","mat_08","","","","","","1","6398","","","","","","","","","","","","","","",""
"","","","","","html-keyboard-response","197","695897","0.0-3.0-2.0-0.8","5c31847f10677f0001ddc781","A3","batch1","","null","<p class=block-text>Trial 9 out of 60</p>","null","spm_show_trial_num","","","","","","","","","","","","","","","","","","","","","","","","",""
"","","","","","image-button-response","198","699872","0.0-3.0-2.0-1.8","5c31847f10677f0001ddc781","A3","batch1","","3967","img/question_1_9.jpeg","0","spm_respsonse","1","1","mat_09","","","","","","1","3967","","","","","","","","","","","","","","",""
"","","","","","html-keyboard-response","199","700943","0.0-3.0-2.0-0.9","5c31847f10677f0001ddc781","A3","batch1","","null","<p class=block-text>Trial 10 out of 60</p>","null","spm_show_trial_num","","","","","","","","","","","","","","","","","","","","","","","","",""
"","","","","","image-button-response","200","713422","0.0-3.0-2.0-1.9","5c31847f10677f0001ddc781","A3","batch1","","12474","img/question_1_10.jpeg","2","spm_respsonse","1","3","mat_10","","","","","","1","12474","","","","","","","","","","","","","","",""
"","","","","","html-keyboard-response","201","714492","0.0-3.0-2.0-0.10","5c31847f10677f0001ddc781","A3","batch1","","null","<p class=block-text>Trial 11 out of 60</p>","null","spm_show_trial_num","","","","","","","","","","","","","","","","","","","","","","","","",""
"","","","","","image-button-response","202","721744","0.0-3.0-2.0-1.10","5c31847f10677f0001ddc781","A3","batch1","","7247","img/question_1_11.jpeg","3","spm_respsonse","1","4","mat_11","","","","","","1","7247","","","","","","","","","","","","","","",""
"","","","","","html-keyboard-response","203","722809","0.0-3.0-2.0-0.11","5c31847f10677f0001ddc781","A3","batch1","","null","<p class=block-text>Trial 12 out of 60</p>","null","spm_show_trial_num","","","","","","","","","","","","","","","","","","","","","","","","",""
"","","","","","image-button-response","204","746967","0.0-3.0-2.0-1.11","5c31847f10677f0001ddc781","A3","batch1","","24150","img/question_1_12.jpeg","4","spm_respsonse","1","5","mat_12","","","","","","1","24150","","","","","","","","","","","","","","",""
"","","","","","html-keyboard-response","205","748043","0.0-3.0-2.0-0.12","5c31847f10677f0001ddc781","A3","batch1","","null","<p class=block-text>Trial 13 out of 60</p>","null","spm_show_trial_num","","","","","","","","","","","","","","","","","","","","","","","","",""
"","","","","","image-button-response","206","750702","0.0-3.0-2.0-1.12","5c31847f10677f0001ddc781","A3","batch1","","2654","img/question_2_1.jpeg","1","spm_respsonse","1","2","mat_13","","","","","","1","2654","","","","","","","","","","","","","","",""
"","","","","","html-keyboard-response","207","751769","0.0-3.0-2.0-0.13","5c31847f10677f0001ddc781","A3","batch1","","null","<p class=block-text>Trial 14 out of 60</p>","null","spm_show_trial_num","","","","","","","","","","","","","","","","","","","","","","","","",""
"","","","","","image-button-response","208","757394","0.0-3.0-2.0-1.13","5c31847f10677f0001ddc781","A3","batch1","","5619","img/question_2_2.jpeg","5","spm_respsonse","1","6","mat_14","","","","","","1","5619","","","","","","","","","","","","","","",""
"","","","","","html-keyboard-response","209","758463","0.0-3.0-2.0-0.14","5c31847f10677f0001ddc781","A3","batch1","","null","<p class=block-text>Trial 15 out of 60</p>","null","spm_show_trial_num","","","","","","","","","","","","","","","","","","","","","","","","",""
"","","","","","image-button-response","210","763386","0.0-3.0-2.0-1.14","5c31847f10677f0001ddc781","A3","batch1","","4918","img/question_2_3.jpeg","0","spm_respsonse","1","1","mat_15","","","","","","1","4918","","","","","","","","","","","","","","",""
"","","","","","html-keyboard-response","211","764464","0.0-3.0-2.0-0.15","5c31847f10677f0001ddc781","A3","batch1","","null","<p class=block-text>Trial 16 out of 60</p>","null","spm_show_trial_num","","","","","","","","","","","","","","","","","","","","","","","","",""
"","","","","","image-button-response","212","768208","0.0-3.0-2.0-1.15","5c31847f10677f0001ddc781","A3","batch1","","3740","img/question_2_4.jpeg","1","spm_respsonse","1","2","mat_16","","","","","","1","3740","","","","","","","","","","","","","","",""
"","","","","","html-keyboard-response","213","769265","0.0-3.0-2.0-0.16","5c31847f10677f0001ddc781","A3","batch1","","null","<p class=block-text>Trial 17 out of 60</p>","null","spm_show_trial_num","","","","","","","","","","","","","","","","","","","","","","","","",""
"","","","","","image-button-response","214","772919","0.0-3.0-2.0-1.16","5c31847f10677f0001ddc781","A3","batch1","","3649","img/question_2_5.jpeg","0","spm_respsonse","1","1","mat_17","","","","","","1","3649","","","","","","","","","","","","","","",""
"","","","","","html-keyboard-response","215","773984","0.0-3.0-2.0-0.17","5c31847f10677f0001ddc781","A3","batch1","","null","<p class=block-text>Trial 18 out of 60</p>","null","spm_show_trial_num","","","","","","","","","","","","","","","","","","","","","","","","",""
"","","","","","image-button-response","216","793240","0.0-3.0-2.0-1.17","5c31847f10677f0001ddc781","A3","batch1","","19250","img/question_2_6.jpeg","2","spm_respsonse","1","3","mat_18","","","","","","1","19250","","","","","","","","","","","","","","",""
"","","","","","html-keyboard-response","217","794299","0.0-3.0-2.0-0.18","5c31847f10677f0001ddc781","A3","batch1","","null","<p class=block-text>Trial 19 out of 60</p>","null","spm_show_trial_num","","","","","","","","","","","","","","","","","","","","","","","","",""
"","","","","","image-button-response","218","809495","0.0-3.0-2.0-1.18","5c31847f10677f0001ddc781","A3","batch1","","15193","img/question_2_7.jpeg","4","spm_respsonse","1","5","mat_19","","","","","","1","15193","","","","","","","","","","","","","","",""
"","","","","","html-keyboard-response","219","810568","0.0-3.0-2.0-0.19","5c31847f10677f0001ddc781","A3","batch1","","null","<p class=block-text>Trial 20 out of 60</p>","null","spm_show_trial_num","","","","","","","","","","","","","","","","","","","","","","","","",""
"","","","","","image-button-response","220","823097","0.0-3.0-2.0-1.19","5c31847f10677f0001ddc781","A3","batch1","","12525","img/question_2_8.jpeg","5","spm_respsonse","1","6","mat_20","","","","","","1","12525","","","","","","","","","","","","","","",""
"","","","","","html-keyboard-response","221","824169","0.0-3.0-2.0-0.20","5c31847f10677f0001ddc781","A3","batch1","","null","<p class=block-text>Trial 21 out of 60</p>","null","spm_show_trial_num","","","","","","","","","","","","","","","","","","","","","","","","",""
"","","","","","image-button-response","222","834068","0.0-3.0-2.0-1.20","5c31847f10677f0001ddc781","A3","batch1","","9893","img/question_2_9.jpeg","3","spm_respsonse","1","4","mat_21","","","","","","1","9893","","","","","","","","","","","","","","",""
"","","","","","html-keyboard-response","223","835129","0.0-3.0-2.0-0.21","5c31847f10677f0001ddc781","A3","batch1","","null","<p class=block-text>Trial 22 out of 60</p>","null","spm_show_trial_num","","","","","","","","","","","","","","","","","","","","","","","","",""
"","","","","","image-button-response","224","843547","0.0-3.0-2.0-1.21","5c31847f10677f0001ddc781","A3","batch1","","8411","img/question_2_10.jpeg","2","spm_respsonse","1","3","mat_22","","","","","","1","8411","","","","","","","","","","","","","","",""
"","","","","","html-keyboard-response","225","844616","0.0-3.0-2.0-0.22","5c31847f10677f0001ddc781","A3","batch1","","null","<p class=block-text>Trial 23 out of 60</p>","null","spm_show_trial_num","","","","","","","","","","","","","","","","","","","","","","","","",""
"","","","","","image-button-response","226","850523","0.0-3.0-2.0-1.22","5c31847f10677f0001ddc781","A3","batch1","","5900","img/question_2_11.jpeg","3","spm_respsonse","1","4","mat_23","","","","","","1","5900","","","","","","","","","","","","","","",""
"","","","","","html-keyboard-response","227","851594","0.0-3.0-2.0-0.23","5c31847f10677f0001ddc781","A3","batch1","","null","<p class=block-text>Trial 24 out of 60</p>","null","spm_show_trial_num","","","","","","","","","","","","","","","","","","","","","","","","",""
"","","","","","image-button-response","228","864337","0.0-3.0-2.0-1.23","5c31847f10677f0001ddc781","A3","batch1","","12737","img/question_2_12.jpeg","1","spm_respsonse","0","5","mat_24","","","","","","0","12737","","","","","","","","","","","","","","",""
"","","","","","html-button-response","229","866331","0.0-3.0-3.0","5c31847f10677f0001ddc781","A3","batch1","","1736","<p class = block-text>Attention check: Please choose 1<br></p>","0","attention_check","true","","","","","","","","","","","","","","","","","","","","","","","",""
"","","","","","html-keyboard-response","230","867133","0.0-3.0-4.0-0.0","5c31847f10677f0001ddc781","A3","batch1","","null","<p class=block-text>Trial 25 out of 60</p>","null","spm_show_trial_num","","","","","","","","","","","","","","","","","","","","","","","","",""
"","","","","","image-button-response","231","882270","0.0-3.0-4.0-1.0","5c31847f10677f0001ddc781","A3","batch1","","15131","img/question_3_1.jpeg","7","spm_respsonse","1","8","mat_25","","","","","","1","15131","","","","","","","","","","","","","","",""
"","","","","","html-keyboard-response","232","883336","0.0-3.0-4.0-0.1","5c31847f10677f0001ddc781","A3","batch1","","null","<p class=block-text>Trial 26 out of 60</p>","null","spm_show_trial_num","","","","","","","","","","","","","","","","","","","","","","","","",""
"","","","","","image-button-response","233","886576","0.0-3.0-4.0-1.1","5c31847f10677f0001ddc781","A3","batch1","","3235","img/question_3_2.jpeg","1","spm_respsonse","1","2","mat_26","","","","","","1","3235","","","","","","","","","","","","","","",""
"","","","","","html-keyboard-response","234","887639","0.0-3.0-4.0-0.2","5c31847f10677f0001ddc781","A3","batch1","","null","<p class=block-text>Trial 27 out of 60</p>","null","spm_show_trial_num","","","","","","","","","","","","","","","","","","","","","","","","",""
"","","","","","image-button-response","235","893856","0.0-3.0-4.0-1.2","5c31847f10677f0001ddc781","A3","batch1","","6211","img/question_3_3.jpeg","2","spm_respsonse","1","3","mat_27","","","","","","1","6211","","","","","","","","","","","","","","",""
"","","","","","html-keyboard-response","236","894910","0.0-3.0-4.0-0.3","5c31847f10677f0001ddc781","A3","batch1","","null","<p class=block-text>Trial 28 out of 60</p>","null","spm_show_trial_num","","","","","","","","","","","","","","","","","","","","","","","","",""
"","","","","","image-button-response","237","921086","0.0-3.0-4.0-1.3","5c31847f10677f0001ddc781","A3","batch1","","26171","img/question_3_4.jpeg","3","spm_respsonse","0","8","mat_28","","","","","","0","26171","","","","","","","","","","","","","","",""
"","","","","","html-keyboard-response","238","922148","0.0-3.0-4.0-0.4","5c31847f10677f0001ddc781","A3","batch1","","null","<p class=block-text>Trial 29 out of 60</p>","null","spm_show_trial_num","","","","","","","","","","","","","","","","","","","","","","","","",""
"","","","","","image-button-response","239","935433","0.0-3.0-4.0-1.4","5c31847f10677f0001ddc781","A3","batch1","","13280","img/question_3_5.jpeg","6","spm_respsonse","1","7","mat_29","","","","","","1","13280","","","","","","","","","","","","","","",""
"","","","","","html-keyboard-response","240","936495","0.0-3.0-4.0-0.5","5c31847f10677f0001ddc781","A3","batch1","","null","<p class=block-text>Trial 30 out of 60</p>","null","spm_show_trial_num","","","","","","","","","","","","","","","","","","","","","","","","",""
"","","","","","image-button-response","241","959701","0.0-3.0-4.0-1.5","5c31847f10677f0001ddc781","A3","batch1","","23202","img/question_3_6.jpeg","1","spm_respsonse","0","4","mat_30","","","","","","0","23202","","","","","","","","","","","","","","",""
"","","","","","html-keyboard-response","242","960753","0.0-3.0-4.0-0.6","5c31847f10677f0001ddc781","A3","batch1","","null","<p class=block-text>Trial 31 out of 60</p>","null","spm_show_trial_num","","","","","","","","","","","","","","","","","","","","","","","","",""
"","","","","","image-button-response","243","978736","0.0-3.0-4.0-1.6","5c31847f10677f0001ddc781","A3","batch1","","17974","img/question_3_7.jpeg","4","spm_respsonse","1","5","mat_31","","","","","","1","17974","","","","","","","","","","","","","","",""
"","","","","","html-keyboard-response","244","979805","0.0-3.0-4.0-0.7","5c31847f10677f0001ddc781","A3","batch1","","null","<p class=block-text>Trial 32 out of 60</p>","null","spm_show_trial_num","","","","","","","","","","","","","","","","","","","","","","","","",""
"","","","","","image-button-response","245","1008323","0.0-3.0-4.0-1.7","5c31847f10677f0001ddc781","A3","batch1","","28510","img/question_3_8.jpeg","6","spm_respsonse","0","1","mat_32","","","","","","0","28510","","","","","","","","","","","","","","",""
"","","","","","html-keyboard-response","246","1009388","0.0-3.0-4.0-0.8","5c31847f10677f0001ddc781","A3","batch1","","null","<p class=block-text>Trial 33 out of 60</p>","null","spm_show_trial_num","","","","","","","","","","","","","","","","","","","","","","","","",""
"","","","","","image-button-response","247","1025315","0.0-3.0-4.0-1.8","5c31847f10677f0001ddc781","A3","batch1","","15925","img/question_3_9.jpeg","6","spm_respsonse","1","7","mat_33","","","","","","1","15925","","","","","","","","","","","","","","",""
"","","","","","html-keyboard-response","248","1026381","0.0-3.0-4.0-0.9","5c31847f10677f0001ddc781","A3","batch1","","null","<p class=block-text>Trial 34 out of 60</p>","null","spm_show_trial_num","","","","","","","","","","","","","","","","","","","","","","","","",""
"","","","","","image-button-response","249","1050388","0.0-3.0-4.0-1.9","5c31847f10677f0001ddc781","A3","batch1","","24004","img/question_3_10.jpeg","7","spm_respsonse","0","6","mat_34","","","","","","0","24004","","","","","","","","","","","","","","",""
"","","","","","html-keyboard-response","250","1051458","0.0-3.0-4.0-0.10","5c31847f10677f0001ddc781","A3","batch1","","null","<p class=block-text>Trial 35 out of 60</p>","null","spm_show_trial_num","","","","","","","","","","","","","","","","","","","","","","","","",""
"","","","","","image-button-response","251","1067157","0.0-3.0-4.0-1.10","5c31847f10677f0001ddc781","A3","batch1","","15694","img/question_3_11.jpeg","5","spm_respsonse","0","1","mat_35","","","","","","0","15694","","","","","","","","","","","","","","",""
"","","","","","html-keyboard-response","252","1068221","0.0-3.0-4.0-0.11","5c31847f10677f0001ddc781","A3","batch1","","null","<p class=block-text>Trial 36 out of 60</p>","null","spm_show_trial_num","","","","","","","","","","","","","","","","","","","","","","","","",""
"","","","","","image-button-response","253","1090959","0.0-3.0-4.0-1.11","5c31847f10677f0001ddc781","A3","batch1","","22730","img/question_3_12.jpeg","4","spm_respsonse","0","2","mat_36","","","","","","0","22730","","","","","","","","","","","","","","",""
"","","","","","html-keyboard-response","254","1092021","0.0-3.0-4.0-0.12","5c31847f10677f0001ddc781","A3","batch1","","null","<p class=block-text>Trial 37 out of 60</p>","null","spm_show_trial_num","","","","","","","","","","","","","","","","","","","","","","","","",""
"","","","","","image-button-response","255","1109832","0.0-3.0-4.0-1.12","5c31847f10677f0001ddc781","A3","batch1","","17803","img/question_4_1.jpeg","2","spm_respsonse","1","3","mat_37","","","","","","1","17803","","","","","","","","","","","","","","",""
"","","","","","html-keyboard-response","256","1110905","0.0-3.0-4.0-0.13","5c31847f10677f0001ddc781","A3","batch1","","null","<p class=block-text>Trial 38 out of 60</p>","null","spm_show_trial_num","","","","","","","","","","","","","","","","","","","","","","","","",""
"","","","","","image-button-response","257","1122732","0.0-3.0-4.0-1.13","5c31847f10677f0001ddc781","A3","batch1","","11820","img/question_4_2.jpeg","3","spm_respsonse","1","4","mat_38","","","","","","1","11820","","","","","","","","","","","","","","",""
"","","","","","html-keyboard-response","258","1123792","0.0-3.0-4.0-0.14","5c31847f10677f0001ddc781","A3","batch1","","null","<p class=block-text>Trial 39 out of 60</p>","null","spm_show_trial_num","","","","","","","","","","","","","","","","","","","","","","","","",""
"","","","","","image-button-response","259","1143969","0.0-3.0-4.0-1.14","5c31847f10677f0001ddc781","A3","batch1","","20171","img/question_4_3.jpeg","2","spm_respsonse","1","3","mat_39","","","","","","1","20171","","","","","","","","","","","","","","",""
"","","","","","html-keyboard-response","260","1145033","0.0-3.0-4.0-0.15","5c31847f10677f0001ddc781","A3","batch1","","null","<p class=block-text>Trial 40 out of 60</p>","null","spm_show_trial_num","","","","","","","","","","","","","","","","","","","","","","","","",""
"","","","","","image-button-response","261","1158156","0.0-3.0-4.0-1.15","5c31847f10677f0001ddc781","A3","batch1","","13116","img/question_4_4.jpeg","6","spm_respsonse","1","7","mat_40","","","","","","1","13116","","","","","","","","","","","","","","",""
"","","","","","html-keyboard-response","262","1159217","0.0-3.0-4.0-0.16","5c31847f10677f0001ddc781","A3","batch1","","null","<p class=block-text>Trial 41 out of 60</p>","null","spm_show_trial_num","","","","","","","","","","","","","","","","","","","","","","","","",""
"","","","","","image-button-response","263","1165820","0.0-3.0-4.0-1.16","5c31847f10677f0001ddc781","A3","batch1","","6596","img/question_4_5.jpeg","7","spm_respsonse","1","8","mat_41","","","","","","1","6596","","","","","","","","","","","","","","",""
"","","","","","html-keyboard-response","264","1166881","0.0-3.0-4.0-0.17","5c31847f10677f0001ddc781","A3","batch1","","null","<p class=block-text>Trial 42 out of 60</p>","null","spm_show_trial_num","","","","","","","","","","","","","","","","","","","","","","","","",""
"","","","","","image-button-response","265","1185710","0.0-3.0-4.0-1.17","5c31847f10677f0001ddc781","A3","batch1","","18822","img/question_4_6.jpeg","5","spm_respsonse","1","6","mat_42","","","","","","1","18822","","","","","","","","","","","","","","",""
"","","","","","html-keyboard-response","266","1186771","0.0-3.0-4.0-0.18","5c31847f10677f0001ddc781","A3","batch1","","null","<p class=block-text>Trial 43 out of 60</p>","null","spm_show_trial_num","","","","","","","","","","","","","","","","","","","","","","","","",""
"","","","","","image-button-response","267","1231444","0.0-3.0-4.0-1.18","5c31847f10677f0001ddc781","A3","batch1","","44666","img/question_4_7.jpeg","6","spm_respsonse","0","5","mat_43","","","","","","0","44666","","","","","","","","","","","","","","",""
"","","","","","html-keyboard-response","268","1232509","0.0-3.0-4.0-0.19","5c31847f10677f0001ddc781","A3","batch1","","null","<p class=block-text>Trial 44 out of 60</p>","null","spm_show_trial_num","","","","","","","","","","","","","","","","","","","","","","","","",""
"","","","","","image-button-response","269","1251964","0.0-3.0-4.0-1.19","5c31847f10677f0001ddc781","A3","batch1","","19450","img/question_4_8.jpeg","3","spm_respsonse","1","4","mat_44","","","","","","1","19450","","","","","","","","","","","","","","",""
"","","","","","html-keyboard-response","270","1253022","0.0-3.0-4.0-0.20","5c31847f10677f0001ddc781","A3","batch1","","null","<p class=block-text>Trial 45 out of 60</p>","null","spm_show_trial_num","","","","","","","","","","","","","","","","","","","","","","","","",""
"","","","","","image-button-response","271","1264686","0.0-3.0-4.0-1.20","5c31847f10677f0001ddc781","A3","batch1","","11658","img/question_4_9.jpeg","6","spm_respsonse","0","1","mat_45","","","","","","0","11658","","","","","","","","","","","","","","",""
"","","","","","html-keyboard-response","272","1265753","0.0-3.0-4.0-0.21","5c31847f10677f0001ddc781","A3","batch1","","null","<p class=block-text>Trial 46 out of 60</p>","null","spm_show_trial_num","","","","","","","","","","","","","","","","","","","","","","","","",""
"","","","","","image-button-response","273","1277180","0.0-3.0-4.0-1.21","5c31847f10677f0001ddc781","A3","batch1","","11423","img/question_4_10.jpeg","7","spm_respsonse","0","2","mat_46","","","","","","0","11423","","","","","","","","","","","","","","",""
"","","","","","html-keyboard-response","274","1278251","0.0-3.0-4.0-0.22","5c31847f10677f0001ddc781","A3","batch1","","null","<p class=block-text>Trial 47 out of 60</p>","null","spm_show_trial_num","","","","","","","","","","","","","","","","","","","","","","","","",""
"","","","","","image-button-response","275","1281396","0.0-3.0-4.0-1.22","5c31847f10677f0001ddc781","A3","batch1","","3140","img/question_4_11.jpeg","4","spm_respsonse","1","5","mat_47","","","","","","1","3140","","","","","","","","","","","","","","",""
"","","","","","html-keyboard-response","276","1282454","0.0-3.0-4.0-0.23","5c31847f10677f0001ddc781","A3","batch1","","null","<p class=block-text>Trial 48 out of 60</p>","null","spm_show_trial_num","","","","","","","","","","","","","","","","","","","","","","","","",""
"","","","","","image-button-response","277","1283926","0.0-3.0-4.0-1.23","5c31847f10677f0001ddc781","A3","batch1","","1469","img/question_4_12.jpeg","2","spm_respsonse","0","6","mat_48","","","","","","0","1469","","","","","","","","","","","","","","",""
"","","","","","html-keyboard-response","278","1285001","0.0-3.0-4.0-0.24","5c31847f10677f0001ddc781","A3","batch1","","null","<p class=block-text>Trial 49 out of 60</p>","null","spm_show_trial_num","","","","","","","","","","","","","","","","","","","","","","","","",""
"","","","","","image-button-response","279","1286135","0.0-3.0-4.0-1.24","5c31847f10677f0001ddc781","A3","batch1","","1128","img/question_5_1.jpeg","4","spm_respsonse","0","7","mat_49","","","","","","0","1128","","","","","","","","","","","","","","",""
"","","","","","html-keyboard-response","280","1287202","0.0-3.0-4.0-0.25","5c31847f10677f0001ddc781","A3","batch1","","null","<p class=block-text>Trial 50 out of 60</p>","null","spm_show_trial_num","","","","","","","","","","","","","","","","","","","","","","","","",""
"","","","","","image-button-response","281","1287790","0.0-3.0-4.0-1.25","5c31847f10677f0001ddc781","A3","batch1","","582","img/question_5_2.jpeg","3","spm_respsonse","0","6","mat_50","","","","","","0","582","","","","","","","","","","","","","","",""
"","","","","","html-keyboard-response","282","1288853","0.0-3.0-4.0-0.26","5c31847f10677f0001ddc781","A3","batch1","","null","<p class=block-text>Trial 51 out of 60</p>","null","spm_show_trial_num","","","","","","","","","","","","","","","","","","","","","","","","",""
"","","","","","image-button-response","283","1289645","0.0-3.0-4.0-1.26","5c31847f10677f0001ddc781","A3","batch1","","786","img/question_5_3.jpeg","7","spm_respsonse","1","8","mat_51","","","","","","1","786","","","","","","","","","","","","","","",""
"","","","","","html-keyboard-response","284","1290701","0.0-3.0-4.0-0.27","5c31847f10677f0001ddc781","A3","batch1","","null","<p class=block-text>Trial 52 out of 60</p>","null","spm_show_trial_num","","","","","","","","","","","","","","","","","","","","","","","","",""
"","","","","","image-button-response","285","1305529","0.0-3.0-4.0-1.27","5c31847f10677f0001ddc781","A3","batch1","","14823","img/question_5_4.jpeg","7","spm_respsonse","0","2","mat_52","","","","","","0","14823","","","","","","","","","","","","","","",""
"","","","","","html-keyboard-response","286","1306599","0.0-3.0-4.0-0.28","5c31847f10677f0001ddc781","A3","batch1","","null","<p class=block-text>Trial 53 out of 60</p>","null","spm_show_trial_num","","","","","","","","","","","","","","","","","","","","","","","","",""
"","","","","","image-button-response","287","1312770","0.0-3.0-4.0-1.28","5c31847f10677f0001ddc781","A3","batch1","","6167","img/question_5_5.jpeg","6","spm_respsonse","0","1","mat_53","","","","","","0","6167","","","","","","","","","","","","","","",""
"","","","","","html-keyboard-response","288","1313828","0.0-3.0-4.0-0.29","5c31847f10677f0001ddc781","A3","batch1","","null","<p class=block-text>Trial 54 out of 60</p>","null","spm_show_trial_num","","","","","","","","","","","","","","","","","","","","","","","","",""
"","","","","","image-button-response","289","1330564","0.0-3.0-4.0-1.29","5c31847f10677f0001ddc781","A3","batch1","","16730","img/question_5_6.jpeg","6","spm_respsonse","0","5","mat_54","","","","","","0","16730","","","","","","","","","","","","","","",""
"","","","","","html-keyboard-response","290","1331632","0.0-3.0-4.0-0.30","5c31847f10677f0001ddc781","A3","batch1","","null","<p class=block-text>Trial 55 out of 60</p>","null","spm_show_trial_num","","","","","","","","","","","","","","","","","","","","","","","","",""
"","","","","","image-button-response","291","1337631","0.0-3.0-4.0-1.30","5c31847f10677f0001ddc781","A3","batch1","","5997","img/question_5_7.jpeg","2","spm_respsonse","0","1","mat_55","","","","","","0","5997","","","","","","","","","","","","","","",""
"","","","","","html-keyboard-response","292","1338704","0.0-3.0-4.0-0.31","5c31847f10677f0001ddc781","A3","batch1","","null","<p class=block-text>Trial 56 out of 60</p>","null","spm_show_trial_num","","","","","","","","","","","","","","","","","","","","","","","","",""
"","","","","","image-button-response","293","1363577","0.0-3.0-4.0-1.31","5c31847f10677f0001ddc781","A3","batch1","","24869","img/question_5_8.jpeg","1","spm_respsonse","0","6","mat_56","","","","","","0","24869","","","","","","","","","","","","","","",""
"","","","","","html-keyboard-response","294","1364651","0.0-3.0-4.0-0.32","5c31847f10677f0001ddc781","A3","batch1","","null","<p class=block-text>Trial 57 out of 60</p>","null","spm_show_trial_num","","","","","","","","","","","","","","","","","","","","","","","","",""
"","","","","","image-button-response","295","1394329","0.0-3.0-4.0-1.32","5c31847f10677f0001ddc781","A3","batch1","","29672","img/question_5_9.jpeg","1","spm_respsonse","0","3","mat_57","","","","","","0","29672","","","","","","","","","","","","","","",""
"","","","","","html-keyboard-response","296","1395394","0.0-3.0-4.0-0.33","5c31847f10677f0001ddc781","A3","batch1","","null","<p class=block-text>Trial 58 out of 60</p>","null","spm_show_trial_num","","","","","","","","","","","","","","","","","","","","","","","","",""
"","","","","","image-button-response","297","1406566","0.0-3.0-4.0-1.33","5c31847f10677f0001ddc781","A3","batch1","","11168","img/question_5_10.jpeg","6","spm_respsonse","0","2","mat_58","","","","","","0","11168","","","","","","","","","","","","","","",""
"","","","","","html-keyboard-response","298","1407627","0.0-3.0-4.0-0.34","5c31847f10677f0001ddc781","A3","batch1","","null","<p class=block-text>Trial 59 out of 60</p>","null","spm_show_trial_num","","","","","","","","","","","","","","","","","","","","","","","","",""
"","","","","","image-button-response","299","1414495","0.0-3.0-4.0-1.34","5c31847f10677f0001ddc781","A3","batch1","","6864","img/question_5_11.jpeg","6","spm_respsonse","0","4","mat_59","","","","","","0","6864","","","","","","","","","","","","","","",""
"","","","","","html-keyboard-response","300","1415555","0.0-3.0-4.0-0.35","5c31847f10677f0001ddc781","A3","batch1","","null","<p class=block-text>Trial 60 out of 60</p>","null","spm_show_trial_num","","","","","","","","","","","","","","","","","","","","","","","","",""
"","","","","","image-button-response","301","1420731","0.0-3.0-4.0-1.35","5c31847f10677f0001ddc781","A3","batch1","","5172","img/question_5_12.jpeg","0","spm_respsonse","0","5","mat_60","","","","","","0","5172","","","","","","","","","","","","","","",""
"","","","","","html-button-response","302","1422857","0.0-3.0-5.0","5c31847f10677f0001ddc781","A3","batch1","","1858","<p class= block-text>This concludes the Standard Progressive Matrix game. Thank you for your responses!<br> When you are ready, click the button continue</p>","0","spm_goodbye","","","","","","","","","","","","","","","","","","","","","","","","",""
"true","","","","","fullscreen","303","1424807","0.0-4.0-0.0","5c31847f10677f0001ddc781","A3","batch1","","","","","","","","","","","","","","","","","","","","","","","","","","","","","",""
"","","","","","instructions","304","1484687","0.0-4.0-1.0-0.0-0.0","5c31847f10677f0001ddc781","A3","batch1","[{""page_index"":0,""viewing_time"":8655},{""page_index"":1,""viewing_time"":5882},{""page_index"":2,""viewing_time"":4773},{""page_index"":3,""viewing_time"":14739},{""page_index"":4,""viewing_time"":14036},{""page_index"":5,""viewing_time"":9586},{""page_index"":6,""viewing_time"":2205}]","59877","","","tol-instructions","","","","","","","","","","","","","","","","","","","","","","","","",""
"","","","","","html-button-response","305","1485503","0.0-4.0-1.0-1.0-0.0","5c31847f10677f0001ddc781","A3","batch1","","814","<p class=block-text> Let's answer a few questions <br>","0","tol_enter_quiz","","","","","","","","","","","","","","","","","","","","","","","","",""
"","","","","","html-button-response","306","1490167","0.0-4.0-1.0-1.0-1.0","5c31847f10677f0001ddc781","A3","batch1","","4616","<p class = block-text>True or False: You can only move the ball on top of a peg. <br></p>","0","tol_quiz","true","","","","","","","","","","","","","","","","","","","","","","","",""
"","","","","","html-button-response","307","1491275","0.0-4.0-1.0-1.0-2.0","5c31847f10677f0001ddc781","A3","batch1","","1102","<p class = block-text>Correct! You can only move the ball on top of a peg.</p>","0","tol_quiz_feedback","","","","","","","","","","","","","","","","","","","","","","","","",""
"","","","","","html-button-response","308","1495318","0.0-4.0-1.0-1.0-3.0","5c31847f10677f0001ddc781","A3","batch1","","4040","<p class = block-text>True or False: You should try to match your board with the target board with fewest moves possible. <br></p>","0","tol_quiz","true","","","","","","","","","","","","","","","","","","","","","","","",""
"","","","","","html-button-response","309","1496246","0.0-4.0-1.0-1.0-4.0","5c31847f10677f0001ddc781","A3","batch1","","925","<p class = block-text>Correct! </p>","0","tol_quiz_feedback","","","","","","","","","","","","","","","","","","","","","","","","",""
"","","","","","html-button-response","310","1497619","0.0-4.0-2.0","5c31847f10677f0001ddc781","A3","batch1","","1368","<p class=block-text> Now that you've understood the game, let's practice a few easier examples before we start!<br> <br>","0","","","","","","","","","","","","","","","","","","","","","","","","","",""
"","","","","","single-stim-button","311","1500788","0.0-4.0-3.0-0.0","5c31847f10677f0001ddc781","A3","batch1","","3162","","","tol_practice","","","","","","","","","","","tol_peg_2","3162","3162","0","[[1,2,0],[0,0],[0]]","1","[[1,2,0],[0,0],[3]]","practice","3162","","","","","",""
"","","","","","single-stim-button","312","1502338","0.0-4.0-3.0-1.0","5c31847f10677f0001ddc781","A3","batch1","","1548","","","tol_practice","","","","","","","","","","","tol_peg_3","1548","1548","0","[[1,2,0],[0,0],[3]]","1","[[1,2,0],[0,0],[3]]","practice","1548","","","","","",""
"","","","","","poldrack-single-stim","313","1503360","0.0-4.0-4.0","5c31847f10677f0001ddc781","A3","batch1","","-1","","","tol_feedback","true","","","","","","","","","","","1000","1000","500","","","","","","-1","none","true","","0",""
"","","","","","single-stim-button","314","1511485","0.0-4.0-5.0-0.0","5c31847f10677f0001ddc781","A3","batch1","","8121","","","tol_practice","","","","","","","","","","","tol_peg_1","8121","8121","0","[[1,0,0],[3,0],[0]]","2","[[0,0,0],[3,1],[2]]","practice","8121","","","","","",""
"","","","","","single-stim-button","315","1513055","0.0-4.0-5.0-1.0","5c31847f10677f0001ddc781","A3","batch1","","1569","","","tol_practice","","","","","","","","","","","tol_peg_3","1569","1569","0","[[1,0,0],[3,0],[2]]","2","[[0,0,0],[3,1],[2]]","practice","1569","","","","","",""
"","","","","","single-stim-button","316","1513928","0.0-4.0-5.1-0.1","5c31847f10677f0001ddc781","A3","batch1","","872","","","tol_practice","","","","","","","","","","","tol_peg_1","872","872","0","[[0,0,0],[3,0],[2]]","3","[[0,0,0],[3,1],[2]]","practice","872","","","","","",""
"","","","","","single-stim-button","317","1514672","0.0-4.0-5.1-1.1","5c31847f10677f0001ddc781","A3","batch1","","742","","","tol_practice","","","","","","","","","","","tol_peg_2","742","742","0","[[0,0,0],[3,1],[2]]","3","[[0,0,0],[3,1],[2]]","practice","742","","","","","",""
"","","","","","poldrack-single-stim","318","1515685","0.0-4.0-6.0","5c31847f10677f0001ddc781","A3","batch1","","-1","","","tol_feedback","true","","","","","","","","","","","1000","1000","500","","","","","","-1","none","true","","0",""
"","","","","","single-stim-button","319","1523944","0.0-4.0-7.0-0.0","5c31847f10677f0001ddc781","A3","batch1","","8258","","","tol_practice","","","","","","","","","","","tol_peg_2","8258","8258","0","[[1,2,0],[0,0],[0]]","4","[[1,0,0],[2,0],[3]]","practice","8258","","","","","",""
"","","","","","single-stim-button","320","1524823","0.0-4.0-7.0-1.0","5c31847f10677f0001ddc781","A3","batch1","","875","","","tol_practice","","","","","","","","","","","tol_peg_3","875","875","0","[[1,2,0],[0,0],[3]]","4","[[1,0,0],[2,0],[3]]","practice","875","","","","","",""
"","","","","","single-stim-button","321","1525734","0.0-4.0-7.1-0.1","5c31847f10677f0001ddc781","A3","batch1","","908","","","tol_practice","","","","","","","","","","","tol_peg_1","908","908","0","[[1,0,0],[0,0],[3]]","5","[[1,0,0],[2,0],[3]]","practice","908","","","","","",""
"","","","","","single-stim-button","322","1526244","0.0-4.0-7.1-1.1","5c31847f10677f0001ddc781","A3","batch1","","508","","","tol_practice","","","","","","","","","","","tol_peg_2","508","508","0","[[1,0,0],[2,0],[3]]","5","[[1,0,0],[2,0],[3]]","practice","508","","","","","",""
"","","","","","poldrack-single-stim","323","1527263","0.0-4.0-8.0","5c31847f10677f0001ddc781","A3","batch1","","-1","","","tol_feedback","true","","","","","","","","","","","1000","1000","500","","","","","","-1","none","true","","0",""
"","","","","","html-button-response","324","1529635","0.0-4.0-9.0","5c31847f10677f0001ddc781","A3","batch1","","2370","<div class = centerbox><p class = center-block-text>Great job! You are done with practice trials<br>You are about to start official trials.<br> <br> Problem <strong>1</strong> out of 25 problems</p></div>","0","tol_instruction","","","","","","","","","","","","","","","","","","","","","","","","",""
"","","","","","single-stim-button","325","1537246","0.0-4.0-10.0-0.0","5c31847f10677f0001ddc781","A3","batch1","","6608","","","tol_tohand","","","","","","","","","","","tol_peg_1","6608","6608","0","[[1,0,0],[3,0],[0]]","1","[[1,3,0],[2,0],[0]]","0","0","","","","","","3"
"","","","","","single-stim-button","326","1548534","0.0-4.0-10.0-1.0","5c31847f10677f0001ddc781","A3","batch1","","11286","","","tol_toboard","","","","","","","","","","","tol_peg_3","11286","11286","0","[[1,0,0],[3,0],[2]]","1","[[1,3,0],[2,0],[0]]","0","0","","","","","","3"
"","","","","","single-stim-button","327","1549204","0.0-4.0-10.1-0.1","5c31847f10677f0001ddc781","A3","batch1","","668","","","tol_tohand","","","","","","","","","","","tol_peg_2","668","668","0","[[1,0,0],[0,0],[2]]","2","[[1,3,0],[2,0],[0]]","0","0","","","","","","3"
"","","","","","single-stim-button","328","1550145","0.0-4.0-10.1-1.1","5c31847f10677f0001ddc781","A3","batch1","","940","","","tol_toboard","","","","","","","","","","","tol_peg_1","940","940","0","[[1,3,0],[0,0],[2]]","2","[[1,3,0],[2,0],[0]]","0","0","","","","","","3"
"","","","","","single-stim-button","329","1550919","0.0-4.0-10.2-0.2","5c31847f10677f0001ddc781","A3","batch1","","772","","","tol_tohand","","","","","","","","","","","tol_peg_3","772","772","0","[[1,3,0],[0,0],[0]]","3","[[1,3,0],[2,0],[0]]","0","0","","","","","","3"
"","","","","","single-stim-button","330","1551622","0.0-4.0-10.2-1.2","5c31847f10677f0001ddc781","A3","batch1","","700","","","tol_toboard","","","","","","","","","","","tol_peg_2","700","700","0","[[1,3,0],[2,0],[0]]","3","[[1,3,0],[2,0],[0]]","0","0","","","","","","3"
"","","","","","poldrack-single-stim","331","1552631","0.0-4.0-11.0","5c31847f10677f0001ddc781","A3","batch1","","-1","","","tol_feedback","true","","","","","","","","","","","1000","1000","500","","","","","","-1","none","true","6608","8048",""
"","","","","","html-button-response","332","1553905","0.0-4.0-12.0","5c31847f10677f0001ddc781","A3","batch1","","1271","<div class = centerbox><p class = center-block-text>problem <strong>2</strong> out of 25 problems</p></div>","0","tol_trial_num","","","","","","","","","","","","","","","","","","","","","","","","",""
"","","","","","single-stim-button","333","1562168","0.0-4.0-13.0-0.0","5c31847f10677f0001ddc781","A3","batch1","","8259","","","tol_tohand","","","","","","","","","","","tol_peg_2","8259","8259","0","[[1,2,0],[0,0],[0]]","1","[[2,1,3],[0,0],[0]]","1","0","","","","","","5"
"","","","","","single-stim-button","334","1562899","0.0-4.0-13.0-1.0","5c31847f10677f0001ddc781","A3","batch1","","729","","","tol_toboard","","","","","","","","","","","tol_peg_3","729","729","0","[[1,2,0],[0,0],[3]]","1","[[2,1,3],[0,0],[0]]","1","0","","","","","","5"
"","","","","","single-stim-button","335","1563833","0.0-4.0-13.1-0.1","5c31847f10677f0001ddc781","A3","batch1","","932","","","tol_tohand","","","","","","","","","","","tol_peg_1","932","932","0","[[1,0,0],[0,0],[3]]","2","[[2,1,3],[0,0],[0]]","1","0","","","","","","5"
"","","","","","single-stim-button","336","1565416","0.0-4.0-13.1-1.1","5c31847f10677f0001ddc781","A3","batch1","","1582","","","tol_toboard","","","","","","","","","","","tol_peg_2","1582","1582","0","[[1,0,0],[2,0],[3]]","2","[[2,1,3],[0,0],[0]]","1","0","","","","","","5"
"","","","","","single-stim-button","337","1566124","0.0-4.0-13.2-0.2","5c31847f10677f0001ddc781","A3","batch1","","705","","","tol_tohand","","","","","","","","","","","tol_peg_1","705","705","0","[[0,0,0],[2,0],[3]]","3","[[2,1,3],[0,0],[0]]","1","0","","","","","","5"
"","","","","","single-stim-button","338","1567184","0.0-4.0-13.2-1.2","5c31847f10677f0001ddc781","A3","batch1","","1057","","","tol_toboard","","","","","","","","","","","tol_peg_2","1057","1057","0","[[0,0,0],[2,1],[3]]","3","[[2,1,3],[0,0],[0]]","1","0","","","","","","5"
"","","","","","single-stim-button","339","1567820","0.0-4.0-13.3-0.3","5c31847f10677f0001ddc781","A3","batch1","","634","","","tol_tohand","","","","","","","","","","","tol_peg_3","634","634","0","[[0,0,0],[2,1],[0]]","4","[[2,1,3],[0,0],[0]]","1","0","","","","","","5"
"","","","","","single-stim-button","340","1570930","0.0-4.0-13.3-1.3","5c31847f10677f0001ddc781","A3","batch1","","3108","","","tol_toboard","","","","","","","","","","","tol_peg_3","3108","3108","0","[[0,0,0],[2,1],[3]]","4","[[2,1,3],[0,0],[0]]","1","0","","","","","","5"
"","","","","","single-stim-button","341","1572680","0.0-4.0-13.4-0.4","5c31847f10677f0001ddc781","A3","batch1","","1747","","","tol_tohand","","","","","","","","","","","tol_peg_2","1747","1747","0","[[0,0,0],[2,0],[3]]","5","[[2,1,3],[0,0],[0]]","1","0","","","","","","5"
"","","","","","single-stim-button","342","1577360","0.0-4.0-13.4-1.4","5c31847f10677f0001ddc781","A3","batch1","","4678","","","tol_toboard","","","","","","","","","","","tol_peg_2","4678","4678","0","[[0,0,0],[2,1],[3]]","5","[[2,1,3],[0,0],[0]]","1","0","","","","","","5"
"","","","","","single-stim-button","343","1583076","0.0-4.0-13.5-0.5","5c31847f10677f0001ddc781","A3","batch1","","5713","","","tol_tohand","","","","","","","","","","","tol_peg_2","5713","5713","0","[[0,0,0],[2,0],[3]]","6","[[2,1,3],[0,0],[0]]","1","0","","","","","","5"
"","","","","","single-stim-button","344","1583793","0.0-4.0-13.5-1.5","5c31847f10677f0001ddc781","A3","batch1","","714","","","tol_toboard","","","","","","","","","","","tol_peg_1","714","714","0","[[1,0,0],[2,0],[3]]","6","[[2,1,3],[0,0],[0]]","1","0","","","","","","5"
"","","","","","single-stim-button","345","1586601","0.0-4.0-13.6-0.6","5c31847f10677f0001ddc781","A3","batch1","","2806","","","tol_tohand","","","","","","","","","","","tol_peg_3","2806","2806","0","[[1,0,0],[2,0],[0]]","7","[[2,1,3],[0,0],[0]]","1","0","","","","","","5"
"","","","","","single-stim-button","346","1587356","0.0-4.0-13.6-1.6","5c31847f10677f0001ddc781","A3","batch1","","751","","","tol_toboard","","","","","","","","","","","tol_peg_1","751","751","0","[[1,3,0],[2,0],[0]]","7","[[2,1,3],[0,0],[0]]","1","0","","","","","","5"
"","","","","","single-stim-button","347","1588148","0.0-4.0-13.7-0.7","5c31847f10677f0001ddc781","A3","batch1","","789","","","tol_tohand","","","","","","","","","","","tol_peg_2","789","789","0","[[1,3,0],[0,0],[0]]","8","[[2,1,3],[0,0],[0]]","1","0","","","","","","5"
"","","","","","single-stim-button","348","1588800","0.0-4.0-13.7-1.7","5c31847f10677f0001ddc781","A3","batch1","","650","","","tol_toboard","","","","","","","","","","","tol_peg_3","650","650","0","[[1,3,0],[0,0],[2]]","8","[[2,1,3],[0,0],[0]]","1","0","","","","","","5"
"","","","","","single-stim-button","349","1589435","0.0-4.0-13.8-0.8","5c31847f10677f0001ddc781","A3","batch1","","633","","","tol_tohand","","","","","","","","","","","tol_peg_1","633","633","0","[[1,0,0],[0,0],[2]]","9","[[2,1,3],[0,0],[0]]","1","0","","","","","","5"
"","","","","","single-stim-button","350","1589876","0.0-4.0-13.8-1.8","5c31847f10677f0001ddc781","A3","batch1","","439","","","tol_toboard","","","","","","","","","","","tol_peg_2","439","439","0","[[1,0,0],[3,0],[2]]","9","[[2,1,3],[0,0],[0]]","1","0","","","","","","5"
"","","","","","single-stim-button","351","1591649","0.0-4.0-13.9-0.9","5c31847f10677f0001ddc781","A3","batch1","","1771","","","tol_tohand","","","","","","","","","","","tol_peg_1","1771","1771","0","[[0,0,0],[3,0],[2]]","10","[[2,1,3],[0,0],[0]]","1","0","","","","","","5"
"","","","","","single-stim-button","352","1592389","0.0-4.0-13.9-1.9","5c31847f10677f0001ddc781","A3","batch1","","738","","","tol_toboard","","","","","","","","","","","tol_peg_2","738","738","0","[[0,0,0],[3,1],[2]]","10","[[2,1,3],[0,0],[0]]","1","0","","","","","","5"
"","","","","","single-stim-button","353","1593520","0.0-4.0-13.10-0.10","5c31847f10677f0001ddc781","A3","batch1","","1129","","","tol_tohand","","","","","","","","","","","tol_peg_3","1129","1129","0","[[0,0,0],[3,1],[0]]","11","[[2,1,3],[0,0],[0]]","1","0","","","","","","5"
"","","","","","single-stim-button","354","1594413","0.0-4.0-13.10-1.10","5c31847f10677f0001ddc781","A3","batch1","","891","","","tol_toboard","","","","","","","","","","","tol_peg_1","891","891","0","[[2,0,0],[3,1],[0]]","11","[[2,1,3],[0,0],[0]]","1","0","","","","","","5"
"","","","","","single-stim-button","355","1594973","0.0-4.0-13.11-0.11","5c31847f10677f0001ddc781","A3","batch1","","558","","","tol_tohand","","","","","","","","","","","tol_peg_2","558","558","0","[[2,0,0],[3,0],[0]]","12","[[2,1,3],[0,0],[0]]","1","0","","","","","","5"
"","","","","","single-stim-button","356","1595451","0.0-4.0-13.11-1.11","5c31847f10677f0001ddc781","A3","batch1","","477","","","tol_toboard","","","","","","","","","","","tol_peg_1","477","477","0","[[2,1,0],[3,0],[0]]","12","[[2,1,3],[0,0],[0]]","1","0","","","","","","5"
"","","","","","single-stim-button","357","1595923","0.0-4.0-13.12-0.12","5c31847f10677f0001ddc781","A3","batch1","","470","","","tol_tohand","","","","","","","","","","","tol_peg_2","470","470","0","[[2,1,0],[0,0],[0]]","13","[[2,1,3],[0,0],[0]]","1","0","","","","","","5"
"","","","","","single-stim-button","358","1596580","0.0-4.0-13.12-1.12","5c31847f10677f0001ddc781","A3","batch1","","654","","","tol_toboard","","","","","","","","","","","tol_peg_1","654","654","0","[[2,1,3],[0,0],[0]]","13","[[2,1,3],[0,0],[0]]","1","0","","","","","","5"
"","","","","","poldrack-single-stim","359","1597594","0.0-4.0-14.0","5c31847f10677f0001ddc781","A3","batch1","","-1","","","tol_feedback","true","","","","","","","","","","","1000","1000","500","","","","","","-1","none","true","8259","26146",""
