"success","timeout","failed_images","failed_audio","failed_video","trial_type","trial_index","time_elapsed","internal_node_id","subject_id","study_id","session_id","view_history","rt","task","stimulus","response","correct","mouse_click","stim_duration","block_duration","timing_post_trial","current_position","tol_num_moves_made","tol_target","tol_problem_id","tol_rt","key_press","possible_responses","tol_correct","preplanning","tol_rt_per_trial","tol_min_moves","item","answer","spm_correct","spm_rt","fiar_detect_rt","fiar_detect_correct","total_correct_fiar_detect","post_trial_gap","choices"
"true","false","[]","[]","[]","preload","0","1245","0.0-0.0","5c3764ce3acfeb000154ac66","E1","batch5","","","","","","","","","","","","","","","","","","","","","","","","","","","","","",""
"true","","","","","fullscreen","1","9978","0.0-1.0-0.0","5c3764ce3acfeb000154ac66","E1","batch5","","","","","","","","","","","","","","","","","","","","","","","","","","","","","",""
"true","","","","","fullscreen","2","14097","0.0-2.0-0.0","5c3764ce3acfeb000154ac66","E1","batch5","","","","","","","","","","","","","","","","","","","","","","","","","","","","","",""
"","","","","","instructions","3","64259","0.0-2.0-1.0-0.0-0.0","5c3764ce3acfeb000154ac66","E1","batch5","[{""page_index"":0,""viewing_time"":11595.29999999702},{""page_index"":1,""viewing_time"":8100.5},{""page_index"":2,""viewing_time"":3458},{""page_index"":3,""viewing_time"":7702.5},{""page_index"":4,""viewing_time"":5602.399999991059},{""page_index"":5,""viewing_time"":11010.300000011921},{""page_index"":6,""viewing_time"":2691.3999999910593}]","50160.59999999404","tol-instructions","","","","","","","","","","","","","","","","","","","","","","","","","","",""
"","","","","","html-button-response","4","65490","0.0-2.0-1.0-1.0-0.0","5c3764ce3acfeb000154ac66","E1","batch5","","1230.0999999940395","tol_enter_quiz","<p class=block-text> Let's answer a few questions <br>","0","","","","","","","","","","","","","","","","","","","","","","","","",""
"","","","","","html-button-response","5","111047","0.0-2.0-1.0-1.0-1.0","5c3764ce3acfeb000154ac66","E1","batch5","","45555.79999999702","tol_quiz","<p class = block-text>True or False: You can only move the ball on top of a peg. <br></p>","0","true","","","","","","","","","","","","","","","","","","","","","","","",""
"","","","","","html-button-response","6","130833","0.0-2.0-1.0-1.0-2.0","5c3764ce3acfeb000154ac66","E1","batch5","","19783.89999999106","tol_quiz_feedback","<p class = block-text>Correct! You can only move the ball on top of a peg.</p>","0","","","","","","","","","","","","","","","","","","","","","","","","",""
"","","","","","html-button-response","7","145407","0.0-2.0-1.0-1.0-3.0","5c3764ce3acfeb000154ac66","E1","batch5","","14572.20000000298","tol_quiz","<p class = block-text>True or False: You should try to match your board with the target board with fewest moves possible. <br></p>","0","true","","","","","","","","","","","","","","","","","","","","","","","",""
"","","","","","html-button-response","8","146373","0.0-2.0-1.0-1.0-4.0","5c3764ce3acfeb000154ac66","E1","batch5","","965.7999999970198","tol_quiz_feedback","<p class = block-text>Correct! </p>","0","","","","","","","","","","","","","","","","","","","","","","","","",""
"","","","","","html-button-response","9","149914","0.0-2.0-2.0","5c3764ce3acfeb000154ac66","E1","batch5","","3539.2999999970198","","<p class=block-text> Now that you've understood the game, let's practice a few easier examples before we start!<br> <br>","0","","","","","","","","","","","","","","","","","","","","","","","","",""
"","","","","","single-stim-button","10","151475","0.0-2.0-3.0-0.0","5c3764ce3acfeb000154ac66","E1","batch5","","1559","tol_practice","","","","tol_peg_2","1559","1559","0","[[1,2,0],[0,0],[0]]","1","[[1,2,0],[0,0],[3]]","practice","1559","","","","","","","","","","","","","","",""
"","","","","","single-stim-button","11","152779","0.0-2.0-3.0-1.0","5c3764ce3acfeb000154ac66","E1","batch5","","1303","tol_practice","","","","tol_peg_3","1303","1303","0","[[1,2,0],[0,0],[3]]","1","[[1,2,0],[0,0],[3]]","practice","1303","","","","","","","","","","","","","","",""
"","","","","","poldrack-single-stim","12","153793","0.0-2.0-4.0","5c3764ce3acfeb000154ac66","E1","batch5","","-1","tol_feedback","","","true","","1000","1000","500","","","","","","-1","none","true","","0","","","","","","","","","",""
"","","","","","single-stim-button","13","157669","0.0-2.0-5.0-0.0","5c3764ce3acfeb000154ac66","E1","batch5","","3874","tol_practice","","","","tol_peg_1","3874","3874","0","[[1,0,0],[3,0],[0]]","2","[[0,0,0],[3,1],[2]]","practice","3874","","","","","","","","","","","","","","",""
"","","","","","single-stim-button","14","159042","0.0-2.0-5.0-1.0","5c3764ce3acfeb000154ac66","E1","batch5","","1373","tol_practice","","","","tol_peg_3","1373","1373","0","[[1,0,0],[3,0],[2]]","2","[[0,0,0],[3,1],[2]]","practice","1373","","","","","","","","","","","","","","",""
"","","","","","single-stim-button","15","159867","0.0-2.0-5.1-0.1","5c3764ce3acfeb000154ac66","E1","batch5","","823","tol_practice","","","","tol_peg_2","823","823","0","[[1,0,0],[0,0],[2]]","3","[[0,0,0],[3,1],[2]]","practice","823","","","","","","","","","","","","","","",""
"","","","","","single-stim-button","16","160616","0.0-2.0-5.1-1.1","5c3764ce3acfeb000154ac66","E1","batch5","","749","tol_practice","","","","tol_peg_1","749","749","0","[[1,3,0],[0,0],[2]]","3","[[0,0,0],[3,1],[2]]","practice","749","","","","","","","","","","","","","","",""
"","","","","","single-stim-button","17","162453","0.0-2.0-5.2-0.2","5c3764ce3acfeb000154ac66","E1","batch5","","1836","tol_practice","","","","tol_peg_1","1836","1836","0","[[1,0,0],[0,0],[2]]","4","[[0,0,0],[3,1],[2]]","practice","1836","","","","","","","","","","","","","","",""
"","","","","","single-stim-button","18","163857","0.0-2.0-5.2-1.2","5c3764ce3acfeb000154ac66","E1","batch5","","1403","tol_practice","","","","tol_peg_2","1403","1403","0","[[1,0,0],[3,0],[2]]","4","[[0,0,0],[3,1],[2]]","practice","1403","","","","","","","","","","","","","","",""
"","","","","","single-stim-button","19","164464","0.0-2.0-5.3-0.3","5c3764ce3acfeb000154ac66","E1","batch5","","607","tol_practice","","","","tol_peg_1","607","607","0","[[0,0,0],[3,0],[2]]","5","[[0,0,0],[3,1],[2]]","practice","607","","","","","","","","","","","","","","",""
"","","","","","single-stim-button","20","169503","0.0-2.0-5.3-1.3","5c3764ce3acfeb000154ac66","E1","batch5","","5038","tol_practice","","","","tol_peg_2","5038","5038","0","[[0,0,0],[3,1],[2]]","5","[[0,0,0],[3,1],[2]]","practice","5038","","","","","","","","","","","","","","",""
"","","","","","poldrack-single-stim","21","170514","0.0-2.0-6.0","5c3764ce3acfeb000154ac66","E1","batch5","","-1","tol_feedback","","","true","","1000","1000","500","","","","","","-1","none","true","","0","","","","","","","","","",""
"","","","","","single-stim-button","22","176862","0.0-2.0-7.0-0.0","5c3764ce3acfeb000154ac66","E1","batch5","","6347","tol_practice","","","","tol_peg_2","6347","6347","0","[[1,2,0],[0,0],[0]]","6","[[1,0,0],[2,0],[3]]","practice","6347","","","","","","","","","","","","","","",""
"","","","","","single-stim-button","23","177845","0.0-2.0-7.0-1.0","5c3764ce3acfeb000154ac66","E1","batch5","","982","tol_practice","","","","tol_peg_3","982","982","0","[[1,2,0],[0,0],[3]]","6","[[1,0,0],[2,0],[3]]","practice","982","","","","","","","","","","","","","","",""
"","","","","","single-stim-button","24","178520","0.0-2.0-7.1-0.1","5c3764ce3acfeb000154ac66","E1","batch5","","674","tol_practice","","","","tol_peg_1","674","674","0","[[1,0,0],[0,0],[3]]","7","[[1,0,0],[2,0],[3]]","practice","674","","","","","","","","","","","","","","",""
"","","","","","single-stim-button","25","179367","0.0-2.0-7.1-1.1","5c3764ce3acfeb000154ac66","E1","batch5","","847","tol_practice","","","","tol_peg_2","847","847","0","[[1,0,0],[2,0],[3]]","7","[[1,0,0],[2,0],[3]]","practice","847","","","","","","","","","","","","","","",""
"","","","","","poldrack-single-stim","26","180378","0.0-2.0-8.0","5c3764ce3acfeb000154ac66","E1","batch5","","-1","tol_feedback","","","true","","1000","1000","500","","","","","","-1","none","true","","0","","","","","","","","","",""
"","","","","","html-button-response","27","183395","0.0-2.0-9.0","5c3764ce3acfeb000154ac66","E1","batch5","","3015","tol_instruction","<div class = centerbox><p class = center-block-text>Great job! You are done with practice trials<br>You are about to start official trials.<br> <br> Problem <strong>1</strong> out of 25 problems</p></div>","0","","","","","","","","","","","","","","","","","","","","","","","","",""
"","","","","","single-stim-button","28","187610","0.0-2.0-10.0-0.0","5c3764ce3acfeb000154ac66","E1","batch5","","3200","tol_tohand","","","","tol_peg_1","3200","3200","0","[[1,0,0],[3,0],[0]]","1","[[1,3,0],[2,0],[0]]","0","0","","","","","","3","","","","","","","","",""
"","","","","","single-stim-button","29","188697","0.0-2.0-10.0-1.0","5c3764ce3acfeb000154ac66","E1","batch5","","1087","tol_toboard","","","","tol_peg_3","1087","1087","0","[[1,0,0],[3,0],[2]]","1","[[1,3,0],[2,0],[0]]","0","0","","","","","","3","","","","","","","","",""
"","","","","","single-stim-button","30","189357","0.0-2.0-10.1-0.1","5c3764ce3acfeb000154ac66","E1","batch5","","658","tol_tohand","","","","tol_peg_2","658","658","0","[[1,0,0],[0,0],[2]]","2","[[1,3,0],[2,0],[0]]","0","0","","","","","","3","","","","","","","","",""
"","","","","","single-stim-button","31","190842","0.0-2.0-10.1-1.1","5c3764ce3acfeb000154ac66","E1","batch5","","1485","tol_toboard","","","","tol_peg_1","1485","1485","0","[[1,3,0],[0,0],[2]]","2","[[1,3,0],[2,0],[0]]","0","0","","","","","","3","","","","","","","","",""
"","","","","","single-stim-button","32","191562","0.0-2.0-10.2-0.2","5c3764ce3acfeb000154ac66","E1","batch5","","719","tol_tohand","","","","tol_peg_3","719","719","0","[[1,3,0],[0,0],[0]]","3","[[1,3,0],[2,0],[0]]","0","0","","","","","","3","","","","","","","","",""
"","","","","","single-stim-button","33","192192","0.0-2.0-10.2-1.2","5c3764ce3acfeb000154ac66","E1","batch5","","629","tol_toboard","","","","tol_peg_2","629","629","0","[[1,3,0],[2,0],[0]]","3","[[1,3,0],[2,0],[0]]","0","0","","","","","","3","","","","","","","","",""
"","","","","","poldrack-single-stim","34","193206","0.0-2.0-11.0","5c3764ce3acfeb000154ac66","E1","batch5","","-1","tol_feedback","","","true","","1000","1000","500","","","","","","-1","none","true","3200","4577","","","","","","","","","",""
"","","","","","html-button-response","35","194562","0.0-2.0-12.0","5c3764ce3acfeb000154ac66","E1","batch5","","1355","tol_trial_num","<div class = centerbox><p class = center-block-text>problem <strong>2</strong> out of 25 problems</p></div>","0","","","","","","","","","","","","","","","","","","","","","","","","",""
"","","","","","single-stim-button","36","201995","0.0-2.0-13.0-0.0","5c3764ce3acfeb000154ac66","E1","batch5","","7431","tol_tohand","","","","tol_peg_1","7431","7431","0","[[1,0,0],[3,0],[0]]","1","[[2,1,3],[0,0],[0]]","1","0","","","","","","5","","","","","","","","",""
"","","","","","single-stim-button","37","202723","0.0-2.0-13.0-1.0","5c3764ce3acfeb000154ac66","E1","batch5","","728","tol_toboard","","","","tol_peg_2","728","728","0","[[1,0,0],[3,2],[0]]","1","[[2,1,3],[0,0],[0]]","1","0","","","","","","5","","","","","","","","",""
"","","","","","single-stim-button","38","203630","0.0-2.0-13.1-0.1","5c3764ce3acfeb000154ac66","E1","batch5","","907","tol_tohand","","","","tol_peg_1","907","907","0","[[0,0,0],[3,2],[0]]","2","[[2,1,3],[0,0],[0]]","1","0","","","","","","5","","","","","","","","",""
"","","","","","single-stim-button","39","204357","0.0-2.0-13.1-1.1","5c3764ce3acfeb000154ac66","E1","batch5","","727","tol_toboard","","","","tol_peg_3","727","727","0","[[0,0,0],[3,2],[1]]","2","[[2,1,3],[0,0],[0]]","1","0","","","","","","5","","","","","","","","",""
"","","","","","single-stim-button","40","204965","0.0-2.0-13.2-0.2","5c3764ce3acfeb000154ac66","E1","batch5","","606","tol_tohand","","","","tol_peg_2","606","606","0","[[0,0,0],[3,0],[1]]","3","[[2,1,3],[0,0],[0]]","1","0","","","","","","5","","","","","","","","",""
"","","","","","single-stim-button","41","205602","0.0-2.0-13.2-1.2","5c3764ce3acfeb000154ac66","E1","batch5","","637","tol_toboard","","","","tol_peg_1","637","637","0","[[2,0,0],[3,0],[1]]","3","[[2,1,3],[0,0],[0]]","1","0","","","","","","5","","","","","","","","",""
"","","","","","single-stim-button","42","206030","0.0-2.0-13.3-0.3","5c3764ce3acfeb000154ac66","E1","batch5","","427","tol_tohand","","","","tol_peg_2","427","427","0","[[2,0,0],[0,0],[1]]","4","[[2,1,3],[0,0],[0]]","1","0","","","","","","5","","","","","","","","",""
"","","","","","single-stim-button","43","209577","0.0-2.0-13.3-1.3","5c3764ce3acfeb000154ac66","E1","batch5","","3547","tol_toboard","","","","tol_peg_2","3547","3547","0","[[2,0,0],[3,0],[1]]","4","[[2,1,3],[0,0],[0]]","1","0","","","","","","5","","","","","","","","",""
"","","","","","single-stim-button","44","210012","0.0-2.0-13.4-0.4","5c3764ce3acfeb000154ac66","E1","batch5","","434","tol_tohand","","","","tol_peg_3","434","434","0","[[2,0,0],[3,0],[0]]","5","[[2,1,3],[0,0],[0]]","1","0","","","","","","5","","","","","","","","",""
"","","","","","single-stim-button","45","210664","0.0-2.0-13.4-1.4","5c3764ce3acfeb000154ac66","E1","batch5","","652","tol_toboard","","","","tol_peg_1","652","652","0","[[2,1,0],[3,0],[0]]","5","[[2,1,3],[0,0],[0]]","1","0","","","","","","5","","","","","","","","",""
"","","","","","single-stim-button","46","211070","0.0-2.0-13.5-0.5","5c3764ce3acfeb000154ac66","E1","batch5","","405","tol_tohand","","","","tol_peg_2","405","405","0","[[2,1,0],[0,0],[0]]","6","[[2,1,3],[0,0],[0]]","1","0","","","","","","5","","","","","","","","",""
"","","","","","single-stim-button","47","211693","0.0-2.0-13.5-1.5","5c3764ce3acfeb000154ac66","E1","batch5","","623","tol_toboard","","","","tol_peg_1","623","623","0","[[2,1,3],[0,0],[0]]","6","[[2,1,3],[0,0],[0]]","1","0","","","","","","5","","","","","","","","",""
"","","","","","poldrack-single-stim","48","212710","0.0-2.0-14.0","5c3764ce3acfeb000154ac66","E1","batch5","","-1","tol_feedback","","","true","","1000","1000","500","","","","","","-1","none","true","7431","10210","","","","","","","","","",""
"","","","","","html-button-response","49","228231","0.0-2.0-15.0","5c3764ce3acfeb000154ac66","E1","batch5","","15520.20000000298","tol_trial_num","<div class = centerbox><p class = center-block-text>problem <strong>3</strong> out of 25 problems</p></div>","0","","","","","","","","","","","","","","","","","","","","","","","","",""
"","","","","","single-stim-button","50","232626","0.0-2.0-16.0-0.0","5c3764ce3acfeb000154ac66","E1","batch5","","4395","tol_tohand","","","","tol_peg_1","4395","4395","0","[[2,0,0],[0,0],[1]]","1","[[1,2,0],[3,0],[0]]","2","0","","","","","","4","","","","","","","","",""
"","","","","","single-stim-button","51","233398","0.0-2.0-16.0-1.0","5c3764ce3acfeb000154ac66","E1","batch5","","772","tol_toboard","","","","tol_peg_2","772","772","0","[[2,0,0],[3,0],[1]]","1","[[1,2,0],[3,0],[0]]","2","0","","","","","","4","","","","","","","","",""
"","","","","","single-stim-button","52","233848","0.0-2.0-16.1-0.1","5c3764ce3acfeb000154ac66","E1","batch5","","450","tol_tohand","","","","tol_peg_1","450","450","0","[[0,0,0],[3,0],[1]]","2","[[1,2,0],[3,0],[0]]","2","0","","","","","","4","","","","","","","","",""
"","","","","","single-stim-button","53","234493","0.0-2.0-16.1-1.1","5c3764ce3acfeb000154ac66","E1","batch5","","645","tol_toboard","","","","tol_peg_2","645","645","0","[[0,0,0],[3,2],[1]]","2","[[1,2,0],[3,0],[0]]","2","0","","","","","","4","","","","","","","","",""
"","","","","","single-stim-button","54","234996","0.0-2.0-16.2-0.2","5c3764ce3acfeb000154ac66","E1","batch5","","503","tol_tohand","","","","tol_peg_3","503","503","0","[[0,0,0],[3,2],[0]]","3","[[1,2,0],[3,0],[0]]","2","0","","","","","","4","","","","","","","","",""
"","","","","","single-stim-button","55","235649","0.0-2.0-16.2-1.2","5c3764ce3acfeb000154ac66","E1","batch5","","653","tol_toboard","","","","tol_peg_1","653","653","0","[[1,0,0],[3,2],[0]]","3","[[1,2,0],[3,0],[0]]","2","0","","","","","","4","","","","","","","","",""
"","","","","","single-stim-button","56","236188","0.0-2.0-16.3-0.3","5c3764ce3acfeb000154ac66","E1","batch5","","539","tol_tohand","","","","tol_peg_2","539","539","0","[[1,0,0],[3,0],[0]]","4","[[1,2,0],[3,0],[0]]","2","0","","","","","","4","","","","","","","","",""
"","","","","","single-stim-button","57","236721","0.0-2.0-16.3-1.3","5c3764ce3acfeb000154ac66","E1","batch5","","532","tol_toboard","","","","tol_peg_1","532","532","0","[[1,2,0],[3,0],[0]]","4","[[1,2,0],[3,0],[0]]","2","0","","","","","","4","","","","","","","","",""
"","","","","","poldrack-single-stim","58","237732","0.0-2.0-17.0","5c3764ce3acfeb000154ac66","E1","batch5","","-1","tol_feedback","","","true","","1000","1000","500","","","","","","-1","none","true","4395","5887","","","","","","","","","",""
"","","","","","html-button-response","59","238708","0.0-2.0-18.0","5c3764ce3acfeb000154ac66","E1","batch5","","975.2999999970198","tol_trial_num","<div class = centerbox><p class = center-block-text>problem <strong>4</strong> out of 25 problems</p></div>","0","","","","","","","","","","","","","","","","","","","","","","","","",""
"","","","","","single-stim-button","60","241003","0.0-2.0-19.0-0.0","5c3764ce3acfeb000154ac66","E1","batch5","","2294","tol_tohand","","","","tol_peg_2","2294","2294","0","[[3,0,0],[2,0],[0]]","1","[[3,0,0],[1,0],[2]]","3","0","","","","","","3","","","","","","","","",""
"","","","","","single-stim-button","61","241566","0.0-2.0-19.0-1.0","5c3764ce3acfeb000154ac66","E1","batch5","","562","tol_toboard","","","","tol_peg_1","562","562","0","[[3,1,0],[2,0],[0]]","1","[[3,0,0],[1,0],[2]]","3","0","","","","","","3","","","","","","","","",""
"","","","","","single-stim-button","62","242113","0.0-2.0-19.1-0.1","5c3764ce3acfeb000154ac66","E1","batch5","","547","tol_tohand","","","","tol_peg_2","547","547","0","[[3,1,0],[0,0],[0]]","2","[[3,0,0],[1,0],[2]]","3","0","","","","","","3","","","","","","","","",""
"","","","","","single-stim-button","63","242645","0.0-2.0-19.1-1.1","5c3764ce3acfeb000154ac66","E1","batch5","","532","tol_toboard","","","","tol_peg_3","532","532","0","[[3,1,0],[0,0],[2]]","2","[[3,0,0],[1,0],[2]]","3","0","","","","","","3","","","","","","","","",""
"","","","","","single-stim-button","64","243171","0.0-2.0-19.2-0.2","5c3764ce3acfeb000154ac66","E1","batch5","","524","tol_tohand","","","","tol_peg_1","524","524","0","[[3,0,0],[0,0],[2]]","3","[[3,0,0],[1,0],[2]]","3","0","","","","","","3","","","","","","","","",""
"","","","","","single-stim-button","65","244040","0.0-2.0-19.2-1.2","5c3764ce3acfeb000154ac66","E1","batch5","","869","tol_toboard","","","","tol_peg_2","869","869","0","[[3,0,0],[1,0],[2]]","3","[[3,0,0],[1,0],[2]]","3","0","","","","","","3","","","","","","","","",""
"","","","","","poldrack-single-stim","66","245049","0.0-2.0-20.0","5c3764ce3acfeb000154ac66","E1","batch5","","-1","tol_feedback","","","true","","1000","1000","500","","","","","","-1","none","true","2294","3365","","","","","","","","","",""
"","","","","","html-button-response","67","246073","0.0-2.0-21.0","5c3764ce3acfeb000154ac66","E1","batch5","","1023","tol_trial_num","<div class = centerbox><p class = center-block-text>problem <strong>5</strong> out of 25 problems</p></div>","0","","","","","","","","","","","","","","","","","","","","","","","","",""
"","","","","","single-stim-button","68","250341","0.0-2.0-22.0-0.0","5c3764ce3acfeb000154ac66","E1","batch5","","4267","tol_tohand","","","","tol_peg_2","4267","4267","0","[[1,0,0],[0,0],[3]]","1","[[0,0,0],[1,2],[3]]","4","0","","","","","","7","","","","","","","","",""
"","","","","","single-stim-button","69","252336","0.0-2.0-22.0-1.0","5c3764ce3acfeb000154ac66","E1","batch5","","1993","tol_toboard","","","","tol_peg_2","1993","1993","0","[[1,0,0],[2,0],[3]]","1","[[0,0,0],[1,2],[3]]","4","0","","","","","","7","","","","","","","","",""
"","","","","","single-stim-button","70","252748","0.0-2.0-22.1-0.1","5c3764ce3acfeb000154ac66","E1","batch5","","412","tol_tohand","","","","tol_peg_3","412","412","0","[[1,0,0],[2,0],[0]]","2","[[0,0,0],[1,2],[3]]","4","0","","","","","","7","","","","","","","","",""
"","","","","","single-stim-button","71","253333","0.0-2.0-22.1-1.1","5c3764ce3acfeb000154ac66","E1","batch5","","585","tol_toboard","","","","tol_peg_1","585","585","0","[[1,3,0],[2,0],[0]]","2","[[0,0,0],[1,2],[3]]","4","0","","","","","","7","","","","","","","","",""
"","","","","","single-stim-button","72","254008","0.0-2.0-22.2-0.2","5c3764ce3acfeb000154ac66","E1","batch5","","675","tol_tohand","","","","tol_peg_2","675","675","0","[[1,3,0],[0,0],[0]]","3","[[0,0,0],[1,2],[3]]","4","0","","","","","","7","","","","","","","","",""
"","","","","","single-stim-button","73","254787","0.0-2.0-22.2-1.2","5c3764ce3acfeb000154ac66","E1","batch5","","778","tol_toboard","","","","tol_peg_3","778","778","0","[[1,3,0],[0,0],[2]]","3","[[0,0,0],[1,2],[3]]","4","0","","","","","","7","","","","","","","","",""
"","","","","","single-stim-button","74","257428","0.0-2.0-22.3-0.3","5c3764ce3acfeb000154ac66","E1","batch5","","2640","tol_tohand","","","","tol_peg_1","2640","2640","0","[[1,0,0],[0,0],[2]]","4","[[0,0,0],[1,2],[3]]","4","0","","","","","","7","","","","","","","","",""
"","","","","","single-stim-button","75","259678","0.0-2.0-22.3-1.3","5c3764ce3acfeb000154ac66","E1","batch5","","2249","tol_toboard","","","","tol_peg_2","2249","2249","0","[[1,0,0],[3,0],[2]]","4","[[0,0,0],[1,2],[3]]","4","0","","","","","","7","","","","","","","","",""
"","","","","","single-stim-button","76","262647","0.0-2.0-22.4-0.4","5c3764ce3acfeb000154ac66","E1","batch5","","2969","tol_tohand","","","","tol_peg_1","2969","2969","0","[[0,0,0],[3,0],[2]]","5","[[0,0,0],[1,2],[3]]","4","0","","","","","","7","","","","","","","","",""
"","","","","","single-stim-button","77","264058","0.0-2.0-22.4-1.4","5c3764ce3acfeb000154ac66","E1","batch5","","1410","tol_toboard","","","","tol_peg_2","1410","1410","0","[[0,0,0],[3,1],[2]]","5","[[0,0,0],[1,2],[3]]","4","0","","","","","","7","","","","","","","","",""
"","","","","","single-stim-button","78","264590","0.0-2.0-22.5-0.5","5c3764ce3acfeb000154ac66","E1","batch5","","532","tol_tohand","","","","tol_peg_3","532","532","0","[[0,0,0],[3,1],[0]]","6","[[0,0,0],[1,2],[3]]","4","0","","","","","","7","","","","","","","","",""
"","","","","","single-stim-button","79","265236","0.0-2.0-22.5-1.5","5c3764ce3acfeb000154ac66","E1","batch5","","645","tol_toboard","","","","tol_peg_1","645","645","0","[[2,0,0],[3,1],[0]]","6","[[0,0,0],[1,2],[3]]","4","0","","","","","","7","","","","","","","","",""
"","","","","","single-stim-button","80","267433","0.0-2.0-22.6-0.6","5c3764ce3acfeb000154ac66","E1","batch5","","2197","tol_tohand","","","","tol_peg_2","2197","2197","0","[[2,0,0],[3,0],[0]]","7","[[0,0,0],[1,2],[3]]","4","0","","","","","","7","","","","","","","","",""
"","","","","","single-stim-button","81","268423","0.0-2.0-22.6-1.6","5c3764ce3acfeb000154ac66","E1","batch5","","989","tol_toboard","","","","tol_peg_1","989","989","0","[[2,1,0],[3,0],[0]]","7","[[0,0,0],[1,2],[3]]","4","0","","","","","","7","","","","","","","","",""
"","","","","","single-stim-button","82","268895","0.0-2.0-22.7-0.7","5c3764ce3acfeb000154ac66","E1","batch5","","472","tol_tohand","","","","tol_peg_2","472","472","0","[[2,1,0],[0,0],[0]]","8","[[0,0,0],[1,2],[3]]","4","0","","","","","","7","","","","","","","","",""
"","","","","","single-stim-button","83","269465","0.0-2.0-22.7-1.7","5c3764ce3acfeb000154ac66","E1","batch5","","570","tol_toboard","","","","tol_peg_3","570","570","0","[[2,1,0],[0,0],[3]]","8","[[0,0,0],[1,2],[3]]","4","0","","","","","","7","","","","","","","","",""
"","","","","","single-stim-button","84","270020","0.0-2.0-22.8-0.8","5c3764ce3acfeb000154ac66","E1","batch5","","555","tol_tohand","","","","tol_peg_1","555","555","0","[[2,0,0],[0,0],[3]]","9","[[0,0,0],[1,2],[3]]","4","0","","","","","","7","","","","","","","","",""
"","","","","","single-stim-button","85","270501","0.0-2.0-22.8-1.8","5c3764ce3acfeb000154ac66","E1","batch5","","481","tol_toboard","","","","tol_peg_2","481","481","0","[[2,0,0],[1,0],[3]]","9","[[0,0,0],[1,2],[3]]","4","0","","","","","","7","","","","","","","","",""
"","","","","","single-stim-button","86","270966","0.0-2.0-22.9-0.9","5c3764ce3acfeb000154ac66","E1","batch5","","463","tol_tohand","","","","tol_peg_1","463","463","0","[[0,0,0],[1,0],[3]]","10","[[0,0,0],[1,2],[3]]","4","0","","","","","","7","","","","","","","","",""
"","","","","","single-stim-button","87","271356","0.0-2.0-22.9-1.9","5c3764ce3acfeb000154ac66","E1","batch5","","390","tol_toboard","","","","tol_peg_2","390","390","0","[[0,0,0],[1,2],[3]]","10","[[0,0,0],[1,2],[3]]","4","0","","","","","","7","","","","","","","","",""
"","","","","","poldrack-single-stim","88","272368","0.0-2.0-23.0","5c3764ce3acfeb000154ac66","E1","batch5","","-1","tol_feedback","","","true","","1000","1000","500","","","","","","-1","none","true","4267","15182","","","","","","","","","",""
"","","","","","html-button-response","89","282974","0.0-2.0-24.0","5c3764ce3acfeb000154ac66","E1","batch5","","10605","tol_trial_num","<div class = centerbox><p class = center-block-text>problem <strong>6</strong> out of 25 problems</p></div>","0","","","","","","","","","","","","","","","","","","","","","","","","",""
"","","","","","single-stim-button","90","288546","0.0-2.0-25.0-0.0","5c3764ce3acfeb000154ac66","E1","batch5","","5572","tol_tohand","","","","tol_peg_3","5572","5572","0","[[0,0,0],[1,2],[0]]","1","[[1,0,0],[2,3],[0]]","5","0","","","","","","6","","","","","","","","",""
"","","","","","single-stim-button","91","289363","0.0-2.0-25.0-1.0","5c3764ce3acfeb000154ac66","E1","batch5","","817","tol_toboard","","","","tol_peg_1","817","817","0","[[3,0,0],[1,2],[0]]","1","[[1,0,0],[2,3],[0]]","5","0","","","","","","6","","","","","","","","",""
"","","","","","single-stim-button","92","290121","0.0-2.0-25.1-0.1","5c3764ce3acfeb000154ac66","E1","batch5","","757","tol_tohand","","","","tol_peg_2","757","757","0","[[3,0,0],[1,0],[0]]","2","[[1,0,0],[2,3],[0]]","5","0","","","","","","6","","","","","","","","",""
"","","","","","single-stim-button","93","291171","0.0-2.0-25.1-1.1","5c3764ce3acfeb000154ac66","E1","batch5","","1050","tol_toboard","","","","tol_peg_3","1050","1050","0","[[3,0,0],[1,0],[2]]","2","[[1,0,0],[2,3],[0]]","5","0","","","","","","6","","","","","","","","",""
"","","","","","single-stim-button","94","293938","0.0-2.0-25.2-0.2","5c3764ce3acfeb000154ac66","E1","batch5","","2766","tol_tohand","","","","tol_peg_2","2766","2766","0","[[3,0,0],[0,0],[2]]","3","[[1,0,0],[2,3],[0]]","5","0","","","","","","6","","","","","","","","",""
"","","","","","single-stim-button","95","294321","0.0-2.0-25.2-1.2","5c3764ce3acfeb000154ac66","E1","batch5","","381","tol_toboard","","","","tol_peg_1","381","381","0","[[3,1,0],[0,0],[2]]","3","[[1,0,0],[2,3],[0]]","5","0","","","","","","6","","","","","","","","",""
"","","","","","single-stim-button","96","295393","0.0-2.0-25.3-0.3","5c3764ce3acfeb000154ac66","E1","batch5","","1072","tol_tohand","","","","tol_peg_3","1072","1072","0","[[3,1,0],[0,0],[0]]","4","[[1,0,0],[2,3],[0]]","5","0","","","","","","6","","","","","","","","",""
"","","","","","single-stim-button","97","296001","0.0-2.0-25.3-1.3","5c3764ce3acfeb000154ac66","E1","batch5","","607","tol_toboard","","","","tol_peg_2","607","607","0","[[3,1,0],[2,0],[0]]","4","[[1,0,0],[2,3],[0]]","5","0","","","","","","6","","","","","","","","",""
"","","","","","single-stim-button","98","298109","0.0-2.0-25.4-0.4","5c3764ce3acfeb000154ac66","E1","batch5","","2108","tol_tohand","","","","tol_peg_1","2108","2108","0","[[3,0,0],[2,0],[0]]","5","[[1,0,0],[2,3],[0]]","5","0","","","","","","6","","","","","","","","",""
"","","","","","single-stim-button","99","299000","0.0-2.0-25.4-1.4","5c3764ce3acfeb000154ac66","E1","batch5","","891","tol_toboard","","","","tol_peg_3","891","891","0","[[3,0,0],[2,0],[1]]","5","[[1,0,0],[2,3],[0]]","5","0","","","","","","6","","","","","","","","",""
"","","","","","single-stim-button","100","299811","0.0-2.0-25.5-0.5","5c3764ce3acfeb000154ac66","E1","batch5","","810","tol_tohand","","","","tol_peg_1","810","810","0","[[0,0,0],[2,0],[1]]","6","[[1,0,0],[2,3],[0]]","5","0","","","","","","6","","","","","","","","",""
"","","","","","single-stim-button","101","300298","0.0-2.0-25.5-1.5","5c3764ce3acfeb000154ac66","E1","batch5","","487","tol_toboard","","","","tol_peg_2","487","487","0","[[0,0,0],[2,3],[1]]","6","[[1,0,0],[2,3],[0]]","5","0","","","","","","6","","","","","","","","",""
"","","","","","single-stim-button","102","300681","0.0-2.0-25.6-0.6","5c3764ce3acfeb000154ac66","E1","batch5","","382","tol_tohand","","","","tol_peg_3","382","382","0","[[0,0,0],[2,3],[0]]","7","[[1,0,0],[2,3],[0]]","5","0","","","","","","6","","","","","","","","",""
"","","","","","single-stim-button","103","301506","0.0-2.0-25.6-1.6","5c3764ce3acfeb000154ac66","E1","batch5","","825","tol_toboard","","","","tol_peg_1","825","825","0","[[1,0,0],[2,3],[0]]","7","[[1,0,0],[2,3],[0]]","5","0","","","","","","6","","","","","","","","",""
"","","","","","poldrack-single-stim","104","302522","0.0-2.0-26.0","5c3764ce3acfeb000154ac66","E1","batch5","","-1","tol_feedback","","","true","","1000","1000","500","","","","","","-1","none","true","5572","13467","","","","","","","","","",""
"","","","","","html-button-response","105","305571","0.0-2.0-27.0","5c3764ce3acfeb000154ac66","E1","batch5","","3047.7000000029802","tol_trial_num","<div class = centerbox><p class = center-block-text>problem <strong>7</strong> out of 25 problems</p></div>","0","","","","","","","","","","","","","","","","","","","","","","","","",""
"","","","","","single-stim-button","106","308279","0.0-2.0-28.0-0.0","5c3764ce3acfeb000154ac66","E1","batch5","","2706","tol_tohand","","","","tol_peg_3","2706","2706","0","[[2,1,0],[0,0],[0]]","1","[[1,2,0],[3,0],[0]]","6","0","","","","","","5","","","","","","","","",""
"","","","","","single-stim-button","107","311849","0.0-2.0-28.0-1.0","5c3764ce3acfeb000154ac66","E1","batch5","","3570","tol_toboard","","","","tol_peg_2","3570","3570","0","[[2,1,0],[3,0],[0]]","1","[[1,2,0],[3,0],[0]]","6","0","","","","","","5","","","","","","","","",""
"","","","","","single-stim-button","108","312531","0.0-2.0-28.1-0.1","5c3764ce3acfeb000154ac66","E1","batch5","","682","tol_tohand","","","","tol_peg_1","682","682","0","[[2,0,0],[3,0],[0]]","2","[[1,2,0],[3,0],[0]]","6","0","","","","","","5","","","","","","","","",""
"","","","","","single-stim-button","109","313664","0.0-2.0-28.1-1.1","5c3764ce3acfeb000154ac66","E1","batch5","","1133","tol_toboard","","","","tol_peg_3","1133","1133","0","[[2,0,0],[3,0],[1]]","2","[[1,2,0],[3,0],[0]]","6","0","","","","","","5","","","","","","","","",""
"","","","","","single-stim-button","110","314188","0.0-2.0-28.2-0.2","5c3764ce3acfeb000154ac66","E1","batch5","","524","tol_tohand","","","","tol_peg_1","524","524","0","[[0,0,0],[3,0],[1]]","3","[[1,2,0],[3,0],[0]]","6","0","","","","","","5","","","","","","","","",""
"","","","","","single-stim-button","111","314579","0.0-2.0-28.2-1.2","5c3764ce3acfeb000154ac66","E1","batch5","","391","tol_toboard","","","","tol_peg_2","391","391","0","[[0,0,0],[3,2],[1]]","3","[[1,2,0],[3,0],[0]]","6","0","","","","","","5","","","","","","","","",""
"","","","","","single-stim-button","112","315418","0.0-2.0-28.3-0.3","5c3764ce3acfeb000154ac66","E1","batch5","","839","tol_tohand","","","","tol_peg_3","839","839","0","[[0,0,0],[3,2],[0]]","4","[[1,2,0],[3,0],[0]]","6","0","","","","","","5","","","","","","","","",""
"","","","","","single-stim-button","113","316027","0.0-2.0-28.3-1.3","5c3764ce3acfeb000154ac66","E1","batch5","","608","tol_toboard","","","","tol_peg_1","608","608","0","[[1,0,0],[3,2],[0]]","4","[[1,2,0],[3,0],[0]]","6","0","","","","","","5","","","","","","","","",""
"","","","","","single-stim-button","114","316416","0.0-2.0-28.4-0.4","5c3764ce3acfeb000154ac66","E1","batch5","","388","tol_tohand","","","","tol_peg_2","388","388","0","[[1,0,0],[3,0],[0]]","5","[[1,2,0],[3,0],[0]]","6","0","","","","","","5","","","","","","","","",""
"","","","","","single-stim-button","115","316861","0.0-2.0-28.4-1.4","5c3764ce3acfeb000154ac66","E1","batch5","","444","tol_toboard","","","","tol_peg_1","444","444","0","[[1,2,0],[3,0],[0]]","5","[[1,2,0],[3,0],[0]]","6","0","","","","","","5","","","","","","","","",""
"","","","","","poldrack-single-stim","116","317871","0.0-2.0-29.0","5c3764ce3acfeb000154ac66","E1","batch5","","-1","tol_feedback","","","true","","1000","1000","500","","","","","","-1","none","true","2706","5139","","","","","","","","","",""
"","","","","","html-button-response","117","318943","0.0-2.0-30.0","5c3764ce3acfeb000154ac66","E1","batch5","","1071.8999999910593","tol_trial_num","<div class = centerbox><p class = center-block-text>problem <strong>8</strong> out of 25 problems</p></div>","0","","","","","","","","","","","","","","","","","","","","","","","","",""
"","","","","","single-stim-button","118","321831","0.0-2.0-31.0-0.0","5c3764ce3acfeb000154ac66","E1","batch5","","2887","tol_tohand","","","","tol_peg_3","2887","2887","0","[[0,0,0],[2,3],[0]]","1","[[1,2,0],[3,0],[0]]","7","0","","","","","","4","","","","","","","","",""
"","","","","","single-stim-button","119","322559","0.0-2.0-31.0-1.0","5c3764ce3acfeb000154ac66","E1","batch5","","726","tol_toboard","","","","tol_peg_1","726","726","0","[[1,0,0],[2,3],[0]]","1","[[1,2,0],[3,0],[0]]","7","0","","","","","","4","","","","","","","","",""
"","","","","","single-stim-button","120","323128","0.0-2.0-31.1-0.1","5c3764ce3acfeb000154ac66","E1","batch5","","569","tol_tohand","","","","tol_peg_2","569","569","0","[[1,0,0],[2,0],[0]]","2","[[1,2,0],[3,0],[0]]","7","0","","","","","","4","","","","","","","","",""
"","","","","","single-stim-button","121","324209","0.0-2.0-31.1-1.1","5c3764ce3acfeb000154ac66","E1","batch5","","1080","tol_toboard","","","","tol_peg_3","1080","1080","0","[[1,0,0],[2,0],[3]]","2","[[1,2,0],[3,0],[0]]","7","0","","","","","","4","","","","","","","","",""
"","","","","","single-stim-button","122","324629","0.0-2.0-31.2-0.2","5c3764ce3acfeb000154ac66","E1","batch5","","419","tol_tohand","","","","tol_peg_2","419","419","0","[[1,0,0],[0,0],[3]]","3","[[1,2,0],[3,0],[0]]","7","0","","","","","","4","","","","","","","","",""
"","","","","","single-stim-button","123","325641","0.0-2.0-31.2-1.2","5c3764ce3acfeb000154ac66","E1","batch5","","1012","tol_toboard","","","","tol_peg_1","1012","1012","0","[[1,2,0],[0,0],[3]]","3","[[1,2,0],[3,0],[0]]","7","0","","","","","","4","","","","","","","","",""
"","","","","","single-stim-button","124","326346","0.0-2.0-31.3-0.3","5c3764ce3acfeb000154ac66","E1","batch5","","704","tol_tohand","","","","tol_peg_3","704","704","0","[[1,2,0],[0,0],[0]]","4","[[1,2,0],[3,0],[0]]","7","0","","","","","","4","","","","","","","","",""
"","","","","","single-stim-button","125","327014","0.0-2.0-31.3-1.3","5c3764ce3acfeb000154ac66","E1","batch5","","668","tol_toboard","","","","tol_peg_2","668","668","0","[[1,2,0],[3,0],[0]]","4","[[1,2,0],[3,0],[0]]","7","0","","","","","","4","","","","","","","","",""
"","","","","","poldrack-single-stim","126","328020","0.0-2.0-32.0","5c3764ce3acfeb000154ac66","E1","batch5","","-1","tol_feedback","","","true","","1000","1000","500","","","","","","-1","none","true","2887","4579","","","","","","","","","",""
"","","","","","html-button-response","127","329024","0.0-2.0-33.0","5c3764ce3acfeb000154ac66","E1","batch5","","1003","tol_trial_num","<div class = centerbox><p class = center-block-text>problem <strong>9</strong> out of 25 problems</p></div>","0","","","","","","","","","","","","","","","","","","","","","","","","",""
"","","","","","single-stim-button","128","345105","0.0-2.0-34.0-0.0","5c3764ce3acfeb000154ac66","E1","batch5","","16080","tol_tohand","","","","tol_peg_3","16080","16080","0","[[3,2,0],[0,0],[0]]","1","[[2,1,0],[3,0],[0]]","8","0","","","","","","6","","","","","","","","",""
"","","","","","single-stim-button","129","345817","0.0-2.0-34.0-1.0","5c3764ce3acfeb000154ac66","E1","batch5","","712","tol_toboard","","","","tol_peg_2","712","712","0","[[3,2,0],[1,0],[0]]","1","[[2,1,0],[3,0],[0]]","8","0","","","","","","6","","","","","","","","",""
"","","","","","single-stim-button","130","346206","0.0-2.0-34.1-0.1","5c3764ce3acfeb000154ac66","E1","batch5","","389","tol_tohand","","","","tol_peg_1","389","389","0","[[3,0,0],[1,0],[0]]","2","[[2,1,0],[3,0],[0]]","8","0","","","","","","6","","","","","","","","",""
"","","","","","single-stim-button","131","346897","0.0-2.0-34.1-1.1","5c3764ce3acfeb000154ac66","E1","batch5","","690","tol_toboard","","","","tol_peg_3","690","690","0","[[3,0,0],[1,0],[2]]","2","[[2,1,0],[3,0],[0]]","8","0","","","","","","6","","","","","","","","",""
"","","","","","single-stim-button","132","347751","0.0-2.0-34.2-0.2","5c3764ce3acfeb000154ac66","E1","batch5","","853","tol_tohand","","","","tol_peg_1","853","853","0","[[0,0,0],[1,0],[2]]","3","[[2,1,0],[3,0],[0]]","8","0","","","","","","6","","","","","","","","",""
"","","","","","single-stim-button","133","348300","0.0-2.0-34.2-1.2","5c3764ce3acfeb000154ac66","E1","batch5","","548","tol_toboard","","","","tol_peg_2","548","548","0","[[0,0,0],[1,3],[2]]","3","[[2,1,0],[3,0],[0]]","8","0","","","","","","6","","","","","","","","",""
"","","","","","single-stim-button","134","348772","0.0-2.0-34.3-0.3","5c3764ce3acfeb000154ac66","E1","batch5","","471","tol_tohand","","","","tol_peg_3","471","471","0","[[0,0,0],[1,3],[0]]","4","[[2,1,0],[3,0],[0]]","8","0","","","","","","6","","","","","","","","",""
"","","","","","single-stim-button","135","349889","0.0-2.0-34.3-1.3","5c3764ce3acfeb000154ac66","E1","batch5","","1117","tol_toboard","","","","tol_peg_1","1117","1117","0","[[2,0,0],[1,3],[0]]","4","[[2,1,0],[3,0],[0]]","8","0","","","","","","6","","","","","","","","",""
"","","","","","single-stim-button","136","350496","0.0-2.0-34.4-0.4","5c3764ce3acfeb000154ac66","E1","batch5","","606","tol_tohand","","","","tol_peg_2","606","606","0","[[2,0,0],[1,0],[0]]","5","[[2,1,0],[3,0],[0]]","8","0","","","","","","6","","","","","","","","",""
"","","","","","single-stim-button","137","352050","0.0-2.0-34.4-1.4","5c3764ce3acfeb000154ac66","E1","batch5","","1552","tol_toboard","","","","tol_peg_3","1552","1552","0","[[2,0,0],[1,0],[3]]","5","[[2,1,0],[3,0],[0]]","8","0","","","","","","6","","","","","","","","",""
"","","","","","single-stim-button","138","352454","0.0-2.0-34.5-0.5","5c3764ce3acfeb000154ac66","E1","batch5","","403","tol_tohand","","","","tol_peg_2","403","403","0","[[2,0,0],[0,0],[3]]","6","[[2,1,0],[3,0],[0]]","8","0","","","","","","6","","","","","","","","",""
"","","","","","single-stim-button","139","353136","0.0-2.0-34.5-1.5","5c3764ce3acfeb000154ac66","E1","batch5","","682","tol_toboard","","","","tol_peg_1","682","682","0","[[2,1,0],[0,0],[3]]","6","[[2,1,0],[3,0],[0]]","8","0","","","","","","6","","","","","","","","",""
"","","","","","single-stim-button","140","353549","0.0-2.0-34.6-0.6","5c3764ce3acfeb000154ac66","E1","batch5","","412","tol_tohand","","","","tol_peg_3","412","412","0","[[2,1,0],[0,0],[0]]","7","[[2,1,0],[3,0],[0]]","8","0","","","","","","6","","","","","","","","",""
"","","","","","single-stim-button","141","354449","0.0-2.0-34.6-1.6","5c3764ce3acfeb000154ac66","E1","batch5","","900","tol_toboard","","","","tol_peg_2","900","900","0","[[2,1,0],[3,0],[0]]","7","[[2,1,0],[3,0],[0]]","8","0","","","","","","6","","","","","","","","",""
"","","","","","poldrack-single-stim","142","355462","0.0-2.0-35.0","5c3764ce3acfeb000154ac66","E1","batch5","","-1","tol_feedback","","","true","","1000","1000","500","","","","","","-1","none","true","16080","19214","","","","","","","","","",""
"","","","","","html-button-response","143","356669","0.0-2.0-36.0","5c3764ce3acfeb000154ac66","E1","batch5","","1205.5999999940395","tol_trial_num","<div class = centerbox><p class = center-block-text>problem <strong>10</strong> out of 25 problems</p></div>","0","","","","","","","","","","","","","","","","","","","","","","","","",""
"","","","","","single-stim-button","144","362197","0.0-2.0-37.0-0.0","5c3764ce3acfeb000154ac66","E1","batch5","","5528","tol_tohand","","","","tol_peg_3","5528","5528","0","[[3,0,0],[1,0],[0]]","1","[[3,0,0],[2,1],[0]]","9","0","","","","","","3","","","","","","","","",""
"","","","","","single-stim-button","145","362857","0.0-2.0-37.0-1.0","5c3764ce3acfeb000154ac66","E1","batch5","","660","tol_toboard","","","","tol_peg_1","660","660","0","[[3,2,0],[1,0],[0]]","1","[[3,0,0],[2,1],[0]]","9","0","","","","","","3","","","","","","","","",""
"","","","","","single-stim-button","146","363494","0.0-2.0-37.1-0.1","5c3764ce3acfeb000154ac66","E1","batch5","","637","tol_tohand","","","","tol_peg_2","637","637","0","[[3,2,0],[0,0],[0]]","2","[[3,0,0],[2,1],[0]]","9","0","","","","","","3","","","","","","","","",""
"","","","","","single-stim-button","147","364792","0.0-2.0-37.1-1.1","5c3764ce3acfeb000154ac66","E1","batch5","","1297","tol_toboard","","","","tol_peg_3","1297","1297","0","[[3,2,0],[0,0],[1]]","2","[[3,0,0],[2,1],[0]]","9","0","","","","","","3","","","","","","","","",""
"","","","","","single-stim-button","148","365459","0.0-2.0-37.2-0.2","5c3764ce3acfeb000154ac66","E1","batch5","","667","tol_tohand","","","","tol_peg_1","667","667","0","[[3,0,0],[0,0],[1]]","3","[[3,0,0],[2,1],[0]]","9","0","","","","","","3","","","","","","","","",""
"","","","","","single-stim-button","149","365946","0.0-2.0-37.2-1.2","5c3764ce3acfeb000154ac66","E1","batch5","","487","tol_toboard","","","","tol_peg_2","487","487","0","[[3,0,0],[2,0],[1]]","3","[[3,0,0],[2,1],[0]]","9","0","","","","","","3","","","","","","","","",""
"","","","","","single-stim-button","150","366487","0.0-2.0-37.3-0.3","5c3764ce3acfeb000154ac66","E1","batch5","","540","tol_tohand","","","","tol_peg_3","540","540","0","[[3,0,0],[2,0],[0]]","4","[[3,0,0],[2,1],[0]]","9","0","","","","","","3","","","","","","","","",""
"","","","","","single-stim-button","151","367200","0.0-2.0-37.3-1.3","5c3764ce3acfeb000154ac66","E1","batch5","","712","tol_toboard","","","","tol_peg_2","712","712","0","[[3,0,0],[2,1],[0]]","4","[[3,0,0],[2,1],[0]]","9","0","","","","","","3","","","","","","","","",""
"","","","","","poldrack-single-stim","152","368203","0.0-2.0-38.0","5c3764ce3acfeb000154ac66","E1","batch5","","-1","tol_feedback","","","true","","1000","1000","500","","","","","","-1","none","true","5528","7372","","","","","","","","","",""
"","","","","","html-button-response","153","369247","0.0-2.0-39.0","5c3764ce3acfeb000154ac66","E1","batch5","","1043.6000000089407","tol_trial_num","<div class = centerbox><p class = center-block-text>problem <strong>11</strong> out of 25 problems</p></div>","0","","","","","","","","","","","","","","","","","","","","","","","","",""
"","","","","","single-stim-button","154","377827","0.0-2.0-40.0-0.0","5c3764ce3acfeb000154ac66","E1","batch5","","8579","tol_tohand","","","","tol_peg_1","8579","8579","0","[[1,0,0],[3,0],[0]]","1","[[2,0,0],[1,3],[0]]","10","0","","","","","","6","","","","","","","","",""
"","","","","","single-stim-button","155","378915","0.0-2.0-40.0-1.0","5c3764ce3acfeb000154ac66","E1","batch5","","1087","tol_toboard","","","","tol_peg_3","1087","1087","0","[[1,0,0],[3,0],[2]]","1","[[2,0,0],[1,3],[0]]","10","0","","","","","","6","","","","","","","","",""
"","","","","","single-stim-button","156","379440","0.0-2.0-40.1-0.1","5c3764ce3acfeb000154ac66","E1","batch5","","525","tol_tohand","","","","tol_peg_1","525","525","0","[[0,0,0],[3,0],[2]]","2","[[2,0,0],[1,3],[0]]","10","0","","","","","","6","","","","","","","","",""
"","","","","","single-stim-button","157","379822","0.0-2.0-40.1-1.1","5c3764ce3acfeb000154ac66","E1","batch5","","382","tol_toboard","","","","tol_peg_2","382","382","0","[[0,0,0],[3,1],[2]]","2","[[2,0,0],[1,3],[0]]","10","0","","","","","","6","","","","","","","","",""
"","","","","","single-stim-button","158","380250","0.0-2.0-40.2-0.2","5c3764ce3acfeb000154ac66","E1","batch5","","427","tol_tohand","","","","tol_peg_3","427","427","0","[[0,0,0],[3,1],[0]]","3","[[2,0,0],[1,3],[0]]","10","0","","","","","","6","","","","","","","","",""
"","","","","","single-stim-button","159","381060","0.0-2.0-40.2-1.2","5c3764ce3acfeb000154ac66","E1","batch5","","810","tol_toboard","","","","tol_peg_1","810","810","0","[[2,0,0],[3,1],[0]]","3","[[2,0,0],[1,3],[0]]","10","0","","","","","","6","","","","","","","","",""
"","","","","","single-stim-button","160","382020","0.0-2.0-40.3-0.3","5c3764ce3acfeb000154ac66","E1","batch5","","960","tol_tohand","","","","tol_peg_2","960","960","0","[[2,0,0],[3,0],[0]]","4","[[2,0,0],[1,3],[0]]","10","0","","","","","","6","","","","","","","","",""
"","","","","","single-stim-button","161","382627","0.0-2.0-40.3-1.3","5c3764ce3acfeb000154ac66","E1","batch5","","607","tol_toboard","","","","tol_peg_3","607","607","0","[[2,0,0],[3,0],[1]]","4","[[2,0,0],[1,3],[0]]","10","0","","","","","","6","","","","","","","","",""
"","","","","","single-stim-button","162","383167","0.0-2.0-40.4-0.4","5c3764ce3acfeb000154ac66","E1","batch5","","539","tol_tohand","","","","tol_peg_2","539","539","0","[[2,0,0],[0,0],[1]]","5","[[2,0,0],[1,3],[0]]","10","0","","","","","","6","","","","","","","","",""
"","","","","","single-stim-button","163","383595","0.0-2.0-40.4-1.4","5c3764ce3acfeb000154ac66","E1","batch5","","428","tol_toboard","","","","tol_peg_1","428","428","0","[[2,3,0],[0,0],[1]]","5","[[2,0,0],[1,3],[0]]","10","0","","","","","","6","","","","","","","","",""
"","","","","","single-stim-button","164","384031","0.0-2.0-40.5-0.5","5c3764ce3acfeb000154ac66","E1","batch5","","436","tol_tohand","","","","tol_peg_3","436","436","0","[[2,3,0],[0,0],[0]]","6","[[2,0,0],[1,3],[0]]","10","0","","","","","","6","","","","","","","","",""
"","","","","","single-stim-button","165","384592","0.0-2.0-40.5-1.5","5c3764ce3acfeb000154ac66","E1","batch5","","561","tol_toboard","","","","tol_peg_2","561","561","0","[[2,3,0],[1,0],[0]]","6","[[2,0,0],[1,3],[0]]","10","0","","","","","","6","","","","","","","","",""
"","","","","","single-stim-button","166","384997","0.0-2.0-40.6-0.6","5c3764ce3acfeb000154ac66","E1","batch5","","405","tol_tohand","","","","tol_peg_1","405","405","0","[[2,0,0],[1,0],[0]]","7","[[2,0,0],[1,3],[0]]","10","0","","","","","","6","","","","","","","","",""
"","","","","","single-stim-button","167","385560","0.0-2.0-40.6-1.6","5c3764ce3acfeb000154ac66","E1","batch5","","562","tol_toboard","","","","tol_peg_2","562","562","0","[[2,0,0],[1,3],[0]]","7","[[2,0,0],[1,3],[0]]","10","0","","","","","","6","","","","","","","","",""
"","","","","","poldrack-single-stim","168","386564","0.0-2.0-41.0","5c3764ce3acfeb000154ac66","E1","batch5","","-1","tol_feedback","","","true","","1000","1000","500","","","","","","-1","none","true","8579","11871","","","","","","","","","",""
"","","","","","html-button-response","169","387667","0.0-2.0-42.0","5c3764ce3acfeb000154ac66","E1","batch5","","1101.8999999910593","tol_trial_num","<div class = centerbox><p class = center-block-text>problem <strong>12</strong> out of 25 problems</p></div>","0","","","","","","","","","","","","","","","","","","","","","","","","",""
"","","","","","single-stim-button","170","397432","0.0-2.0-43.0-0.0","5c3764ce3acfeb000154ac66","E1","batch5","","9764","tol_tohand","","","","tol_peg_1","9764","9764","0","[[1,0,0],[3,0],[0]]","1","[[2,3,0],[0,0],[1]]","11","0","","","","","","4","","","","","","","","",""
"","","","","","single-stim-button","171","398040","0.0-2.0-43.0-1.0","5c3764ce3acfeb000154ac66","E1","batch5","","606","tol_toboard","","","","tol_peg_2","606","606","0","[[1,0,0],[3,2],[0]]","1","[[2,3,0],[0,0],[1]]","11","0","","","","","","4","","","","","","","","",""
"","","","","","single-stim-button","172","398497","0.0-2.0-43.1-0.1","5c3764ce3acfeb000154ac66","E1","batch5","","457","tol_tohand","","","","tol_peg_1","457","457","0","[[0,0,0],[3,2],[0]]","2","[[2,3,0],[0,0],[1]]","11","0","","","","","","4","","","","","","","","",""
"","","","","","single-stim-button","173","399203","0.0-2.0-43.1-1.1","5c3764ce3acfeb000154ac66","E1","batch5","","705","tol_toboard","","","","tol_peg_3","705","705","0","[[0,0,0],[3,2],[1]]","2","[[2,3,0],[0,0],[1]]","11","0","","","","","","4","","","","","","","","",""
"","","","","","single-stim-button","174","399802","0.0-2.0-43.2-0.2","5c3764ce3acfeb000154ac66","E1","batch5","","599","tol_tohand","","","","tol_peg_2","599","599","0","[[0,0,0],[3,0],[1]]","3","[[2,3,0],[0,0],[1]]","11","0","","","","","","4","","","","","","","","",""
"","","","","","single-stim-button","175","400478","0.0-2.0-43.2-1.2","5c3764ce3acfeb000154ac66","E1","batch5","","676","tol_toboard","","","","tol_peg_1","676","676","0","[[2,0,0],[3,0],[1]]","3","[[2,3,0],[0,0],[1]]","11","0","","","","","","4","","","","","","","","",""
"","","","","","single-stim-button","176","400868","0.0-2.0-43.3-0.3","5c3764ce3acfeb000154ac66","E1","batch5","","390","tol_tohand","","","","tol_peg_2","390","390","0","[[2,0,0],[0,0],[1]]","4","[[2,3,0],[0,0],[1]]","11","0","","","","","","4","","","","","","","","",""
"","","","","","single-stim-button","177","401295","0.0-2.0-43.3-1.3","5c3764ce3acfeb000154ac66","E1","batch5","","427","tol_toboard","","","","tol_peg_1","427","427","0","[[2,3,0],[0,0],[1]]","4","[[2,3,0],[0,0],[1]]","11","0","","","","","","4","","","","","","","","",""
"","","","","","poldrack-single-stim","178","402305","0.0-2.0-44.0","5c3764ce3acfeb000154ac66","E1","batch5","","-1","tol_feedback","","","true","","1000","1000","500","","","","","","-1","none","true","9764","11210","","","","","","","","","",""
"","","","","","html-button-response","179","403147","0.0-2.0-45.0","5c3764ce3acfeb000154ac66","E1","batch5","","841.2000000029802","tol_trial_num","<div class = centerbox><p class = center-block-text>problem <strong>13</strong> out of 25 problems</p></div>","0","","","","","","","","","","","","","","","","","","","","","","","","",""
"","","","","","single-stim-button","180","408195","0.0-2.0-46.0-0.0","5c3764ce3acfeb000154ac66","E1","batch5","","5048","tol_tohand","","","","tol_peg_2","5048","5048","0","[[1,2,0],[0,0],[0]]","1","[[0,0,0],[2,3],[1]]","12","0","","","","","","4","","","","","","","","",""
"","","","","","single-stim-button","181","408720","0.0-2.0-46.0-1.0","5c3764ce3acfeb000154ac66","E1","batch5","","524","tol_toboard","","","","tol_peg_3","524","524","0","[[1,2,0],[0,0],[3]]","1","[[0,0,0],[2,3],[1]]","12","0","","","","","","4","","","","","","","","",""
"","","","","","single-stim-button","182","409440","0.0-2.0-46.1-0.1","5c3764ce3acfeb000154ac66","E1","batch5","","719","tol_tohand","","","","tol_peg_1","719","719","0","[[1,0,0],[0,0],[3]]","2","[[0,0,0],[2,3],[1]]","12","0","","","","","","4","","","","","","","","",""
"","","","","","single-stim-button","183","410010","0.0-2.0-46.1-1.1","5c3764ce3acfeb000154ac66","E1","batch5","","569","tol_toboard","","","","tol_peg_2","569","569","0","[[1,0,0],[2,0],[3]]","2","[[0,0,0],[2,3],[1]]","12","0","","","","","","4","","","","","","","","",""
"","","","","","single-stim-button","184","410761","0.0-2.0-46.2-0.2","5c3764ce3acfeb000154ac66","E1","batch5","","750","tol_tohand","","","","tol_peg_3","750","750","0","[[1,0,0],[2,0],[0]]","3","[[0,0,0],[2,3],[1]]","12","0","","","","","","4","","","","","","","","",""
"","","","","","single-stim-button","185","411135","0.0-2.0-46.2-1.2","5c3764ce3acfeb000154ac66","E1","batch5","","374","tol_toboard","","","","tol_peg_2","374","374","0","[[1,0,0],[2,3],[0]]","3","[[0,0,0],[2,3],[1]]","12","0","","","","","","4","","","","","","","","",""
"","","","","","single-stim-button","186","411803","0.0-2.0-46.3-0.3","5c3764ce3acfeb000154ac66","E1","batch5","","666","tol_tohand","","","","tol_peg_1","666","666","0","[[0,0,0],[2,3],[0]]","4","[[0,0,0],[2,3],[1]]","12","0","","","","","","4","","","","","","","","",""
"","","","","","single-stim-button","187","412718","0.0-2.0-46.3-1.3","5c3764ce3acfeb000154ac66","E1","batch5","","914","tol_toboard","","","","tol_peg_3","914","914","0","[[0,0,0],[2,3],[1]]","4","[[0,0,0],[2,3],[1]]","12","0","","","","","","4","","","","","","","","",""
"","","","","","poldrack-single-stim","188","413724","0.0-2.0-47.0","5c3764ce3acfeb000154ac66","E1","batch5","","-1","tol_feedback","","","true","","1000","1000","500","","","","","","-1","none","true","5048","7183","","","","","","","","","",""
"","","","","","html-button-response","189","416071","0.0-2.0-48.0","5c3764ce3acfeb000154ac66","E1","batch5","","2346","attention_check","<p class = block-text>How many balls are in your board<br></p>","1","true","","","","","","","","","","","","","","","","","","","","","","","",""
"","","","","","html-button-response","190","416977","0.0-2.0-49.0","5c3764ce3acfeb000154ac66","E1","batch5","","905.7000000029802","tol_trial_num","<div class = centerbox><p class = center-block-text>problem <strong>14</strong> out of 25 problems</p></div>","0","","","","","","","","","","","","","","","","","","","","","","","","",""
"","","","","","single-stim-button","191","421132","0.0-2.0-50.0-0.0","5c3764ce3acfeb000154ac66","E1","batch5","","4155","tol_tohand","","","","tol_peg_1","4155","4155","0","[[2,0,0],[3,0],[0]]","1","[[1,2,0],[3,0],[0]]","13","0","","","","","","4","","","","","","","","",""
"","","","","","single-stim-button","192","421830","0.0-2.0-50.0-1.0","5c3764ce3acfeb000154ac66","E1","batch5","","697","tol_toboard","","","","tol_peg_3","697","697","0","[[2,0,0],[3,0],[1]]","1","[[1,2,0],[3,0],[0]]","13","0","","","","","","4","","","","","","","","",""
"","","","","","single-stim-button","193","422431","0.0-2.0-50.1-0.1","5c3764ce3acfeb000154ac66","E1","batch5","","600","tol_tohand","","","","tol_peg_1","600","600","0","[[0,0,0],[3,0],[1]]","2","[[1,2,0],[3,0],[0]]","13","0","","","","","","4","","","","","","","","",""
"","","","","","single-stim-button","194","422986","0.0-2.0-50.1-1.1","5c3764ce3acfeb000154ac66","E1","batch5","","553","tol_toboard","","","","tol_peg_2","553","553","0","[[0,0,0],[3,2],[1]]","2","[[1,2,0],[3,0],[0]]","13","0","","","","","","4","","","","","","","","",""
"","","","","","single-stim-button","195","423435","0.0-2.0-50.2-0.2","5c3764ce3acfeb000154ac66","E1","batch5","","449","tol_tohand","","","","tol_peg_3","449","449","0","[[0,0,0],[3,2],[0]]","3","[[1,2,0],[3,0],[0]]","13","0","","","","","","4","","","","","","","","",""
"","","","","","single-stim-button","196","424155","0.0-2.0-50.2-1.2","5c3764ce3acfeb000154ac66","E1","batch5","","718","tol_toboard","","","","tol_peg_1","718","718","0","[[1,0,0],[3,2],[0]]","3","[[1,2,0],[3,0],[0]]","13","0","","","","","","4","","","","","","","","",""
"","","","","","single-stim-button","197","424838","0.0-2.0-50.3-0.3","5c3764ce3acfeb000154ac66","E1","batch5","","683","tol_tohand","","","","tol_peg_2","683","683","0","[[1,0,0],[3,0],[0]]","4","[[1,2,0],[3,0],[0]]","13","0","","","","","","4","","","","","","","","",""
"","","","","","single-stim-button","198","425505","0.0-2.0-50.3-1.3","5c3764ce3acfeb000154ac66","E1","batch5","","667","tol_toboard","","","","tol_peg_1","667","667","0","[[1,2,0],[3,0],[0]]","4","[[1,2,0],[3,0],[0]]","13","0","","","","","","4","","","","","","","","",""
"","","","","","poldrack-single-stim","199","426512","0.0-2.0-51.0","5c3764ce3acfeb000154ac66","E1","batch5","","-1","tol_feedback","","","true","","1000","1000","500","","","","","","-1","none","true","4155","5887","","","","","","","","","",""
"","","","","","html-button-response","200","427583","0.0-2.0-52.0","5c3764ce3acfeb000154ac66","E1","batch5","","1070.5","tol_trial_num","<div class = centerbox><p class = center-block-text>problem <strong>15</strong> out of 25 problems</p></div>","0","","","","","","","","","","","","","","","","","","","","","","","","",""
"","","","","","single-stim-button","201","431558","0.0-2.0-53.0-0.0","5c3764ce3acfeb000154ac66","E1","batch5","","3975","tol_tohand","","","","tol_peg_1","3975","3975","0","[[1,0,0],[3,0],[0]]","1","[[2,0,0],[3,0],[1]]","14","0","","","","","","3","","","","","","","","",""
"","","","","","single-stim-button","202","432203","0.0-2.0-53.0-1.0","5c3764ce3acfeb000154ac66","E1","batch5","","645","tol_toboard","","","","tol_peg_2","645","645","0","[[1,0,0],[3,2],[0]]","1","[[2,0,0],[3,0],[1]]","14","0","","","","","","3","","","","","","","","",""
"","","","","","single-stim-button","203","432945","0.0-2.0-53.1-0.1","5c3764ce3acfeb000154ac66","E1","batch5","","742","tol_tohand","","","","tol_peg_1","742","742","0","[[0,0,0],[3,2],[0]]","2","[[2,0,0],[3,0],[1]]","14","0","","","","","","3","","","","","","","","",""
"","","","","","single-stim-button","204","433823","0.0-2.0-53.1-1.1","5c3764ce3acfeb000154ac66","E1","batch5","","878","tol_toboard","","","","tol_peg_3","878","878","0","[[0,0,0],[3,2],[1]]","2","[[2,0,0],[3,0],[1]]","14","0","","","","","","3","","","","","","","","",""
"","","","","","single-stim-button","205","434363","0.0-2.0-53.2-0.2","5c3764ce3acfeb000154ac66","E1","batch5","","539","tol_tohand","","","","tol_peg_2","539","539","0","[[0,0,0],[3,0],[1]]","3","[[2,0,0],[3,0],[1]]","14","0","","","","","","3","","","","","","","","",""
"","","","","","single-stim-button","206","435278","0.0-2.0-53.2-1.2","5c3764ce3acfeb000154ac66","E1","batch5","","914","tol_toboard","","","","tol_peg_1","914","914","0","[[2,0,0],[3,0],[1]]","3","[[2,0,0],[3,0],[1]]","14","0","","","","","","3","","","","","","","","",""
"","","","","","poldrack-single-stim","207","436283","0.0-2.0-54.0","5c3764ce3acfeb000154ac66","E1","batch5","","-1","tol_feedback","","","true","","1000","1000","500","","","","","","-1","none","true","3975","5256","","","","","","","","","",""
"","","","","","html-button-response","208","437363","0.0-2.0-55.0","5c3764ce3acfeb000154ac66","E1","batch5","","1078.6000000089407","tol_trial_num","<div class = centerbox><p class = center-block-text>problem <strong>16</strong> out of 25 problems</p></div>","0","","","","","","","","","","","","","","","","","","","","","","","","",""
"","","","","","single-stim-button","209","456638","0.0-2.0-56.0-0.0","5c3764ce3acfeb000154ac66","E1","batch5","","19275","tol_tohand","","","","tol_peg_2","19275","19275","0","[[0,0,0],[2,0],[1]]","1","[[2,3,0],[1,0],[0]]","15","0","","","","","","7","","","","","","","","",""
"","","","","","single-stim-button","210","458198","0.0-2.0-56.0-1.0","5c3764ce3acfeb000154ac66","E1","batch5","","1559","tol_toboard","","","","tol_peg_1","1559","1559","0","[[3,0,0],[2,0],[1]]","1","[[2,3,0],[1,0],[0]]","15","0","","","","","","7","","","","","","","","",""
"","","","","","single-stim-button","211","461701","0.0-2.0-56.1-0.1","5c3764ce3acfeb000154ac66","E1","batch5","","3503","tol_tohand","","","","tol_peg_3","3503","3503","0","[[3,0,0],[2,0],[0]]","2","[[2,3,0],[1,0],[0]]","15","0","","","","","","7","","","","","","","","",""
"","","","","","single-stim-button","212","462166","0.0-2.0-56.1-1.1","5c3764ce3acfeb000154ac66","E1","batch5","","463","tol_toboard","","","","tol_peg_1","463","463","0","[[3,1,0],[2,0],[0]]","2","[[2,3,0],[1,0],[0]]","15","0","","","","","","7","","","","","","","","",""
"","","","","","single-stim-button","213","462616","0.0-2.0-56.2-0.2","5c3764ce3acfeb000154ac66","E1","batch5","","450","tol_tohand","","","","tol_peg_2","450","450","0","[[3,1,0],[0,0],[0]]","3","[[2,3,0],[1,0],[0]]","15","0","","","","","","7","","","","","","","","",""
"","","","","","single-stim-button","214","463306","0.0-2.0-56.2-1.2","5c3764ce3acfeb000154ac66","E1","batch5","","689","tol_toboard","","","","tol_peg_3","689","689","0","[[3,1,0],[0,0],[2]]","3","[[2,3,0],[1,0],[0]]","15","0","","","","","","7","","","","","","","","",""
"","","","","","single-stim-button","215","464011","0.0-2.0-56.3-0.3","5c3764ce3acfeb000154ac66","E1","batch5","","704","tol_tohand","","","","tol_peg_1","704","704","0","[[3,0,0],[0,0],[2]]","4","[[2,3,0],[1,0],[0]]","15","0","","","","","","7","","","","","","","","",""
"","","","","","single-stim-button","216","464798","0.0-2.0-56.3-1.3","5c3764ce3acfeb000154ac66","E1","batch5","","787","tol_toboard","","","","tol_peg_2","787","787","0","[[3,0,0],[1,0],[2]]","4","[[2,3,0],[1,0],[0]]","15","0","","","","","","7","","","","","","","","",""
"","","","","","single-stim-button","217","465264","0.0-2.0-56.4-0.4","5c3764ce3acfeb000154ac66","E1","batch5","","465","tol_tohand","","","","tol_peg_1","465","465","0","[[0,0,0],[1,0],[2]]","5","[[2,3,0],[1,0],[0]]","15","0","","","","","","7","","","","","","","","",""
"","","","","","single-stim-button","218","465758","0.0-2.0-56.4-1.4","5c3764ce3acfeb000154ac66","E1","batch5","","494","tol_toboard","","","","tol_peg_2","494","494","0","[[0,0,0],[1,3],[2]]","5","[[2,3,0],[1,0],[0]]","15","0","","","","","","7","","","","","","","","",""
"","","","","","single-stim-button","219","466757","0.0-2.0-56.5-0.5","5c3764ce3acfeb000154ac66","E1","batch5","","999","tol_tohand","","","","tol_peg_3","999","999","0","[[0,0,0],[1,3],[0]]","6","[[2,3,0],[1,0],[0]]","15","0","","","","","","7","","","","","","","","",""
"","","","","","single-stim-button","220","467408","0.0-2.0-56.5-1.5","5c3764ce3acfeb000154ac66","E1","batch5","","651","tol_toboard","","","","tol_peg_1","651","651","0","[[2,0,0],[1,3],[0]]","6","[[2,3,0],[1,0],[0]]","15","0","","","","","","7","","","","","","","","",""
"","","","","","single-stim-button","221","467821","0.0-2.0-56.6-0.6","5c3764ce3acfeb000154ac66","E1","batch5","","411","tol_tohand","","","","tol_peg_2","411","411","0","[[2,0,0],[1,0],[0]]","7","[[2,3,0],[1,0],[0]]","15","0","","","","","","7","","","","","","","","",""
"","","","","","single-stim-button","222","468309","0.0-2.0-56.6-1.6","5c3764ce3acfeb000154ac66","E1","batch5","","488","tol_toboard","","","","tol_peg_1","488","488","0","[[2,3,0],[1,0],[0]]","7","[[2,3,0],[1,0],[0]]","15","0","","","","","","7","","","","","","","","",""
"","","","","","poldrack-single-stim","223","469325","0.0-2.0-57.0","5c3764ce3acfeb000154ac66","E1","batch5","","-1","tol_feedback","","","true","","1000","1000","500","","","","","","-1","none","true","19275","25807","","","","","","","","","",""
"","","","","","html-button-response","224","477166","0.0-2.0-58.0","5c3764ce3acfeb000154ac66","E1","batch5","","7839.800000011921","tol_trial_num","<div class = centerbox><p class = center-block-text>problem <strong>17</strong> out of 25 problems</p></div>","0","","","","","","","","","","","","","","","","","","","","","","","","",""
"","","","","","single-stim-button","225","490135","0.0-2.0-59.0-0.0","5c3764ce3acfeb000154ac66","E1","batch5","","12968","tol_tohand","","","","tol_peg_2","12968","12968","0","[[1,2,0],[0,0],[0]]","1","[[3,1,0],[2,0],[0]]","16","0","","","","","","5","","","","","","","","",""
"","","","","","single-stim-button","226","490756","0.0-2.0-59.0-1.0","5c3764ce3acfeb000154ac66","E1","batch5","","620","tol_toboard","","","","tol_peg_3","620","620","0","[[1,2,0],[0,0],[3]]","1","[[3,1,0],[2,0],[0]]","16","0","","","","","","5","","","","","","","","",""
"","","","","","single-stim-button","227","491492","0.0-2.0-59.1-0.1","5c3764ce3acfeb000154ac66","E1","batch5","","734","tol_tohand","","","","tol_peg_1","734","734","0","[[1,0,0],[0,0],[3]]","2","[[3,1,0],[2,0],[0]]","16","0","","","","","","5","","","","","","","","",""
"","","","","","single-stim-button","228","492406","0.0-2.0-59.1-1.1","5c3764ce3acfeb000154ac66","E1","batch5","","914","tol_toboard","","","","tol_peg_2","914","914","0","[[1,0,0],[2,0],[3]]","2","[[3,1,0],[2,0],[0]]","16","0","","","","","","5","","","","","","","","",""
"","","","","","single-stim-button","229","493568","0.0-2.0-59.2-0.2","5c3764ce3acfeb000154ac66","E1","batch5","","1162","tol_tohand","","","","tol_peg_1","1162","1162","0","[[0,0,0],[2,0],[3]]","3","[[3,1,0],[2,0],[0]]","16","0","","","","","","5","","","","","","","","",""
"","","","","","single-stim-button","230","494289","0.0-2.0-59.2-1.2","5c3764ce3acfeb000154ac66","E1","batch5","","721","tol_toboard","","","","tol_peg_2","721","721","0","[[0,0,0],[2,1],[3]]","3","[[3,1,0],[2,0],[0]]","16","0","","","","","","5","","","","","","","","",""
"","","","","","single-stim-button","231","494791","0.0-2.0-59.3-0.3","5c3764ce3acfeb000154ac66","E1","batch5","","502","tol_tohand","","","","tol_peg_3","502","502","0","[[0,0,0],[2,1],[0]]","4","[[3,1,0],[2,0],[0]]","16","0","","","","","","5","","","","","","","","",""
"","","","","","single-stim-button","232","495384","0.0-2.0-59.3-1.3","5c3764ce3acfeb000154ac66","E1","batch5","","592","tol_toboard","","","","tol_peg_1","592","592","0","[[3,0,0],[2,1],[0]]","4","[[3,1,0],[2,0],[0]]","16","0","","","","","","5","","","","","","","","",""
"","","","","","single-stim-button","233","496335","0.0-2.0-59.4-0.4","5c3764ce3acfeb000154ac66","E1","batch5","","951","tol_tohand","","","","tol_peg_2","951","951","0","[[3,0,0],[2,0],[0]]","5","[[3,1,0],[2,0],[0]]","16","0","","","","","","5","","","","","","","","",""
"","","","","","single-stim-button","234","496861","0.0-2.0-59.4-1.4","5c3764ce3acfeb000154ac66","E1","batch5","","525","tol_toboard","","","","tol_peg_1","525","525","0","[[3,1,0],[2,0],[0]]","5","[[3,1,0],[2,0],[0]]","16","0","","","","","","5","","","","","","","","",""
"","","","","","poldrack-single-stim","235","497879","0.0-2.0-60.0","5c3764ce3acfeb000154ac66","E1","batch5","","-1","tol_feedback","","","true","","1000","1000","500","","","","","","-1","none","true","12968","16317","","","","","","","","","",""
"","","","","","html-button-response","236","498654","0.0-2.0-61.0","5c3764ce3acfeb000154ac66","E1","batch5","","773.7000000029802","tol_trial_num","<div class = centerbox><p class = center-block-text>problem <strong>18</strong> out of 25 problems</p></div>","0","","","","","","","","","","","","","","","","","","","","","","","","",""
"","","","","","single-stim-button","237","502284","0.0-2.0-62.0-0.0","5c3764ce3acfeb000154ac66","E1","batch5","","3630","tol_tohand","","","","tol_peg_1","3630","3630","0","[[1,0,0],[3,0],[0]]","1","[[3,0,0],[2,0],[1]]","17","0","","","","","","5","","","","","","","","",""
"","","","","","single-stim-button","238","505059","0.0-2.0-62.0-1.0","5c3764ce3acfeb000154ac66","E1","batch5","","2774","tol_toboard","","","","tol_peg_2","2774","2774","0","[[1,0,0],[3,2],[0]]","1","[[3,0,0],[2,0],[1]]","17","0","","","","","","5","","","","","","","","",""
"","","","","","single-stim-button","239","505816","0.0-2.0-62.1-0.1","5c3764ce3acfeb000154ac66","E1","batch5","","756","tol_tohand","","","","tol_peg_1","756","756","0","[[0,0,0],[3,2],[0]]","2","[[3,0,0],[2,0],[1]]","17","0","","","","","","5","","","","","","","","",""
"","","","","","single-stim-button","240","506588","0.0-2.0-62.1-1.1","5c3764ce3acfeb000154ac66","E1","batch5","","772","tol_toboard","","","","tol_peg_3","772","772","0","[[0,0,0],[3,2],[1]]","2","[[3,0,0],[2,0],[1]]","17","0","","","","","","5","","","","","","","","",""
"","","","","","single-stim-button","241","508936","0.0-2.0-62.2-0.2","5c3764ce3acfeb000154ac66","E1","batch5","","2348","tol_tohand","","","","tol_peg_3","2348","2348","0","[[0,0,0],[3,2],[0]]","3","[[3,0,0],[2,0],[1]]","17","0","","","","","","5","","","","","","","","",""
"","","","","","single-stim-button","242","510736","0.0-2.0-62.2-1.2","5c3764ce3acfeb000154ac66","E1","batch5","","1799","tol_toboard","","","","tol_peg_1","1799","1799","0","[[1,0,0],[3,2],[0]]","3","[[3,0,0],[2,0],[1]]","17","0","","","","","","5","","","","","","","","",""
"","","","","","single-stim-button","243","511246","0.0-2.0-62.3-0.3","5c3764ce3acfeb000154ac66","E1","batch5","","509","tol_tohand","","","","tol_peg_2","509","509","0","[[1,0,0],[3,0],[0]]","4","[[3,0,0],[2,0],[1]]","17","0","","","","","","5","","","","","","","","",""
"","","","","","single-stim-button","244","514598","0.0-2.0-62.3-1.3","5c3764ce3acfeb000154ac66","E1","batch5","","3352","tol_toboard","","","","tol_peg_3","3352","3352","0","[[1,0,0],[3,0],[2]]","4","[[3,0,0],[2,0],[1]]","17","0","","","","","","5","","","","","","","","",""
"","","","","","single-stim-button","245","515026","0.0-2.0-62.4-0.4","5c3764ce3acfeb000154ac66","E1","batch5","","427","tol_tohand","","","","tol_peg_2","427","427","0","[[1,0,0],[0,0],[2]]","5","[[3,0,0],[2,0],[1]]","17","0","","","","","","5","","","","","","","","",""
"","","","","","single-stim-button","246","515379","0.0-2.0-62.4-1.4","5c3764ce3acfeb000154ac66","E1","batch5","","352","tol_toboard","","","","tol_peg_1","352","352","0","[[1,3,0],[0,0],[2]]","5","[[3,0,0],[2,0],[1]]","17","0","","","","","","5","","","","","","","","",""
"","","","","","single-stim-button","247","515867","0.0-2.0-62.5-0.5","5c3764ce3acfeb000154ac66","E1","batch5","","487","tol_tohand","","","","tol_peg_3","487","487","0","[[1,3,0],[0,0],[0]]","6","[[3,0,0],[2,0],[1]]","17","0","","","","","","5","","","","","","","","",""
"","","","","","single-stim-button","248","516398","0.0-2.0-62.5-1.5","5c3764ce3acfeb000154ac66","E1","batch5","","531","tol_toboard","","","","tol_peg_2","531","531","0","[[1,3,0],[2,0],[0]]","6","[[3,0,0],[2,0],[1]]","17","0","","","","","","5","","","","","","","","",""
"","","","","","single-stim-button","249","517411","0.0-2.0-62.6-0.6","5c3764ce3acfeb000154ac66","E1","batch5","","1012","tol_tohand","","","","tol_peg_1","1012","1012","0","[[1,0,0],[2,0],[0]]","7","[[3,0,0],[2,0],[1]]","17","0","","","","","","5","","","","","","","","",""
"","","","","","single-stim-button","250","518102","0.0-2.0-62.6-1.6","5c3764ce3acfeb000154ac66","E1","batch5","","689","tol_toboard","","","","tol_peg_2","689","689","0","[[1,0,0],[2,3],[0]]","7","[[3,0,0],[2,0],[1]]","17","0","","","","","","5","","","","","","","","",""
"","","","","","single-stim-button","251","518447","0.0-2.0-62.7-0.7","5c3764ce3acfeb000154ac66","E1","batch5","","344","tol_tohand","","","","tol_peg_1","344","344","0","[[0,0,0],[2,3],[0]]","8","[[3,0,0],[2,0],[1]]","17","0","","","","","","5","","","","","","","","",""
"","","","","","single-stim-button","252","519287","0.0-2.0-62.7-1.7","5c3764ce3acfeb000154ac66","E1","batch5","","840","tol_toboard","","","","tol_peg_3","840","840","0","[[0,0,0],[2,3],[1]]","8","[[3,0,0],[2,0],[1]]","17","0","","","","","","5","","","","","","","","",""
"","","","","","single-stim-button","253","519902","0.0-2.0-62.8-0.8","5c3764ce3acfeb000154ac66","E1","batch5","","614","tol_tohand","","","","tol_peg_2","614","614","0","[[0,0,0],[2,0],[1]]","9","[[3,0,0],[2,0],[1]]","17","0","","","","","","5","","","","","","","","",""
"","","","","","single-stim-button","254","520562","0.0-2.0-62.8-1.8","5c3764ce3acfeb000154ac66","E1","batch5","","659","tol_toboard","","","","tol_peg_1","659","659","0","[[3,0,0],[2,0],[1]]","9","[[3,0,0],[2,0],[1]]","17","0","","","","","","5","","","","","","","","",""
"","","","","","poldrack-single-stim","255","521577","0.0-2.0-63.0","5c3764ce3acfeb000154ac66","E1","batch5","","-1","tol_feedback","","","true","","1000","1000","500","","","","","","-1","none","true","3630","10127","","","","","","","","","",""
"","","","","","html-button-response","256","530679","0.0-2.0-64.0","5c3764ce3acfeb000154ac66","E1","batch5","","9100.70000000298","tol_trial_num","<div class = centerbox><p class = center-block-text>problem <strong>19</strong> out of 25 problems</p></div>","0","","","","","","","","","","","","","","","","","","","","","","","","",""
"","","","","","single-stim-button","257","557224","0.0-2.0-65.0-0.0","5c3764ce3acfeb000154ac66","E1","batch5","","26544","tol_tohand","","","","tol_peg_1","26544","26544","0","[[1,0,0],[3,0],[0]]","1","[[0,0,0],[1,2],[3]]","18","0","","","","","","7","","","","","","","","",""
"","","","","","single-stim-button","258","558371","0.0-2.0-65.0-1.0","5c3764ce3acfeb000154ac66","E1","batch5","","1147","tol_toboard","","","","tol_peg_3","1147","1147","0","[[1,0,0],[3,0],[2]]","1","[[0,0,0],[1,2],[3]]","18","0","","","","","","7","","","","","","","","",""
"","","","","","single-stim-button","259","559706","0.0-2.0-65.1-0.1","5c3764ce3acfeb000154ac66","E1","batch5","","1334","tol_tohand","","","","tol_peg_1","1334","1334","0","[[0,0,0],[3,0],[2]]","2","[[0,0,0],[1,2],[3]]","18","0","","","","","","7","","","","","","","","",""
"","","","","","single-stim-button","260","565068","0.0-2.0-65.1-1.1","5c3764ce3acfeb000154ac66","E1","batch5","","5362","tol_toboard","","","","tol_peg_2","5362","5362","0","[[0,0,0],[3,1],[2]]","2","[[0,0,0],[1,2],[3]]","18","0","","","","","","7","","","","","","","","",""
"","","","","","single-stim-button","261","565594","0.0-2.0-65.2-0.2","5c3764ce3acfeb000154ac66","E1","batch5","","524","tol_tohand","","","","tol_peg_3","524","524","0","[[0,0,0],[3,1],[0]]","3","[[0,0,0],[1,2],[3]]","18","0","","","","","","7","","","","","","","","",""
"","","","","","single-stim-button","262","566111","0.0-2.0-65.2-1.2","5c3764ce3acfeb000154ac66","E1","batch5","","517","tol_toboard","","","","tol_peg_1","517","517","0","[[2,0,0],[3,1],[0]]","3","[[0,0,0],[1,2],[3]]","18","0","","","","","","7","","","","","","","","",""
"","","","","","single-stim-button","263","567911","0.0-2.0-65.3-0.3","5c3764ce3acfeb000154ac66","E1","batch5","","1800","tol_tohand","","","","tol_peg_2","1800","1800","0","[[2,0,0],[3,0],[0]]","4","[[0,0,0],[1,2],[3]]","18","0","","","","","","7","","","","","","","","",""
"","","","","","single-stim-button","264","568683","0.0-2.0-65.3-1.3","5c3764ce3acfeb000154ac66","E1","batch5","","772","tol_toboard","","","","tol_peg_1","772","772","0","[[2,1,0],[3,0],[0]]","4","[[0,0,0],[1,2],[3]]","18","0","","","","","","7","","","","","","","","",""
"","","","","","single-stim-button","265","569073","0.0-2.0-65.4-0.4","5c3764ce3acfeb000154ac66","E1","batch5","","389","tol_tohand","","","","tol_peg_2","389","389","0","[[2,1,0],[0,0],[0]]","5","[[0,0,0],[1,2],[3]]","18","0","","","","","","7","","","","","","","","",""
"","","","","","single-stim-button","266","569666","0.0-2.0-65.4-1.4","5c3764ce3acfeb000154ac66","E1","batch5","","591","tol_toboard","","","","tol_peg_3","591","591","0","[[2,1,0],[0,0],[3]]","5","[[0,0,0],[1,2],[3]]","18","0","","","","","","7","","","","","","","","",""
"","","","","","single-stim-button","267","570356","0.0-2.0-65.5-0.5","5c3764ce3acfeb000154ac66","E1","batch5","","689","tol_tohand","","","","tol_peg_1","689","689","0","[[2,0,0],[0,0],[3]]","6","[[0,0,0],[1,2],[3]]","18","0","","","","","","7","","","","","","","","",""
"","","","","","single-stim-button","268","570866","0.0-2.0-65.5-1.5","5c3764ce3acfeb000154ac66","E1","batch5","","509","tol_toboard","","","","tol_peg_2","509","509","0","[[2,0,0],[1,0],[3]]","6","[[0,0,0],[1,2],[3]]","18","0","","","","","","7","","","","","","","","",""
"","","","","","single-stim-button","269","571219","0.0-2.0-65.6-0.6","5c3764ce3acfeb000154ac66","E1","batch5","","352","tol_tohand","","","","tol_peg_1","352","352","0","[[0,0,0],[1,0],[3]]","7","[[0,0,0],[1,2],[3]]","18","0","","","","","","7","","","","","","","","",""
"","","","","","single-stim-button","270","571578","0.0-2.0-65.6-1.6","5c3764ce3acfeb000154ac66","E1","batch5","","359","tol_toboard","","","","tol_peg_2","359","359","0","[[0,0,0],[1,2],[3]]","7","[[0,0,0],[1,2],[3]]","18","0","","","","","","7","","","","","","","","",""
"","","","","","poldrack-single-stim","271","572587","0.0-2.0-66.0","5c3764ce3acfeb000154ac66","E1","batch5","","-1","tol_feedback","","","true","","1000","1000","500","","","","","","-1","none","true","26544","31632","","","","","","","","","",""
"","","","","","html-button-response","272","573656","0.0-2.0-67.0","5c3764ce3acfeb000154ac66","E1","batch5","","1067.300000011921","tol_trial_num","<div class = centerbox><p class = center-block-text>problem <strong>20</strong> out of 25 problems</p></div>","0","","","","","","","","","","","","","","","","","","","","","","","","",""
"","","","","","single-stim-button","273","584786","0.0-2.0-68.0-0.0","5c3764ce3acfeb000154ac66","E1","batch5","","11130","tol_tohand","","","","tol_peg_1","11130","11130","0","[[1,0,0],[3,0],[0]]","1","[[2,1,0],[0,0],[3]]","19","0","","","","","","5","","","","","","","","",""
"","","","","","single-stim-button","274","585274","0.0-2.0-68.0-1.0","5c3764ce3acfeb000154ac66","E1","batch5","","487","tol_toboard","","","","tol_peg_2","487","487","0","[[1,0,0],[3,2],[0]]","1","[[2,1,0],[0,0],[3]]","19","0","","","","","","5","","","","","","","","",""
"","","","","","single-stim-button","275","585633","0.0-2.0-68.1-0.1","5c3764ce3acfeb000154ac66","E1","batch5","","358","tol_tohand","","","","tol_peg_1","358","358","0","[[0,0,0],[3,2],[0]]","2","[[2,1,0],[0,0],[3]]","19","0","","","","","","5","","","","","","","","",""
"","","","","","single-stim-button","276","586443","0.0-2.0-68.1-1.1","5c3764ce3acfeb000154ac66","E1","batch5","","809","tol_toboard","","","","tol_peg_3","809","809","0","[[0,0,0],[3,2],[1]]","2","[[2,1,0],[0,0],[3]]","19","0","","","","","","5","","","","","","","","",""
"","","","","","single-stim-button","277","587021","0.0-2.0-68.2-0.2","5c3764ce3acfeb000154ac66","E1","batch5","","577","tol_tohand","","","","tol_peg_2","577","577","0","[[0,0,0],[3,0],[1]]","3","[[2,1,0],[0,0],[3]]","19","0","","","","","","5","","","","","","","","",""
"","","","","","single-stim-button","278","587673","0.0-2.0-68.2-1.2","5c3764ce3acfeb000154ac66","E1","batch5","","652","tol_toboard","","","","tol_peg_1","652","652","0","[[2,0,0],[3,0],[1]]","3","[[2,1,0],[0,0],[3]]","19","0","","","","","","5","","","","","","","","",""
"","","","","","single-stim-button","279","589204","0.0-2.0-68.3-0.3","5c3764ce3acfeb000154ac66","E1","batch5","","1530","tol_tohand","","","","tol_peg_3","1530","1530","0","[[2,0,0],[3,0],[0]]","4","[[2,1,0],[0,0],[3]]","19","0","","","","","","5","","","","","","","","",""
"","","","","","single-stim-button","280","589960","0.0-2.0-68.3-1.3","5c3764ce3acfeb000154ac66","E1","batch5","","756","tol_toboard","","","","tol_peg_1","756","756","0","[[2,1,0],[3,0],[0]]","4","[[2,1,0],[0,0],[3]]","19","0","","","","","","5","","","","","","","","",""
"","","","","","single-stim-button","281","590719","0.0-2.0-68.4-0.4","5c3764ce3acfeb000154ac66","E1","batch5","","758","tol_tohand","","","","tol_peg_2","758","758","0","[[2,1,0],[0,0],[0]]","5","[[2,1,0],[0,0],[3]]","19","0","","","","","","5","","","","","","","","",""
"","","","","","single-stim-button","282","591220","0.0-2.0-68.4-1.4","5c3764ce3acfeb000154ac66","E1","batch5","","501","tol_toboard","","","","tol_peg_3","501","501","0","[[2,1,0],[0,0],[3]]","5","[[2,1,0],[0,0],[3]]","19","0","","","","","","5","","","","","","","","",""
"","","","","","poldrack-single-stim","283","592223","0.0-2.0-69.0","5c3764ce3acfeb000154ac66","E1","batch5","","-1","tol_feedback","","","true","","1000","1000","500","","","","","","-1","none","true","11130","14353","","","","","","","","","",""
"","","","","","html-button-response","284","592969","0.0-2.0-70.0","5c3764ce3acfeb000154ac66","E1","batch5","","745.2000000029802","tol_trial_num","<div class = centerbox><p class = center-block-text>problem <strong>21</strong> out of 25 problems</p></div>","0","","","","","","","","","","","","","","","","","","","","","","","","",""
"","","","","","single-stim-button","285","604809","0.0-2.0-71.0-0.0","5c3764ce3acfeb000154ac66","E1","batch5","","11840","tol_tohand","","","","tol_peg_2","11840","11840","0","[[1,2,0],[0,0],[0]]","1","[[3,2,0],[0,0],[1]]","20","0","","","","","","6","","","","","","","","",""
"","","","","","single-stim-button","286","605449","0.0-2.0-71.0-1.0","5c3764ce3acfeb000154ac66","E1","batch5","","640","tol_toboard","","","","tol_peg_3","640","640","0","[[1,2,0],[0,0],[3]]","1","[[3,2,0],[0,0],[1]]","20","0","","","","","","6","","","","","","","","",""
"","","","","","single-stim-button","287","605914","0.0-2.0-71.1-0.1","5c3764ce3acfeb000154ac66","E1","batch5","","465","tol_tohand","","","","tol_peg_1","465","465","0","[[1,0,0],[0,0],[3]]","2","[[3,2,0],[0,0],[1]]","20","0","","","","","","6","","","","","","","","",""
"","","","","","single-stim-button","288","606506","0.0-2.0-71.1-1.1","5c3764ce3acfeb000154ac66","E1","batch5","","592","tol_toboard","","","","tol_peg_2","592","592","0","[[1,0,0],[2,0],[3]]","2","[[3,2,0],[0,0],[1]]","20","0","","","","","","6","","","","","","","","",""
"","","","","","single-stim-button","289","606933","0.0-2.0-71.2-0.2","5c3764ce3acfeb000154ac66","E1","batch5","","426","tol_tohand","","","","tol_peg_1","426","426","0","[[0,0,0],[2,0],[3]]","3","[[3,2,0],[0,0],[1]]","20","0","","","","","","6","","","","","","","","",""
"","","","","","single-stim-button","290","607249","0.0-2.0-71.2-1.2","5c3764ce3acfeb000154ac66","E1","batch5","","315","tol_toboard","","","","tol_peg_2","315","315","0","[[0,0,0],[2,1],[3]]","3","[[3,2,0],[0,0],[1]]","20","0","","","","","","6","","","","","","","","",""
"","","","","","single-stim-button","291","607954","0.0-2.0-71.3-0.3","5c3764ce3acfeb000154ac66","E1","batch5","","705","tol_tohand","","","","tol_peg_3","705","705","0","[[0,0,0],[2,1],[0]]","4","[[3,2,0],[0,0],[1]]","20","0","","","","","","6","","","","","","","","",""
"","","","","","single-stim-button","292","608607","0.0-2.0-71.3-1.3","5c3764ce3acfeb000154ac66","E1","batch5","","651","tol_toboard","","","","tol_peg_1","651","651","0","[[3,0,0],[2,1],[0]]","4","[[3,2,0],[0,0],[1]]","20","0","","","","","","6","","","","","","","","",""
"","","","","","single-stim-button","293","610062","0.0-2.0-71.4-0.4","5c3764ce3acfeb000154ac66","E1","batch5","","1455","tol_tohand","","","","tol_peg_2","1455","1455","0","[[3,0,0],[2,0],[0]]","5","[[3,2,0],[0,0],[1]]","20","0","","","","","","6","","","","","","","","",""
"","","","","","single-stim-button","294","610788","0.0-2.0-71.4-1.4","5c3764ce3acfeb000154ac66","E1","batch5","","726","tol_toboard","","","","tol_peg_3","726","726","0","[[3,0,0],[2,0],[1]]","5","[[3,2,0],[0,0],[1]]","20","0","","","","","","6","","","","","","","","",""
"","","","","","single-stim-button","295","611179","0.0-2.0-71.5-0.5","5c3764ce3acfeb000154ac66","E1","batch5","","390","tol_tohand","","","","tol_peg_2","390","390","0","[[3,0,0],[0,0],[1]]","6","[[3,2,0],[0,0],[1]]","20","0","","","","","","6","","","","","","","","",""
"","","","","","single-stim-button","296","611726","0.0-2.0-71.5-1.5","5c3764ce3acfeb000154ac66","E1","batch5","","547","tol_toboard","","","","tol_peg_1","547","547","0","[[3,2,0],[0,0],[1]]","6","[[3,2,0],[0,0],[1]]","20","0","","","","","","6","","","","","","","","",""
"","","","","","poldrack-single-stim","297","612740","0.0-2.0-72.0","5c3764ce3acfeb000154ac66","E1","batch5","","-1","tol_feedback","","","true","","1000","1000","500","","","","","","-1","none","true","11840","15281","","","","","","","","","",""
"","","","","","html-button-response","298","613362","0.0-2.0-73.0","5c3764ce3acfeb000154ac66","E1","batch5","","620.3999999910593","tol_trial_num","<div class = centerbox><p class = center-block-text>problem <strong>22</strong> out of 25 problems</p></div>","0","","","","","","","","","","","","","","","","","","","","","","","","",""
"","","","","","single-stim-button","299","623431","0.0-2.0-74.0-0.0","5c3764ce3acfeb000154ac66","E1","batch5","","10069","tol_tohand","","","","tol_peg_1","10069","10069","0","[[0,0,0],[2,3],[0]]","1","[[0,0,0],[1,2],[3]]","21","0","","","","","","6","","","","","","","","",""
"","","","","","single-stim-button","300","624236","0.0-2.0-74.0-1.0","5c3764ce3acfeb000154ac66","E1","batch5","","805","tol_toboard","","","","tol_peg_3","805","805","0","[[0,0,0],[2,3],[1]]","1","[[0,0,0],[1,2],[3]]","21","0","","","","","","6","","","","","","","","",""
"","","","","","single-stim-button","301","624949","0.0-2.0-74.1-0.1","5c3764ce3acfeb000154ac66","E1","batch5","","712","tol_tohand","","","","tol_peg_2","712","712","0","[[0,0,0],[2,0],[1]]","2","[[0,0,0],[1,2],[3]]","21","0","","","","","","6","","","","","","","","",""
"","","","","","single-stim-button","302","625579","0.0-2.0-74.1-1.1","5c3764ce3acfeb000154ac66","E1","batch5","","630","tol_toboard","","","","tol_peg_1","630","630","0","[[3,0,0],[2,0],[1]]","2","[[0,0,0],[1,2],[3]]","21","0","","","","","","6","","","","","","","","",""
"","","","","","single-stim-button","303","626179","0.0-2.0-74.2-0.2","5c3764ce3acfeb000154ac66","E1","batch5","","599","tol_tohand","","","","tol_peg_2","599","599","0","[[3,0,0],[0,0],[1]]","3","[[0,0,0],[1,2],[3]]","21","0","","","","","","6","","","","","","","","",""
"","","","","","single-stim-button","304","626742","0.0-2.0-74.2-1.2","5c3764ce3acfeb000154ac66","E1","batch5","","563","tol_toboard","","","","tol_peg_1","563","563","0","[[3,2,0],[0,0],[1]]","3","[[0,0,0],[1,2],[3]]","21","0","","","","","","6","","","","","","","","",""
"","","","","","single-stim-button","305","627589","0.0-2.0-74.3-0.3","5c3764ce3acfeb000154ac66","E1","batch5","","846","tol_tohand","","","","tol_peg_3","846","846","0","[[3,2,0],[0,0],[0]]","4","[[0,0,0],[1,2],[3]]","21","0","","","","","","6","","","","","","","","",""
"","","","","","single-stim-button","306","627971","0.0-2.0-74.3-1.3","5c3764ce3acfeb000154ac66","E1","batch5","","382","tol_toboard","","","","tol_peg_2","382","382","0","[[3,2,0],[1,0],[0]]","4","[[0,0,0],[1,2],[3]]","21","0","","","","","","6","","","","","","","","",""
"","","","","","single-stim-button","307","628549","0.0-2.0-74.4-0.4","5c3764ce3acfeb000154ac66","E1","batch5","","577","tol_tohand","","","","tol_peg_1","577","577","0","[[3,0,0],[1,0],[0]]","5","[[0,0,0],[1,2],[3]]","21","0","","","","","","6","","","","","","","","",""
"","","","","","single-stim-button","308","629074","0.0-2.0-74.4-1.4","5c3764ce3acfeb000154ac66","E1","batch5","","524","tol_toboard","","","","tol_peg_2","524","524","0","[[3,0,0],[1,2],[0]]","5","[[0,0,0],[1,2],[3]]","21","0","","","","","","6","","","","","","","","",""
"","","","","","single-stim-button","309","629644","0.0-2.0-74.5-0.5","5c3764ce3acfeb000154ac66","E1","batch5","","570","tol_tohand","","","","tol_peg_1","570","570","0","[[0,0,0],[1,2],[0]]","6","[[0,0,0],[1,2],[3]]","21","0","","","","","","6","","","","","","","","",""
"","","","","","single-stim-button","310","630521","0.0-2.0-74.5-1.5","5c3764ce3acfeb000154ac66","E1","batch5","","876","tol_toboard","","","","tol_peg_3","876","876","0","[[0,0,0],[1,2],[3]]","6","[[0,0,0],[1,2],[3]]","21","0","","","","","","6","","","","","","","","",""
"","","","","","poldrack-single-stim","311","631528","0.0-2.0-75.0","5c3764ce3acfeb000154ac66","E1","batch5","","-1","tol_feedback","","","true","","1000","1000","500","","","","","","-1","none","true","10069","13373","","","","","","","","","",""
"","","","","","html-button-response","312","632666","0.0-2.0-76.0","5c3764ce3acfeb000154ac66","E1","batch5","","1137","tol_trial_num","<div class = centerbox><p class = center-block-text>problem <strong>23</strong> out of 25 problems</p></div>","0","","","","","","","","","","","","","","","","","","","","","","","","",""
"","","","","","single-stim-button","313","637878","0.0-2.0-77.0-0.0","5c3764ce3acfeb000154ac66","E1","batch5","","5212","tol_tohand","","","","tol_peg_1","5212","5212","0","[[1,0,0],[3,0],[0]]","1","[[1,3,2],[0,0],[0]]","22","0","","","","","","3","","","","","","","","",""
"","","","","","single-stim-button","314","638509","0.0-2.0-77.0-1.0","5c3764ce3acfeb000154ac66","E1","batch5","","630","tol_toboard","","","","tol_peg_3","630","630","0","[[1,0,0],[3,0],[2]]","1","[[1,3,2],[0,0],[0]]","22","0","","","","","","3","","","","","","","","",""
"","","","","","single-stim-button","315","639034","0.0-2.0-77.1-0.1","5c3764ce3acfeb000154ac66","E1","batch5","","525","tol_tohand","","","","tol_peg_2","525","525","0","[[1,0,0],[0,0],[2]]","2","[[1,3,2],[0,0],[0]]","22","0","","","","","","3","","","","","","","","",""
"","","","","","single-stim-button","316","639401","0.0-2.0-77.1-1.1","5c3764ce3acfeb000154ac66","E1","batch5","","367","tol_toboard","","","","tol_peg_1","367","367","0","[[1,3,0],[0,0],[2]]","2","[[1,3,2],[0,0],[0]]","22","0","","","","","","3","","","","","","","","",""
"","","","","","single-stim-button","317","640294","0.0-2.0-77.2-0.2","5c3764ce3acfeb000154ac66","E1","batch5","","892","tol_tohand","","","","tol_peg_3","892","892","0","[[1,3,0],[0,0],[0]]","3","[[1,3,2],[0,0],[0]]","22","0","","","","","","3","","","","","","","","",""
"","","","","","single-stim-button","318","640856","0.0-2.0-77.2-1.2","5c3764ce3acfeb000154ac66","E1","batch5","","562","tol_toboard","","","","tol_peg_1","562","562","0","[[1,3,2],[0,0],[0]]","3","[[1,3,2],[0,0],[0]]","22","0","","","","","","3","","","","","","","","",""
"","","","","","poldrack-single-stim","319","641859","0.0-2.0-78.0","5c3764ce3acfeb000154ac66","E1","batch5","","-1","tol_feedback","","","true","","1000","1000","500","","","","","","-1","none","true","5212","6629","","","","","","","","","",""
"","","","","","html-button-response","320","642565","0.0-2.0-79.0","5c3764ce3acfeb000154ac66","E1","batch5","","705.1999999880791","tol_trial_num","<div class = centerbox><p class = center-block-text>problem <strong>24</strong> out of 25 problems</p></div>","0","","","","","","","","","","","","","","","","","","","","","","","","",""
"","","","","","single-stim-button","321","654687","0.0-2.0-80.0-0.0","5c3764ce3acfeb000154ac66","E1","batch5","","12120","tol_tohand","","","","tol_peg_3","12120","12120","0","[[0,0,0],[2,3],[0]]","1","[[2,0,0],[3,0],[1]]","23","0","","","","","","7","","","","","","","","",""
"","","","","","single-stim-button","322","655737","0.0-2.0-80.0-1.0","5c3764ce3acfeb000154ac66","E1","batch5","","1049","tol_toboard","","","","tol_peg_1","1049","1049","0","[[1,0,0],[2,3],[0]]","1","[[2,0,0],[3,0],[1]]","23","0","","","","","","7","","","","","","","","",""
"","","","","","single-stim-button","323","656622","0.0-2.0-80.1-0.1","5c3764ce3acfeb000154ac66","E1","batch5","","884","tol_tohand","","","","tol_peg_2","884","884","0","[[1,0,0],[2,0],[0]]","2","[[2,0,0],[3,0],[1]]","23","0","","","","","","7","","","","","","","","",""
"","","","","","single-stim-button","324","660124","0.0-2.0-80.1-1.1","5c3764ce3acfeb000154ac66","E1","batch5","","3502","tol_toboard","","","","tol_peg_1","3502","3502","0","[[1,3,0],[2,0],[0]]","2","[[2,0,0],[3,0],[1]]","23","0","","","","","","7","","","","","","","","",""
"","","","","","single-stim-button","325","660839","0.0-2.0-80.2-0.2","5c3764ce3acfeb000154ac66","E1","batch5","","714","tol_tohand","","","","tol_peg_2","714","714","0","[[1,3,0],[0,0],[0]]","3","[[2,0,0],[3,0],[1]]","23","0","","","","","","7","","","","","","","","",""
"","","","","","single-stim-button","326","661623","0.0-2.0-80.2-1.2","5c3764ce3acfeb000154ac66","E1","batch5","","783","tol_toboard","","","","tol_peg_3","783","783","0","[[1,3,0],[0,0],[2]]","3","[[2,0,0],[3,0],[1]]","23","0","","","","","","7","","","","","","","","",""
"","","","","","single-stim-button","327","662187","0.0-2.0-80.3-0.3","5c3764ce3acfeb000154ac66","E1","batch5","","562","tol_tohand","","","","tol_peg_1","562","562","0","[[1,0,0],[0,0],[2]]","4","[[2,0,0],[3,0],[1]]","23","0","","","","","","7","","","","","","","","",""
"","","","","","single-stim-button","328","662810","0.0-2.0-80.3-1.3","5c3764ce3acfeb000154ac66","E1","batch5","","622","tol_toboard","","","","tol_peg_2","622","622","0","[[1,0,0],[3,0],[2]]","4","[[2,0,0],[3,0],[1]]","23","0","","","","","","7","","","","","","","","",""
"","","","","","single-stim-button","329","663274","0.0-2.0-80.4-0.4","5c3764ce3acfeb000154ac66","E1","batch5","","464","tol_tohand","","","","tol_peg_1","464","464","0","[[0,0,0],[3,0],[2]]","5","[[2,0,0],[3,0],[1]]","23","0","","","","","","7","","","","","","","","",""
"","","","","","single-stim-button","330","663769","0.0-2.0-80.4-1.4","5c3764ce3acfeb000154ac66","E1","batch5","","495","tol_toboard","","","","tol_peg_2","495","495","0","[[0,0,0],[3,1],[2]]","5","[[2,0,0],[3,0],[1]]","23","0","","","","","","7","","","","","","","","",""
"","","","","","single-stim-button","331","664129","0.0-2.0-80.5-0.5","5c3764ce3acfeb000154ac66","E1","batch5","","360","tol_tohand","","","","tol_peg_3","360","360","0","[[0,0,0],[3,1],[0]]","6","[[2,0,0],[3,0],[1]]","23","0","","","","","","7","","","","","","","","",""
"","","","","","single-stim-button","332","664827","0.0-2.0-80.5-1.5","5c3764ce3acfeb000154ac66","E1","batch5","","698","tol_toboard","","","","tol_peg_1","698","698","0","[[2,0,0],[3,1],[0]]","6","[[2,0,0],[3,0],[1]]","23","0","","","","","","7","","","","","","","","",""
"","","","","","single-stim-button","333","665368","0.0-2.0-80.6-0.6","5c3764ce3acfeb000154ac66","E1","batch5","","541","tol_tohand","","","","tol_peg_2","541","541","0","[[2,0,0],[3,0],[0]]","7","[[2,0,0],[3,0],[1]]","23","0","","","","","","7","","","","","","","","",""
"","","","","","single-stim-button","334","665959","0.0-2.0-80.6-1.6","5c3764ce3acfeb000154ac66","E1","batch5","","591","tol_toboard","","","","tol_peg_3","591","591","0","[[2,0,0],[3,0],[1]]","7","[[2,0,0],[3,0],[1]]","23","0","","","","","","7","","","","","","","","",""
"","","","","","poldrack-single-stim","335","666967","0.0-2.0-81.0","5c3764ce3acfeb000154ac66","E1","batch5","","-1","tol_feedback","","","true","","1000","1000","500","","","","","","-1","none","true","12120","15645","","","","","","","","","",""
"","","","","","html-button-response","336","667894","0.0-2.0-82.0","5c3764ce3acfeb000154ac66","E1","batch5","","925.6999999880791","tol_trial_num","<div class = centerbox><p class = center-block-text>problem <strong>25</strong> out of 25 problems</p></div>","0","","","","","","","","","","","","","","","","","","","","","","","","",""
"","","","","","single-stim-button","337","673507","0.0-2.0-83.0-0.0","5c3764ce3acfeb000154ac66","E1","batch5","","5613","tol_tohand","","","","tol_peg_1","5613","5613","0","[[1,0,0],[3,0],[0]]","1","[[3,0,0],[1,0],[2]]","24","0","","","","","","7","","","","","","","","",""
"","","","","","single-stim-button","338","687994","0.0-2.0-83.0-1.0","5c3764ce3acfeb000154ac66","E1","batch5","","14486","tol_toboard","","","","tol_peg_3","14486","14486","0","[[1,0,0],[3,0],[2]]","1","[[3,0,0],[1,0],[2]]","24","0","","","","","","7","","","","","","","","",""
"","","","","","single-stim-button","339","688631","0.0-2.0-83.1-0.1","5c3764ce3acfeb000154ac66","E1","batch5","","636","tol_tohand","","","","tol_peg_1","636","636","0","[[0,0,0],[3,0],[2]]","2","[[3,0,0],[1,0],[2]]","24","0","","","","","","7","","","","","","","","",""
"","","","","","single-stim-button","340","689187","0.0-2.0-83.1-1.1","5c3764ce3acfeb000154ac66","E1","batch5","","555","tol_toboard","","","","tol_peg_2","555","555","0","[[0,0,0],[3,1],[2]]","2","[[3,0,0],[1,0],[2]]","24","0","","","","","","7","","","","","","","","",""
"","","","","","single-stim-button","341","689569","0.0-2.0-83.2-0.2","5c3764ce3acfeb000154ac66","E1","batch5","","382","tol_tohand","","","","tol_peg_3","382","382","0","[[0,0,0],[3,1],[0]]","3","[[3,0,0],[1,0],[2]]","24","0","","","","","","7","","","","","","","","",""
"","","","","","single-stim-button","342","690207","0.0-2.0-83.2-1.2","5c3764ce3acfeb000154ac66","E1","batch5","","637","tol_toboard","","","","tol_peg_1","637","637","0","[[2,0,0],[3,1],[0]]","3","[[3,0,0],[1,0],[2]]","24","0","","","","","","7","","","","","","","","",""
"","","","","","single-stim-button","343","690688","0.0-2.0-83.3-0.3","5c3764ce3acfeb000154ac66","E1","batch5","","480","tol_tohand","","","","tol_peg_2","480","480","0","[[2,0,0],[3,0],[0]]","4","[[3,0,0],[1,0],[2]]","24","0","","","","","","7","","","","","","","","",""
"","","","","","single-stim-button","344","691324","0.0-2.0-83.3-1.3","5c3764ce3acfeb000154ac66","E1","batch5","","636","tol_toboard","","","","tol_peg_3","636","636","0","[[2,0,0],[3,0],[1]]","4","[[3,0,0],[1,0],[2]]","24","0","","","","","","7","","","","","","","","",""
"","","","","","single-stim-button","345","692682","0.0-2.0-83.4-0.4","5c3764ce3acfeb000154ac66","E1","batch5","","1357","tol_tohand","","","","tol_peg_2","1357","1357","0","[[2,0,0],[0,0],[1]]","5","[[3,0,0],[1,0],[2]]","24","0","","","","","","7","","","","","","","","",""
"","","","","","single-stim-button","346","693087","0.0-2.0-83.4-1.4","5c3764ce3acfeb000154ac66","E1","batch5","","404","tol_toboard","","","","tol_peg_1","404","404","0","[[2,3,0],[0,0],[1]]","5","[[3,0,0],[1,0],[2]]","24","0","","","","","","7","","","","","","","","",""
"","","","","","single-stim-button","347","693506","0.0-2.0-83.5-0.5","5c3764ce3acfeb000154ac66","E1","batch5","","419","tol_tohand","","","","tol_peg_3","419","419","0","[[2,3,0],[0,0],[0]]","6","[[3,0,0],[1,0],[2]]","24","0","","","","","","7","","","","","","","","",""
"","","","","","single-stim-button","348","694136","0.0-2.0-83.5-1.5","5c3764ce3acfeb000154ac66","E1","batch5","","629","tol_toboard","","","","tol_peg_2","629","629","0","[[2,3,0],[1,0],[0]]","6","[[3,0,0],[1,0],[2]]","24","0","","","","","","7","","","","","","","","",""
"","","","","","single-stim-button","349","695922","0.0-2.0-83.6-0.6","5c3764ce3acfeb000154ac66","E1","batch5","","1785","tol_tohand","","","","tol_peg_1","1785","1785","0","[[2,0,0],[1,0],[0]]","7","[[3,0,0],[1,0],[2]]","24","0","","","","","","7","","","","","","","","",""
"","","","","","single-stim-button","350","696439","0.0-2.0-83.6-1.6","5c3764ce3acfeb000154ac66","E1","batch5","","517","tol_toboard","","","","tol_peg_2","517","517","0","[[2,0,0],[1,3],[0]]","7","[[3,0,0],[1,0],[2]]","24","0","","","","","","7","","","","","","","","",""
"","","","","","single-stim-button","351","696912","0.0-2.0-83.7-0.7","5c3764ce3acfeb000154ac66","E1","batch5","","472","tol_tohand","","","","tol_peg_1","472","472","0","[[0,0,0],[1,3],[0]]","8","[[3,0,0],[1,0],[2]]","24","0","","","","","","7","","","","","","","","",""
"","","","","","single-stim-button","352","697587","0.0-2.0-83.7-1.7","5c3764ce3acfeb000154ac66","E1","batch5","","674","tol_toboard","","","","tol_peg_3","674","674","0","[[0,0,0],[1,3],[2]]","8","[[3,0,0],[1,0],[2]]","24","0","","","","","","7","","","","","","","","",""
"","","","","","single-stim-button","353","698194","0.0-2.0-83.8-0.8","5c3764ce3acfeb000154ac66","E1","batch5","","607","tol_tohand","","","","tol_peg_2","607","607","0","[[0,0,0],[1,0],[2]]","9","[[3,0,0],[1,0],[2]]","24","0","","","","","","7","","","","","","","","",""
"","","","","","single-stim-button","354","698832","0.0-2.0-83.8-1.8","5c3764ce3acfeb000154ac66","E1","batch5","","637","tol_toboard","","","","tol_peg_1","637","637","0","[[3,0,0],[1,0],[2]]","9","[[3,0,0],[1,0],[2]]","24","0","","","","","","7","","","","","","","","",""
"","","","","","poldrack-single-stim","355","699834","0.0-2.0-84.0","5c3764ce3acfeb000154ac66","E1","batch5","","-1","tol_feedback","","","true","","1000","1000","500","","","","","","-1","none","true","5613","11751","","","","","","","","","",""
