"success","timeout","failed_images","failed_audio","failed_video","trial_type","trial_index","time_elapsed","internal_node_id","subject_id","study_id","session_id","view_history","rt","task","stimulus","response","correct","mouse_click","stim_duration","block_duration","timing_post_trial","current_position","tol_num_moves_made","tol_target","tol_problem_id","tol_rt","key_press","possible_responses","tol_correct","preplanning","tol_rt_per_trial","tol_min_moves","item","answer","spm_correct","spm_rt","fiar_detect_rt","fiar_detect_correct","total_correct_fiar_detect","post_trial_gap","choices"
"true","false","[]","[]","[]","preload","0","11446","0.0-0.0","5c3a87a61ede2b000115cf76","D2","batch4","","","","","","","","","","","","","","","","","","","","","","","","","","","","","",""
"true","","","","","fullscreen","1","21989","0.0-1.0-0.0","5c3a87a61ede2b000115cf76","D2","batch4","","","","","","","","","","","","","","","","","","","","","","","","","","","","","",""
"true","","","","","fullscreen","2","34311","0.0-2.0-0.0","5c3a87a61ede2b000115cf76","D2","batch4","","","","","","","","","","","","","","","","","","","","","","","","","","","","","",""
"","","","","","instructions","3","173283","0.0-2.0-1.0-0.0-0.0","5c3a87a61ede2b000115cf76","D2","batch4","[{""page_index"":0,""viewing_time"":33342.89999999851},{""page_index"":1,""viewing_time"":8528.70000000298},{""page_index"":2,""viewing_time"":22902.59999999404},{""page_index"":3,""viewing_time"":21243},{""page_index"":4,""viewing_time"":17347.60000000149},{""page_index"":5,""viewing_time"":31839.89999999851},{""page_index"":6,""viewing_time"":3761.4000000059605}]","138968.6000000015","tol-instructions","","","","","","","","","","","","","","","","","","","","","","","","","","",""
"","","","","","html-button-response","4","174648","0.0-2.0-1.0-1.0-0.0","5c3a87a61ede2b000115cf76","D2","batch4","","1357.1000000014901","tol_enter_quiz","<p class=block-text> Let's answer a few questions <br>","0","","","","","","","","","","","","","","","","","","","","","","","","",""
"","","","","","html-button-response","5","189550","0.0-2.0-1.0-1.0-1.0","5c3a87a61ede2b000115cf76","D2","batch4","","14894.79999999702","tol_quiz","<p class = block-text>True or False: You can only move the ball on top of a peg. <br></p>","0","true","","","","","","","","","","","","","","","","","","","","","","","",""
"","","","","","html-button-response","6","191950","0.0-2.0-1.0-1.0-2.0","5c3a87a61ede2b000115cf76","D2","batch4","","2394.2999999970198","tol_quiz_feedback","<p class = block-text>Correct! You can only move the ball on top of a peg.</p>","0","","","","","","","","","","","","","","","","","","","","","","","","",""
"","","","","","html-button-response","7","197780","0.0-2.0-1.0-1.0-3.0","5c3a87a61ede2b000115cf76","D2","batch4","","5824","tol_quiz","<p class = block-text>True or False: You should try to match your board with the target board with fewest moves possible. <br></p>","0","true","","","","","","","","","","","","","","","","","","","","","","","",""
"","","","","","html-button-response","8","198936","0.0-2.0-1.0-1.0-4.0","5c3a87a61ede2b000115cf76","D2","batch4","","1150.8000000044703","tol_quiz_feedback","<p class = block-text>Correct! </p>","0","","","","","","","","","","","","","","","","","","","","","","","","",""
"","","","","","html-button-response","9","203197","0.0-2.0-2.0","5c3a87a61ede2b000115cf76","D2","batch4","","4249.30000000447","","<p class=block-text> Now that you've understood the game, let's practice a few easier examples before we start!<br> <br>","0","","","","","","","","","","","","","","","","","","","","","","","","",""
"","","","","","single-stim-button","10","205706","0.0-2.0-3.0-0.0","5c3a87a61ede2b000115cf76","D2","batch4","","2501","tol_practice","","","","tol_peg_2","2501","2501","0","[[1,2,0],[0,0],[0]]","1","[[1,2,0],[0,0],[3]]","practice","2501","","","","","","","","","","","","","","",""
"","","","","","single-stim-button","11","206593","0.0-2.0-3.0-1.0","5c3a87a61ede2b000115cf76","D2","batch4","","880","tol_practice","","","","tol_peg_3","880","880","0","[[1,2,0],[0,0],[3]]","1","[[1,2,0],[0,0],[3]]","practice","880","","","","","","","","","","","","","","",""
"","","","","","poldrack-single-stim","12","207598","0.0-2.0-4.0","5c3a87a61ede2b000115cf76","D2","batch4","","-1","tol_feedback","","","true","","1000","1000","500","","","","","","-1","none","true","","0","","","","","","","","","",""
"","","","","","single-stim-button","13","214767","0.0-2.0-5.0-0.0","5c3a87a61ede2b000115cf76","D2","batch4","","7163","tol_practice","","","","tol_peg_1","7163","7163","0","[[1,0,0],[3,0],[0]]","2","[[0,0,0],[3,1],[2]]","practice","7163","","","","","","","","","","","","","","",""
"","","","","","single-stim-button","14","215892","0.0-2.0-5.0-1.0","5c3a87a61ede2b000115cf76","D2","batch4","","1119","tol_practice","","","","tol_peg_3","1119","1119","0","[[1,0,0],[3,0],[2]]","2","[[0,0,0],[3,1],[2]]","practice","1119","","","","","","","","","","","","","","",""
"","","","","","single-stim-button","15","217858","0.0-2.0-5.1-0.1","5c3a87a61ede2b000115cf76","D2","batch4","","1958","tol_practice","","","","tol_peg_1","1958","1958","0","[[0,0,0],[3,0],[2]]","3","[[0,0,0],[3,1],[2]]","practice","1958","","","","","","","","","","","","","","",""
"","","","","","single-stim-button","16","218770","0.0-2.0-5.1-1.1","5c3a87a61ede2b000115cf76","D2","batch4","","907","tol_practice","","","","tol_peg_2","907","907","0","[[0,0,0],[3,1],[2]]","3","[[0,0,0],[3,1],[2]]","practice","907","","","","","","","","","","","","","","",""
"","","","","","poldrack-single-stim","17","219779","0.0-2.0-6.0","5c3a87a61ede2b000115cf76","D2","batch4","","-1","tol_feedback","","","true","","1000","1000","500","","","","","","-1","none","true","","0","","","","","","","","","",""
"","","","","","single-stim-button","18","225289","0.0-2.0-7.0-0.0","5c3a87a61ede2b000115cf76","D2","batch4","","5505","tol_practice","","","","tol_peg_2","5505","5505","0","[[1,2,0],[0,0],[0]]","4","[[1,0,0],[2,0],[3]]","practice","5505","","","","","","","","","","","","","","",""
"","","","","","single-stim-button","19","226068","0.0-2.0-7.0-1.0","5c3a87a61ede2b000115cf76","D2","batch4","","774","tol_practice","","","","tol_peg_3","774","774","0","[[1,2,0],[0,0],[3]]","4","[[1,0,0],[2,0],[3]]","practice","774","","","","","","","","","","","","","","",""
"","","","","","single-stim-button","20","226764","0.0-2.0-7.1-0.1","5c3a87a61ede2b000115cf76","D2","batch4","","693","tol_practice","","","","tol_peg_1","693","693","0","[[1,0,0],[0,0],[3]]","5","[[1,0,0],[2,0],[3]]","practice","693","","","","","","","","","","","","","","",""
"","","","","","single-stim-button","21","227419","0.0-2.0-7.1-1.1","5c3a87a61ede2b000115cf76","D2","batch4","","651","tol_practice","","","","tol_peg_2","651","651","0","[[1,0,0],[2,0],[3]]","5","[[1,0,0],[2,0],[3]]","practice","651","","","","","","","","","","","","","","",""
"","","","","","poldrack-single-stim","22","228423","0.0-2.0-8.0","5c3a87a61ede2b000115cf76","D2","batch4","","-1","tol_feedback","","","true","","1000","1000","500","","","","","","-1","none","true","","0","","","","","","","","","",""
"","","","","","html-button-response","23","235026","0.0-2.0-9.0","5c3a87a61ede2b000115cf76","D2","batch4","","6599.10000000149","tol_instruction","<div class = centerbox><p class = center-block-text>Great job! You are done with practice trials<br>You are about to start official trials.<br> <br> Problem <strong>1</strong> out of 25 problems</p></div>","0","","","","","","","","","","","","","","","","","","","","","","","","",""
"","","","","","single-stim-button","24","241721","0.0-2.0-10.0-0.0","5c3a87a61ede2b000115cf76","D2","batch4","","5689","tol_tohand","","","","tol_peg_1","5689","5689","0","[[1,0,0],[3,0],[0]]","1","[[1,3,0],[2,0],[0]]","0","0","","","","","","3","","","","","","","","",""
"","","","","","single-stim-button","25","242639","0.0-2.0-10.0-1.0","5c3a87a61ede2b000115cf76","D2","batch4","","915","tol_toboard","","","","tol_peg_3","915","915","0","[[1,0,0],[3,0],[2]]","1","[[1,3,0],[2,0],[0]]","0","0","","","","","","3","","","","","","","","",""
"","","","","","single-stim-button","26","243253","0.0-2.0-10.1-0.1","5c3a87a61ede2b000115cf76","D2","batch4","","610","tol_tohand","","","","tol_peg_2","610","610","0","[[1,0,0],[0,0],[2]]","2","[[1,3,0],[2,0],[0]]","0","0","","","","","","3","","","","","","","","",""
"","","","","","single-stim-button","27","243992","0.0-2.0-10.1-1.1","5c3a87a61ede2b000115cf76","D2","batch4","","732","tol_toboard","","","","tol_peg_1","732","732","0","[[1,3,0],[0,0],[2]]","2","[[1,3,0],[2,0],[0]]","0","0","","","","","","3","","","","","","","","",""
"","","","","","single-stim-button","28","245182","0.0-2.0-10.2-0.2","5c3a87a61ede2b000115cf76","D2","batch4","","1188","tol_tohand","","","","tol_peg_3","1188","1188","0","[[1,3,0],[0,0],[0]]","3","[[1,3,0],[2,0],[0]]","0","0","","","","","","3","","","","","","","","",""
"","","","","","single-stim-button","29","245790","0.0-2.0-10.2-1.2","5c3a87a61ede2b000115cf76","D2","batch4","","603","tol_toboard","","","","tol_peg_2","603","603","0","[[1,3,0],[2,0],[0]]","3","[[1,3,0],[2,0],[0]]","0","0","","","","","","3","","","","","","","","",""
"","","","","","poldrack-single-stim","30","246795","0.0-2.0-11.0","5c3a87a61ede2b000115cf76","D2","batch4","","-1","tol_feedback","","","true","","1000","1000","500","","","","","","-1","none","true","5689","7487","","","","","","","","","",""
"","","","","","html-button-response","31","248181","0.0-2.0-12.0","5c3a87a61ede2b000115cf76","D2","batch4","","1380.3999999985099","tol_trial_num","<div class = centerbox><p class = center-block-text>problem <strong>2</strong> out of 25 problems</p></div>","0","","","","","","","","","","","","","","","","","","","","","","","","",""
"","","","","","single-stim-button","32","254535","0.0-2.0-13.0-0.0","5c3a87a61ede2b000115cf76","D2","batch4","","6350","tol_tohand","","","","tol_peg_1","6350","6350","0","[[1,0,0],[3,0],[0]]","1","[[2,1,3],[0,0],[0]]","1","0","","","","","","5","","","","","","","","",""
"","","","","","single-stim-button","33","255591","0.0-2.0-13.0-1.0","5c3a87a61ede2b000115cf76","D2","batch4","","1051","tol_toboard","","","","tol_peg_3","1051","1051","0","[[1,0,0],[3,0],[2]]","1","[[2,1,3],[0,0],[0]]","1","0","","","","","","5","","","","","","","","",""
"","","","","","single-stim-button","34","262409","0.0-2.0-13.1-0.1","5c3a87a61ede2b000115cf76","D2","batch4","","6815","tol_tohand","","","","tol_peg_3","6815","6815","0","[[1,0,0],[3,0],[0]]","2","[[2,1,3],[0,0],[0]]","1","0","","","","","","5","","","","","","","","",""
"","","","","","single-stim-button","35","263154","0.0-2.0-13.1-1.1","5c3a87a61ede2b000115cf76","D2","batch4","","739","tol_toboard","","","","tol_peg_2","739","739","0","[[1,0,0],[3,2],[0]]","2","[[2,1,3],[0,0],[0]]","1","0","","","","","","5","","","","","","","","",""
"","","","","","single-stim-button","36","265347","0.0-2.0-13.2-0.2","5c3a87a61ede2b000115cf76","D2","batch4","","2191","tol_tohand","","","","tol_peg_1","2191","2191","0","[[0,0,0],[3,2],[0]]","3","[[2,1,3],[0,0],[0]]","1","0","","","","","","5","","","","","","","","",""
"","","","","","single-stim-button","37","266227","0.0-2.0-13.2-1.2","5c3a87a61ede2b000115cf76","D2","batch4","","876","tol_toboard","","","","tol_peg_3","876","876","0","[[0,0,0],[3,2],[1]]","3","[[2,1,3],[0,0],[0]]","1","0","","","","","","5","","","","","","","","",""
"","","","","","single-stim-button","38","266974","0.0-2.0-13.3-0.3","5c3a87a61ede2b000115cf76","D2","batch4","","744","tol_tohand","","","","tol_peg_2","744","744","0","[[0,0,0],[3,0],[1]]","4","[[2,1,3],[0,0],[0]]","1","0","","","","","","5","","","","","","","","",""
"","","","","","single-stim-button","39","267728","0.0-2.0-13.3-1.3","5c3a87a61ede2b000115cf76","D2","batch4","","751","tol_toboard","","","","tol_peg_1","751","751","0","[[2,0,0],[3,0],[1]]","4","[[2,1,3],[0,0],[0]]","1","0","","","","","","5","","","","","","","","",""
"","","","","","single-stim-button","40","269613","0.0-2.0-13.4-0.4","5c3a87a61ede2b000115cf76","D2","batch4","","1881","tol_tohand","","","","tol_peg_3","1881","1881","0","[[2,0,0],[3,0],[0]]","5","[[2,1,3],[0,0],[0]]","1","0","","","","","","5","","","","","","","","",""
"","","","","","single-stim-button","41","270398","0.0-2.0-13.4-1.4","5c3a87a61ede2b000115cf76","D2","batch4","","783","tol_toboard","","","","tol_peg_1","783","783","0","[[2,1,0],[3,0],[0]]","5","[[2,1,3],[0,0],[0]]","1","0","","","","","","5","","","","","","","","",""
"","","","","","single-stim-button","42","271439","0.0-2.0-13.5-0.5","5c3a87a61ede2b000115cf76","D2","batch4","","1036","tol_tohand","","","","tol_peg_2","1036","1036","0","[[2,1,0],[0,0],[0]]","6","[[2,1,3],[0,0],[0]]","1","0","","","","","","5","","","","","","","","",""
"","","","","","single-stim-button","43","272209","0.0-2.0-13.5-1.5","5c3a87a61ede2b000115cf76","D2","batch4","","767","tol_toboard","","","","tol_peg_1","767","767","0","[[2,1,3],[0,0],[0]]","6","[[2,1,3],[0,0],[0]]","1","0","","","","","","5","","","","","","","","",""
"","","","","","poldrack-single-stim","44","273215","0.0-2.0-14.0","5c3a87a61ede2b000115cf76","D2","batch4","","-1","tol_feedback","","","true","","1000","1000","500","","","","","","-1","none","true","6350","19017","","","","","","","","","",""
"","","","","","html-button-response","45","274582","0.0-2.0-15.0","5c3a87a61ede2b000115cf76","D2","batch4","","1363.3999999985099","tol_trial_num","<div class = centerbox><p class = center-block-text>problem <strong>3</strong> out of 25 problems</p></div>","0","","","","","","","","","","","","","","","","","","","","","","","","",""
"","","","","","single-stim-button","46","285989","0.0-2.0-16.0-0.0","5c3a87a61ede2b000115cf76","D2","batch4","","11404","tol_tohand","","","","tol_peg_1","11404","11404","0","[[2,0,0],[0,0],[1]]","1","[[1,2,0],[3,0],[0]]","2","0","","","","","","4","","","","","","","","",""
"","","","","","single-stim-button","47","287373","0.0-2.0-16.0-1.0","5c3a87a61ede2b000115cf76","D2","batch4","","1380","tol_toboard","","","","tol_peg_2","1380","1380","0","[[2,0,0],[3,0],[1]]","1","[[1,2,0],[3,0],[0]]","2","0","","","","","","4","","","","","","","","",""
"","","","","","single-stim-button","48","292114","0.0-2.0-16.1-0.1","5c3a87a61ede2b000115cf76","D2","batch4","","4739","tol_tohand","","","","tol_peg_1","4739","4739","0","[[0,0,0],[3,0],[1]]","2","[[1,2,0],[3,0],[0]]","2","0","","","","","","4","","","","","","","","",""
"","","","","","single-stim-button","49","292986","0.0-2.0-16.1-1.1","5c3a87a61ede2b000115cf76","D2","batch4","","869","tol_toboard","","","","tol_peg_2","869","869","0","[[0,0,0],[3,2],[1]]","2","[[1,2,0],[3,0],[0]]","2","0","","","","","","4","","","","","","","","",""
"","","","","","single-stim-button","50","293779","0.0-2.0-16.2-0.2","5c3a87a61ede2b000115cf76","D2","batch4","","790","tol_tohand","","","","tol_peg_3","790","790","0","[[0,0,0],[3,2],[0]]","3","[[1,2,0],[3,0],[0]]","2","0","","","","","","4","","","","","","","","",""
"","","","","","single-stim-button","51","294568","0.0-2.0-16.2-1.2","5c3a87a61ede2b000115cf76","D2","batch4","","785","tol_toboard","","","","tol_peg_1","785","785","0","[[1,0,0],[3,2],[0]]","3","[[1,2,0],[3,0],[0]]","2","0","","","","","","4","","","","","","","","",""
"","","","","","single-stim-button","52","295194","0.0-2.0-16.3-0.3","5c3a87a61ede2b000115cf76","D2","batch4","","623","tol_tohand","","","","tol_peg_2","623","623","0","[[1,0,0],[3,0],[0]]","4","[[1,2,0],[3,0],[0]]","2","0","","","","","","4","","","","","","","","",""
"","","","","","single-stim-button","53","296051","0.0-2.0-16.3-1.3","5c3a87a61ede2b000115cf76","D2","batch4","","855","tol_toboard","","","","tol_peg_1","855","855","0","[[1,2,0],[3,0],[0]]","4","[[1,2,0],[3,0],[0]]","2","0","","","","","","4","","","","","","","","",""
"","","","","","poldrack-single-stim","54","297056","0.0-2.0-17.0","5c3a87a61ede2b000115cf76","D2","batch4","","-1","tol_feedback","","","true","","1000","1000","500","","","","","","-1","none","true","11404","17556","","","","","","","","","",""
"","","","","","html-button-response","55","298299","0.0-2.0-18.0","5c3a87a61ede2b000115cf76","D2","batch4","","1239.1999999955297","tol_trial_num","<div class = centerbox><p class = center-block-text>problem <strong>4</strong> out of 25 problems</p></div>","0","","","","","","","","","","","","","","","","","","","","","","","","",""
"","","","","","single-stim-button","56","304884","0.0-2.0-19.0-0.0","5c3a87a61ede2b000115cf76","D2","batch4","","6582","tol_tohand","","","","tol_peg_2","6582","6582","0","[[3,0,0],[2,0],[0]]","1","[[3,0,0],[1,0],[2]]","3","0","","","","","","3","","","","","","","","",""
"","","","","","single-stim-button","57","306078","0.0-2.0-19.0-1.0","5c3a87a61ede2b000115cf76","D2","batch4","","1189","tol_toboard","","","","tol_peg_1","1189","1189","0","[[3,1,0],[2,0],[0]]","1","[[3,0,0],[1,0],[2]]","3","0","","","","","","3","","","","","","","","",""
"","","","","","single-stim-button","58","306915","0.0-2.0-19.1-0.1","5c3a87a61ede2b000115cf76","D2","batch4","","832","tol_tohand","","","","tol_peg_2","832","832","0","[[3,1,0],[0,0],[0]]","2","[[3,0,0],[1,0],[2]]","3","0","","","","","","3","","","","","","","","",""
"","","","","","single-stim-button","59","307553","0.0-2.0-19.1-1.1","5c3a87a61ede2b000115cf76","D2","batch4","","634","tol_toboard","","","","tol_peg_3","634","634","0","[[3,1,0],[0,0],[2]]","2","[[3,0,0],[1,0],[2]]","3","0","","","","","","3","","","","","","","","",""
"","","","","","single-stim-button","60","308252","0.0-2.0-19.2-0.2","5c3a87a61ede2b000115cf76","D2","batch4","","696","tol_tohand","","","","tol_peg_1","696","696","0","[[3,0,0],[0,0],[2]]","3","[[3,0,0],[1,0],[2]]","3","0","","","","","","3","","","","","","","","",""
"","","","","","single-stim-button","61","309212","0.0-2.0-19.2-1.2","5c3a87a61ede2b000115cf76","D2","batch4","","956","tol_toboard","","","","tol_peg_2","956","956","0","[[3,0,0],[1,0],[2]]","3","[[3,0,0],[1,0],[2]]","3","0","","","","","","3","","","","","","","","",""
"","","","","","poldrack-single-stim","62","310220","0.0-2.0-20.0","5c3a87a61ede2b000115cf76","D2","batch4","","-1","tol_feedback","","","true","","1000","1000","500","","","","","","-1","none","true","6582","8110","","","","","","","","","",""
"","","","","","html-button-response","63","311257","0.0-2.0-21.0","5c3a87a61ede2b000115cf76","D2","batch4","","1032.9000000059605","tol_trial_num","<div class = centerbox><p class = center-block-text>problem <strong>5</strong> out of 25 problems</p></div>","0","","","","","","","","","","","","","","","","","","","","","","","","",""
"","","","","","single-stim-button","64","319447","0.0-2.0-22.0-0.0","5c3a87a61ede2b000115cf76","D2","batch4","","8186","tol_tohand","","","","tol_peg_3","8186","8186","0","[[1,0,0],[2,0],[0]]","1","[[0,0,0],[1,2],[3]]","4","0","","","","","","7","","","","","","","","",""
"","","","","","single-stim-button","65","328461","0.0-2.0-22.0-1.0","5c3a87a61ede2b000115cf76","D2","batch4","","9011","tol_toboard","","","","tol_peg_3","9011","9011","0","[[1,0,0],[2,0],[3]]","1","[[0,0,0],[1,2],[3]]","4","0","","","","","","7","","","","","","","","",""
"","","","","","single-stim-button","66","359063","0.0-2.0-22.1-0.1","5c3a87a61ede2b000115cf76","D2","batch4","","30600","tol_tohand","","","","tol_peg_3","30600","30600","0","[[1,0,0],[2,0],[0]]","2","[[0,0,0],[1,2],[3]]","4","0","","","","","","7","","","","","","","","",""
"","","","","","single-stim-button","67","359846","0.0-2.0-22.1-1.1","5c3a87a61ede2b000115cf76","D2","batch4","","780","tol_toboard","","","","tol_peg_1","780","780","0","[[1,3,0],[2,0],[0]]","2","[[0,0,0],[1,2],[3]]","4","0","","","","","","7","","","","","","","","",""
"","","","","","single-stim-button","68","360612","0.0-2.0-22.2-0.2","5c3a87a61ede2b000115cf76","D2","batch4","","762","tol_tohand","","","","tol_peg_2","762","762","0","[[1,3,0],[0,0],[0]]","3","[[0,0,0],[1,2],[3]]","4","0","","","","","","7","","","","","","","","",""
"","","","","","single-stim-button","69","361296","0.0-2.0-22.2-1.2","5c3a87a61ede2b000115cf76","D2","batch4","","680","tol_toboard","","","","tol_peg_3","680","680","0","[[1,3,0],[0,0],[2]]","3","[[0,0,0],[1,2],[3]]","4","0","","","","","","7","","","","","","","","",""
"","","","","","single-stim-button","70","362586","0.0-2.0-22.3-0.3","5c3a87a61ede2b000115cf76","D2","batch4","","1286","tol_tohand","","","","tol_peg_1","1286","1286","0","[[1,0,0],[0,0],[2]]","4","[[0,0,0],[1,2],[3]]","4","0","","","","","","7","","","","","","","","",""
"","","","","","single-stim-button","71","363632","0.0-2.0-22.3-1.3","5c3a87a61ede2b000115cf76","D2","batch4","","1042","tol_toboard","","","","tol_peg_2","1042","1042","0","[[1,0,0],[3,0],[2]]","4","[[0,0,0],[1,2],[3]]","4","0","","","","","","7","","","","","","","","",""
"","","","","","single-stim-button","72","378193","0.0-2.0-22.4-0.4","5c3a87a61ede2b000115cf76","D2","batch4","","14559","tol_tohand","","","","tol_peg_2","14559","14559","0","[[1,0,0],[0,0],[2]]","5","[[0,0,0],[1,2],[3]]","4","0","","","","","","7","","","","","","","","",""
"","","","","","single-stim-button","73","378757","0.0-2.0-22.4-1.4","5c3a87a61ede2b000115cf76","D2","batch4","","561","tol_toboard","","","","tol_peg_1","561","561","0","[[1,3,0],[0,0],[2]]","5","[[0,0,0],[1,2],[3]]","4","0","","","","","","7","","","","","","","","",""
"","","","","","single-stim-button","74","379616","0.0-2.0-22.5-0.5","5c3a87a61ede2b000115cf76","D2","batch4","","857","tol_tohand","","","","tol_peg_3","857","857","0","[[1,3,0],[0,0],[0]]","6","[[0,0,0],[1,2],[3]]","4","0","","","","","","7","","","","","","","","",""
"","","","","","single-stim-button","75","380226","0.0-2.0-22.5-1.5","5c3a87a61ede2b000115cf76","D2","batch4","","605","tol_toboard","","","","tol_peg_1","605","605","0","[[1,3,2],[0,0],[0]]","6","[[0,0,0],[1,2],[3]]","4","0","","","","","","7","","","","","","","","",""
"","","","","","single-stim-button","76","386124","0.0-2.0-22.6-0.6","5c3a87a61ede2b000115cf76","D2","batch4","","5896","tol_tohand","","","","tol_peg_1","5896","5896","0","[[1,3,0],[0,0],[0]]","7","[[0,0,0],[1,2],[3]]","4","0","","","","","","7","","","","","","","","",""
"","","","","","single-stim-button","77","386839","0.0-2.0-22.6-1.6","5c3a87a61ede2b000115cf76","D2","batch4","","708","tol_toboard","","","","tol_peg_2","708","708","0","[[1,3,0],[2,0],[0]]","7","[[0,0,0],[1,2],[3]]","4","0","","","","","","7","","","","","","","","",""
"","","","","","single-stim-button","78","387386","0.0-2.0-22.7-0.7","5c3a87a61ede2b000115cf76","D2","batch4","","540","tol_tohand","","","","tol_peg_1","540","540","0","[[1,0,0],[2,0],[0]]","8","[[0,0,0],[1,2],[3]]","4","0","","","","","","7","","","","","","","","",""
"","","","","","single-stim-button","79","387930","0.0-2.0-22.7-1.7","5c3a87a61ede2b000115cf76","D2","batch4","","540","tol_toboard","","","","tol_peg_2","540","540","0","[[1,0,0],[2,3],[0]]","8","[[0,0,0],[1,2],[3]]","4","0","","","","","","7","","","","","","","","",""
"","","","","","single-stim-button","80","388832","0.0-2.0-22.8-0.8","5c3a87a61ede2b000115cf76","D2","batch4","","899","tol_tohand","","","","tol_peg_1","899","899","0","[[0,0,0],[2,3],[0]]","9","[[0,0,0],[1,2],[3]]","4","0","","","","","","7","","","","","","","","",""
"","","","","","single-stim-button","81","389522","0.0-2.0-22.8-1.8","5c3a87a61ede2b000115cf76","D2","batch4","","685","tol_toboard","","","","tol_peg_3","685","685","0","[[0,0,0],[2,3],[1]]","9","[[0,0,0],[1,2],[3]]","4","0","","","","","","7","","","","","","","","",""
"","","","","","single-stim-button","82","392865","0.0-2.0-22.9-0.9","5c3a87a61ede2b000115cf76","D2","batch4","","3339","tol_tohand","","","","tol_peg_2","3339","3339","0","[[0,0,0],[2,0],[1]]","10","[[0,0,0],[1,2],[3]]","4","0","","","","","","7","","","","","","","","",""
"","","","","","single-stim-button","83","393564","0.0-2.0-22.9-1.9","5c3a87a61ede2b000115cf76","D2","batch4","","696","tol_toboard","","","","tol_peg_1","696","696","0","[[3,0,0],[2,0],[1]]","10","[[0,0,0],[1,2],[3]]","4","0","","","","","","7","","","","","","","","",""
"","","","","","single-stim-button","84","394399","0.0-2.0-22.10-0.10","5c3a87a61ede2b000115cf76","D2","batch4","","832","tol_tohand","","","","tol_peg_2","832","832","0","[[3,0,0],[0,0],[1]]","11","[[0,0,0],[1,2],[3]]","4","0","","","","","","7","","","","","","","","",""
"","","","","","single-stim-button","85","394908","0.0-2.0-22.10-1.10","5c3a87a61ede2b000115cf76","D2","batch4","","504","tol_toboard","","","","tol_peg_1","504","504","0","[[3,2,0],[0,0],[1]]","11","[[0,0,0],[1,2],[3]]","4","0","","","","","","7","","","","","","","","",""
"","","","","","single-stim-button","86","395611","0.0-2.0-22.11-0.11","5c3a87a61ede2b000115cf76","D2","batch4","","699","tol_tohand","","","","tol_peg_3","699","699","0","[[3,2,0],[0,0],[0]]","12","[[0,0,0],[1,2],[3]]","4","0","","","","","","7","","","","","","","","",""
"","","","","","single-stim-button","87","396235","0.0-2.0-22.11-1.11","5c3a87a61ede2b000115cf76","D2","batch4","","621","tol_toboard","","","","tol_peg_2","621","621","0","[[3,2,0],[1,0],[0]]","12","[[0,0,0],[1,2],[3]]","4","0","","","","","","7","","","","","","","","",""
"","","","","","single-stim-button","88","397026","0.0-2.0-22.12-0.12","5c3a87a61ede2b000115cf76","D2","batch4","","787","tol_tohand","","","","tol_peg_1","787","787","0","[[3,0,0],[1,0],[0]]","13","[[0,0,0],[1,2],[3]]","4","0","","","","","","7","","","","","","","","",""
"","","","","","single-stim-button","89","397540","0.0-2.0-22.12-1.12","5c3a87a61ede2b000115cf76","D2","batch4","","511","tol_toboard","","","","tol_peg_2","511","511","0","[[3,0,0],[1,2],[0]]","13","[[0,0,0],[1,2],[3]]","4","0","","","","","","7","","","","","","","","",""
"","","","","","single-stim-button","90","398132","0.0-2.0-22.13-0.13","5c3a87a61ede2b000115cf76","D2","batch4","","589","tol_tohand","","","","tol_peg_1","589","589","0","[[0,0,0],[1,2],[0]]","14","[[0,0,0],[1,2],[3]]","4","0","","","","","","7","","","","","","","","",""
"","","","","","single-stim-button","91","398731","0.0-2.0-22.13-1.13","5c3a87a61ede2b000115cf76","D2","batch4","","597","tol_toboard","","","","tol_peg_3","597","597","0","[[0,0,0],[1,2],[3]]","14","[[0,0,0],[1,2],[3]]","4","0","","","","","","7","","","","","","","","",""
"","","","","","poldrack-single-stim","92","399736","0.0-2.0-23.0","5c3a87a61ede2b000115cf76","D2","batch4","","-1","tol_feedback","","","true","","1000","1000","500","","","","","","-1","none","true","8186","69831","","","","","","","","","",""
"","","","","","html-button-response","93","401018","0.0-2.0-24.0","5c3a87a61ede2b000115cf76","D2","batch4","","1277.2000000029802","tol_trial_num","<div class = centerbox><p class = center-block-text>problem <strong>6</strong> out of 25 problems</p></div>","0","","","","","","","","","","","","","","","","","","","","","","","","",""
"","","","","","single-stim-button","94","415053","0.0-2.0-25.0-0.0","5c3a87a61ede2b000115cf76","D2","batch4","","14032","tol_tohand","","","","tol_peg_3","14032","14032","0","[[0,0,0],[1,2],[0]]","1","[[1,0,0],[2,3],[0]]","5","0","","","","","","6","","","","","","","","",""
"","","","","","single-stim-button","95","415875","0.0-2.0-25.0-1.0","5c3a87a61ede2b000115cf76","D2","batch4","","818","tol_toboard","","","","tol_peg_1","818","818","0","[[3,0,0],[1,2],[0]]","1","[[1,0,0],[2,3],[0]]","5","0","","","","","","6","","","","","","","","",""
"","","","","","single-stim-button","96","429126","0.0-2.0-25.1-0.1","5c3a87a61ede2b000115cf76","D2","batch4","","13249","tol_tohand","","","","tol_peg_2","13249","13249","0","[[3,0,0],[1,0],[0]]","2","[[1,0,0],[2,3],[0]]","5","0","","","","","","6","","","","","","","","",""
"","","","","","single-stim-button","97","429787","0.0-2.0-25.1-1.1","5c3a87a61ede2b000115cf76","D2","batch4","","659","tol_toboard","","","","tol_peg_3","659","659","0","[[3,0,0],[1,0],[2]]","2","[[1,0,0],[2,3],[0]]","5","0","","","","","","6","","","","","","","","",""
"","","","","","single-stim-button","98","430348","0.0-2.0-25.2-0.2","5c3a87a61ede2b000115cf76","D2","batch4","","557","tol_tohand","","","","tol_peg_2","557","557","0","[[3,0,0],[0,0],[2]]","3","[[1,0,0],[2,3],[0]]","5","0","","","","","","6","","","","","","","","",""
"","","","","","single-stim-button","99","430854","0.0-2.0-25.2-1.2","5c3a87a61ede2b000115cf76","D2","batch4","","504","tol_toboard","","","","tol_peg_1","504","504","0","[[3,1,0],[0,0],[2]]","3","[[1,0,0],[2,3],[0]]","5","0","","","","","","6","","","","","","","","",""
"","","","","","single-stim-button","100","431608","0.0-2.0-25.3-0.3","5c3a87a61ede2b000115cf76","D2","batch4","","752","tol_tohand","","","","tol_peg_3","752","752","0","[[3,1,0],[0,0],[0]]","4","[[1,0,0],[2,3],[0]]","5","0","","","","","","6","","","","","","","","",""
"","","","","","single-stim-button","101","432160","0.0-2.0-25.3-1.3","5c3a87a61ede2b000115cf76","D2","batch4","","549","tol_toboard","","","","tol_peg_2","549","549","0","[[3,1,0],[2,0],[0]]","4","[[1,0,0],[2,3],[0]]","5","0","","","","","","6","","","","","","","","",""
"","","","","","single-stim-button","102","433577","0.0-2.0-25.4-0.4","5c3a87a61ede2b000115cf76","D2","batch4","","1413","tol_tohand","","","","tol_peg_1","1413","1413","0","[[3,0,0],[2,0],[0]]","5","[[1,0,0],[2,3],[0]]","5","0","","","","","","6","","","","","","","","",""
"","","","","","single-stim-button","103","434381","0.0-2.0-25.4-1.4","5c3a87a61ede2b000115cf76","D2","batch4","","801","tol_toboard","","","","tol_peg_3","801","801","0","[[3,0,0],[2,0],[1]]","5","[[1,0,0],[2,3],[0]]","5","0","","","","","","6","","","","","","","","",""
"","","","","","single-stim-button","104","435074","0.0-2.0-25.5-0.5","5c3a87a61ede2b000115cf76","D2","batch4","","688","tol_tohand","","","","tol_peg_1","688","688","0","[[0,0,0],[2,0],[1]]","6","[[1,0,0],[2,3],[0]]","5","0","","","","","","6","","","","","","","","",""
"","","","","","single-stim-button","105","435615","0.0-2.0-25.5-1.5","5c3a87a61ede2b000115cf76","D2","batch4","","539","tol_toboard","","","","tol_peg_2","539","539","0","[[0,0,0],[2,3],[1]]","6","[[1,0,0],[2,3],[0]]","5","0","","","","","","6","","","","","","","","",""
"","","","","","single-stim-button","106","436134","0.0-2.0-25.6-0.6","5c3a87a61ede2b000115cf76","D2","batch4","","515","tol_tohand","","","","tol_peg_3","515","515","0","[[0,0,0],[2,3],[0]]","7","[[1,0,0],[2,3],[0]]","5","0","","","","","","6","","","","","","","","",""
"","","","","","single-stim-button","107","436749","0.0-2.0-25.6-1.6","5c3a87a61ede2b000115cf76","D2","batch4","","612","tol_toboard","","","","tol_peg_1","612","612","0","[[1,0,0],[2,3],[0]]","7","[[1,0,0],[2,3],[0]]","5","0","","","","","","6","","","","","","","","",""
"","","","","","poldrack-single-stim","108","437754","0.0-2.0-26.0","5c3a87a61ede2b000115cf76","D2","batch4","","-1","tol_feedback","","","true","","1000","1000","500","","","","","","-1","none","true","14032","31206","","","","","","","","","",""
"","","","","","html-button-response","109","438824","0.0-2.0-27.0","5c3a87a61ede2b000115cf76","D2","batch4","","1066.2999999970198","tol_trial_num","<div class = centerbox><p class = center-block-text>problem <strong>7</strong> out of 25 problems</p></div>","0","","","","","","","","","","","","","","","","","","","","","","","","",""
"","","","","","single-stim-button","110","449989","0.0-2.0-28.0-0.0","5c3a87a61ede2b000115cf76","D2","batch4","","11160","tol_tohand","","","","tol_peg_3","11160","11160","0","[[2,1,0],[0,0],[0]]","1","[[1,2,0],[3,0],[0]]","6","0","","","","","","5","","","","","","","","",""
"","","","","","single-stim-button","111","450788","0.0-2.0-28.0-1.0","5c3a87a61ede2b000115cf76","D2","batch4","","796","tol_toboard","","","","tol_peg_2","796","796","0","[[2,1,0],[3,0],[0]]","1","[[1,2,0],[3,0],[0]]","6","0","","","","","","5","","","","","","","","",""
"","","","","","single-stim-button","112","457245","0.0-2.0-28.1-0.1","5c3a87a61ede2b000115cf76","D2","batch4","","6455","tol_tohand","","","","tol_peg_1","6455","6455","0","[[2,0,0],[3,0],[0]]","2","[[1,2,0],[3,0],[0]]","6","0","","","","","","5","","","","","","","","",""
"","","","","","single-stim-button","113","458026","0.0-2.0-28.1-1.1","5c3a87a61ede2b000115cf76","D2","batch4","","777","tol_toboard","","","","tol_peg_3","777","777","0","[[2,0,0],[3,0],[1]]","2","[[1,2,0],[3,0],[0]]","6","0","","","","","","5","","","","","","","","",""
"","","","","","single-stim-button","114","458725","0.0-2.0-28.2-0.2","5c3a87a61ede2b000115cf76","D2","batch4","","693","tol_tohand","","","","tol_peg_1","693","693","0","[[0,0,0],[3,0],[1]]","3","[[1,2,0],[3,0],[0]]","6","0","","","","","","5","","","","","","","","",""
"","","","","","single-stim-button","115","459276","0.0-2.0-28.2-1.2","5c3a87a61ede2b000115cf76","D2","batch4","","548","tol_toboard","","","","tol_peg_2","548","548","0","[[0,0,0],[3,2],[1]]","3","[[1,2,0],[3,0],[0]]","6","0","","","","","","5","","","","","","","","",""
"","","","","","single-stim-button","116","460814","0.0-2.0-28.3-0.3","5c3a87a61ede2b000115cf76","D2","batch4","","1534","tol_tohand","","","","tol_peg_3","1534","1534","0","[[0,0,0],[3,2],[0]]","4","[[1,2,0],[3,0],[0]]","6","0","","","","","","5","","","","","","","","",""
"","","","","","single-stim-button","117","461539","0.0-2.0-28.3-1.3","5c3a87a61ede2b000115cf76","D2","batch4","","722","tol_toboard","","","","tol_peg_1","722","722","0","[[1,0,0],[3,2],[0]]","4","[[1,2,0],[3,0],[0]]","6","0","","","","","","5","","","","","","","","",""
"","","","","","single-stim-button","118","462758","0.0-2.0-28.4-0.4","5c3a87a61ede2b000115cf76","D2","batch4","","1217","tol_tohand","","","","tol_peg_2","1217","1217","0","[[1,0,0],[3,0],[0]]","5","[[1,2,0],[3,0],[0]]","6","0","","","","","","5","","","","","","","","",""
"","","","","","single-stim-button","119","463277","0.0-2.0-28.4-1.4","5c3a87a61ede2b000115cf76","D2","batch4","","511","tol_toboard","","","","tol_peg_1","511","511","0","[[1,2,0],[3,0],[0]]","5","[[1,2,0],[3,0],[0]]","6","0","","","","","","5","","","","","","","","",""
"","","","","","poldrack-single-stim","120","464281","0.0-2.0-29.0","5c3a87a61ede2b000115cf76","D2","batch4","","-1","tol_feedback","","","true","","1000","1000","500","","","","","","-1","none","true","11160","21059","","","","","","","","","",""
"","","","","","html-button-response","121","465405","0.0-2.0-30.0","5c3a87a61ede2b000115cf76","D2","batch4","","1121","tol_trial_num","<div class = centerbox><p class = center-block-text>problem <strong>8</strong> out of 25 problems</p></div>","0","","","","","","","","","","","","","","","","","","","","","","","","",""
"","","","","","single-stim-button","122","469933","0.0-2.0-31.0-0.0","5c3a87a61ede2b000115cf76","D2","batch4","","4523","tol_tohand","","","","tol_peg_3","4523","4523","0","[[0,0,0],[2,3],[0]]","1","[[1,2,0],[3,0],[0]]","7","0","","","","","","4","","","","","","","","",""
"","","","","","single-stim-button","123","470661","0.0-2.0-31.0-1.0","5c3a87a61ede2b000115cf76","D2","batch4","","725","tol_toboard","","","","tol_peg_1","725","725","0","[[1,0,0],[2,3],[0]]","1","[[1,2,0],[3,0],[0]]","7","0","","","","","","4","","","","","","","","",""
"","","","","","single-stim-button","124","471718","0.0-2.0-31.1-0.1","5c3a87a61ede2b000115cf76","D2","batch4","","1054","tol_tohand","","","","tol_peg_2","1054","1054","0","[[1,0,0],[2,0],[0]]","2","[[1,2,0],[3,0],[0]]","7","0","","","","","","4","","","","","","","","",""
"","","","","","single-stim-button","125","472438","0.0-2.0-31.1-1.1","5c3a87a61ede2b000115cf76","D2","batch4","","716","tol_toboard","","","","tol_peg_3","716","716","0","[[1,0,0],[2,0],[3]]","2","[[1,2,0],[3,0],[0]]","7","0","","","","","","4","","","","","","","","",""
"","","","","","single-stim-button","126","472939","0.0-2.0-31.2-0.2","5c3a87a61ede2b000115cf76","D2","batch4","","498","tol_tohand","","","","tol_peg_2","498","498","0","[[1,0,0],[0,0],[3]]","3","[[1,2,0],[3,0],[0]]","7","0","","","","","","4","","","","","","","","",""
"","","","","","single-stim-button","127","473423","0.0-2.0-31.2-1.2","5c3a87a61ede2b000115cf76","D2","batch4","","481","tol_toboard","","","","tol_peg_1","481","481","0","[[1,2,0],[0,0],[3]]","3","[[1,2,0],[3,0],[0]]","7","0","","","","","","4","","","","","","","","",""
"","","","","","single-stim-button","128","474035","0.0-2.0-31.3-0.3","5c3a87a61ede2b000115cf76","D2","batch4","","610","tol_tohand","","","","tol_peg_3","610","610","0","[[1,2,0],[0,0],[0]]","4","[[1,2,0],[3,0],[0]]","7","0","","","","","","4","","","","","","","","",""
"","","","","","single-stim-button","129","474521","0.0-2.0-31.3-1.3","5c3a87a61ede2b000115cf76","D2","batch4","","478","tol_toboard","","","","tol_peg_2","478","478","0","[[1,2,0],[3,0],[0]]","4","[[1,2,0],[3,0],[0]]","7","0","","","","","","4","","","","","","","","",""
"","","","","","poldrack-single-stim","130","475526","0.0-2.0-32.0","5c3a87a61ede2b000115cf76","D2","batch4","","-1","tol_feedback","","","true","","1000","1000","500","","","","","","-1","none","true","4523","6685","","","","","","","","","",""
"","","","","","html-button-response","131","476564","0.0-2.0-33.0","5c3a87a61ede2b000115cf76","D2","batch4","","1033.5","tol_trial_num","<div class = centerbox><p class = center-block-text>problem <strong>9</strong> out of 25 problems</p></div>","0","","","","","","","","","","","","","","","","","","","","","","","","",""
"","","","","","single-stim-button","132","480828","0.0-2.0-34.0-0.0","5c3a87a61ede2b000115cf76","D2","batch4","","4260","tol_tohand","","","","tol_peg_1","4260","4260","0","[[3,0,0],[0,0],[1]]","1","[[2,1,0],[3,0],[0]]","8","0","","","","","","6","","","","","","","","",""
"","","","","","single-stim-button","133","500108","0.0-2.0-34.0-1.0","5c3a87a61ede2b000115cf76","D2","batch4","","19276","tol_toboard","","","","tol_peg_2","19276","19276","0","[[3,0,0],[2,0],[1]]","1","[[2,1,0],[3,0],[0]]","8","0","","","","","","6","","","","","","","","",""
"","","","","","single-stim-button","134","502307","0.0-2.0-34.1-0.1","5c3a87a61ede2b000115cf76","D2","batch4","","2195","tol_tohand","","","","tol_peg_1","2195","2195","0","[[0,0,0],[2,0],[1]]","2","[[2,1,0],[3,0],[0]]","8","0","","","","","","6","","","","","","","","",""
"","","","","","single-stim-button","135","505880","0.0-2.0-34.1-1.1","5c3a87a61ede2b000115cf76","D2","batch4","","3569","tol_toboard","","","","tol_peg_1","3569","3569","0","[[3,0,0],[2,0],[1]]","2","[[2,1,0],[3,0],[0]]","8","0","","","","","","6","","","","","","","","",""
"","","","","","single-stim-button","136","512780","0.0-2.0-34.2-0.2","5c3a87a61ede2b000115cf76","D2","batch4","","6897","tol_tohand","","","","tol_peg_3","6897","6897","0","[[3,0,0],[2,0],[0]]","3","[[2,1,0],[3,0],[0]]","8","0","","","","","","6","","","","","","","","",""
"","","","","","single-stim-button","137","513428","0.0-2.0-34.2-1.2","5c3a87a61ede2b000115cf76","D2","batch4","","644","tol_toboard","","","","tol_peg_1","644","644","0","[[3,1,0],[2,0],[0]]","3","[[2,1,0],[3,0],[0]]","8","0","","","","","","6","","","","","","","","",""
"","","","","","single-stim-button","138","513999","0.0-2.0-34.3-0.3","5c3a87a61ede2b000115cf76","D2","batch4","","568","tol_tohand","","","","tol_peg_2","568","568","0","[[3,1,0],[0,0],[0]]","4","[[2,1,0],[3,0],[0]]","8","0","","","","","","6","","","","","","","","",""
"","","","","","single-stim-button","139","514589","0.0-2.0-34.3-1.3","5c3a87a61ede2b000115cf76","D2","batch4","","585","tol_toboard","","","","tol_peg_3","585","585","0","[[3,1,0],[0,0],[2]]","4","[[2,1,0],[3,0],[0]]","8","0","","","","","","6","","","","","","","","",""
"","","","","","single-stim-button","140","516208","0.0-2.0-34.4-0.4","5c3a87a61ede2b000115cf76","D2","batch4","","1616","tol_tohand","","","","tol_peg_1","1616","1616","0","[[3,0,0],[0,0],[2]]","5","[[2,1,0],[3,0],[0]]","8","0","","","","","","6","","","","","","","","",""
"","","","","","single-stim-button","141","516966","0.0-2.0-34.4-1.4","5c3a87a61ede2b000115cf76","D2","batch4","","754","tol_toboard","","","","tol_peg_2","754","754","0","[[3,0,0],[1,0],[2]]","5","[[2,1,0],[3,0],[0]]","8","0","","","","","","6","","","","","","","","",""
"","","","","","single-stim-button","142","518160","0.0-2.0-34.5-0.5","5c3a87a61ede2b000115cf76","D2","batch4","","1190","tol_tohand","","","","tol_peg_1","1190","1190","0","[[0,0,0],[1,0],[2]]","6","[[2,1,0],[3,0],[0]]","8","0","","","","","","6","","","","","","","","",""
"","","","","","single-stim-button","143","519451","0.0-2.0-34.5-1.5","5c3a87a61ede2b000115cf76","D2","batch4","","1286","tol_toboard","","","","tol_peg_2","1286","1286","0","[[0,0,0],[1,3],[2]]","6","[[2,1,0],[3,0],[0]]","8","0","","","","","","6","","","","","","","","",""
"","","","","","single-stim-button","144","520047","0.0-2.0-34.6-0.6","5c3a87a61ede2b000115cf76","D2","batch4","","592","tol_tohand","","","","tol_peg_3","592","592","0","[[0,0,0],[1,3],[0]]","7","[[2,1,0],[3,0],[0]]","8","0","","","","","","6","","","","","","","","",""
"","","","","","single-stim-button","145","520711","0.0-2.0-34.6-1.6","5c3a87a61ede2b000115cf76","D2","batch4","","661","tol_toboard","","","","tol_peg_1","661","661","0","[[2,0,0],[1,3],[0]]","7","[[2,1,0],[3,0],[0]]","8","0","","","","","","6","","","","","","","","",""
"","","","","","single-stim-button","146","524283","0.0-2.0-34.7-0.7","5c3a87a61ede2b000115cf76","D2","batch4","","3569","tol_tohand","","","","tol_peg_2","3569","3569","0","[[2,0,0],[1,0],[0]]","8","[[2,1,0],[3,0],[0]]","8","0","","","","","","6","","","","","","","","",""
"","","","","","single-stim-button","147","524924","0.0-2.0-34.7-1.7","5c3a87a61ede2b000115cf76","D2","batch4","","637","tol_toboard","","","","tol_peg_3","637","637","0","[[2,0,0],[1,0],[3]]","8","[[2,1,0],[3,0],[0]]","8","0","","","","","","6","","","","","","","","",""
"","","","","","single-stim-button","148","525395","0.0-2.0-34.8-0.8","5c3a87a61ede2b000115cf76","D2","batch4","","469","tol_tohand","","","","tol_peg_2","469","469","0","[[2,0,0],[0,0],[3]]","9","[[2,1,0],[3,0],[0]]","8","0","","","","","","6","","","","","","","","",""
"","","","","","single-stim-button","149","525857","0.0-2.0-34.8-1.8","5c3a87a61ede2b000115cf76","D2","batch4","","458","tol_toboard","","","","tol_peg_1","458","458","0","[[2,1,0],[0,0],[3]]","9","[[2,1,0],[3,0],[0]]","8","0","","","","","","6","","","","","","","","",""
"","","","","","single-stim-button","150","526406","0.0-2.0-34.9-0.9","5c3a87a61ede2b000115cf76","D2","batch4","","545","tol_tohand","","","","tol_peg_3","545","545","0","[[2,1,0],[0,0],[0]]","10","[[2,1,0],[3,0],[0]]","8","0","","","","","","6","","","","","","","","",""
"","","","","","single-stim-button","151","526810","0.0-2.0-34.9-1.9","5c3a87a61ede2b000115cf76","D2","batch4","","401","tol_toboard","","","","tol_peg_2","401","401","0","[[2,1,0],[3,0],[0]]","10","[[2,1,0],[3,0],[0]]","8","0","","","","","","6","","","","","","","","",""
"","","","","","poldrack-single-stim","152","527814","0.0-2.0-35.0","5c3a87a61ede2b000115cf76","D2","batch4","","-1","tol_feedback","","","true","","1000","1000","500","","","","","","-1","none","true","4260","21901","","","","","","","","","",""
"","","","","","html-button-response","153","528943","0.0-2.0-36.0","5c3a87a61ede2b000115cf76","D2","batch4","","1125.2999999970198","tol_trial_num","<div class = centerbox><p class = center-block-text>problem <strong>10</strong> out of 25 problems</p></div>","0","","","","","","","","","","","","","","","","","","","","","","","","",""
"","","","","","single-stim-button","154","534878","0.0-2.0-37.0-0.0","5c3a87a61ede2b000115cf76","D2","batch4","","5928","tol_tohand","","","","tol_peg_2","5928","5928","0","[[3,0,0],[0,0],[2]]","1","[[3,0,0],[2,1],[0]]","9","0","","","","","","3","","","","","","","","",""
"","","","","","single-stim-button","155","535369","0.0-2.0-37.0-1.0","5c3a87a61ede2b000115cf76","D2","batch4","","488","tol_toboard","","","","tol_peg_1","488","488","0","[[3,1,0],[0,0],[2]]","1","[[3,0,0],[2,1],[0]]","9","0","","","","","","3","","","","","","","","",""
"","","","","","single-stim-button","156","535990","0.0-2.0-37.1-0.1","5c3a87a61ede2b000115cf76","D2","batch4","","618","tol_tohand","","","","tol_peg_3","618","618","0","[[3,1,0],[0,0],[0]]","2","[[3,0,0],[2,1],[0]]","9","0","","","","","","3","","","","","","","","",""
"","","","","","single-stim-button","157","536418","0.0-2.0-37.1-1.1","5c3a87a61ede2b000115cf76","D2","batch4","","426","tol_toboard","","","","tol_peg_2","426","426","0","[[3,1,0],[2,0],[0]]","2","[[3,0,0],[2,1],[0]]","9","0","","","","","","3","","","","","","","","",""
"","","","","","single-stim-button","158","536930","0.0-2.0-37.2-0.2","5c3a87a61ede2b000115cf76","D2","batch4","","509","tol_tohand","","","","tol_peg_1","509","509","0","[[3,0,0],[2,0],[0]]","3","[[3,0,0],[2,1],[0]]","9","0","","","","","","3","","","","","","","","",""
"","","","","","single-stim-button","159","537410","0.0-2.0-37.2-1.2","5c3a87a61ede2b000115cf76","D2","batch4","","475","tol_toboard","","","","tol_peg_2","475","475","0","[[3,0,0],[2,1],[0]]","3","[[3,0,0],[2,1],[0]]","9","0","","","","","","3","","","","","","","","",""
"","","","","","poldrack-single-stim","160","538414","0.0-2.0-38.0","5c3a87a61ede2b000115cf76","D2","batch4","","-1","tol_feedback","","","true","","1000","1000","500","","","","","","-1","none","true","5928","7055","","","","","","","","","",""
"","","","","","html-button-response","161","539521","0.0-2.0-39.0","5c3a87a61ede2b000115cf76","D2","batch4","","1104.5","tol_trial_num","<div class = centerbox><p class = center-block-text>problem <strong>11</strong> out of 25 problems</p></div>","0","","","","","","","","","","","","","","","","","","","","","","","","",""
"","","","","","single-stim-button","162","548710","0.0-2.0-40.0-0.0","5c3a87a61ede2b000115cf76","D2","batch4","","9185","tol_tohand","","","","tol_peg_1","9185","9185","0","[[1,0,0],[3,0],[0]]","1","[[2,0,0],[1,3],[0]]","10","0","","","","","","6","","","","","","","","",""
"","","","","","single-stim-button","163","549490","0.0-2.0-40.0-1.0","5c3a87a61ede2b000115cf76","D2","batch4","","778","tol_toboard","","","","tol_peg_3","778","778","0","[[1,0,0],[3,0],[2]]","1","[[2,0,0],[1,3],[0]]","10","0","","","","","","6","","","","","","","","",""
"","","","","","single-stim-button","164","562184","0.0-2.0-40.1-0.1","5c3a87a61ede2b000115cf76","D2","batch4","","12690","tol_tohand","","","","tol_peg_1","12690","12690","0","[[0,0,0],[3,0],[2]]","2","[[2,0,0],[1,3],[0]]","10","0","","","","","","6","","","","","","","","",""
"","","","","","single-stim-button","165","562703","0.0-2.0-40.1-1.1","5c3a87a61ede2b000115cf76","D2","batch4","","515","tol_toboard","","","","tol_peg_2","515","515","0","[[0,0,0],[3,1],[2]]","2","[[2,0,0],[1,3],[0]]","10","0","","","","","","6","","","","","","","","",""
"","","","","","single-stim-button","166","563194","0.0-2.0-40.2-0.2","5c3a87a61ede2b000115cf76","D2","batch4","","487","tol_tohand","","","","tol_peg_3","487","487","0","[[0,0,0],[3,1],[0]]","3","[[2,0,0],[1,3],[0]]","10","0","","","","","","6","","","","","","","","",""
"","","","","","single-stim-button","167","563765","0.0-2.0-40.2-1.2","5c3a87a61ede2b000115cf76","D2","batch4","","567","tol_toboard","","","","tol_peg_1","567","567","0","[[2,0,0],[3,1],[0]]","3","[[2,0,0],[1,3],[0]]","10","0","","","","","","6","","","","","","","","",""
"","","","","","single-stim-button","168","565945","0.0-2.0-40.3-0.3","5c3a87a61ede2b000115cf76","D2","batch4","","2177","tol_tohand","","","","tol_peg_2","2177","2177","0","[[2,0,0],[3,0],[0]]","4","[[2,0,0],[1,3],[0]]","10","0","","","","","","6","","","","","","","","",""
"","","","","","single-stim-button","169","566535","0.0-2.0-40.3-1.3","5c3a87a61ede2b000115cf76","D2","batch4","","586","tol_toboard","","","","tol_peg_3","586","586","0","[[2,0,0],[3,0],[1]]","4","[[2,0,0],[1,3],[0]]","10","0","","","","","","6","","","","","","","","",""
"","","","","","single-stim-button","170","567033","0.0-2.0-40.4-0.4","5c3a87a61ede2b000115cf76","D2","batch4","","493","tol_tohand","","","","tol_peg_2","493","493","0","[[2,0,0],[0,0],[1]]","5","[[2,0,0],[1,3],[0]]","10","0","","","","","","6","","","","","","","","",""
"","","","","","single-stim-button","171","567501","0.0-2.0-40.4-1.4","5c3a87a61ede2b000115cf76","D2","batch4","","465","tol_toboard","","","","tol_peg_1","465","465","0","[[2,3,0],[0,0],[1]]","5","[[2,0,0],[1,3],[0]]","10","0","","","","","","6","","","","","","","","",""
"","","","","","single-stim-button","172","568017","0.0-2.0-40.5-0.5","5c3a87a61ede2b000115cf76","D2","batch4","","512","tol_tohand","","","","tol_peg_3","512","512","0","[[2,3,0],[0,0],[0]]","6","[[2,0,0],[1,3],[0]]","10","0","","","","","","6","","","","","","","","",""
"","","","","","single-stim-button","173","568413","0.0-2.0-40.5-1.5","5c3a87a61ede2b000115cf76","D2","batch4","","392","tol_toboard","","","","tol_peg_2","392","392","0","[[2,3,0],[1,0],[0]]","6","[[2,0,0],[1,3],[0]]","10","0","","","","","","6","","","","","","","","",""
"","","","","","single-stim-button","174","568881","0.0-2.0-40.6-0.6","5c3a87a61ede2b000115cf76","D2","batch4","","463","tol_tohand","","","","tol_peg_1","463","463","0","[[2,0,0],[1,0],[0]]","7","[[2,0,0],[1,3],[0]]","10","0","","","","","","6","","","","","","","","",""
"","","","","","single-stim-button","175","569348","0.0-2.0-40.6-1.6","5c3a87a61ede2b000115cf76","D2","batch4","","464","tol_toboard","","","","tol_peg_2","464","464","0","[[2,0,0],[1,3],[0]]","7","[[2,0,0],[1,3],[0]]","10","0","","","","","","6","","","","","","","","",""
"","","","","","poldrack-single-stim","176","570354","0.0-2.0-41.0","5c3a87a61ede2b000115cf76","D2","batch4","","-1","tol_feedback","","","true","","1000","1000","500","","","","","","-1","none","true","9185","26007","","","","","","","","","",""
"","","","","","html-button-response","177","571533","0.0-2.0-42.0","5c3a87a61ede2b000115cf76","D2","batch4","","1175.3000000044703","tol_trial_num","<div class = centerbox><p class = center-block-text>problem <strong>12</strong> out of 25 problems</p></div>","0","","","","","","","","","","","","","","","","","","","","","","","","",""
"","","","","","single-stim-button","178","588684","0.0-2.0-43.0-0.0","5c3a87a61ede2b000115cf76","D2","batch4","","17146","tol_tohand","","","","tol_peg_1","17146","17146","0","[[1,0,0],[3,0],[0]]","1","[[2,3,0],[0,0],[1]]","11","0","","","","","","4","","","","","","","","",""
"","","","","","single-stim-button","179","589580","0.0-2.0-43.0-1.0","5c3a87a61ede2b000115cf76","D2","batch4","","893","tol_toboard","","","","tol_peg_2","893","893","0","[[1,0,0],[3,2],[0]]","1","[[2,3,0],[0,0],[1]]","11","0","","","","","","4","","","","","","","","",""
"","","","","","single-stim-button","180","590194","0.0-2.0-43.1-0.1","5c3a87a61ede2b000115cf76","D2","batch4","","611","tol_tohand","","","","tol_peg_1","611","611","0","[[0,0,0],[3,2],[0]]","2","[[2,3,0],[0,0],[1]]","11","0","","","","","","4","","","","","","","","",""
"","","","","","single-stim-button","181","590782","0.0-2.0-43.1-1.1","5c3a87a61ede2b000115cf76","D2","batch4","","585","tol_toboard","","","","tol_peg_3","585","585","0","[[0,0,0],[3,2],[1]]","2","[[2,3,0],[0,0],[1]]","11","0","","","","","","4","","","","","","","","",""
"","","","","","single-stim-button","182","591280","0.0-2.0-43.2-0.2","5c3a87a61ede2b000115cf76","D2","batch4","","494","tol_tohand","","","","tol_peg_2","494","494","0","[[0,0,0],[3,0],[1]]","3","[[2,3,0],[0,0],[1]]","11","0","","","","","","4","","","","","","","","",""
"","","","","","single-stim-button","183","591691","0.0-2.0-43.2-1.2","5c3a87a61ede2b000115cf76","D2","batch4","","408","tol_toboard","","","","tol_peg_1","408","408","0","[[2,0,0],[3,0],[1]]","3","[[2,3,0],[0,0],[1]]","11","0","","","","","","4","","","","","","","","",""
"","","","","","single-stim-button","184","592138","0.0-2.0-43.3-0.3","5c3a87a61ede2b000115cf76","D2","batch4","","443","tol_tohand","","","","tol_peg_2","443","443","0","[[2,0,0],[0,0],[1]]","4","[[2,3,0],[0,0],[1]]","11","0","","","","","","4","","","","","","","","",""
"","","","","","single-stim-button","185","592508","0.0-2.0-43.3-1.3","5c3a87a61ede2b000115cf76","D2","batch4","","367","tol_toboard","","","","tol_peg_1","367","367","0","[[2,3,0],[0,0],[1]]","4","[[2,3,0],[0,0],[1]]","11","0","","","","","","4","","","","","","","","",""
"","","","","","poldrack-single-stim","186","593512","0.0-2.0-44.0","5c3a87a61ede2b000115cf76","D2","batch4","","-1","tol_feedback","","","true","","1000","1000","500","","","","","","-1","none","true","17146","18694","","","","","","","","","",""
"","","","","","html-button-response","187","594645","0.0-2.0-45.0","5c3a87a61ede2b000115cf76","D2","batch4","","1130.1000000014901","tol_trial_num","<div class = centerbox><p class = center-block-text>problem <strong>13</strong> out of 25 problems</p></div>","0","","","","","","","","","","","","","","","","","","","","","","","","",""
"","","","","","single-stim-button","188","614210","0.0-2.0-46.0-0.0","5c3a87a61ede2b000115cf76","D2","batch4","","19562","tol_tohand","","","","tol_peg_1","19562","19562","0","[[1,0,0],[3,0],[0]]","1","[[0,0,0],[2,3],[1]]","12","0","","","","","","4","","","","","","","","",""
"","","","","","single-stim-button","189","614879","0.0-2.0-46.0-1.0","5c3a87a61ede2b000115cf76","D2","batch4","","665","tol_toboard","","","","tol_peg_3","665","665","0","[[1,0,0],[3,0],[2]]","1","[[0,0,0],[2,3],[1]]","12","0","","","","","","4","","","","","","","","",""
"","","","","","single-stim-button","190","615309","0.0-2.0-46.1-0.1","5c3a87a61ede2b000115cf76","D2","batch4","","424","tol_tohand","","","","tol_peg_2","424","424","0","[[1,0,0],[0,0],[2]]","2","[[0,0,0],[2,3],[1]]","12","0","","","","","","4","","","","","","","","",""
"","","","","","single-stim-button","191","615728","0.0-2.0-46.1-1.1","5c3a87a61ede2b000115cf76","D2","batch4","","415","tol_toboard","","","","tol_peg_1","415","415","0","[[1,3,0],[0,0],[2]]","2","[[0,0,0],[2,3],[1]]","12","0","","","","","","4","","","","","","","","",""
"","","","","","single-stim-button","192","616258","0.0-2.0-46.2-0.2","5c3a87a61ede2b000115cf76","D2","batch4","","526","tol_tohand","","","","tol_peg_3","526","526","0","[[1,3,0],[0,0],[0]]","3","[[0,0,0],[2,3],[1]]","12","0","","","","","","4","","","","","","","","",""
"","","","","","single-stim-button","193","616695","0.0-2.0-46.2-1.2","5c3a87a61ede2b000115cf76","D2","batch4","","432","tol_toboard","","","","tol_peg_2","432","432","0","[[1,3,0],[2,0],[0]]","3","[[0,0,0],[2,3],[1]]","12","0","","","","","","4","","","","","","","","",""
"","","","","","single-stim-button","194","617207","0.0-2.0-46.3-0.3","5c3a87a61ede2b000115cf76","D2","batch4","","508","tol_tohand","","","","tol_peg_1","508","508","0","[[1,0,0],[2,0],[0]]","4","[[0,0,0],[2,3],[1]]","12","0","","","","","","4","","","","","","","","",""
"","","","","","single-stim-button","195","617648","0.0-2.0-46.3-1.3","5c3a87a61ede2b000115cf76","D2","batch4","","439","tol_toboard","","","","tol_peg_2","439","439","0","[[1,0,0],[2,3],[0]]","4","[[0,0,0],[2,3],[1]]","12","0","","","","","","4","","","","","","","","",""
"","","","","","single-stim-button","196","618210","0.0-2.0-46.4-0.4","5c3a87a61ede2b000115cf76","D2","batch4","","558","tol_tohand","","","","tol_peg_1","558","558","0","[[0,0,0],[2,3],[0]]","5","[[0,0,0],[2,3],[1]]","12","0","","","","","","4","","","","","","","","",""
"","","","","","single-stim-button","197","618863","0.0-2.0-46.4-1.4","5c3a87a61ede2b000115cf76","D2","batch4","","649","tol_toboard","","","","tol_peg_3","649","649","0","[[0,0,0],[2,3],[1]]","5","[[0,0,0],[2,3],[1]]","12","0","","","","","","4","","","","","","","","",""
"","","","","","poldrack-single-stim","198","619870","0.0-2.0-47.0","5c3a87a61ede2b000115cf76","D2","batch4","","-1","tol_feedback","","","true","","1000","1000","500","","","","","","-1","none","true","19562","21578","","","","","","","","","",""
"","","","","","html-button-response","199","625750","0.0-2.0-48.0","5c3a87a61ede2b000115cf76","D2","batch4","","5873.30000000447","attention_check","<p class = block-text>How many balls are in your board<br></p>","1","true","","","","","","","","","","","","","","","","","","","","","","","",""
"","","","","","html-button-response","200","627681","0.0-2.0-49.0","5c3a87a61ede2b000115cf76","D2","batch4","","1925","tol_trial_num","<div class = centerbox><p class = center-block-text>problem <strong>14</strong> out of 25 problems</p></div>","0","","","","","","","","","","","","","","","","","","","","","","","","",""
"","","","","","single-stim-button","201","636217","0.0-2.0-50.0-0.0","5c3a87a61ede2b000115cf76","D2","batch4","","8529","tol_tohand","","","","tol_peg_1","8529","8529","0","[[2,0,0],[3,0],[0]]","1","[[1,2,0],[3,0],[0]]","13","0","","","","","","4","","","","","","","","",""
"","","","","","single-stim-button","202","637030","0.0-2.0-50.0-1.0","5c3a87a61ede2b000115cf76","D2","batch4","","809","tol_toboard","","","","tol_peg_3","809","809","0","[[2,0,0],[3,0],[1]]","1","[[1,2,0],[3,0],[0]]","13","0","","","","","","4","","","","","","","","",""
"","","","","","single-stim-button","203","637597","0.0-2.0-50.1-0.1","5c3a87a61ede2b000115cf76","D2","batch4","","564","tol_tohand","","","","tol_peg_1","564","564","0","[[0,0,0],[3,0],[1]]","2","[[1,2,0],[3,0],[0]]","13","0","","","","","","4","","","","","","","","",""
"","","","","","single-stim-button","204","638071","0.0-2.0-50.1-1.1","5c3a87a61ede2b000115cf76","D2","batch4","","470","tol_toboard","","","","tol_peg_2","470","470","0","[[0,0,0],[3,2],[1]]","2","[[1,2,0],[3,0],[0]]","13","0","","","","","","4","","","","","","","","",""
"","","","","","single-stim-button","205","638597","0.0-2.0-50.2-0.2","5c3a87a61ede2b000115cf76","D2","batch4","","523","tol_tohand","","","","tol_peg_3","523","523","0","[[0,0,0],[3,2],[0]]","3","[[1,2,0],[3,0],[0]]","13","0","","","","","","4","","","","","","","","",""
"","","","","","single-stim-button","206","639123","0.0-2.0-50.2-1.2","5c3a87a61ede2b000115cf76","D2","batch4","","523","tol_toboard","","","","tol_peg_1","523","523","0","[[1,0,0],[3,2],[0]]","3","[[1,2,0],[3,0],[0]]","13","0","","","","","","4","","","","","","","","",""
"","","","","","single-stim-button","207","639507","0.0-2.0-50.3-0.3","5c3a87a61ede2b000115cf76","D2","batch4","","380","tol_tohand","","","","tol_peg_2","380","380","0","[[1,0,0],[3,0],[0]]","4","[[1,2,0],[3,0],[0]]","13","0","","","","","","4","","","","","","","","",""
"","","","","","single-stim-button","208","639931","0.0-2.0-50.3-1.3","5c3a87a61ede2b000115cf76","D2","batch4","","421","tol_toboard","","","","tol_peg_1","421","421","0","[[1,2,0],[3,0],[0]]","4","[[1,2,0],[3,0],[0]]","13","0","","","","","","4","","","","","","","","",""
"","","","","","poldrack-single-stim","209","640938","0.0-2.0-51.0","5c3a87a61ede2b000115cf76","D2","batch4","","-1","tol_feedback","","","true","","1000","1000","500","","","","","","-1","none","true","8529","9996","","","","","","","","","",""
"","","","","","html-button-response","210","641933","0.0-2.0-52.0","5c3a87a61ede2b000115cf76","D2","batch4","","990.5","tol_trial_num","<div class = centerbox><p class = center-block-text>problem <strong>15</strong> out of 25 problems</p></div>","0","","","","","","","","","","","","","","","","","","","","","","","","",""
"","","","","","single-stim-button","211","645619","0.0-2.0-53.0-0.0","5c3a87a61ede2b000115cf76","D2","batch4","","3680","tol_tohand","","","","tol_peg_1","3680","3680","0","[[1,0,0],[3,0],[0]]","1","[[2,0,0],[3,0],[1]]","14","0","","","","","","3","","","","","","","","",""
"","","","","","single-stim-button","212","646221","0.0-2.0-53.0-1.0","5c3a87a61ede2b000115cf76","D2","batch4","","600","tol_toboard","","","","tol_peg_2","600","600","0","[[1,0,0],[3,2],[0]]","1","[[2,0,0],[3,0],[1]]","14","0","","","","","","3","","","","","","","","",""
"","","","","","single-stim-button","213","646705","0.0-2.0-53.1-0.1","5c3a87a61ede2b000115cf76","D2","batch4","","480","tol_tohand","","","","tol_peg_1","480","480","0","[[0,0,0],[3,2],[0]]","2","[[2,0,0],[3,0],[1]]","14","0","","","","","","3","","","","","","","","",""
"","","","","","single-stim-button","214","647312","0.0-2.0-53.1-1.1","5c3a87a61ede2b000115cf76","D2","batch4","","603","tol_toboard","","","","tol_peg_3","603","603","0","[[0,0,0],[3,2],[1]]","2","[[2,0,0],[3,0],[1]]","14","0","","","","","","3","","","","","","","","",""
"","","","","","single-stim-button","215","647758","0.0-2.0-53.2-0.2","5c3a87a61ede2b000115cf76","D2","batch4","","440","tol_tohand","","","","tol_peg_2","440","440","0","[[0,0,0],[3,0],[1]]","3","[[2,0,0],[3,0],[1]]","14","0","","","","","","3","","","","","","","","",""
"","","","","","single-stim-button","216","648208","0.0-2.0-53.2-1.2","5c3a87a61ede2b000115cf76","D2","batch4","","447","tol_toboard","","","","tol_peg_1","447","447","0","[[2,0,0],[3,0],[1]]","3","[[2,0,0],[3,0],[1]]","14","0","","","","","","3","","","","","","","","",""
"","","","","","poldrack-single-stim","217","649212","0.0-2.0-54.0","5c3a87a61ede2b000115cf76","D2","batch4","","-1","tol_feedback","","","true","","1000","1000","500","","","","","","-1","none","true","3680","4600","","","","","","","","","",""
"","","","","","html-button-response","218","650103","0.0-2.0-55.0","5c3a87a61ede2b000115cf76","D2","batch4","","887.3999999985099","tol_trial_num","<div class = centerbox><p class = center-block-text>problem <strong>16</strong> out of 25 problems</p></div>","0","","","","","","","","","","","","","","","","","","","","","","","","",""
"","","","","","single-stim-button","219","666316","0.0-2.0-56.0-0.0","5c3a87a61ede2b000115cf76","D2","batch4","","16208","tol_tohand","","","","tol_peg_3","16208","16208","0","[[0,0,0],[2,3],[0]]","1","[[2,3,0],[1,0],[0]]","15","0","","","","","","7","","","","","","","","",""
"","","","","","single-stim-button","220","667085","0.0-2.0-56.0-1.0","5c3a87a61ede2b000115cf76","D2","batch4","","764","tol_toboard","","","","tol_peg_1","764","764","0","[[1,0,0],[2,3],[0]]","1","[[2,3,0],[1,0],[0]]","15","0","","","","","","7","","","","","","","","",""
"","","","","","single-stim-button","221","667666","0.0-2.0-56.1-0.1","5c3a87a61ede2b000115cf76","D2","batch4","","576","tol_tohand","","","","tol_peg_2","576","576","0","[[1,0,0],[2,0],[0]]","2","[[2,3,0],[1,0],[0]]","15","0","","","","","","7","","","","","","","","",""
"","","","","","single-stim-button","222","668212","0.0-2.0-56.1-1.1","5c3a87a61ede2b000115cf76","D2","batch4","","543","tol_toboard","","","","tol_peg_3","543","543","0","[[1,0,0],[2,0],[3]]","2","[[2,3,0],[1,0],[0]]","15","0","","","","","","7","","","","","","","","",""
"","","","","","single-stim-button","223","672141","0.0-2.0-56.2-0.2","5c3a87a61ede2b000115cf76","D2","batch4","","3925","tol_tohand","","","","tol_peg_3","3925","3925","0","[[1,0,0],[2,0],[0]]","3","[[2,3,0],[1,0],[0]]","15","0","","","","","","7","","","","","","","","",""
"","","","","","single-stim-button","224","673493","0.0-2.0-56.2-1.2","5c3a87a61ede2b000115cf76","D2","batch4","","1349","tol_toboard","","","","tol_peg_1","1349","1349","0","[[1,3,0],[2,0],[0]]","3","[[2,3,0],[1,0],[0]]","15","0","","","","","","7","","","","","","","","",""
"","","","","","single-stim-button","225","674975","0.0-2.0-56.3-0.3","5c3a87a61ede2b000115cf76","D2","batch4","","1478","tol_tohand","","","","tol_peg_2","1478","1478","0","[[1,3,0],[0,0],[0]]","4","[[2,3,0],[1,0],[0]]","15","0","","","","","","7","","","","","","","","",""
"","","","","","single-stim-button","226","675616","0.0-2.0-56.3-1.3","5c3a87a61ede2b000115cf76","D2","batch4","","636","tol_toboard","","","","tol_peg_3","636","636","0","[[1,3,0],[0,0],[2]]","4","[[2,3,0],[1,0],[0]]","15","0","","","","","","7","","","","","","","","",""
"","","","","","single-stim-button","227","677394","0.0-2.0-56.4-0.4","5c3a87a61ede2b000115cf76","D2","batch4","","1773","tol_tohand","","","","tol_peg_1","1773","1773","0","[[1,0,0],[0,0],[2]]","5","[[2,3,0],[1,0],[0]]","15","0","","","","","","7","","","","","","","","",""
"","","","","","single-stim-button","228","678453","0.0-2.0-56.4-1.4","5c3a87a61ede2b000115cf76","D2","batch4","","1055","tol_toboard","","","","tol_peg_2","1055","1055","0","[[1,0,0],[3,0],[2]]","5","[[2,3,0],[1,0],[0]]","15","0","","","","","","7","","","","","","","","",""
"","","","","","single-stim-button","229","681133","0.0-2.0-56.5-0.5","5c3a87a61ede2b000115cf76","D2","batch4","","2676","tol_tohand","","","","tol_peg_1","2676","2676","0","[[0,0,0],[3,0],[2]]","6","[[2,3,0],[1,0],[0]]","15","0","","","","","","7","","","","","","","","",""
"","","","","","single-stim-button","230","681716","0.0-2.0-56.5-1.5","5c3a87a61ede2b000115cf76","D2","batch4","","579","tol_toboard","","","","tol_peg_2","579","579","0","[[0,0,0],[3,1],[2]]","6","[[2,3,0],[1,0],[0]]","15","0","","","","","","7","","","","","","","","",""
"","","","","","single-stim-button","231","683051","0.0-2.0-56.6-0.6","5c3a87a61ede2b000115cf76","D2","batch4","","1331","tol_tohand","","","","tol_peg_3","1331","1331","0","[[0,0,0],[3,1],[0]]","7","[[2,3,0],[1,0],[0]]","15","0","","","","","","7","","","","","","","","",""
"","","","","","single-stim-button","232","683879","0.0-2.0-56.6-1.6","5c3a87a61ede2b000115cf76","D2","batch4","","825","tol_toboard","","","","tol_peg_1","825","825","0","[[2,0,0],[3,1],[0]]","7","[[2,3,0],[1,0],[0]]","15","0","","","","","","7","","","","","","","","",""
"","","","","","single-stim-button","233","685370","0.0-2.0-56.7-0.7","5c3a87a61ede2b000115cf76","D2","batch4","","1487","tol_tohand","","","","tol_peg_2","1487","1487","0","[[2,0,0],[3,0],[0]]","8","[[2,3,0],[1,0],[0]]","15","0","","","","","","7","","","","","","","","",""
"","","","","","single-stim-button","234","685927","0.0-2.0-56.7-1.7","5c3a87a61ede2b000115cf76","D2","batch4","","552","tol_toboard","","","","tol_peg_3","552","552","0","[[2,0,0],[3,0],[1]]","8","[[2,3,0],[1,0],[0]]","15","0","","","","","","7","","","","","","","","",""
"","","","","","single-stim-button","235","686341","0.0-2.0-56.8-0.8","5c3a87a61ede2b000115cf76","D2","batch4","","412","tol_tohand","","","","tol_peg_2","412","412","0","[[2,0,0],[0,0],[1]]","9","[[2,3,0],[1,0],[0]]","15","0","","","","","","7","","","","","","","","",""
"","","","","","single-stim-button","236","686820","0.0-2.0-56.8-1.8","5c3a87a61ede2b000115cf76","D2","batch4","","476","tol_toboard","","","","tol_peg_1","476","476","0","[[2,3,0],[0,0],[1]]","9","[[2,3,0],[1,0],[0]]","15","0","","","","","","7","","","","","","","","",""
"","","","","","single-stim-button","237","687350","0.0-2.0-56.9-0.9","5c3a87a61ede2b000115cf76","D2","batch4","","525","tol_tohand","","","","tol_peg_3","525","525","0","[[2,3,0],[0,0],[0]]","10","[[2,3,0],[1,0],[0]]","15","0","","","","","","7","","","","","","","","",""
"","","","","","single-stim-button","238","687714","0.0-2.0-56.9-1.9","5c3a87a61ede2b000115cf76","D2","batch4","","361","tol_toboard","","","","tol_peg_2","361","361","0","[[2,3,0],[1,0],[0]]","10","[[2,3,0],[1,0],[0]]","15","0","","","","","","7","","","","","","","","",""
"","","","","","poldrack-single-stim","239","688719","0.0-2.0-57.0","5c3a87a61ede2b000115cf76","D2","batch4","","-1","tol_feedback","","","true","","1000","1000","500","","","","","","-1","none","true","16208","30391","","","","","","","","","",""
"","","","","","html-button-response","240","689692","0.0-2.0-58.0","5c3a87a61ede2b000115cf76","D2","batch4","","967.6999999955297","tol_trial_num","<div class = centerbox><p class = center-block-text>problem <strong>17</strong> out of 25 problems</p></div>","0","","","","","","","","","","","","","","","","","","","","","","","","",""
"","","","","","single-stim-button","241","705022","0.0-2.0-59.0-0.0","5c3a87a61ede2b000115cf76","D2","batch4","","15326","tol_tohand","","","","tol_peg_1","15326","15326","0","[[1,0,0],[3,0],[0]]","1","[[3,1,0],[2,0],[0]]","16","0","","","","","","5","","","","","","","","",""
"","","","","","single-stim-button","242","705728","0.0-2.0-59.0-1.0","5c3a87a61ede2b000115cf76","D2","batch4","","703","tol_toboard","","","","tol_peg_3","703","703","0","[[1,0,0],[3,0],[2]]","1","[[3,1,0],[2,0],[0]]","16","0","","","","","","5","","","","","","","","",""
"","","","","","single-stim-button","243","723455","0.0-2.0-59.1-0.1","5c3a87a61ede2b000115cf76","D2","batch4","","17723","tol_tohand","","","","tol_peg_2","17723","17723","0","[[1,0,0],[0,0],[2]]","2","[[3,1,0],[2,0],[0]]","16","0","","","","","","5","","","","","","","","",""
"","","","","","single-stim-button","244","724017","0.0-2.0-59.1-1.1","5c3a87a61ede2b000115cf76","D2","batch4","","558","tol_toboard","","","","tol_peg_1","558","558","0","[[1,3,0],[0,0],[2]]","2","[[3,1,0],[2,0],[0]]","16","0","","","","","","5","","","","","","","","",""
"","","","","","single-stim-button","245","724715","0.0-2.0-59.2-0.2","5c3a87a61ede2b000115cf76","D2","batch4","","695","tol_tohand","","","","tol_peg_3","695","695","0","[[1,3,0],[0,0],[0]]","3","[[3,1,0],[2,0],[0]]","16","0","","","","","","5","","","","","","","","",""
"","","","","","single-stim-button","246","725161","0.0-2.0-59.2-1.2","5c3a87a61ede2b000115cf76","D2","batch4","","444","tol_toboard","","","","tol_peg_2","444","444","0","[[1,3,0],[2,0],[0]]","3","[[3,1,0],[2,0],[0]]","16","0","","","","","","5","","","","","","","","",""
"","","","","","single-stim-button","247","727959","0.0-2.0-59.3-0.3","5c3a87a61ede2b000115cf76","D2","batch4","","2794","tol_tohand","","","","tol_peg_1","2794","2794","0","[[1,0,0],[2,0],[0]]","4","[[3,1,0],[2,0],[0]]","16","0","","","","","","5","","","","","","","","",""
"","","","","","single-stim-button","248","729079","0.0-2.0-59.3-1.3","5c3a87a61ede2b000115cf76","D2","batch4","","1114","tol_toboard","","","","tol_peg_2","1114","1114","0","[[1,0,0],[2,3],[0]]","4","[[3,1,0],[2,0],[0]]","16","0","","","","","","5","","","","","","","","",""
"","","","","","single-stim-button","249","729702","0.0-2.0-59.4-0.4","5c3a87a61ede2b000115cf76","D2","batch4","","618","tol_tohand","","","","tol_peg_1","618","618","0","[[0,0,0],[2,3],[0]]","5","[[3,1,0],[2,0],[0]]","16","0","","","","","","5","","","","","","","","",""
"","","","","","single-stim-button","250","730403","0.0-2.0-59.4-1.4","5c3a87a61ede2b000115cf76","D2","batch4","","698","tol_toboard","","","","tol_peg_3","698","698","0","[[0,0,0],[2,3],[1]]","5","[[3,1,0],[2,0],[0]]","16","0","","","","","","5","","","","","","","","",""
"","","","","","single-stim-button","251","730900","0.0-2.0-59.5-0.5","5c3a87a61ede2b000115cf76","D2","batch4","","493","tol_tohand","","","","tol_peg_2","493","493","0","[[0,0,0],[2,0],[1]]","6","[[3,1,0],[2,0],[0]]","16","0","","","","","","5","","","","","","","","",""
"","","","","","single-stim-button","252","731489","0.0-2.0-59.5-1.5","5c3a87a61ede2b000115cf76","D2","batch4","","587","tol_toboard","","","","tol_peg_1","587","587","0","[[3,0,0],[2,0],[1]]","6","[[3,1,0],[2,0],[0]]","16","0","","","","","","5","","","","","","","","",""
"","","","","","single-stim-button","253","732100","0.0-2.0-59.6-0.6","5c3a87a61ede2b000115cf76","D2","batch4","","607","tol_tohand","","","","tol_peg_3","607","607","0","[[3,0,0],[2,0],[0]]","7","[[3,1,0],[2,0],[0]]","16","0","","","","","","5","","","","","","","","",""
"","","","","","single-stim-button","254","732765","0.0-2.0-59.6-1.6","5c3a87a61ede2b000115cf76","D2","batch4","","662","tol_toboard","","","","tol_peg_1","662","662","0","[[3,1,0],[2,0],[0]]","7","[[3,1,0],[2,0],[0]]","16","0","","","","","","5","","","","","","","","",""
"","","","","","poldrack-single-stim","255","733770","0.0-2.0-60.0","5c3a87a61ede2b000115cf76","D2","batch4","","-1","tol_feedback","","","true","","1000","1000","500","","","","","","-1","none","true","15326","38256","","","","","","","","","",""
"","","","","","html-button-response","256","734923","0.0-2.0-61.0","5c3a87a61ede2b000115cf76","D2","batch4","","1148.1000000014901","tol_trial_num","<div class = centerbox><p class = center-block-text>problem <strong>18</strong> out of 25 problems</p></div>","0","","","","","","","","","","","","","","","","","","","","","","","","",""
"","","","","","single-stim-button","257","748183","0.0-2.0-62.0-0.0","5c3a87a61ede2b000115cf76","D2","batch4","","13255","tol_tohand","","","","tol_peg_1","13255","13255","0","[[1,0,0],[3,0],[0]]","1","[[3,0,0],[2,0],[1]]","17","0","","","","","","5","","","","","","","","",""
"","","","","","single-stim-button","258","749059","0.0-2.0-62.0-1.0","5c3a87a61ede2b000115cf76","D2","batch4","","870","tol_toboard","","","","tol_peg_3","870","870","0","[[1,0,0],[3,0],[2]]","1","[[3,0,0],[2,0],[1]]","17","0","","","","","","5","","","","","","","","",""
"","","","","","single-stim-button","259","777881","0.0-2.0-62.1-0.1","5c3a87a61ede2b000115cf76","D2","batch4","","28818","tol_tohand","","","","tol_peg_3","28818","28818","0","[[1,0,0],[3,0],[0]]","2","[[3,0,0],[2,0],[1]]","17","0","","","","","","5","","","","","","","","",""
"","","","","","single-stim-button","260","778408","0.0-2.0-62.1-1.1","5c3a87a61ede2b000115cf76","D2","batch4","","524","tol_toboard","","","","tol_peg_2","524","524","0","[[1,0,0],[3,2],[0]]","2","[[3,0,0],[2,0],[1]]","17","0","","","","","","5","","","","","","","","",""
"","","","","","single-stim-button","261","779031","0.0-2.0-62.2-0.2","5c3a87a61ede2b000115cf76","D2","batch4","","620","tol_tohand","","","","tol_peg_1","620","620","0","[[0,0,0],[3,2],[0]]","3","[[3,0,0],[2,0],[1]]","17","0","","","","","","5","","","","","","","","",""
"","","","","","single-stim-button","262","779663","0.0-2.0-62.2-1.2","5c3a87a61ede2b000115cf76","D2","batch4","","629","tol_toboard","","","","tol_peg_3","629","629","0","[[0,0,0],[3,2],[1]]","3","[[3,0,0],[2,0],[1]]","17","0","","","","","","5","","","","","","","","",""
"","","","","","single-stim-button","263","781224","0.0-2.0-62.3-0.3","5c3a87a61ede2b000115cf76","D2","batch4","","1555","tol_tohand","","","","tol_peg_2","1555","1555","0","[[0,0,0],[3,0],[1]]","4","[[3,0,0],[2,0],[1]]","17","0","","","","","","5","","","","","","","","",""
"","","","","","single-stim-button","264","782245","0.0-2.0-62.3-1.3","5c3a87a61ede2b000115cf76","D2","batch4","","1016","tol_toboard","","","","tol_peg_1","1016","1016","0","[[2,0,0],[3,0],[1]]","4","[[3,0,0],[2,0],[1]]","17","0","","","","","","5","","","","","","","","",""
"","","","","","single-stim-button","265","783413","0.0-2.0-62.4-0.4","5c3a87a61ede2b000115cf76","D2","batch4","","1163","tol_tohand","","","","tol_peg_2","1163","1163","0","[[2,0,0],[0,0],[1]]","5","[[3,0,0],[2,0],[1]]","17","0","","","","","","5","","","","","","","","",""
"","","","","","single-stim-button","266","785894","0.0-2.0-62.4-1.4","5c3a87a61ede2b000115cf76","D2","batch4","","2478","tol_toboard","","","","tol_peg_2","2478","2478","0","[[2,0,0],[3,0],[1]]","5","[[3,0,0],[2,0],[1]]","17","0","","","","","","5","","","","","","","","",""
"","","","","","single-stim-button","267","829244","0.0-2.0-62.5-0.5","5c3a87a61ede2b000115cf76","D2","batch4","","43346","tol_tohand","","","","tol_peg_1","43346","43346","0","[[0,0,0],[3,0],[1]]","6","[[3,0,0],[2,0],[1]]","17","0","","","","","","5","","","","","","","","",""
"","","","","","single-stim-button","268","829848","0.0-2.0-62.5-1.5","5c3a87a61ede2b000115cf76","D2","batch4","","598","tol_toboard","","","","tol_peg_2","598","598","0","[[0,0,0],[3,2],[1]]","6","[[3,0,0],[2,0],[1]]","17","0","","","","","","5","","","","","","","","",""
"","","","","","single-stim-button","269","830949","0.0-2.0-62.6-0.6","5c3a87a61ede2b000115cf76","D2","batch4","","1097","tol_tohand","","","","tol_peg_3","1097","1097","0","[[0,0,0],[3,2],[0]]","7","[[3,0,0],[2,0],[1]]","17","0","","","","","","5","","","","","","","","",""
"","","","","","single-stim-button","270","831636","0.0-2.0-62.6-1.6","5c3a87a61ede2b000115cf76","D2","batch4","","684","tol_toboard","","","","tol_peg_1","684","684","0","[[1,0,0],[3,2],[0]]","7","[[3,0,0],[2,0],[1]]","17","0","","","","","","5","","","","","","","","",""
"","","","","","single-stim-button","271","834738","0.0-2.0-62.7-0.7","5c3a87a61ede2b000115cf76","D2","batch4","","3099","tol_tohand","","","","tol_peg_2","3099","3099","0","[[1,0,0],[3,0],[0]]","8","[[3,0,0],[2,0],[1]]","17","0","","","","","","5","","","","","","","","",""
"","","","","","single-stim-button","272","835307","0.0-2.0-62.7-1.7","5c3a87a61ede2b000115cf76","D2","batch4","","566","tol_toboard","","","","tol_peg_3","566","566","0","[[1,0,0],[3,0],[2]]","8","[[3,0,0],[2,0],[1]]","17","0","","","","","","5","","","","","","","","",""
"","","","","","single-stim-button","273","836148","0.0-2.0-62.8-0.8","5c3a87a61ede2b000115cf76","D2","batch4","","839","tol_tohand","","","","tol_peg_2","839","839","0","[[1,0,0],[0,0],[2]]","9","[[3,0,0],[2,0],[1]]","17","0","","","","","","5","","","","","","","","",""
"","","","","","single-stim-button","274","836636","0.0-2.0-62.8-1.8","5c3a87a61ede2b000115cf76","D2","batch4","","484","tol_toboard","","","","tol_peg_1","484","484","0","[[1,3,0],[0,0],[2]]","9","[[3,0,0],[2,0],[1]]","17","0","","","","","","5","","","","","","","","",""
"","","","","","single-stim-button","275","837276","0.0-2.0-62.9-0.9","5c3a87a61ede2b000115cf76","D2","batch4","","635","tol_tohand","","","","tol_peg_3","635","635","0","[[1,3,0],[0,0],[0]]","10","[[3,0,0],[2,0],[1]]","17","0","","","","","","5","","","","","","","","",""
"","","","","","single-stim-button","276","837738","0.0-2.0-62.9-1.9","5c3a87a61ede2b000115cf76","D2","batch4","","458","tol_toboard","","","","tol_peg_2","458","458","0","[[1,3,0],[2,0],[0]]","10","[[3,0,0],[2,0],[1]]","17","0","","","","","","5","","","","","","","","",""
"","","","","","single-stim-button","277","838838","0.0-2.0-62.10-0.10","5c3a87a61ede2b000115cf76","D2","batch4","","1098","tol_tohand","","","","tol_peg_1","1098","1098","0","[[1,0,0],[2,0],[0]]","11","[[3,0,0],[2,0],[1]]","17","0","","","","","","5","","","","","","","","",""
"","","","","","single-stim-button","278","839526","0.0-2.0-62.10-1.10","5c3a87a61ede2b000115cf76","D2","batch4","","684","tol_toboard","","","","tol_peg_3","684","684","0","[[1,0,0],[2,0],[3]]","11","[[3,0,0],[2,0],[1]]","17","0","","","","","","5","","","","","","","","",""
"","","","","","single-stim-button","279","841209","0.0-2.0-62.11-0.11","5c3a87a61ede2b000115cf76","D2","batch4","","1679","tol_tohand","","","","tol_peg_1","1679","1679","0","[[0,0,0],[2,0],[3]]","12","[[3,0,0],[2,0],[1]]","17","0","","","","","","5","","","","","","","","",""
"","","","","","single-stim-button","280","841734","0.0-2.0-62.11-1.11","5c3a87a61ede2b000115cf76","D2","batch4","","521","tol_toboard","","","","tol_peg_2","521","521","0","[[0,0,0],[2,1],[3]]","12","[[3,0,0],[2,0],[1]]","17","0","","","","","","5","","","","","","","","",""
"","","","","","single-stim-button","281","842415","0.0-2.0-62.12-0.12","5c3a87a61ede2b000115cf76","D2","batch4","","678","tol_tohand","","","","tol_peg_3","678","678","0","[[0,0,0],[2,1],[0]]","13","[[3,0,0],[2,0],[1]]","17","0","","","","","","5","","","","","","","","",""
"","","","","","single-stim-button","282","843093","0.0-2.0-62.12-1.12","5c3a87a61ede2b000115cf76","D2","batch4","","673","tol_toboard","","","","tol_peg_1","673","673","0","[[3,0,0],[2,1],[0]]","13","[[3,0,0],[2,0],[1]]","17","0","","","","","","5","","","","","","","","",""
"","","","","","single-stim-button","283","843676","0.0-2.0-62.13-0.13","5c3a87a61ede2b000115cf76","D2","batch4","","575","tol_tohand","","","","tol_peg_2","575","575","0","[[3,0,0],[2,0],[0]]","14","[[3,0,0],[2,0],[1]]","17","0","","","","","","5","","","","","","","","",""
"","","","","","single-stim-button","284","844163","0.0-2.0-62.13-1.13","5c3a87a61ede2b000115cf76","D2","batch4","","483","tol_toboard","","","","tol_peg_3","483","483","0","[[3,0,0],[2,0],[1]]","14","[[3,0,0],[2,0],[1]]","17","0","","","","","","5","","","","","","","","",""
"","","","","","poldrack-single-stim","285","845175","0.0-2.0-63.0","5c3a87a61ede2b000115cf76","D2","batch4","","-1","tol_feedback","","","true","","1000","1000","500","","","","","","-1","none","true","13255","98457","","","","","","","","","",""
"","","","","","html-button-response","286","846478","0.0-2.0-64.0","5c3a87a61ede2b000115cf76","D2","batch4","","1297","tol_trial_num","<div class = centerbox><p class = center-block-text>problem <strong>19</strong> out of 25 problems</p></div>","0","","","","","","","","","","","","","","","","","","","","","","","","",""
"","","","","","single-stim-button","287","855993","0.0-2.0-65.0-0.0","5c3a87a61ede2b000115cf76","D2","batch4","","9511","tol_tohand","","","","tol_peg_2","9511","9511","0","[[1,2,0],[0,0],[0]]","1","[[0,0,0],[1,2],[3]]","18","0","","","","","","7","","","","","","","","",""
"","","","","","single-stim-button","288","856590","0.0-2.0-65.0-1.0","5c3a87a61ede2b000115cf76","D2","batch4","","593","tol_toboard","","","","tol_peg_3","593","593","0","[[1,2,0],[0,0],[3]]","1","[[0,0,0],[1,2],[3]]","18","0","","","","","","7","","","","","","","","",""
"","","","","","single-stim-button","289","867949","0.0-2.0-65.1-0.1","5c3a87a61ede2b000115cf76","D2","batch4","","11355","tol_tohand","","","","tol_peg_3","11355","11355","0","[[1,2,0],[0,0],[0]]","2","[[0,0,0],[1,2],[3]]","18","0","","","","","","7","","","","","","","","",""
"","","","","","single-stim-button","290","868393","0.0-2.0-65.1-1.1","5c3a87a61ede2b000115cf76","D2","batch4","","441","tol_toboard","","","","tol_peg_2","441","441","0","[[1,2,0],[3,0],[0]]","2","[[0,0,0],[1,2],[3]]","18","0","","","","","","7","","","","","","","","",""
"","","","","","single-stim-button","291","869003","0.0-2.0-65.2-0.2","5c3a87a61ede2b000115cf76","D2","batch4","","607","tol_tohand","","","","tol_peg_1","607","607","0","[[1,0,0],[3,0],[0]]","3","[[0,0,0],[1,2],[3]]","18","0","","","","","","7","","","","","","","","",""
"","","","","","single-stim-button","292","870062","0.0-2.0-65.2-1.2","5c3a87a61ede2b000115cf76","D2","batch4","","1054","tol_toboard","","","","tol_peg_2","1054","1054","0","[[1,0,0],[3,2],[0]]","3","[[0,0,0],[1,2],[3]]","18","0","","","","","","7","","","","","","","","",""
"","","","","","single-stim-button","293","870809","0.0-2.0-65.3-0.3","5c3a87a61ede2b000115cf76","D2","batch4","","743","tol_tohand","","","","tol_peg_1","743","743","0","[[0,0,0],[3,2],[0]]","4","[[0,0,0],[1,2],[3]]","18","0","","","","","","7","","","","","","","","",""
"","","","","","single-stim-button","294","871431","0.0-2.0-65.3-1.3","5c3a87a61ede2b000115cf76","D2","batch4","","618","tol_toboard","","","","tol_peg_3","618","618","0","[[0,0,0],[3,2],[1]]","4","[[0,0,0],[1,2],[3]]","18","0","","","","","","7","","","","","","","","",""
"","","","","","single-stim-button","295","873164","0.0-2.0-65.4-0.4","5c3a87a61ede2b000115cf76","D2","batch4","","1730","tol_tohand","","","","tol_peg_2","1730","1730","0","[[0,0,0],[3,0],[1]]","5","[[0,0,0],[1,2],[3]]","18","0","","","","","","7","","","","","","","","",""
"","","","","","single-stim-button","296","873697","0.0-2.0-65.4-1.4","5c3a87a61ede2b000115cf76","D2","batch4","","530","tol_toboard","","","","tol_peg_1","530","530","0","[[2,0,0],[3,0],[1]]","5","[[0,0,0],[1,2],[3]]","18","0","","","","","","7","","","","","","","","",""
"","","","","","single-stim-button","297","876968","0.0-2.0-65.5-0.5","5c3a87a61ede2b000115cf76","D2","batch4","","3267","tol_tohand","","","","tol_peg_2","3267","3267","0","[[2,0,0],[0,0],[1]]","6","[[0,0,0],[1,2],[3]]","18","0","","","","","","7","","","","","","","","",""
"","","","","","single-stim-button","298","877444","0.0-2.0-65.5-1.5","5c3a87a61ede2b000115cf76","D2","batch4","","473","tol_toboard","","","","tol_peg_1","473","473","0","[[2,3,0],[0,0],[1]]","6","[[0,0,0],[1,2],[3]]","18","0","","","","","","7","","","","","","","","",""
"","","","","","single-stim-button","299","877963","0.0-2.0-65.6-0.6","5c3a87a61ede2b000115cf76","D2","batch4","","515","tol_tohand","","","","tol_peg_3","515","515","0","[[2,3,0],[0,0],[0]]","7","[[0,0,0],[1,2],[3]]","18","0","","","","","","7","","","","","","","","",""
"","","","","","single-stim-button","300","878372","0.0-2.0-65.6-1.6","5c3a87a61ede2b000115cf76","D2","batch4","","405","tol_toboard","","","","tol_peg_2","405","405","0","[[2,3,0],[1,0],[0]]","7","[[0,0,0],[1,2],[3]]","18","0","","","","","","7","","","","","","","","",""
"","","","","","single-stim-button","301","880089","0.0-2.0-65.7-0.7","5c3a87a61ede2b000115cf76","D2","batch4","","1713","tol_tohand","","","","tol_peg_1","1713","1713","0","[[2,0,0],[1,0],[0]]","8","[[0,0,0],[1,2],[3]]","18","0","","","","","","7","","","","","","","","",""
"","","","","","single-stim-button","302","880739","0.0-2.0-65.7-1.7","5c3a87a61ede2b000115cf76","D2","batch4","","645","tol_toboard","","","","tol_peg_3","645","645","0","[[2,0,0],[1,0],[3]]","8","[[0,0,0],[1,2],[3]]","18","0","","","","","","7","","","","","","","","",""
"","","","","","single-stim-button","303","881238","0.0-2.0-65.8-0.8","5c3a87a61ede2b000115cf76","D2","batch4","","497","tol_tohand","","","","tol_peg_1","497","497","0","[[0,0,0],[1,0],[3]]","9","[[0,0,0],[1,2],[3]]","18","0","","","","","","7","","","","","","","","",""
"","","","","","single-stim-button","304","881664","0.0-2.0-65.8-1.8","5c3a87a61ede2b000115cf76","D2","batch4","","423","tol_toboard","","","","tol_peg_2","423","423","0","[[0,0,0],[1,2],[3]]","9","[[0,0,0],[1,2],[3]]","18","0","","","","","","7","","","","","","","","",""
"","","","","","poldrack-single-stim","305","882670","0.0-2.0-66.0","5c3a87a61ede2b000115cf76","D2","batch4","","-1","tol_feedback","","","true","","1000","1000","500","","","","","","-1","none","true","9511","29938","","","","","","","","","",""
"","","","","","html-button-response","306","883712","0.0-2.0-67.0","5c3a87a61ede2b000115cf76","D2","batch4","","1038.3000000044703","tol_trial_num","<div class = centerbox><p class = center-block-text>problem <strong>20</strong> out of 25 problems</p></div>","0","","","","","","","","","","","","","","","","","","","","","","","","",""
"","","","","","single-stim-button","307","907567","0.0-2.0-68.0-0.0","5c3a87a61ede2b000115cf76","D2","batch4","","23851","tol_tohand","","","","tol_peg_1","23851","23851","0","[[1,0,0],[3,0],[0]]","1","[[2,1,0],[0,0],[3]]","19","0","","","","","","5","","","","","","","","",""
"","","","","","single-stim-button","308","908126","0.0-2.0-68.0-1.0","5c3a87a61ede2b000115cf76","D2","batch4","","556","tol_toboard","","","","tol_peg_2","556","556","0","[[1,0,0],[3,2],[0]]","1","[[2,1,0],[0,0],[3]]","19","0","","","","","","5","","","","","","","","",""
"","","","","","single-stim-button","309","908676","0.0-2.0-68.1-0.1","5c3a87a61ede2b000115cf76","D2","batch4","","548","tol_tohand","","","","tol_peg_1","548","548","0","[[0,0,0],[3,2],[0]]","2","[[2,1,0],[0,0],[3]]","19","0","","","","","","5","","","","","","","","",""
"","","","","","single-stim-button","310","909422","0.0-2.0-68.1-1.1","5c3a87a61ede2b000115cf76","D2","batch4","","741","tol_toboard","","","","tol_peg_3","741","741","0","[[0,0,0],[3,2],[1]]","2","[[2,1,0],[0,0],[3]]","19","0","","","","","","5","","","","","","","","",""
"","","","","","single-stim-button","311","910560","0.0-2.0-68.2-0.2","5c3a87a61ede2b000115cf76","D2","batch4","","1133","tol_tohand","","","","tol_peg_2","1133","1133","0","[[0,0,0],[3,0],[1]]","3","[[2,1,0],[0,0],[3]]","19","0","","","","","","5","","","","","","","","",""
"","","","","","single-stim-button","312","911208","0.0-2.0-68.2-1.2","5c3a87a61ede2b000115cf76","D2","batch4","","645","tol_toboard","","","","tol_peg_1","645","645","0","[[2,0,0],[3,0],[1]]","3","[[2,1,0],[0,0],[3]]","19","0","","","","","","5","","","","","","","","",""
"","","","","","single-stim-button","313","915653","0.0-2.0-68.3-0.3","5c3a87a61ede2b000115cf76","D2","batch4","","4440","tol_tohand","","","","tol_peg_2","4440","4440","0","[[2,0,0],[0,0],[1]]","4","[[2,1,0],[0,0],[3]]","19","0","","","","","","5","","","","","","","","",""
"","","","","","single-stim-button","314","916162","0.0-2.0-68.3-1.3","5c3a87a61ede2b000115cf76","D2","batch4","","505","tol_toboard","","","","tol_peg_1","505","505","0","[[2,3,0],[0,0],[1]]","4","[[2,1,0],[0,0],[3]]","19","0","","","","","","5","","","","","","","","",""
"","","","","","single-stim-button","315","916753","0.0-2.0-68.4-0.4","5c3a87a61ede2b000115cf76","D2","batch4","","588","tol_tohand","","","","tol_peg_3","588","588","0","[[2,3,0],[0,0],[0]]","5","[[2,1,0],[0,0],[3]]","19","0","","","","","","5","","","","","","","","",""
"","","","","","single-stim-button","316","917181","0.0-2.0-68.4-1.4","5c3a87a61ede2b000115cf76","D2","batch4","","425","tol_toboard","","","","tol_peg_2","425","425","0","[[2,3,0],[1,0],[0]]","5","[[2,1,0],[0,0],[3]]","19","0","","","","","","5","","","","","","","","",""
"","","","","","single-stim-button","317","918116","0.0-2.0-68.5-0.5","5c3a87a61ede2b000115cf76","D2","batch4","","932","tol_tohand","","","","tol_peg_1","932","932","0","[[2,0,0],[1,0],[0]]","6","[[2,1,0],[0,0],[3]]","19","0","","","","","","5","","","","","","","","",""
"","","","","","single-stim-button","318","918762","0.0-2.0-68.5-1.5","5c3a87a61ede2b000115cf76","D2","batch4","","642","tol_toboard","","","","tol_peg_3","642","642","0","[[2,0,0],[1,0],[3]]","6","[[2,1,0],[0,0],[3]]","19","0","","","","","","5","","","","","","","","",""
"","","","","","single-stim-button","319","919187","0.0-2.0-68.6-0.6","5c3a87a61ede2b000115cf76","D2","batch4","","421","tol_tohand","","","","tol_peg_2","421","421","0","[[2,0,0],[0,0],[3]]","7","[[2,1,0],[0,0],[3]]","19","0","","","","","","5","","","","","","","","",""
"","","","","","single-stim-button","320","919648","0.0-2.0-68.6-1.6","5c3a87a61ede2b000115cf76","D2","batch4","","457","tol_toboard","","","","tol_peg_1","457","457","0","[[2,1,0],[0,0],[3]]","7","[[2,1,0],[0,0],[3]]","19","0","","","","","","5","","","","","","","","",""
"","","","","","poldrack-single-stim","321","920654","0.0-2.0-69.0","5c3a87a61ede2b000115cf76","D2","batch4","","-1","tol_feedback","","","true","","1000","1000","500","","","","","","-1","none","true","23851","31913","","","","","","","","","",""
"","","","","","html-button-response","322","921387","0.0-2.0-70.0","5c3a87a61ede2b000115cf76","D2","batch4","","727.7999999970198","tol_trial_num","<div class = centerbox><p class = center-block-text>problem <strong>21</strong> out of 25 problems</p></div>","0","","","","","","","","","","","","","","","","","","","","","","","","",""
"","","","","","single-stim-button","323","942497","0.0-2.0-71.0-0.0","5c3a87a61ede2b000115cf76","D2","batch4","","21106","tol_tohand","","","","tol_peg_2","21106","21106","0","[[1,2,0],[0,0],[0]]","1","[[3,2,0],[0,0],[1]]","20","0","","","","","","6","","","","","","","","",""
"","","","","","single-stim-button","324","943226","0.0-2.0-71.0-1.0","5c3a87a61ede2b000115cf76","D2","batch4","","724","tol_toboard","","","","tol_peg_3","724","724","0","[[1,2,0],[0,0],[3]]","1","[[3,2,0],[0,0],[1]]","20","0","","","","","","6","","","","","","","","",""
"","","","","","single-stim-button","325","943932","0.0-2.0-71.1-0.1","5c3a87a61ede2b000115cf76","D2","batch4","","702","tol_tohand","","","","tol_peg_1","702","702","0","[[1,0,0],[0,0],[3]]","2","[[3,2,0],[0,0],[1]]","20","0","","","","","","6","","","","","","","","",""
"","","","","","single-stim-button","326","944529","0.0-2.0-71.1-1.1","5c3a87a61ede2b000115cf76","D2","batch4","","594","tol_toboard","","","","tol_peg_2","594","594","0","[[1,0,0],[2,0],[3]]","2","[[3,2,0],[0,0],[1]]","20","0","","","","","","6","","","","","","","","",""
"","","","","","single-stim-button","327","945656","0.0-2.0-71.2-0.2","5c3a87a61ede2b000115cf76","D2","batch4","","1123","tol_tohand","","","","tol_peg_2","1123","1123","0","[[1,0,0],[0,0],[3]]","3","[[3,2,0],[0,0],[1]]","20","0","","","","","","6","","","","","","","","",""
"","","","","","single-stim-button","328","946557","0.0-2.0-71.2-1.2","5c3a87a61ede2b000115cf76","D2","batch4","","898","tol_toboard","","","","tol_peg_1","898","898","0","[[1,2,0],[0,0],[3]]","3","[[3,2,0],[0,0],[1]]","20","0","","","","","","6","","","","","","","","",""
"","","","","","single-stim-button","329","947591","0.0-2.0-71.3-0.3","5c3a87a61ede2b000115cf76","D2","batch4","","1031","tol_tohand","","","","tol_peg_1","1031","1031","0","[[1,0,0],[0,0],[3]]","4","[[3,2,0],[0,0],[1]]","20","0","","","","","","6","","","","","","","","",""
"","","","","","single-stim-button","330","948145","0.0-2.0-71.3-1.3","5c3a87a61ede2b000115cf76","D2","batch4","","550","tol_toboard","","","","tol_peg_2","550","550","0","[[1,0,0],[2,0],[3]]","4","[[3,2,0],[0,0],[1]]","20","0","","","","","","6","","","","","","","","",""
"","","","","","single-stim-button","331","948670","0.0-2.0-71.4-0.4","5c3a87a61ede2b000115cf76","D2","batch4","","522","tol_tohand","","","","tol_peg_1","522","522","0","[[0,0,0],[2,0],[3]]","5","[[3,2,0],[0,0],[1]]","20","0","","","","","","6","","","","","","","","",""
"","","","","","single-stim-button","332","949320","0.0-2.0-71.4-1.4","5c3a87a61ede2b000115cf76","D2","batch4","","646","tol_toboard","","","","tol_peg_2","646","646","0","[[0,0,0],[2,1],[3]]","5","[[3,2,0],[0,0],[1]]","20","0","","","","","","6","","","","","","","","",""
"","","","","","single-stim-button","333","949952","0.0-2.0-71.5-0.5","5c3a87a61ede2b000115cf76","D2","batch4","","629","tol_tohand","","","","tol_peg_3","629","629","0","[[0,0,0],[2,1],[0]]","6","[[3,2,0],[0,0],[1]]","20","0","","","","","","6","","","","","","","","",""
"","","","","","single-stim-button","334","950680","0.0-2.0-71.5-1.5","5c3a87a61ede2b000115cf76","D2","batch4","","724","tol_toboard","","","","tol_peg_1","724","724","0","[[3,0,0],[2,1],[0]]","6","[[3,2,0],[0,0],[1]]","20","0","","","","","","6","","","","","","","","",""
"","","","","","single-stim-button","335","951459","0.0-2.0-71.6-0.6","5c3a87a61ede2b000115cf76","D2","batch4","","776","tol_tohand","","","","tol_peg_2","776","776","0","[[3,0,0],[2,0],[0]]","7","[[3,2,0],[0,0],[1]]","20","0","","","","","","6","","","","","","","","",""
"","","","","","single-stim-button","336","952010","0.0-2.0-71.6-1.6","5c3a87a61ede2b000115cf76","D2","batch4","","548","tol_toboard","","","","tol_peg_3","548","548","0","[[3,0,0],[2,0],[1]]","7","[[3,2,0],[0,0],[1]]","20","0","","","","","","6","","","","","","","","",""
"","","","","","single-stim-button","337","952415","0.0-2.0-71.7-0.7","5c3a87a61ede2b000115cf76","D2","batch4","","402","tol_tohand","","","","tol_peg_2","402","402","0","[[3,0,0],[0,0],[1]]","8","[[3,2,0],[0,0],[1]]","20","0","","","","","","6","","","","","","","","",""
"","","","","","single-stim-button","338","952846","0.0-2.0-71.7-1.7","5c3a87a61ede2b000115cf76","D2","batch4","","428","tol_toboard","","","","tol_peg_1","428","428","0","[[3,2,0],[0,0],[1]]","8","[[3,2,0],[0,0],[1]]","20","0","","","","","","6","","","","","","","","",""
"","","","","","poldrack-single-stim","339","953851","0.0-2.0-72.0","5c3a87a61ede2b000115cf76","D2","batch4","","-1","tol_feedback","","","true","","1000","1000","500","","","","","","-1","none","true","21106","26291","","","","","","","","","",""
"","","","","","html-button-response","340","954999","0.0-2.0-73.0","5c3a87a61ede2b000115cf76","D2","batch4","","1137.6999999955297","tol_trial_num","<div class = centerbox><p class = center-block-text>problem <strong>22</strong> out of 25 problems</p></div>","0","","","","","","","","","","","","","","","","","","","","","","","","",""
"","","","","","single-stim-button","341","965180","0.0-2.0-74.0-0.0","5c3a87a61ede2b000115cf76","D2","batch4","","10177","tol_tohand","","","","tol_peg_2","10177","10177","0","[[1,0,0],[2,0],[0]]","1","[[0,0,0],[1,2],[3]]","21","0","","","","","","6","","","","","","","","",""
"","","","","","single-stim-button","342","965820","0.0-2.0-74.0-1.0","5c3a87a61ede2b000115cf76","D2","batch4","","635","tol_toboard","","","","tol_peg_1","635","635","0","[[1,3,0],[2,0],[0]]","1","[[0,0,0],[1,2],[3]]","21","0","","","","","","6","","","","","","","","",""
"","","","","","single-stim-button","343","971905","0.0-2.0-74.1-0.1","5c3a87a61ede2b000115cf76","D2","batch4","","6081","tol_tohand","","","","tol_peg_2","6081","6081","0","[[1,3,0],[0,0],[0]]","2","[[0,0,0],[1,2],[3]]","21","0","","","","","","6","","","","","","","","",""
"","","","","","single-stim-button","344","972421","0.0-2.0-74.1-1.1","5c3a87a61ede2b000115cf76","D2","batch4","","512","tol_toboard","","","","tol_peg_3","512","512","0","[[1,3,0],[0,0],[2]]","2","[[0,0,0],[1,2],[3]]","21","0","","","","","","6","","","","","","","","",""
"","","","","","single-stim-button","345","973163","0.0-2.0-74.2-0.2","5c3a87a61ede2b000115cf76","D2","batch4","","738","tol_tohand","","","","tol_peg_1","738","738","0","[[1,0,0],[0,0],[2]]","3","[[0,0,0],[1,2],[3]]","21","0","","","","","","6","","","","","","","","",""
"","","","","","single-stim-button","346","973686","0.0-2.0-74.2-1.2","5c3a87a61ede2b000115cf76","D2","batch4","","521","tol_toboard","","","","tol_peg_2","521","521","0","[[1,0,0],[3,0],[2]]","3","[[0,0,0],[1,2],[3]]","21","0","","","","","","6","","","","","","","","",""
"","","","","","single-stim-button","347","976428","0.0-2.0-74.3-0.3","5c3a87a61ede2b000115cf76","D2","batch4","","2737","tol_tohand","","","","tol_peg_1","2737","2737","0","[[0,0,0],[3,0],[2]]","4","[[0,0,0],[1,2],[3]]","21","0","","","","","","6","","","","","","","","",""
"","","","","","single-stim-button","348","982063","0.0-2.0-74.3-1.3","5c3a87a61ede2b000115cf76","D2","batch4","","5631","tol_toboard","","","","tol_peg_2","5631","5631","0","[[0,0,0],[3,1],[2]]","4","[[0,0,0],[1,2],[3]]","21","0","","","","","","6","","","","","","","","",""
"","","","","","single-stim-button","349","982644","0.0-2.0-74.4-0.4","5c3a87a61ede2b000115cf76","D2","batch4","","577","tol_tohand","","","","tol_peg_3","577","577","0","[[0,0,0],[3,1],[0]]","5","[[0,0,0],[1,2],[3]]","21","0","","","","","","6","","","","","","","","",""
"","","","","","single-stim-button","350","983223","0.0-2.0-74.4-1.4","5c3a87a61ede2b000115cf76","D2","batch4","","575","tol_toboard","","","","tol_peg_1","575","575","0","[[2,0,0],[3,1],[0]]","5","[[0,0,0],[1,2],[3]]","21","0","","","","","","6","","","","","","","","",""
"","","","","","single-stim-button","351","984969","0.0-2.0-74.5-0.5","5c3a87a61ede2b000115cf76","D2","batch4","","1742","tol_tohand","","","","tol_peg_2","1742","1742","0","[[2,0,0],[3,0],[0]]","6","[[0,0,0],[1,2],[3]]","21","0","","","","","","6","","","","","","","","",""
"","","","","","single-stim-button","352","985552","0.0-2.0-74.5-1.5","5c3a87a61ede2b000115cf76","D2","batch4","","580","tol_toboard","","","","tol_peg_1","580","580","0","[[2,1,0],[3,0],[0]]","6","[[0,0,0],[1,2],[3]]","21","0","","","","","","6","","","","","","","","",""
"","","","","","single-stim-button","353","986127","0.0-2.0-74.6-0.6","5c3a87a61ede2b000115cf76","D2","batch4","","572","tol_tohand","","","","tol_peg_2","572","572","0","[[2,1,0],[0,0],[0]]","7","[[0,0,0],[1,2],[3]]","21","0","","","","","","6","","","","","","","","",""
"","","","","","single-stim-button","354","986644","0.0-2.0-74.6-1.6","5c3a87a61ede2b000115cf76","D2","batch4","","514","tol_toboard","","","","tol_peg_3","514","514","0","[[2,1,0],[0,0],[3]]","7","[[0,0,0],[1,2],[3]]","21","0","","","","","","6","","","","","","","","",""
"","","","","","single-stim-button","355","987733","0.0-2.0-74.7-0.7","5c3a87a61ede2b000115cf76","D2","batch4","","1085","tol_tohand","","","","tol_peg_1","1085","1085","0","[[2,0,0],[0,0],[3]]","8","[[0,0,0],[1,2],[3]]","21","0","","","","","","6","","","","","","","","",""
"","","","","","single-stim-button","356","988229","0.0-2.0-74.7-1.7","5c3a87a61ede2b000115cf76","D2","batch4","","492","tol_toboard","","","","tol_peg_2","492","492","0","[[2,0,0],[1,0],[3]]","8","[[0,0,0],[1,2],[3]]","21","0","","","","","","6","","","","","","","","",""
