"success","timeout","failed_images","failed_audio","failed_video","trial_type","trial_index","time_elapsed","internal_node_id","subject_id","study_id","session_id","task","rt","stimulus","response","item","answer","correct","spm_correct","spm_rt","view_history","mouse_click","stim_duration","block_duration","timing_post_trial","current_position","tol_num_moves_made","tol_target","tol_problem_id","tol_rt","key_press","possible_responses","tol_correct","preplanning","tol_rt_per_trial","tol_min_moves","fiar_detect_rt","fiar_detect_correct","total_correct_fiar_detect","post_trial_gap","choices"
"true","false","[]","[]","[]","preload","0","16996","0.0-0.0","5c3fd0d4c2d0b700017d02cd","A3","batch1","","","","","","","","","","","","","","","","","","","","","","","","","","","","","",""
"true","","","","","fullscreen","1","30392","0.0-1.0-0.0","5c3fd0d4c2d0b700017d02cd","A3","batch1","","","","","","","","","","","","","","","","","","","","","","","","","","","","","",""
"true","","","","","fullscreen","2","34397","0.0-2.0-0.0","5c3fd0d4c2d0b700017d02cd","A3","batch1","spm_fullscreen","","","","","","","","","","","","","","","","","","","","","","","","","","","","",""
"","","","","","html-button-response","3","51025","0.0-2.0-1.0","5c3fd0d4c2d0b700017d02cd","A3","batch1","","16627.600000023842","<p class = block-text><b>Instructions</b> <br>This is a widely used intelligence test in research. <br>In this test, a figure with a missing piece will be presented.<br>Below the figure are alternative pieces to complete the figure, only one of which is correct.<br> Different figures might involve different principles for obtaining the missing piece<br>Your job is to select the most logical piece to complete the figure.</p>","0","","","","","","","","","","","","","","","","","","","","","","","","","",""
"","","","","","html-keyboard-response","4","51826","0.0-2.0-2.0-0.0","5c3fd0d4c2d0b700017d02cd","A3","batch1","spm_show_trial_num","null","<p class=block-text>Trial 1 out of 60</p>","null","","","","","","","","","","","","","","","","","","","","","","","","","",""
"","","","","","image-button-response","5","61100","0.0-2.0-2.0-1.0","5c3fd0d4c2d0b700017d02cd","A3","batch1","spm_respsonse","9271.799999952316","img/question_1_1.jpeg","3","mat_01","4","1","1","9271.799999952316","","","","","","","","","","","","","","","","","","","","",""
"","","","","","html-keyboard-response","6","62152","0.0-2.0-2.0-0.1","5c3fd0d4c2d0b700017d02cd","A3","batch1","spm_show_trial_num","null","<p class=block-text>Trial 2 out of 60</p>","null","","","","","","","","","","","","","","","","","","","","","","","","","",""
"","","","","","image-button-response","7","67304","0.0-2.0-2.0-1.1","5c3fd0d4c2d0b700017d02cd","A3","batch1","spm_respsonse","5151.599999904633","img/question_1_2.jpeg","4","mat_02","5","1","1","5151.599999904633","","","","","","","","","","","","","","","","","","","","",""
"","","","","","html-keyboard-response","8","68355","0.0-2.0-2.0-0.2","5c3fd0d4c2d0b700017d02cd","A3","batch1","spm_show_trial_num","null","<p class=block-text>Trial 3 out of 60</p>","null","","","","","","","","","","","","","","","","","","","","","","","","","",""
"","","","","","image-button-response","9","71253","0.0-2.0-2.0-1.2","5c3fd0d4c2d0b700017d02cd","A3","batch1","spm_respsonse","2896.2999999523163","img/question_1_3.jpeg","0","mat_03","1","1","1","2896.2999999523163","","","","","","","","","","","","","","","","","","","","",""
"","","","","","html-keyboard-response","10","72305","0.0-2.0-2.0-0.3","5c3fd0d4c2d0b700017d02cd","A3","batch1","spm_show_trial_num","null","<p class=block-text>Trial 4 out of 60</p>","null","","","","","","","","","","","","","","","","","","","","","","","","","",""
"","","","","","image-button-response","11","75663","0.0-2.0-2.0-1.3","5c3fd0d4c2d0b700017d02cd","A3","batch1","spm_respsonse","3356.9000000953674","img/question_1_4.jpeg","1","mat_04","2","1","1","3356.9000000953674","","","","","","","","","","","","","","","","","","","","",""
"","","","","","html-keyboard-response","12","76714","0.0-2.0-2.0-0.4","5c3fd0d4c2d0b700017d02cd","A3","batch1","spm_show_trial_num","null","<p class=block-text>Trial 5 out of 60</p>","null","","","","","","","","","","","","","","","","","","","","","","","","","",""
"","","","","","image-button-response","13","81316","0.0-2.0-2.0-1.4","5c3fd0d4c2d0b700017d02cd","A3","batch1","spm_respsonse","4600.199999928474","img/question_1_5.jpeg","5","mat_05","6","1","1","4600.199999928474","","","","","","","","","","","","","","","","","","","","",""
"","","","","","html-keyboard-response","14","82367","0.0-2.0-2.0-0.5","5c3fd0d4c2d0b700017d02cd","A3","batch1","spm_show_trial_num","null","<p class=block-text>Trial 6 out of 60</p>","null","","","","","","","","","","","","","","","","","","","","","","","","","",""
"","","","","","image-button-response","15","86007","0.0-2.0-2.0-1.5","5c3fd0d4c2d0b700017d02cd","A3","batch1","spm_respsonse","3639.100000023842","img/question_1_6.jpeg","2","mat_06","3","1","1","3639.100000023842","","","","","","","","","","","","","","","","","","","","",""
"","","","","","html-keyboard-response","16","87074","0.0-2.0-2.0-0.6","5c3fd0d4c2d0b700017d02cd","A3","batch1","spm_show_trial_num","null","<p class=block-text>Trial 7 out of 60</p>","null","","","","","","","","","","","","","","","","","","","","","","","","","",""
"","","","","","image-button-response","17","90295","0.0-2.0-2.0-1.6","5c3fd0d4c2d0b700017d02cd","A3","batch1","spm_respsonse","3220.7999999523163","img/question_1_7.jpeg","5","mat_07","6","1","1","3220.7999999523163","","","","","","","","","","","","","","","","","","","","",""
"","","","","","html-keyboard-response","18","91350","0.0-2.0-2.0-0.7","5c3fd0d4c2d0b700017d02cd","A3","batch1","spm_show_trial_num","null","<p class=block-text>Trial 8 out of 60</p>","null","","","","","","","","","","","","","","","","","","","","","","","","","",""
"","","","","","image-button-response","19","96771","0.0-2.0-2.0-1.7","5c3fd0d4c2d0b700017d02cd","A3","batch1","spm_respsonse","5420.699999928474","img/question_1_8.jpeg","1","mat_08","2","1","1","5420.699999928474","","","","","","","","","","","","","","","","","","","","",""
"","","","","","html-keyboard-response","20","97822","0.0-2.0-2.0-0.8","5c3fd0d4c2d0b700017d02cd","A3","batch1","spm_show_trial_num","null","<p class=block-text>Trial 9 out of 60</p>","null","","","","","","","","","","","","","","","","","","","","","","","","","",""
"","","","","","image-button-response","21","101495","0.0-2.0-2.0-1.8","5c3fd0d4c2d0b700017d02cd","A3","batch1","spm_respsonse","3671.7000000476837","img/question_1_9.jpeg","0","mat_09","1","1","1","3671.7000000476837","","","","","","","","","","","","","","","","","","","","",""
"","","","","","html-keyboard-response","22","102546","0.0-2.0-2.0-0.9","5c3fd0d4c2d0b700017d02cd","A3","batch1","spm_show_trial_num","null","<p class=block-text>Trial 10 out of 60</p>","null","","","","","","","","","","","","","","","","","","","","","","","","","",""
"","","","","","image-button-response","23","107384","0.0-2.0-2.0-1.9","5c3fd0d4c2d0b700017d02cd","A3","batch1","spm_respsonse","4837.100000023842","img/question_1_10.jpeg","2","mat_10","3","1","1","4837.100000023842","","","","","","","","","","","","","","","","","","","","",""
"","","","","","html-keyboard-response","24","108446","0.0-2.0-2.0-0.10","5c3fd0d4c2d0b700017d02cd","A3","batch1","spm_show_trial_num","null","<p class=block-text>Trial 11 out of 60</p>","null","","","","","","","","","","","","","","","","","","","","","","","","","",""
"","","","","","image-button-response","25","124318","0.0-2.0-2.0-1.10","5c3fd0d4c2d0b700017d02cd","A3","batch1","spm_respsonse","15870","img/question_1_11.jpeg","3","mat_11","4","1","1","15870","","","","","","","","","","","","","","","","","","","","",""
"","","","","","html-keyboard-response","26","125369","0.0-2.0-2.0-0.11","5c3fd0d4c2d0b700017d02cd","A3","batch1","spm_show_trial_num","null","<p class=block-text>Trial 12 out of 60</p>","null","","","","","","","","","","","","","","","","","","","","","","","","","",""
"","","","","","image-button-response","27","135376","0.0-2.0-2.0-1.11","5c3fd0d4c2d0b700017d02cd","A3","batch1","spm_respsonse","10005.899999976158","img/question_1_12.jpeg","4","mat_12","5","1","1","10005.899999976158","","","","","","","","","","","","","","","","","","","","",""
"","","","","","html-keyboard-response","28","136431","0.0-2.0-2.0-0.12","5c3fd0d4c2d0b700017d02cd","A3","batch1","spm_show_trial_num","null","<p class=block-text>Trial 13 out of 60</p>","null","","","","","","","","","","","","","","","","","","","","","","","","","",""
"","","","","","image-button-response","29","138474","0.0-2.0-2.0-1.12","5c3fd0d4c2d0b700017d02cd","A3","batch1","spm_respsonse","2041.7000000476837","img/question_2_1.jpeg","1","mat_13","2","1","1","2041.7000000476837","","","","","","","","","","","","","","","","","","","","",""
"","","","","","html-keyboard-response","30","139526","0.0-2.0-2.0-0.13","5c3fd0d4c2d0b700017d02cd","A3","batch1","spm_show_trial_num","null","<p class=block-text>Trial 14 out of 60</p>","null","","","","","","","","","","","","","","","","","","","","","","","","","",""
"","","","","","image-button-response","31","144983","0.0-2.0-2.0-1.13","5c3fd0d4c2d0b700017d02cd","A3","batch1","spm_respsonse","5456.399999976158","img/question_2_2.jpeg","5","mat_14","6","1","1","5456.399999976158","","","","","","","","","","","","","","","","","","","","",""
"","","","","","html-keyboard-response","32","146036","0.0-2.0-2.0-0.14","5c3fd0d4c2d0b700017d02cd","A3","batch1","spm_show_trial_num","null","<p class=block-text>Trial 15 out of 60</p>","null","","","","","","","","","","","","","","","","","","","","","","","","","",""
"","","","","","image-button-response","33","149915","0.0-2.0-2.0-1.14","5c3fd0d4c2d0b700017d02cd","A3","batch1","spm_respsonse","3878.399999976158","img/question_2_3.jpeg","0","mat_15","1","1","1","3878.399999976158","","","","","","","","","","","","","","","","","","","","",""
"","","","","","html-keyboard-response","34","150978","0.0-2.0-2.0-0.15","5c3fd0d4c2d0b700017d02cd","A3","batch1","spm_show_trial_num","null","<p class=block-text>Trial 16 out of 60</p>","null","","","","","","","","","","","","","","","","","","","","","","","","","",""
"","","","","","image-button-response","35","155009","0.0-2.0-2.0-1.15","5c3fd0d4c2d0b700017d02cd","A3","batch1","spm_respsonse","4030.3000000715256","img/question_2_4.jpeg","1","mat_16","2","1","1","4030.3000000715256","","","","","","","","","","","","","","","","","","","","",""
"","","","","","html-keyboard-response","36","156063","0.0-2.0-2.0-0.16","5c3fd0d4c2d0b700017d02cd","A3","batch1","spm_show_trial_num","null","<p class=block-text>Trial 17 out of 60</p>","null","","","","","","","","","","","","","","","","","","","","","","","","","",""
"","","","","","image-button-response","37","163301","0.0-2.0-2.0-1.16","5c3fd0d4c2d0b700017d02cd","A3","batch1","spm_respsonse","7237.300000071526","img/question_2_5.jpeg","0","mat_17","1","1","1","7237.300000071526","","","","","","","","","","","","","","","","","","","","",""
"","","","","","html-keyboard-response","38","164352","0.0-2.0-2.0-0.17","5c3fd0d4c2d0b700017d02cd","A3","batch1","spm_show_trial_num","null","<p class=block-text>Trial 18 out of 60</p>","null","","","","","","","","","","","","","","","","","","","","","","","","","",""
"","","","","","image-button-response","39","168821","0.0-2.0-2.0-1.17","5c3fd0d4c2d0b700017d02cd","A3","batch1","spm_respsonse","4468.399999976158","img/question_2_6.jpeg","2","mat_18","3","1","1","4468.399999976158","","","","","","","","","","","","","","","","","","","","",""
"","","","","","html-keyboard-response","40","169873","0.0-2.0-2.0-0.18","5c3fd0d4c2d0b700017d02cd","A3","batch1","spm_show_trial_num","null","<p class=block-text>Trial 19 out of 60</p>","null","","","","","","","","","","","","","","","","","","","","","","","","","",""
"","","","","","image-button-response","41","174996","0.0-2.0-2.0-1.18","5c3fd0d4c2d0b700017d02cd","A3","batch1","spm_respsonse","5122.600000023842","img/question_2_7.jpeg","4","mat_19","5","1","1","5122.600000023842","","","","","","","","","","","","","","","","","","","","",""
"","","","","","html-keyboard-response","42","176058","0.0-2.0-2.0-0.19","5c3fd0d4c2d0b700017d02cd","A3","batch1","spm_show_trial_num","null","<p class=block-text>Trial 20 out of 60</p>","null","","","","","","","","","","","","","","","","","","","","","","","","","",""
"","","","","","image-button-response","43","185670","0.0-2.0-2.0-1.19","5c3fd0d4c2d0b700017d02cd","A3","batch1","spm_respsonse","9611","img/question_2_8.jpeg","5","mat_20","6","1","1","9611","","","","","","","","","","","","","","","","","","","","",""
"","","","","","html-keyboard-response","44","186721","0.0-2.0-2.0-0.20","5c3fd0d4c2d0b700017d02cd","A3","batch1","spm_show_trial_num","null","<p class=block-text>Trial 21 out of 60</p>","null","","","","","","","","","","","","","","","","","","","","","","","","","",""
"","","","","","image-button-response","45","196784","0.0-2.0-2.0-1.20","5c3fd0d4c2d0b700017d02cd","A3","batch1","spm_respsonse","10061.700000047684","img/question_2_9.jpeg","3","mat_21","4","1","1","10061.700000047684","","","","","","","","","","","","","","","","","","","","",""
"","","","","","html-keyboard-response","46","197842","0.0-2.0-2.0-0.21","5c3fd0d4c2d0b700017d02cd","A3","batch1","spm_show_trial_num","null","<p class=block-text>Trial 22 out of 60</p>","null","","","","","","","","","","","","","","","","","","","","","","","","","",""
"","","","","","image-button-response","47","205242","0.0-2.0-2.0-1.21","5c3fd0d4c2d0b700017d02cd","A3","batch1","spm_respsonse","7398.899999976158","img/question_2_10.jpeg","2","mat_22","3","1","1","7398.899999976158","","","","","","","","","","","","","","","","","","","","",""
"","","","","","html-keyboard-response","48","206321","0.0-2.0-2.0-0.22","5c3fd0d4c2d0b700017d02cd","A3","batch1","spm_show_trial_num","null","<p class=block-text>Trial 23 out of 60</p>","null","","","","","","","","","","","","","","","","","","","","","","","","","",""
"","","","","","image-button-response","49","212792","0.0-2.0-2.0-1.22","5c3fd0d4c2d0b700017d02cd","A3","batch1","spm_respsonse","6470","img/question_2_11.jpeg","3","mat_23","4","1","1","6470","","","","","","","","","","","","","","","","","","","","",""
"","","","","","html-keyboard-response","50","213852","0.0-2.0-2.0-0.23","5c3fd0d4c2d0b700017d02cd","A3","batch1","spm_show_trial_num","null","<p class=block-text>Trial 24 out of 60</p>","null","","","","","","","","","","","","","","","","","","","","","","","","","",""
"","","","","","image-button-response","51","226994","0.0-2.0-2.0-1.23","5c3fd0d4c2d0b700017d02cd","A3","batch1","spm_respsonse","13140.600000023842","img/question_2_12.jpeg","4","mat_24","5","1","1","13140.600000023842","","","","","","","","","","","","","","","","","","","","",""
"","","","","","html-button-response","52","228847","0.0-2.0-3.0","5c3fd0d4c2d0b700017d02cd","A3","batch1","attention_check","1601.2000000476837","<p class = block-text>Attention check: Please choose 1<br></p>","0","","","true","","","","","","","","","","","","","","","","","","","","","","",""
"","","","","","html-keyboard-response","53","229661","0.0-2.0-4.0-0.0","5c3fd0d4c2d0b700017d02cd","A3","batch1","spm_show_trial_num","null","<p class=block-text>Trial 25 out of 60</p>","null","","","","","","","","","","","","","","","","","","","","","","","","","",""
"","","","","","image-button-response","54","235340","0.0-2.0-4.0-1.0","5c3fd0d4c2d0b700017d02cd","A3","batch1","spm_respsonse","5677.399999976158","img/question_3_1.jpeg","7","mat_25","8","1","1","5677.399999976158","","","","","","","","","","","","","","","","","","","","",""
"","","","","","html-keyboard-response","55","236405","0.0-2.0-4.0-0.1","5c3fd0d4c2d0b700017d02cd","A3","batch1","spm_show_trial_num","null","<p class=block-text>Trial 26 out of 60</p>","null","","","","","","","","","","","","","","","","","","","","","","","","","",""
"","","","","","image-button-response","56","247130","0.0-2.0-4.0-1.1","5c3fd0d4c2d0b700017d02cd","A3","batch1","spm_respsonse","10723.800000071526","img/question_3_2.jpeg","1","mat_26","2","1","1","10723.800000071526","","","","","","","","","","","","","","","","","","","","",""
"","","","","","html-keyboard-response","57","248189","0.0-2.0-4.0-0.2","5c3fd0d4c2d0b700017d02cd","A3","batch1","spm_show_trial_num","null","<p class=block-text>Trial 27 out of 60</p>","null","","","","","","","","","","","","","","","","","","","","","","","","","",""
"","","","","","image-button-response","58","258697","0.0-2.0-4.0-1.2","5c3fd0d4c2d0b700017d02cd","A3","batch1","spm_respsonse","10507.400000095367","img/question_3_3.jpeg","2","mat_27","3","1","1","10507.400000095367","","","","","","","","","","","","","","","","","","","","",""
"","","","","","html-keyboard-response","59","259760","0.0-2.0-4.0-0.3","5c3fd0d4c2d0b700017d02cd","A3","batch1","spm_show_trial_num","null","<p class=block-text>Trial 28 out of 60</p>","null","","","","","","","","","","","","","","","","","","","","","","","","","",""
"","","","","","image-button-response","60","271364","0.0-2.0-4.0-1.3","5c3fd0d4c2d0b700017d02cd","A3","batch1","spm_respsonse","11603.200000047684","img/question_3_4.jpeg","7","mat_28","8","1","1","11603.200000047684","","","","","","","","","","","","","","","","","","","","",""
"","","","","","html-keyboard-response","61","272415","0.0-2.0-4.0-0.4","5c3fd0d4c2d0b700017d02cd","A3","batch1","spm_show_trial_num","null","<p class=block-text>Trial 29 out of 60</p>","null","","","","","","","","","","","","","","","","","","","","","","","","","",""
"","","","","","image-button-response","62","280015","0.0-2.0-4.0-1.4","5c3fd0d4c2d0b700017d02cd","A3","batch1","spm_respsonse","7598.299999952316","img/question_3_5.jpeg","6","mat_29","7","1","1","7598.299999952316","","","","","","","","","","","","","","","","","","","","",""
"","","","","","html-keyboard-response","63","281069","0.0-2.0-4.0-0.5","5c3fd0d4c2d0b700017d02cd","A3","batch1","spm_show_trial_num","null","<p class=block-text>Trial 30 out of 60</p>","null","","","","","","","","","","","","","","","","","","","","","","","","","",""
"","","","","","image-button-response","64","294153","0.0-2.0-4.0-1.5","5c3fd0d4c2d0b700017d02cd","A3","batch1","spm_respsonse","13082.900000095367","img/question_3_6.jpeg","3","mat_30","4","1","1","13082.900000095367","","","","","","","","","","","","","","","","","","","","",""
"","","","","","html-keyboard-response","65","295214","0.0-2.0-4.0-0.6","5c3fd0d4c2d0b700017d02cd","A3","batch1","spm_show_trial_num","null","<p class=block-text>Trial 31 out of 60</p>","null","","","","","","","","","","","","","","","","","","","","","","","","","",""
"","","","","","image-button-response","66","305081","0.0-2.0-4.0-1.6","5c3fd0d4c2d0b700017d02cd","A3","batch1","spm_respsonse","9864.799999952316","img/question_3_7.jpeg","4","mat_31","5","1","1","9864.799999952316","","","","","","","","","","","","","","","","","","","","",""
"","","","","","html-keyboard-response","67","306145","0.0-2.0-4.0-0.7","5c3fd0d4c2d0b700017d02cd","A3","batch1","spm_show_trial_num","null","<p class=block-text>Trial 32 out of 60</p>","null","","","","","","","","","","","","","","","","","","","","","","","","","",""
"","","","","","image-button-response","68","328359","0.0-2.0-4.0-1.7","5c3fd0d4c2d0b700017d02cd","A3","batch1","spm_respsonse","22212.699999928474","img/question_3_8.jpeg","0","mat_32","1","1","1","22212.699999928474","","","","","","","","","","","","","","","","","","","","",""
"","","","","","html-keyboard-response","69","329421","0.0-2.0-4.0-0.8","5c3fd0d4c2d0b700017d02cd","A3","batch1","spm_show_trial_num","null","<p class=block-text>Trial 33 out of 60</p>","null","","","","","","","","","","","","","","","","","","","","","","","","","",""
"","","","","","image-button-response","70","341147","0.0-2.0-4.0-1.8","5c3fd0d4c2d0b700017d02cd","A3","batch1","spm_respsonse","11724.800000071526","img/question_3_9.jpeg","6","mat_33","7","1","1","11724.800000071526","","","","","","","","","","","","","","","","","","","","",""
"","","","","","html-keyboard-response","71","342198","0.0-2.0-4.0-0.9","5c3fd0d4c2d0b700017d02cd","A3","batch1","spm_show_trial_num","null","<p class=block-text>Trial 34 out of 60</p>","null","","","","","","","","","","","","","","","","","","","","","","","","","",""
"","","","","","image-button-response","72","376310","0.0-2.0-4.0-1.9","5c3fd0d4c2d0b700017d02cd","A3","batch1","spm_respsonse","34110.5","img/question_3_10.jpeg","5","mat_34","6","1","1","34110.5","","","","","","","","","","","","","","","","","","","","",""
"","","","","","html-keyboard-response","73","377361","0.0-2.0-4.0-0.10","5c3fd0d4c2d0b700017d02cd","A3","batch1","spm_show_trial_num","null","<p class=block-text>Trial 35 out of 60</p>","null","","","","","","","","","","","","","","","","","","","","","","","","","",""
"","","","","","image-button-response","74","389472","0.0-2.0-4.0-1.10","5c3fd0d4c2d0b700017d02cd","A3","batch1","spm_respsonse","12109.800000071526","img/question_3_11.jpeg","0","mat_35","1","1","1","12109.800000071526","","","","","","","","","","","","","","","","","","","","",""
"","","","","","html-keyboard-response","75","390535","0.0-2.0-4.0-0.11","5c3fd0d4c2d0b700017d02cd","A3","batch1","spm_show_trial_num","null","<p class=block-text>Trial 36 out of 60</p>","null","","","","","","","","","","","","","","","","","","","","","","","","","",""
"","","","","","image-button-response","76","413082","0.0-2.0-4.0-1.11","5c3fd0d4c2d0b700017d02cd","A3","batch1","spm_respsonse","22545.600000023842","img/question_3_12.jpeg","1","mat_36","2","1","1","22545.600000023842","","","","","","","","","","","","","","","","","","","","",""
"","","","","","html-keyboard-response","77","414143","0.0-2.0-4.0-0.12","5c3fd0d4c2d0b700017d02cd","A3","batch1","spm_show_trial_num","null","<p class=block-text>Trial 37 out of 60</p>","null","","","","","","","","","","","","","","","","","","","","","","","","","",""
"","","","","","image-button-response","78","419242","0.0-2.0-4.0-1.12","5c3fd0d4c2d0b700017d02cd","A3","batch1","spm_respsonse","5097.799999952316","img/question_4_1.jpeg","2","mat_37","3","1","1","5097.799999952316","","","","","","","","","","","","","","","","","","","","",""
"","","","","","html-keyboard-response","79","420312","0.0-2.0-4.0-0.13","5c3fd0d4c2d0b700017d02cd","A3","batch1","spm_show_trial_num","null","<p class=block-text>Trial 38 out of 60</p>","null","","","","","","","","","","","","","","","","","","","","","","","","","",""
"","","","","","image-button-response","80","429959","0.0-2.0-4.0-1.13","5c3fd0d4c2d0b700017d02cd","A3","batch1","spm_respsonse","9646.700000047684","img/question_4_2.jpeg","3","mat_38","4","1","1","9646.700000047684","","","","","","","","","","","","","","","","","","","","",""
"","","","","","html-keyboard-response","81","431022","0.0-2.0-4.0-0.14","5c3fd0d4c2d0b700017d02cd","A3","batch1","spm_show_trial_num","null","<p class=block-text>Trial 39 out of 60</p>","null","","","","","","","","","","","","","","","","","","","","","","","","","",""
"","","","","","image-button-response","82","437318","0.0-2.0-4.0-1.14","5c3fd0d4c2d0b700017d02cd","A3","batch1","spm_respsonse","6295.100000023842","img/question_4_3.jpeg","2","mat_39","3","1","1","6295.100000023842","","","","","","","","","","","","","","","","","","","","",""
"","","","","","html-keyboard-response","83","438384","0.0-2.0-4.0-0.15","5c3fd0d4c2d0b700017d02cd","A3","batch1","spm_show_trial_num","null","<p class=block-text>Trial 40 out of 60</p>","null","","","","","","","","","","","","","","","","","","","","","","","","","",""
"","","","","","image-button-response","84","446739","0.0-2.0-4.0-1.15","5c3fd0d4c2d0b700017d02cd","A3","batch1","spm_respsonse","8353.799999952316","img/question_4_4.jpeg","6","mat_40","7","1","1","8353.799999952316","","","","","","","","","","","","","","","","","","","","",""
"","","","","","html-keyboard-response","85","447800","0.0-2.0-4.0-0.16","5c3fd0d4c2d0b700017d02cd","A3","batch1","spm_show_trial_num","null","<p class=block-text>Trial 41 out of 60</p>","null","","","","","","","","","","","","","","","","","","","","","","","","","",""
"","","","","","image-button-response","86","457569","0.0-2.0-4.0-1.16","5c3fd0d4c2d0b700017d02cd","A3","batch1","spm_respsonse","9768.200000047684","img/question_4_5.jpeg","7","mat_41","8","1","1","9768.200000047684","","","","","","","","","","","","","","","","","","","","",""
"","","","","","html-keyboard-response","87","458620","0.0-2.0-4.0-0.17","5c3fd0d4c2d0b700017d02cd","A3","batch1","spm_show_trial_num","null","<p class=block-text>Trial 42 out of 60</p>","null","","","","","","","","","","","","","","","","","","","","","","","","","",""
"","","","","","image-button-response","88","471715","0.0-2.0-4.0-1.17","5c3fd0d4c2d0b700017d02cd","A3","batch1","spm_respsonse","13093.800000071526","img/question_4_6.jpeg","5","mat_42","6","1","1","13093.800000071526","","","","","","","","","","","","","","","","","","","","",""
"","","","","","html-keyboard-response","89","472779","0.0-2.0-4.0-0.18","5c3fd0d4c2d0b700017d02cd","A3","batch1","spm_show_trial_num","null","<p class=block-text>Trial 43 out of 60</p>","null","","","","","","","","","","","","","","","","","","","","","","","","","",""
"","","","","","image-button-response","90","493128","0.0-2.0-4.0-1.18","5c3fd0d4c2d0b700017d02cd","A3","batch1","spm_respsonse","20347.600000023842","img/question_4_7.jpeg","4","mat_43","5","1","1","20347.600000023842","","","","","","","","","","","","","","","","","","","","",""
"","","","","","html-keyboard-response","91","494181","0.0-2.0-4.0-0.19","5c3fd0d4c2d0b700017d02cd","A3","batch1","spm_show_trial_num","null","<p class=block-text>Trial 44 out of 60</p>","null","","","","","","","","","","","","","","","","","","","","","","","","","",""
"","","","","","image-button-response","92","502791","0.0-2.0-4.0-1.19","5c3fd0d4c2d0b700017d02cd","A3","batch1","spm_respsonse","8608.5","img/question_4_8.jpeg","3","mat_44","4","1","1","8608.5","","","","","","","","","","","","","","","","","","","","",""
"","","","","","html-keyboard-response","93","503842","0.0-2.0-4.0-0.20","5c3fd0d4c2d0b700017d02cd","A3","batch1","spm_show_trial_num","null","<p class=block-text>Trial 45 out of 60</p>","null","","","","","","","","","","","","","","","","","","","","","","","","","",""
"","","","","","image-button-response","94","525309","0.0-2.0-4.0-1.20","5c3fd0d4c2d0b700017d02cd","A3","batch1","spm_respsonse","21466","img/question_4_9.jpeg","0","mat_45","1","1","1","21466","","","","","","","","","","","","","","","","","","","","",""
"","","","","","html-keyboard-response","95","526370","0.0-2.0-4.0-0.21","5c3fd0d4c2d0b700017d02cd","A3","batch1","spm_show_trial_num","null","<p class=block-text>Trial 46 out of 60</p>","null","","","","","","","","","","","","","","","","","","","","","","","","","",""
"","","","","","image-button-response","96","554080","0.0-2.0-4.0-1.21","5c3fd0d4c2d0b700017d02cd","A3","batch1","spm_respsonse","27708.699999928474","img/question_4_10.jpeg","1","mat_46","2","1","1","27708.699999928474","","","","","","","","","","","","","","","","","","","","",""
"","","","","","html-keyboard-response","97","555132","0.0-2.0-4.0-0.22","5c3fd0d4c2d0b700017d02cd","A3","batch1","spm_show_trial_num","null","<p class=block-text>Trial 47 out of 60</p>","null","","","","","","","","","","","","","","","","","","","","","","","","","",""
"","","","","","image-button-response","98","612090","0.0-2.0-4.0-1.22","5c3fd0d4c2d0b700017d02cd","A3","batch1","spm_respsonse","56956.699999928474","img/question_4_11.jpeg","4","mat_47","5","1","1","56956.699999928474","","","","","","","","","","","","","","","","","","","","",""
"","","","","","html-keyboard-response","99","613141","0.0-2.0-4.0-0.23","5c3fd0d4c2d0b700017d02cd","A3","batch1","spm_show_trial_num","null","<p class=block-text>Trial 48 out of 60</p>","null","","","","","","","","","","","","","","","","","","","","","","","","","",""
"","","","","","image-button-response","100","671443","0.0-2.0-4.0-1.23","5c3fd0d4c2d0b700017d02cd","A3","batch1","spm_respsonse","58301.39999997616","img/question_4_12.jpeg","5","mat_48","6","1","1","58301.39999997616","","","","","","","","","","","","","","","","","","","","",""
"","","","","","html-keyboard-response","101","672510","0.0-2.0-4.0-0.24","5c3fd0d4c2d0b700017d02cd","A3","batch1","spm_show_trial_num","null","<p class=block-text>Trial 49 out of 60</p>","null","","","","","","","","","","","","","","","","","","","","","","","","","",""
"","","","","","image-button-response","102","680405","0.0-2.0-4.0-1.24","5c3fd0d4c2d0b700017d02cd","A3","batch1","spm_respsonse","7894.299999952316","img/question_5_1.jpeg","6","mat_49","7","1","1","7894.299999952316","","","","","","","","","","","","","","","","","","","","",""
"","","","","","html-keyboard-response","103","681460","0.0-2.0-4.0-0.25","5c3fd0d4c2d0b700017d02cd","A3","batch1","spm_show_trial_num","null","<p class=block-text>Trial 50 out of 60</p>","null","","","","","","","","","","","","","","","","","","","","","","","","","",""
"","","","","","image-button-response","104","696370","0.0-2.0-4.0-1.25","5c3fd0d4c2d0b700017d02cd","A3","batch1","spm_respsonse","14909.300000071526","img/question_5_2.jpeg","5","mat_50","6","1","1","14909.300000071526","","","","","","","","","","","","","","","","","","","","",""
"","","","","","html-keyboard-response","105","697422","0.0-2.0-4.0-0.26","5c3fd0d4c2d0b700017d02cd","A3","batch1","spm_show_trial_num","null","<p class=block-text>Trial 51 out of 60</p>","null","","","","","","","","","","","","","","","","","","","","","","","","","",""
"","","","","","image-button-response","106","711160","0.0-2.0-4.0-1.26","5c3fd0d4c2d0b700017d02cd","A3","batch1","spm_respsonse","13736.899999976158","img/question_5_3.jpeg","7","mat_51","8","1","1","13736.899999976158","","","","","","","","","","","","","","","","","","","","",""
"","","","","","html-keyboard-response","107","712224","0.0-2.0-4.0-0.27","5c3fd0d4c2d0b700017d02cd","A3","batch1","spm_show_trial_num","null","<p class=block-text>Trial 52 out of 60</p>","null","","","","","","","","","","","","","","","","","","","","","","","","","",""
"","","","","","image-button-response","108","737958","0.0-2.0-4.0-1.27","5c3fd0d4c2d0b700017d02cd","A3","batch1","spm_respsonse","25733.5","img/question_5_4.jpeg","1","mat_52","2","1","1","25733.5","","","","","","","","","","","","","","","","","","","","",""
"","","","","","html-keyboard-response","109","739010","0.0-2.0-4.0-0.28","5c3fd0d4c2d0b700017d02cd","A3","batch1","spm_show_trial_num","null","<p class=block-text>Trial 53 out of 60</p>","null","","","","","","","","","","","","","","","","","","","","","","","","","",""
"","","","","","image-button-response","110","748438","0.0-2.0-4.0-1.28","5c3fd0d4c2d0b700017d02cd","A3","batch1","spm_respsonse","9427.5","img/question_5_5.jpeg","0","mat_53","1","1","1","9427.5","","","","","","","","","","","","","","","","","","","","",""
"","","","","","html-keyboard-response","111","749490","0.0-2.0-4.0-0.29","5c3fd0d4c2d0b700017d02cd","A3","batch1","spm_show_trial_num","null","<p class=block-text>Trial 54 out of 60</p>","null","","","","","","","","","","","","","","","","","","","","","","","","","",""
"","","","","","image-button-response","112","784561","0.0-2.0-4.0-1.29","5c3fd0d4c2d0b700017d02cd","A3","batch1","spm_respsonse","35069.60000002384","img/question_5_6.jpeg","4","mat_54","5","1","1","35069.60000002384","","","","","","","","","","","","","","","","","","","","",""
"","","","","","html-keyboard-response","113","785622","0.0-2.0-4.0-0.30","5c3fd0d4c2d0b700017d02cd","A3","batch1","spm_show_trial_num","null","<p class=block-text>Trial 55 out of 60</p>","null","","","","","","","","","","","","","","","","","","","","","","","","","",""
"","","","","","image-button-response","114","838642","0.0-2.0-4.0-1.30","5c3fd0d4c2d0b700017d02cd","A3","batch1","spm_respsonse","53018.799999952316","img/question_5_7.jpeg","0","mat_55","1","1","1","53018.799999952316","","","","","","","","","","","","","","","","","","","","",""
"","","","","","html-keyboard-response","115","839709","0.0-2.0-4.0-0.31","5c3fd0d4c2d0b700017d02cd","A3","batch1","spm_show_trial_num","null","<p class=block-text>Trial 56 out of 60</p>","null","","","","","","","","","","","","","","","","","","","","","","","","","",""
"","","","","","image-button-response","116","873558","0.0-2.0-4.0-1.31","5c3fd0d4c2d0b700017d02cd","A3","batch1","spm_respsonse","33847.299999952316","img/question_5_8.jpeg","5","mat_56","6","1","1","33847.299999952316","","","","","","","","","","","","","","","","","","","","",""
"","","","","","html-keyboard-response","117","874631","0.0-2.0-4.0-0.32","5c3fd0d4c2d0b700017d02cd","A3","batch1","spm_show_trial_num","null","<p class=block-text>Trial 57 out of 60</p>","null","","","","","","","","","","","","","","","","","","","","","","","","","",""
"","","","","","image-button-response","118","929072","0.0-2.0-4.0-1.32","5c3fd0d4c2d0b700017d02cd","A3","batch1","spm_respsonse","54439.60000002384","img/question_5_9.jpeg","2","mat_57","3","1","1","54439.60000002384","","","","","","","","","","","","","","","","","","","","",""
"","","","","","html-keyboard-response","119","930131","0.0-2.0-4.0-0.33","5c3fd0d4c2d0b700017d02cd","A3","batch1","spm_show_trial_num","null","<p class=block-text>Trial 58 out of 60</p>","null","","","","","","","","","","","","","","","","","","","","","","","","","",""
"","","","","","image-button-response","120","973283","0.0-2.0-4.0-1.33","5c3fd0d4c2d0b700017d02cd","A3","batch1","spm_respsonse","43150.89999997616","img/question_5_10.jpeg","1","mat_58","2","1","1","43150.89999997616","","","","","","","","","","","","","","","","","","","","",""
"","","","","","html-keyboard-response","121","974339","0.0-2.0-4.0-0.34","5c3fd0d4c2d0b700017d02cd","A3","batch1","spm_show_trial_num","null","<p class=block-text>Trial 59 out of 60</p>","null","","","","","","","","","","","","","","","","","","","","","","","","","",""
"","","","","","image-button-response","122","1038876","0.0-2.0-4.0-1.34","5c3fd0d4c2d0b700017d02cd","A3","batch1","spm_respsonse","64535.800000071526","img/question_5_11.jpeg","5","mat_59","4","0","0","64535.800000071526","","","","","","","","","","","","","","","","","","","","",""
"","","","","","html-keyboard-response","123","1039929","0.0-2.0-4.0-0.35","5c3fd0d4c2d0b700017d02cd","A3","batch1","spm_show_trial_num","null","<p class=block-text>Trial 60 out of 60</p>","null","","","","","","","","","","","","","","","","","","","","","","","","","",""
"","","","","","image-button-response","124","1102881","0.0-2.0-4.0-1.35","5c3fd0d4c2d0b700017d02cd","A3","batch1","spm_respsonse","62950.5","img/question_5_12.jpeg","1","mat_60","5","0","0","62950.5","","","","","","","","","","","","","","","","","","","","",""
"","","","","","html-button-response","125","1105579","0.0-2.0-5.0","5c3fd0d4c2d0b700017d02cd","A3","batch1","spm_goodbye","2447.5","<p class= block-text>This concludes the Standard Progressive Matrix game. Thank you for your responses!<br> When you are ready, click the button continue</p>","0","","","","","","","","","","","","","","","","","","","","","","","","","",""
"true","","","","","fullscreen","126","1107927","0.0-3.0-0.0","5c3fd0d4c2d0b700017d02cd","A3","batch1","","","","","","","","","","","","","","","","","","","","","","","","","","","","","",""
"","","","","","instructions","127","1158091","0.0-3.0-1.0-0.0-0.0","5c3fd0d4c2d0b700017d02cd","A3","batch1","tol-instructions","50163.799999952316","","","","","","","","[{""page_index"":0,""viewing_time"":8219.5},{""page_index"":1,""viewing_time"":9195.699999928474},{""page_index"":2,""viewing_time"":5139.5},{""page_index"":3,""viewing_time"":7240.900000095367},{""page_index"":4,""viewing_time"":5390.399999976158},{""page_index"":5,""viewing_time"":11988.299999952316},{""page_index"":6,""viewing_time"":2989.399999976158}]","","","","","","","","","","","","","","","","","","","",""
"","","","","","html-button-response","128","1158798","0.0-3.0-1.0-1.0-0.0","5c3fd0d4c2d0b700017d02cd","A3","batch1","tol_enter_quiz","706.8000000715256","<p class=block-text> Let's answer a few questions <br>","0","","","","","","","","","","","","","","","","","","","","","","","","","",""
"","","","","","html-button-response","129","1162404","0.0-3.0-1.0-1.0-1.0","5c3fd0d4c2d0b700017d02cd","A3","batch1","tol_quiz","3604.899999976158","<p class = block-text>True or False: You can only move the ball on top of a peg. <br></p>","0","","","true","","","","","","","","","","","","","","","","","","","","","","",""
"","","","","","html-button-response","130","1163104","0.0-3.0-1.0-1.0-2.0","5c3fd0d4c2d0b700017d02cd","A3","batch1","tol_quiz_feedback","699.2000000476837","<p class = block-text>Correct! You can only move the ball on top of a peg.</p>","0","","","","","","","","","","","","","","","","","","","","","","","","","",""
"","","","","","html-button-response","131","1165793","0.0-3.0-1.0-1.0-3.0","5c3fd0d4c2d0b700017d02cd","A3","batch1","tol_quiz","2688.7000000476837","<p class = block-text>True or False: You should try to match your board with the target board with fewest moves possible. <br></p>","0","","","true","","","","","","","","","","","","","","","","","","","","","","",""
"","","","","","html-button-response","132","1166277","0.0-3.0-1.0-1.0-4.0","5c3fd0d4c2d0b700017d02cd","A3","batch1","tol_quiz_feedback","483.40000009536743","<p class = block-text>Correct! </p>","0","","","","","","","","","","","","","","","","","","","","","","","","","",""
"","","","","","html-button-response","133","1167982","0.0-3.0-2.0","5c3fd0d4c2d0b700017d02cd","A3","batch1","","1703.2999999523163","<p class=block-text> Now that you've understood the game, let's practice a few easier examples before we start!<br> <br>","0","","","","","","","","","","","","","","","","","","","","","","","","","",""
"","","","","","single-stim-button","134","1169845","0.0-3.0-3.0-0.0","5c3fd0d4c2d0b700017d02cd","A3","batch1","tol_practice","1862","","","","","","","","","tol_peg_2","1862","1862","0","[[1,2,0],[0,0],[0]]","1","[[1,2,0],[0,0],[3]]","practice","1862","","","","","","","","","","",""
"","","","","","single-stim-button","135","1170504","0.0-3.0-3.0-1.0","5c3fd0d4c2d0b700017d02cd","A3","batch1","tol_practice","659","","","","","","","","","tol_peg_3","659","659","0","[[1,2,0],[0,0],[3]]","1","[[1,2,0],[0,0],[3]]","practice","659","","","","","","","","","","",""
"","","","","","poldrack-single-stim","136","1171510","0.0-3.0-4.0","5c3fd0d4c2d0b700017d02cd","A3","batch1","tol_feedback","-1","","","","","true","","","","","1000","1000","500","","","","","","-1","none","true","","0","","","","","",""
"","","","","","single-stim-button","137","1174273","0.0-3.0-5.0-0.0","5c3fd0d4c2d0b700017d02cd","A3","batch1","tol_practice","2763","","","","","","","","","tol_peg_1","2763","2763","0","[[1,0,0],[3,0],[0]]","2","[[0,0,0],[3,1],[2]]","practice","2763","","","","","","","","","","",""
"","","","","","single-stim-button","138","1175853","0.0-3.0-5.0-1.0","5c3fd0d4c2d0b700017d02cd","A3","batch1","tol_practice","1579","","","","","","","","","tol_peg_3","1579","1579","0","[[1,0,0],[3,0],[2]]","2","[[0,0,0],[3,1],[2]]","practice","1579","","","","","","","","","","",""
"","","","","","single-stim-button","139","1177242","0.0-3.0-5.1-0.1","5c3fd0d4c2d0b700017d02cd","A3","batch1","tol_practice","1389","","","","","","","","","tol_peg_1","1389","1389","0","[[0,0,0],[3,0],[2]]","3","[[0,0,0],[3,1],[2]]","practice","1389","","","","","","","","","","",""
"","","","","","single-stim-button","140","1177788","0.0-3.0-5.1-1.1","5c3fd0d4c2d0b700017d02cd","A3","batch1","tol_practice","546","","","","","","","","","tol_peg_2","546","546","0","[[0,0,0],[3,1],[2]]","3","[[0,0,0],[3,1],[2]]","practice","546","","","","","","","","","","",""
"","","","","","poldrack-single-stim","141","1178788","0.0-3.0-6.0","5c3fd0d4c2d0b700017d02cd","A3","batch1","tol_feedback","-1","","","","","true","","","","","1000","1000","500","","","","","","-1","none","true","","0","","","","","",""
"","","","","","single-stim-button","142","1182421","0.0-3.0-7.0-0.0","5c3fd0d4c2d0b700017d02cd","A3","batch1","tol_practice","3632","","","","","","","","","tol_peg_2","3632","3632","0","[[1,2,0],[0,0],[0]]","4","[[1,0,0],[2,0],[3]]","practice","3632","","","","","","","","","","",""
"","","","","","single-stim-button","143","1183021","0.0-3.0-7.0-1.0","5c3fd0d4c2d0b700017d02cd","A3","batch1","tol_practice","599","","","","","","","","","tol_peg_3","599","599","0","[[1,2,0],[0,0],[3]]","4","[[1,0,0],[2,0],[3]]","practice","599","","","","","","","","","","",""
"","","","","","single-stim-button","144","1183818","0.0-3.0-7.1-0.1","5c3fd0d4c2d0b700017d02cd","A3","batch1","tol_practice","796","","","","","","","","","tol_peg_1","796","796","0","[[1,0,0],[0,0],[3]]","5","[[1,0,0],[2,0],[3]]","practice","796","","","","","","","","","","",""
"","","","","","single-stim-button","145","1184349","0.0-3.0-7.1-1.1","5c3fd0d4c2d0b700017d02cd","A3","batch1","tol_practice","531","","","","","","","","","tol_peg_2","531","531","0","[[1,0,0],[2,0],[3]]","5","[[1,0,0],[2,0],[3]]","practice","531","","","","","","","","","","",""
"","","","","","poldrack-single-stim","146","1185357","0.0-3.0-8.0","5c3fd0d4c2d0b700017d02cd","A3","batch1","tol_feedback","-1","","","","","true","","","","","1000","1000","500","","","","","","-1","none","true","","0","","","","","",""
"","","","","","html-button-response","147","1187865","0.0-3.0-9.0","5c3fd0d4c2d0b700017d02cd","A3","batch1","tol_instruction","2508","<div class = centerbox><p class = center-block-text>Great job! You are done with practice trials<br>You are about to start official trials.<br> <br> Problem <strong>1</strong> out of 25 problems</p></div>","0","","","","","","","","","","","","","","","","","","","","","","","","","",""
"","","","","","single-stim-button","148","1196389","0.0-3.0-10.0-0.0","5c3fd0d4c2d0b700017d02cd","A3","batch1","tol_tohand","7523","","","","","","","","","tol_peg_2","7523","7523","0","[[1,2,0],[0,0],[0]]","1","[[1,3,0],[2,0],[0]]","0","0","","","","","","3","","","","",""
"","","","","","single-stim-button","149","1196996","0.0-3.0-10.0-1.0","5c3fd0d4c2d0b700017d02cd","A3","batch1","tol_toboard","607","","","","","","","","","tol_peg_3","607","607","0","[[1,2,0],[0,0],[3]]","1","[[1,3,0],[2,0],[0]]","0","0","","","","","","3","","","","",""
"","","","","","single-stim-button","150","1197596","0.0-3.0-10.1-0.1","5c3fd0d4c2d0b700017d02cd","A3","batch1","tol_tohand","600","","","","","","","","","tol_peg_1","600","600","0","[[1,0,0],[0,0],[3]]","2","[[1,3,0],[2,0],[0]]","0","0","","","","","","3","","","","",""
"","","","","","single-stim-button","151","1198141","0.0-3.0-10.1-1.1","5c3fd0d4c2d0b700017d02cd","A3","batch1","tol_toboard","545","","","","","","","","","tol_peg_2","545","545","0","[[1,0,0],[2,0],[3]]","2","[[1,3,0],[2,0],[0]]","0","0","","","","","","3","","","","",""
"","","","","","single-stim-button","152","1198671","0.0-3.0-10.2-0.2","5c3fd0d4c2d0b700017d02cd","A3","batch1","tol_tohand","530","","","","","","","","","tol_peg_3","530","530","0","[[1,0,0],[2,0],[0]]","3","[[1,3,0],[2,0],[0]]","0","0","","","","","","3","","","","",""
"","","","","","single-stim-button","153","1199320","0.0-3.0-10.2-1.2","5c3fd0d4c2d0b700017d02cd","A3","batch1","tol_toboard","649","","","","","","","","","tol_peg_1","649","649","0","[[1,3,0],[2,0],[0]]","3","[[1,3,0],[2,0],[0]]","0","0","","","","","","3","","","","",""
"","","","","","poldrack-single-stim","154","1200335","0.0-3.0-11.0","5c3fd0d4c2d0b700017d02cd","A3","batch1","tol_feedback","-1","","","","","true","","","","","1000","1000","500","","","","","","-1","none","true","7523","8653","","","","","",""
"","","","","","html-button-response","155","1201476","0.0-3.0-12.0","5c3fd0d4c2d0b700017d02cd","A3","batch1","tol_trial_num","1140.1000000238419","<div class = centerbox><p class = center-block-text>problem <strong>2</strong> out of 25 problems</p></div>","0","","","","","","","","","","","","","","","","","","","","","","","","","",""
"","","","","","single-stim-button","156","1211894","0.0-3.0-13.0-0.0","5c3fd0d4c2d0b700017d02cd","A3","batch1","tol_tohand","10418","","","","","","","","","tol_peg_1","10418","10418","0","[[1,0,0],[3,0],[0]]","1","[[2,1,3],[0,0],[0]]","1","0","","","","","","5","","","","",""
"","","","","","single-stim-button","157","1212545","0.0-3.0-13.0-1.0","5c3fd0d4c2d0b700017d02cd","A3","batch1","tol_toboard","650","","","","","","","","","tol_peg_3","650","650","0","[[1,0,0],[3,0],[2]]","1","[[2,1,3],[0,0],[0]]","1","0","","","","","","5","","","","",""
"","","","","","single-stim-button","158","1213152","0.0-3.0-13.1-0.1","5c3fd0d4c2d0b700017d02cd","A3","batch1","tol_tohand","606","","","","","","","","","tol_peg_1","606","606","0","[[0,0,0],[3,0],[2]]","2","[[2,1,3],[0,0],[0]]","1","0","","","","","","5","","","","",""
"","","","","","single-stim-button","159","1213658","0.0-3.0-13.1-1.1","5c3fd0d4c2d0b700017d02cd","A3","batch1","tol_toboard","505","","","","","","","","","tol_peg_2","505","505","0","[[0,0,0],[3,1],[2]]","2","[[2,1,3],[0,0],[0]]","1","0","","","","","","5","","","","",""
"","","","","","single-stim-button","160","1214488","0.0-3.0-13.2-0.2","5c3fd0d4c2d0b700017d02cd","A3","batch1","tol_tohand","830","","","","","","","","","tol_peg_3","830","830","0","[[0,0,0],[3,1],[0]]","3","[[2,1,3],[0,0],[0]]","1","0","","","","","","5","","","","",""
"","","","","","single-stim-button","161","1215097","0.0-3.0-13.2-1.2","5c3fd0d4c2d0b700017d02cd","A3","batch1","tol_toboard","609","","","","","","","","","tol_peg_1","609","609","0","[[2,0,0],[3,1],[0]]","3","[[2,1,3],[0,0],[0]]","1","0","","","","","","5","","","","",""
"","","","","","single-stim-button","162","1215591","0.0-3.0-13.3-0.3","5c3fd0d4c2d0b700017d02cd","A3","batch1","tol_tohand","494","","","","","","","","","tol_peg_2","494","494","0","[[2,0,0],[3,0],[0]]","4","[[2,1,3],[0,0],[0]]","1","0","","","","","","5","","","","",""
"","","","","","single-stim-button","163","1215992","0.0-3.0-13.3-1.3","5c3fd0d4c2d0b700017d02cd","A3","batch1","tol_toboard","401","","","","","","","","","tol_peg_1","401","401","0","[[2,1,0],[3,0],[0]]","4","[[2,1,3],[0,0],[0]]","1","0","","","","","","5","","","","",""
"","","","","","single-stim-button","164","1216448","0.0-3.0-13.4-0.4","5c3fd0d4c2d0b700017d02cd","A3","batch1","tol_tohand","456","","","","","","","","","tol_peg_2","456","456","0","[[2,1,0],[0,0],[0]]","5","[[2,1,3],[0,0],[0]]","1","0","","","","","","5","","","","",""
"","","","","","single-stim-button","165","1216887","0.0-3.0-13.4-1.4","5c3fd0d4c2d0b700017d02cd","A3","batch1","tol_toboard","438","","","","","","","","","tol_peg_1","438","438","0","[[2,1,3],[0,0],[0]]","5","[[2,1,3],[0,0],[0]]","1","0","","","","","","5","","","","",""
"","","","","","poldrack-single-stim","166","1217888","0.0-3.0-14.0","5c3fd0d4c2d0b700017d02cd","A3","batch1","tol_feedback","-1","","","","","true","","","","","1000","1000","500","","","","","","-1","none","true","10418","12804","","","","","",""
"","","","","","html-button-response","167","1218724","0.0-3.0-15.0","5c3fd0d4c2d0b700017d02cd","A3","batch1","tol_trial_num","835.7000000476837","<div class = centerbox><p class = center-block-text>problem <strong>3</strong> out of 25 problems</p></div>","0","","","","","","","","","","","","","","","","","","","","","","","","","",""
"","","","","","single-stim-button","168","1225610","0.0-3.0-16.0-0.0","5c3fd0d4c2d0b700017d02cd","A3","batch1","tol_tohand","6885","","","","","","","","","tol_peg_1","6885","6885","0","[[2,0,0],[0,0],[1]]","1","[[1,2,0],[3,0],[0]]","2","0","","","","","","4","","","","",""
"","","","","","single-stim-button","169","1226291","0.0-3.0-16.0-1.0","5c3fd0d4c2d0b700017d02cd","A3","batch1","tol_toboard","680","","","","","","","","","tol_peg_2","680","680","0","[[2,0,0],[3,0],[1]]","1","[[1,2,0],[3,0],[0]]","2","0","","","","","","4","","","","",""
"","","","","","single-stim-button","170","1227235","0.0-3.0-16.1-0.1","5c3fd0d4c2d0b700017d02cd","A3","batch1","tol_tohand","942","","","","","","","","","tol_peg_3","942","942","0","[[2,0,0],[3,0],[0]]","2","[[1,2,0],[3,0],[0]]","2","0","","","","","","4","","","","",""
"","","","","","single-stim-button","171","1229527","0.0-3.0-16.1-1.1","5c3fd0d4c2d0b700017d02cd","A3","batch1","tol_toboard","2292","","","","","","","","","tol_peg_2","2292","2292","0","[[2,0,0],[3,1],[0]]","2","[[1,2,0],[3,0],[0]]","2","0","","","","","","4","","","","",""
"","","","","","single-stim-button","172","1230352","0.0-3.0-16.2-0.2","5c3fd0d4c2d0b700017d02cd","A3","batch1","tol_tohand","825","","","","","","","","","tol_peg_1","825","825","0","[[0,0,0],[3,1],[0]]","3","[[1,2,0],[3,0],[0]]","2","0","","","","","","4","","","","",""
"","","","","","single-stim-button","173","1231607","0.0-3.0-16.2-1.2","5c3fd0d4c2d0b700017d02cd","A3","batch1","tol_toboard","1255","","","","","","","","","tol_peg_3","1255","1255","0","[[0,0,0],[3,1],[2]]","3","[[1,2,0],[3,0],[0]]","2","0","","","","","","4","","","","",""
"","","","","","single-stim-button","174","1232081","0.0-3.0-16.3-0.3","5c3fd0d4c2d0b700017d02cd","A3","batch1","tol_tohand","474","","","","","","","","","tol_peg_2","474","474","0","[[0,0,0],[3,0],[2]]","4","[[1,2,0],[3,0],[0]]","2","0","","","","","","4","","","","",""
"","","","","","single-stim-button","175","1232579","0.0-3.0-16.3-1.3","5c3fd0d4c2d0b700017d02cd","A3","batch1","tol_toboard","498","","","","","","","","","tol_peg_1","498","498","0","[[1,0,0],[3,0],[2]]","4","[[1,2,0],[3,0],[0]]","2","0","","","","","","4","","","","",""
"","","","","","single-stim-button","176","1233079","0.0-3.0-16.4-0.4","5c3fd0d4c2d0b700017d02cd","A3","batch1","tol_tohand","500","","","","","","","","","tol_peg_3","500","500","0","[[1,0,0],[3,0],[0]]","5","[[1,2,0],[3,0],[0]]","2","0","","","","","","4","","","","",""
"","","","","","single-stim-button","177","1233547","0.0-3.0-16.4-1.4","5c3fd0d4c2d0b700017d02cd","A3","batch1","tol_toboard","468","","","","","","","","","tol_peg_1","468","468","0","[[1,2,0],[3,0],[0]]","5","[[1,2,0],[3,0],[0]]","2","0","","","","","","4","","","","",""
"","","","","","poldrack-single-stim","178","1234548","0.0-3.0-17.0","5c3fd0d4c2d0b700017d02cd","A3","batch1","tol_feedback","-1","","","","","true","","","","","1000","1000","500","","","","","","-1","none","true","6885","9626","","","","","",""
"","","","","","html-button-response","179","1235267","0.0-3.0-18.0","5c3fd0d4c2d0b700017d02cd","A3","batch1","tol_trial_num","718.6000000238419","<div class = centerbox><p class = center-block-text>problem <strong>4</strong> out of 25 problems</p></div>","0","","","","","","","","","","","","","","","","","","","","","","","","","",""
"","","","","","single-stim-button","180","1241299","0.0-3.0-19.0-0.0","5c3fd0d4c2d0b700017d02cd","A3","batch1","tol_tohand","6031","","","","","","","","","tol_peg_2","6031","6031","0","[[3,0,0],[2,0],[0]]","1","[[3,0,0],[1,0],[2]]","3","0","","","","","","3","","","","",""
"","","","","","single-stim-button","181","1241698","0.0-3.0-19.0-1.0","5c3fd0d4c2d0b700017d02cd","A3","batch1","tol_toboard","399","","","","","","","","","tol_peg_1","399","399","0","[[3,1,0],[2,0],[0]]","1","[[3,0,0],[1,0],[2]]","3","0","","","","","","3","","","","",""
"","","","","","single-stim-button","182","1242147","0.0-3.0-19.1-0.1","5c3fd0d4c2d0b700017d02cd","A3","batch1","tol_tohand","449","","","","","","","","","tol_peg_2","449","449","0","[[3,1,0],[0,0],[0]]","2","[[3,0,0],[1,0],[2]]","3","0","","","","","","3","","","","",""
"","","","","","single-stim-button","183","1242605","0.0-3.0-19.1-1.1","5c3fd0d4c2d0b700017d02cd","A3","batch1","tol_toboard","457","","","","","","","","","tol_peg_3","457","457","0","[[3,1,0],[0,0],[2]]","2","[[3,0,0],[1,0],[2]]","3","0","","","","","","3","","","","",""
"","","","","","single-stim-button","184","1243102","0.0-3.0-19.2-0.2","5c3fd0d4c2d0b700017d02cd","A3","batch1","tol_tohand","497","","","","","","","","","tol_peg_1","497","497","0","[[3,0,0],[0,0],[2]]","3","[[3,0,0],[1,0],[2]]","3","0","","","","","","3","","","","",""
"","","","","","single-stim-button","185","1243520","0.0-3.0-19.2-1.2","5c3fd0d4c2d0b700017d02cd","A3","batch1","tol_toboard","417","","","","","","","","","tol_peg_2","417","417","0","[[3,0,0],[1,0],[2]]","3","[[3,0,0],[1,0],[2]]","3","0","","","","","","3","","","","",""
"","","","","","poldrack-single-stim","186","1244521","0.0-3.0-20.0","5c3fd0d4c2d0b700017d02cd","A3","batch1","tol_feedback","-1","","","","","true","","","","","1000","1000","500","","","","","","-1","none","true","6031","6977","","","","","",""
"","","","","","html-button-response","187","1245343","0.0-3.0-21.0","5c3fd0d4c2d0b700017d02cd","A3","batch1","tol_trial_num","822.1000000238419","<div class = centerbox><p class = center-block-text>problem <strong>5</strong> out of 25 problems</p></div>","0","","","","","","","","","","","","","","","","","","","","","","","","","",""
"","","","","","single-stim-button","188","1285259","0.0-3.0-22.0-0.0","5c3fd0d4c2d0b700017d02cd","A3","batch1","tol_tohand","39915","","","","","","","","","tol_peg_1","39915","39915","0","[[0,0,0],[2,0],[3]]","1","[[0,0,0],[1,2],[3]]","4","0","","","","","","7","","","","",""
"","","","","","single-stim-button","189","1285886","0.0-3.0-22.0-1.0","5c3fd0d4c2d0b700017d02cd","A3","batch1","tol_toboard","626","","","","","","","","","tol_peg_2","626","626","0","[[0,0,0],[2,1],[3]]","1","[[0,0,0],[1,2],[3]]","4","0","","","","","","7","","","","",""
"","","","","","single-stim-button","190","1286421","0.0-3.0-22.1-0.1","5c3fd0d4c2d0b700017d02cd","A3","batch1","tol_tohand","534","","","","","","","","","tol_peg_3","534","534","0","[[0,0,0],[2,1],[0]]","2","[[0,0,0],[1,2],[3]]","4","0","","","","","","7","","","","",""
"","","","","","single-stim-button","191","1287045","0.0-3.0-22.1-1.1","5c3fd0d4c2d0b700017d02cd","A3","batch1","tol_toboard","622","","","","","","","","","tol_peg_1","622","622","0","[[3,0,0],[2,1],[0]]","2","[[0,0,0],[1,2],[3]]","4","0","","","","","","7","","","","",""
"","","","","","single-stim-button","192","1293546","0.0-3.0-22.2-0.2","5c3fd0d4c2d0b700017d02cd","A3","batch1","tol_tohand","6501","","","","","","","","","tol_peg_2","6501","6501","0","[[3,0,0],[2,0],[0]]","3","[[0,0,0],[1,2],[3]]","4","0","","","","","","7","","","","",""
"","","","","","single-stim-button","193","1294124","0.0-3.0-22.2-1.2","5c3fd0d4c2d0b700017d02cd","A3","batch1","tol_toboard","577","","","","","","","","","tol_peg_3","577","577","0","[[3,0,0],[2,0],[1]]","3","[[0,0,0],[1,2],[3]]","4","0","","","","","","7","","","","",""
"","","","","","single-stim-button","194","1295030","0.0-3.0-22.3-0.3","5c3fd0d4c2d0b700017d02cd","A3","batch1","tol_tohand","906","","","","","","","","","tol_peg_2","906","906","0","[[3,0,0],[0,0],[1]]","4","[[0,0,0],[1,2],[3]]","4","0","","","","","","7","","","","",""
"","","","","","single-stim-button","195","1295454","0.0-3.0-22.3-1.3","5c3fd0d4c2d0b700017d02cd","A3","batch1","tol_toboard","423","","","","","","","","","tol_peg_1","423","423","0","[[3,2,0],[0,0],[1]]","4","[[0,0,0],[1,2],[3]]","4","0","","","","","","7","","","","",""
"","","","","","single-stim-button","196","1296055","0.0-3.0-22.4-0.4","5c3fd0d4c2d0b700017d02cd","A3","batch1","tol_tohand","600","","","","","","","","","tol_peg_3","600","600","0","[[3,2,0],[0,0],[0]]","5","[[0,0,0],[1,2],[3]]","4","0","","","","","","7","","","","",""
"","","","","","single-stim-button","197","1296502","0.0-3.0-22.4-1.4","5c3fd0d4c2d0b700017d02cd","A3","batch1","tol_toboard","445","","","","","","","","","tol_peg_2","445","445","0","[[3,2,0],[1,0],[0]]","5","[[0,0,0],[1,2],[3]]","4","0","","","","","","7","","","","",""
"","","","","","single-stim-button","198","1296952","0.0-3.0-22.5-0.5","5c3fd0d4c2d0b700017d02cd","A3","batch1","tol_tohand","449","","","","","","","","","tol_peg_1","449","449","0","[[3,0,0],[1,0],[0]]","6","[[0,0,0],[1,2],[3]]","4","0","","","","","","7","","","","",""
"","","","","","single-stim-button","199","1297448","0.0-3.0-22.5-1.5","5c3fd0d4c2d0b700017d02cd","A3","batch1","tol_toboard","495","","","","","","","","","tol_peg_2","495","495","0","[[3,0,0],[1,2],[0]]","6","[[0,0,0],[1,2],[3]]","4","0","","","","","","7","","","","",""
"","","","","","single-stim-button","200","1297845","0.0-3.0-22.6-0.6","5c3fd0d4c2d0b700017d02cd","A3","batch1","tol_tohand","396","","","","","","","","","tol_peg_1","396","396","0","[[0,0,0],[1,2],[0]]","7","[[0,0,0],[1,2],[3]]","4","0","","","","","","7","","","","",""
"","","","","","single-stim-button","201","1298317","0.0-3.0-22.6-1.6","5c3fd0d4c2d0b700017d02cd","A3","batch1","tol_toboard","472","","","","","","","","","tol_peg_3","472","472","0","[[0,0,0],[1,2],[3]]","7","[[0,0,0],[1,2],[3]]","4","0","","","","","","7","","","","",""
"","","","","","poldrack-single-stim","202","1299317","0.0-3.0-23.0","5c3fd0d4c2d0b700017d02cd","A3","batch1","tol_feedback","-1","","","","","true","","","","","1000","1000","500","","","","","","-1","none","true","39915","49301","","","","","",""
"","","","","","html-button-response","203","1299977","0.0-3.0-24.0","5c3fd0d4c2d0b700017d02cd","A3","batch1","tol_trial_num","659.2000000476837","<div class = centerbox><p class = center-block-text>problem <strong>6</strong> out of 25 problems</p></div>","0","","","","","","","","","","","","","","","","","","","","","","","","","",""
"","","","","","single-stim-button","204","1314005","0.0-3.0-25.0-0.0","5c3fd0d4c2d0b700017d02cd","A3","batch1","tol_tohand","14027","","","","","","","","","tol_peg_3","14027","14027","0","[[0,0,0],[1,2],[0]]","1","[[1,0,0],[2,3],[0]]","5","0","","","","","","6","","","","",""
"","","","","","single-stim-button","205","1314476","0.0-3.0-25.0-1.0","5c3fd0d4c2d0b700017d02cd","A3","batch1","tol_toboard","471","","","","","","","","","tol_peg_1","471","471","0","[[3,0,0],[1,2],[0]]","1","[[1,0,0],[2,3],[0]]","5","0","","","","","","6","","","","",""
"","","","","","single-stim-button","206","1317653","0.0-3.0-25.1-0.1","5c3fd0d4c2d0b700017d02cd","A3","batch1","tol_tohand","3176","","","","","","","","","tol_peg_2","3176","3176","0","[[3,0,0],[1,0],[0]]","2","[[1,0,0],[2,3],[0]]","5","0","","","","","","6","","","","",""
"","","","","","single-stim-button","207","1318188","0.0-3.0-25.1-1.1","5c3fd0d4c2d0b700017d02cd","A3","batch1","tol_toboard","535","","","","","","","","","tol_peg_3","535","535","0","[[3,0,0],[1,0],[2]]","2","[[1,0,0],[2,3],[0]]","5","0","","","","","","6","","","","",""
"","","","","","single-stim-button","208","1318605","0.0-3.0-25.2-0.2","5c3fd0d4c2d0b700017d02cd","A3","batch1","tol_tohand","417","","","","","","","","","tol_peg_2","417","417","0","[[3,0,0],[0,0],[2]]","3","[[1,0,0],[2,3],[0]]","5","0","","","","","","6","","","","",""
"","","","","","single-stim-button","209","1319066","0.0-3.0-25.2-1.2","5c3fd0d4c2d0b700017d02cd","A3","batch1","tol_toboard","461","","","","","","","","","tol_peg_1","461","461","0","[[3,1,0],[0,0],[2]]","3","[[1,0,0],[2,3],[0]]","5","0","","","","","","6","","","","",""
"","","","","","single-stim-button","210","1319570","0.0-3.0-25.3-0.3","5c3fd0d4c2d0b700017d02cd","A3","batch1","tol_tohand","504","","","","","","","","","tol_peg_3","504","504","0","[[3,1,0],[0,0],[0]]","4","[[1,0,0],[2,3],[0]]","5","0","","","","","","6","","","","",""
"","","","","","single-stim-button","211","1320065","0.0-3.0-25.3-1.3","5c3fd0d4c2d0b700017d02cd","A3","batch1","tol_toboard","495","","","","","","","","","tol_peg_2","495","495","0","[[3,1,0],[2,0],[0]]","4","[[1,0,0],[2,3],[0]]","5","0","","","","","","6","","","","",""
"","","","","","single-stim-button","212","1321005","0.0-3.0-25.4-0.4","5c3fd0d4c2d0b700017d02cd","A3","batch1","tol_tohand","940","","","","","","","","","tol_peg_1","940","940","0","[[3,0,0],[2,0],[0]]","5","[[1,0,0],[2,3],[0]]","5","0","","","","","","6","","","","",""
"","","","","","single-stim-button","213","1321631","0.0-3.0-25.4-1.4","5c3fd0d4c2d0b700017d02cd","A3","batch1","tol_toboard","625","","","","","","","","","tol_peg_3","625","625","0","[[3,0,0],[2,0],[1]]","5","[[1,0,0],[2,3],[0]]","5","0","","","","","","6","","","","",""
"","","","","","single-stim-button","214","1322141","0.0-3.0-25.5-0.5","5c3fd0d4c2d0b700017d02cd","A3","batch1","tol_tohand","509","","","","","","","","","tol_peg_1","509","509","0","[[0,0,0],[2,0],[1]]","6","[[1,0,0],[2,3],[0]]","5","0","","","","","","6","","","","",""
"","","","","","single-stim-button","215","1322587","0.0-3.0-25.5-1.5","5c3fd0d4c2d0b700017d02cd","A3","batch1","tol_toboard","445","","","","","","","","","tol_peg_2","445","445","0","[[0,0,0],[2,3],[1]]","6","[[1,0,0],[2,3],[0]]","5","0","","","","","","6","","","","",""
"","","","","","single-stim-button","216","1323000","0.0-3.0-25.6-0.6","5c3fd0d4c2d0b700017d02cd","A3","batch1","tol_tohand","412","","","","","","","","","tol_peg_3","412","412","0","[[0,0,0],[2,3],[0]]","7","[[1,0,0],[2,3],[0]]","5","0","","","","","","6","","","","",""
"","","","","","single-stim-button","217","1323469","0.0-3.0-25.6-1.6","5c3fd0d4c2d0b700017d02cd","A3","batch1","tol_toboard","468","","","","","","","","","tol_peg_1","468","468","0","[[1,0,0],[2,3],[0]]","7","[[1,0,0],[2,3],[0]]","5","0","","","","","","6","","","","",""
"","","","","","poldrack-single-stim","218","1324470","0.0-3.0-26.0","5c3fd0d4c2d0b700017d02cd","A3","batch1","tol_feedback","-1","","","","","true","","","","","1000","1000","500","","","","","","-1","none","true","14027","19985","","","","","",""
"","","","","","html-button-response","219","1325224","0.0-3.0-27.0","5c3fd0d4c2d0b700017d02cd","A3","batch1","tol_trial_num","753.3999999761581","<div class = centerbox><p class = center-block-text>problem <strong>7</strong> out of 25 problems</p></div>","0","","","","","","","","","","","","","","","","","","","","","","","","","",""
"","","","","","single-stim-button","220","1333359","0.0-3.0-28.0-0.0","5c3fd0d4c2d0b700017d02cd","A3","batch1","tol_tohand","8135","","","","","","","","","tol_peg_3","8135","8135","0","[[2,1,0],[0,0],[0]]","1","[[1,2,0],[3,0],[0]]","6","0","","","","","","5","","","","",""
"","","","","","single-stim-button","221","1333837","0.0-3.0-28.0-1.0","5c3fd0d4c2d0b700017d02cd","A3","batch1","tol_toboard","477","","","","","","","","","tol_peg_2","477","477","0","[[2,1,0],[3,0],[0]]","1","[[1,2,0],[3,0],[0]]","6","0","","","","","","5","","","","",""
"","","","","","single-stim-button","222","1335327","0.0-3.0-28.1-0.1","5c3fd0d4c2d0b700017d02cd","A3","batch1","tol_tohand","1490","","","","","","","","","tol_peg_1","1490","1490","0","[[2,0,0],[3,0],[0]]","2","[[1,2,0],[3,0],[0]]","6","0","","","","","","5","","","","",""
"","","","","","single-stim-button","223","1335884","0.0-3.0-28.1-1.1","5c3fd0d4c2d0b700017d02cd","A3","batch1","tol_toboard","557","","","","","","","","","tol_peg_3","557","557","0","[[2,0,0],[3,0],[1]]","2","[[1,2,0],[3,0],[0]]","6","0","","","","","","5","","","","",""
"","","","","","single-stim-button","224","1336425","0.0-3.0-28.2-0.2","5c3fd0d4c2d0b700017d02cd","A3","batch1","tol_tohand","541","","","","","","","","","tol_peg_1","541","541","0","[[0,0,0],[3,0],[1]]","3","[[1,2,0],[3,0],[0]]","6","0","","","","","","5","","","","",""
"","","","","","single-stim-button","225","1336821","0.0-3.0-28.2-1.2","5c3fd0d4c2d0b700017d02cd","A3","batch1","tol_toboard","396","","","","","","","","","tol_peg_2","396","396","0","[[0,0,0],[3,2],[1]]","3","[[1,2,0],[3,0],[0]]","6","0","","","","","","5","","","","",""
"","","","","","single-stim-button","226","1337239","0.0-3.0-28.3-0.3","5c3fd0d4c2d0b700017d02cd","A3","batch1","tol_tohand","418","","","","","","","","","tol_peg_3","418","418","0","[[0,0,0],[3,2],[0]]","4","[[1,2,0],[3,0],[0]]","6","0","","","","","","5","","","","",""
"","","","","","single-stim-button","227","1337725","0.0-3.0-28.3-1.3","5c3fd0d4c2d0b700017d02cd","A3","batch1","tol_toboard","486","","","","","","","","","tol_peg_1","486","486","0","[[1,0,0],[3,2],[0]]","4","[[1,2,0],[3,0],[0]]","6","0","","","","","","5","","","","",""
"","","","","","single-stim-button","228","1338095","0.0-3.0-28.4-0.4","5c3fd0d4c2d0b700017d02cd","A3","batch1","tol_tohand","370","","","","","","","","","tol_peg_2","370","370","0","[[1,0,0],[3,0],[0]]","5","[[1,2,0],[3,0],[0]]","6","0","","","","","","5","","","","",""
"","","","","","single-stim-button","229","1338457","0.0-3.0-28.4-1.4","5c3fd0d4c2d0b700017d02cd","A3","batch1","tol_toboard","362","","","","","","","","","tol_peg_1","362","362","0","[[1,2,0],[3,0],[0]]","5","[[1,2,0],[3,0],[0]]","6","0","","","","","","5","","","","",""
"","","","","","poldrack-single-stim","230","1339458","0.0-3.0-29.0","5c3fd0d4c2d0b700017d02cd","A3","batch1","tol_feedback","-1","","","","","true","","","","","1000","1000","500","","","","","","-1","none","true","8135","10954","","","","","",""
"","","","","","html-button-response","231","1340377","0.0-3.0-30.0","5c3fd0d4c2d0b700017d02cd","A3","batch1","tol_trial_num","918.7999999523163","<div class = centerbox><p class = center-block-text>problem <strong>8</strong> out of 25 problems</p></div>","0","","","","","","","","","","","","","","","","","","","","","","","","","",""
"","","","","","single-stim-button","232","1345975","0.0-3.0-31.0-0.0","5c3fd0d4c2d0b700017d02cd","A3","batch1","tol_tohand","5597","","","","","","","","","tol_peg_3","5597","5597","0","[[0,0,0],[2,3],[0]]","1","[[1,2,0],[3,0],[0]]","7","0","","","","","","4","","","","",""
"","","","","","single-stim-button","233","1346635","0.0-3.0-31.0-1.0","5c3fd0d4c2d0b700017d02cd","A3","batch1","tol_toboard","660","","","","","","","","","tol_peg_1","660","660","0","[[1,0,0],[2,3],[0]]","1","[[1,2,0],[3,0],[0]]","7","0","","","","","","4","","","","",""
"","","","","","single-stim-button","234","1347269","0.0-3.0-31.1-0.1","5c3fd0d4c2d0b700017d02cd","A3","batch1","tol_tohand","634","","","","","","","","","tol_peg_2","634","634","0","[[1,0,0],[2,0],[0]]","2","[[1,2,0],[3,0],[0]]","7","0","","","","","","4","","","","",""
"","","","","","single-stim-button","235","1347770","0.0-3.0-31.1-1.1","5c3fd0d4c2d0b700017d02cd","A3","batch1","tol_toboard","501","","","","","","","","","tol_peg_3","501","501","0","[[1,0,0],[2,0],[3]]","2","[[1,2,0],[3,0],[0]]","7","0","","","","","","4","","","","",""
"","","","","","single-stim-button","236","1348186","0.0-3.0-31.2-0.2","5c3fd0d4c2d0b700017d02cd","A3","batch1","tol_tohand","415","","","","","","","","","tol_peg_2","415","415","0","[[1,0,0],[0,0],[3]]","3","[[1,2,0],[3,0],[0]]","7","0","","","","","","4","","","","",""
"","","","","","single-stim-button","237","1348591","0.0-3.0-31.2-1.2","5c3fd0d4c2d0b700017d02cd","A3","batch1","tol_toboard","405","","","","","","","","","tol_peg_1","405","405","0","[[1,2,0],[0,0],[3]]","3","[[1,2,0],[3,0],[0]]","7","0","","","","","","4","","","","",""
"","","","","","single-stim-button","238","1351104","0.0-3.0-31.3-0.3","5c3fd0d4c2d0b700017d02cd","A3","batch1","tol_tohand","2513","","","","","","","","","tol_peg_3","2513","2513","0","[[1,2,0],[0,0],[0]]","4","[[1,2,0],[3,0],[0]]","7","0","","","","","","4","","","","",""
"","","","","","single-stim-button","239","1351351","0.0-3.0-31.3-1.3","5c3fd0d4c2d0b700017d02cd","A3","batch1","tol_toboard","245","","","","","","","","","tol_peg_2","245","245","0","[[1,2,0],[3,0],[0]]","4","[[1,2,0],[3,0],[0]]","7","0","","","","","","4","","","","",""
"","","","","","poldrack-single-stim","240","1352352","0.0-3.0-32.0","5c3fd0d4c2d0b700017d02cd","A3","batch1","tol_feedback","-1","","","","","true","","","","","1000","1000","500","","","","","","-1","none","true","5597","9159","","","","","",""
"","","","","","html-button-response","241","1353016","0.0-3.0-33.0","5c3fd0d4c2d0b700017d02cd","A3","batch1","tol_trial_num","663.3999999761581","<div class = centerbox><p class = center-block-text>problem <strong>9</strong> out of 25 problems</p></div>","0","","","","","","","","","","","","","","","","","","","","","","","","","",""
"","","","","","single-stim-button","242","1370638","0.0-3.0-34.0-0.0","5c3fd0d4c2d0b700017d02cd","A3","batch1","tol_tohand","17622","","","","","","","","","tol_peg_3","17622","17622","0","[[3,2,0],[0,0],[0]]","1","[[2,1,0],[3,0],[0]]","8","0","","","","","","6","","","","",""
"","","","","","single-stim-button","243","1371166","0.0-3.0-34.0-1.0","5c3fd0d4c2d0b700017d02cd","A3","batch1","tol_toboard","528","","","","","","","","","tol_peg_2","528","528","0","[[3,2,0],[1,0],[0]]","1","[[2,1,0],[3,0],[0]]","8","0","","","","","","6","","","","",""
"","","","","","single-stim-button","244","1373724","0.0-3.0-34.1-0.1","5c3fd0d4c2d0b700017d02cd","A3","batch1","tol_tohand","2558","","","","","","","","","tol_peg_1","2558","2558","0","[[3,0,0],[1,0],[0]]","2","[[2,1,0],[3,0],[0]]","8","0","","","","","","6","","","","",""
"","","","","","single-stim-button","245","1374916","0.0-3.0-34.1-1.1","5c3fd0d4c2d0b700017d02cd","A3","batch1","tol_toboard","1192","","","","","","","","","tol_peg_2","1192","1192","0","[[3,0,0],[1,2],[0]]","2","[[2,1,0],[3,0],[0]]","8","0","","","","","","6","","","","",""
"","","","","","single-stim-button","246","1375313","0.0-3.0-34.2-0.2","5c3fd0d4c2d0b700017d02cd","A3","batch1","tol_tohand","397","","","","","","","","","tol_peg_1","397","397","0","[[0,0,0],[1,2],[0]]","3","[[2,1,0],[3,0],[0]]","8","0","","","","","","6","","","","",""
"","","","","","single-stim-button","247","1375828","0.0-3.0-34.2-1.2","5c3fd0d4c2d0b700017d02cd","A3","batch1","tol_toboard","515","","","","","","","","","tol_peg_3","515","515","0","[[0,0,0],[1,2],[3]]","3","[[2,1,0],[3,0],[0]]","8","0","","","","","","6","","","","",""
"","","","","","single-stim-button","248","1376253","0.0-3.0-34.3-0.3","5c3fd0d4c2d0b700017d02cd","A3","batch1","tol_tohand","425","","","","","","","","","tol_peg_2","425","425","0","[[0,0,0],[1,0],[3]]","4","[[2,1,0],[3,0],[0]]","8","0","","","","","","6","","","","",""
"","","","","","single-stim-button","249","1376647","0.0-3.0-34.3-1.3","5c3fd0d4c2d0b700017d02cd","A3","batch1","tol_toboard","394","","","","","","","","","tol_peg_1","394","394","0","[[2,0,0],[1,0],[3]]","4","[[2,1,0],[3,0],[0]]","8","0","","","","","","6","","","","",""
"","","","","","single-stim-button","250","1377055","0.0-3.0-34.4-0.4","5c3fd0d4c2d0b700017d02cd","A3","batch1","tol_tohand","406","","","","","","","","","tol_peg_2","406","406","0","[[2,0,0],[0,0],[3]]","5","[[2,1,0],[3,0],[0]]","8","0","","","","","","6","","","","",""
"","","","","","single-stim-button","251","1377452","0.0-3.0-34.4-1.4","5c3fd0d4c2d0b700017d02cd","A3","batch1","tol_toboard","397","","","","","","","","","tol_peg_1","397","397","0","[[2,1,0],[0,0],[3]]","5","[[2,1,0],[3,0],[0]]","8","0","","","","","","6","","","","",""
"","","","","","single-stim-button","252","1377943","0.0-3.0-34.5-0.5","5c3fd0d4c2d0b700017d02cd","A3","batch1","tol_tohand","490","","","","","","","","","tol_peg_3","490","490","0","[[2,1,0],[0,0],[0]]","6","[[2,1,0],[3,0],[0]]","8","0","","","","","","6","","","","",""
"","","","","","single-stim-button","253","1378330","0.0-3.0-34.5-1.5","5c3fd0d4c2d0b700017d02cd","A3","batch1","tol_toboard","386","","","","","","","","","tol_peg_2","386","386","0","[[2,1,0],[3,0],[0]]","6","[[2,1,0],[3,0],[0]]","8","0","","","","","","6","","","","",""
"","","","","","poldrack-single-stim","254","1379331","0.0-3.0-35.0","5c3fd0d4c2d0b700017d02cd","A3","batch1","tol_feedback","-1","","","","","true","","","","","1000","1000","500","","","","","","-1","none","true","17622","21898","","","","","",""
"","","","","","html-button-response","255","1379985","0.0-3.0-36.0","5c3fd0d4c2d0b700017d02cd","A3","batch1","tol_trial_num","653","<div class = centerbox><p class = center-block-text>problem <strong>10</strong> out of 25 problems</p></div>","0","","","","","","","","","","","","","","","","","","","","","","","","","",""
"","","","","","single-stim-button","256","1386090","0.0-3.0-37.0-0.0","5c3fd0d4c2d0b700017d02cd","A3","batch1","tol_tohand","6104","","","","","","","","","tol_peg_2","6104","6104","0","[[3,0,0],[0,0],[2]]","1","[[3,0,0],[2,1],[0]]","9","0","","","","","","3","","","","",""
"","","","","","single-stim-button","257","1386537","0.0-3.0-37.0-1.0","5c3fd0d4c2d0b700017d02cd","A3","batch1","tol_toboard","446","","","","","","","","","tol_peg_1","446","446","0","[[3,1,0],[0,0],[2]]","1","[[3,0,0],[2,1],[0]]","9","0","","","","","","3","","","","",""
"","","","","","single-stim-button","258","1387055","0.0-3.0-37.1-0.1","5c3fd0d4c2d0b700017d02cd","A3","batch1","tol_tohand","518","","","","","","","","","tol_peg_3","518","518","0","[[3,1,0],[0,0],[0]]","2","[[3,0,0],[2,1],[0]]","9","0","","","","","","3","","","","",""
"","","","","","single-stim-button","259","1387474","0.0-3.0-37.1-1.1","5c3fd0d4c2d0b700017d02cd","A3","batch1","tol_toboard","418","","","","","","","","","tol_peg_2","418","418","0","[[3,1,0],[2,0],[0]]","2","[[3,0,0],[2,1],[0]]","9","0","","","","","","3","","","","",""
"","","","","","single-stim-button","260","1387945","0.0-3.0-37.2-0.2","5c3fd0d4c2d0b700017d02cd","A3","batch1","tol_tohand","470","","","","","","","","","tol_peg_1","470","470","0","[[3,0,0],[2,0],[0]]","3","[[3,0,0],[2,1],[0]]","9","0","","","","","","3","","","","",""
"","","","","","single-stim-button","261","1388289","0.0-3.0-37.2-1.2","5c3fd0d4c2d0b700017d02cd","A3","batch1","tol_toboard","343","","","","","","","","","tol_peg_2","343","343","0","[[3,0,0],[2,1],[0]]","3","[[3,0,0],[2,1],[0]]","9","0","","","","","","3","","","","",""
"","","","","","poldrack-single-stim","262","1389303","0.0-3.0-38.0","5c3fd0d4c2d0b700017d02cd","A3","batch1","tol_feedback","-1","","","","","true","","","","","1000","1000","500","","","","","","-1","none","true","6104","7092","","","","","",""
"","","","","","html-button-response","263","1389939","0.0-3.0-39.0","5c3fd0d4c2d0b700017d02cd","A3","batch1","tol_trial_num","635.2999999523163","<div class = centerbox><p class = center-block-text>problem <strong>11</strong> out of 25 problems</p></div>","0","","","","","","","","","","","","","","","","","","","","","","","","","",""
"","","","","","single-stim-button","264","1406530","0.0-3.0-40.0-0.0","5c3fd0d4c2d0b700017d02cd","A3","batch1","tol_tohand","16591","","","","","","","","","tol_peg_2","16591","16591","0","[[1,2,0],[0,0],[0]]","1","[[2,0,0],[1,3],[0]]","10","0","","","","","","6","","","","",""
"","","","","","single-stim-button","265","1406946","0.0-3.0-40.0-1.0","5c3fd0d4c2d0b700017d02cd","A3","batch1","tol_toboard","416","","","","","","","","","tol_peg_3","416","416","0","[[1,2,0],[0,0],[3]]","1","[[2,0,0],[1,3],[0]]","10","0","","","","","","6","","","","",""
"","","","","","single-stim-button","266","1416665","0.0-3.0-40.1-0.1","5c3fd0d4c2d0b700017d02cd","A3","batch1","tol_tohand","9719","","","","","","","","","tol_peg_1","9719","9719","0","[[1,0,0],[0,0],[3]]","2","[[2,0,0],[1,3],[0]]","10","0","","","","","","6","","","","",""
"","","","","","single-stim-button","267","1417289","0.0-3.0-40.1-1.1","5c3fd0d4c2d0b700017d02cd","A3","batch1","tol_toboard","624","","","","","","","","","tol_peg_2","624","624","0","[[1,0,0],[2,0],[3]]","2","[[2,0,0],[1,3],[0]]","10","0","","","","","","6","","","","",""
"","","","","","single-stim-button","268","1424536","0.0-3.0-40.2-0.2","5c3fd0d4c2d0b700017d02cd","A3","batch1","tol_tohand","7247","","","","","","","","","tol_peg_3","7247","7247","0","[[1,0,0],[2,0],[0]]","3","[[2,0,0],[1,3],[0]]","10","0","","","","","","6","","","","",""
"","","","","","single-stim-button","269","1425051","0.0-3.0-40.2-1.2","5c3fd0d4c2d0b700017d02cd","A3","batch1","tol_toboard","515","","","","","","","","","tol_peg_1","515","515","0","[[1,3,0],[2,0],[0]]","3","[[2,0,0],[1,3],[0]]","10","0","","","","","","6","","","","",""
"","","","","","single-stim-button","270","1425500","0.0-3.0-40.3-0.3","5c3fd0d4c2d0b700017d02cd","A3","batch1","tol_tohand","449","","","","","","","","","tol_peg_2","449","449","0","[[1,3,0],[0,0],[0]]","4","[[2,0,0],[1,3],[0]]","10","0","","","","","","6","","","","",""
"","","","","","single-stim-button","271","1425829","0.0-3.0-40.3-1.3","5c3fd0d4c2d0b700017d02cd","A3","batch1","tol_toboard","329","","","","","","","","","tol_peg_3","329","329","0","[[1,3,0],[0,0],[2]]","4","[[2,0,0],[1,3],[0]]","10","0","","","","","","6","","","","",""
"","","","","","single-stim-button","272","1431091","0.0-3.0-40.4-0.4","5c3fd0d4c2d0b700017d02cd","A3","batch1","tol_tohand","5262","","","","","","","","","tol_peg_1","5262","5262","0","[[1,0,0],[0,0],[2]]","5","[[2,0,0],[1,3],[0]]","10","0","","","","","","6","","","","",""
"","","","","","single-stim-button","273","1431436","0.0-3.0-40.4-1.4","5c3fd0d4c2d0b700017d02cd","A3","batch1","tol_toboard","344","","","","","","","","","tol_peg_2","344","344","0","[[1,0,0],[3,0],[2]]","5","[[2,0,0],[1,3],[0]]","10","0","","","","","","6","","","","",""
"","","","","","single-stim-button","274","1433928","0.0-3.0-40.5-0.5","5c3fd0d4c2d0b700017d02cd","A3","batch1","tol_tohand","2491","","","","","","","","","tol_peg_1","2491","2491","0","[[0,0,0],[3,0],[2]]","6","[[2,0,0],[1,3],[0]]","10","0","","","","","","6","","","","",""
"","","","","","single-stim-button","275","1434266","0.0-3.0-40.5-1.5","5c3fd0d4c2d0b700017d02cd","A3","batch1","tol_toboard","338","","","","","","","","","tol_peg_2","338","338","0","[[0,0,0],[3,1],[2]]","6","[[2,0,0],[1,3],[0]]","10","0","","","","","","6","","","","",""
"","","","","","single-stim-button","276","1434813","0.0-3.0-40.6-0.6","5c3fd0d4c2d0b700017d02cd","A3","batch1","tol_tohand","547","","","","","","","","","tol_peg_3","547","547","0","[[0,0,0],[3,1],[0]]","7","[[2,0,0],[1,3],[0]]","10","0","","","","","","6","","","","",""
"","","","","","single-stim-button","277","1435250","0.0-3.0-40.6-1.6","5c3fd0d4c2d0b700017d02cd","A3","batch1","tol_toboard","437","","","","","","","","","tol_peg_1","437","437","0","[[2,0,0],[3,1],[0]]","7","[[2,0,0],[1,3],[0]]","10","0","","","","","","6","","","","",""
"","","","","","single-stim-button","278","1436858","0.0-3.0-40.7-0.7","5c3fd0d4c2d0b700017d02cd","A3","batch1","tol_tohand","1608","","","","","","","","","tol_peg_2","1608","1608","0","[[2,0,0],[3,0],[0]]","8","[[2,0,0],[1,3],[0]]","10","0","","","","","","6","","","","",""
"","","","","","single-stim-button","279","1437461","0.0-3.0-40.7-1.7","5c3fd0d4c2d0b700017d02cd","A3","batch1","tol_toboard","603","","","","","","","","","tol_peg_1","603","603","0","[[2,1,0],[3,0],[0]]","8","[[2,0,0],[1,3],[0]]","10","0","","","","","","6","","","","",""
"","","","","","single-stim-button","280","1437949","0.0-3.0-40.8-0.8","5c3fd0d4c2d0b700017d02cd","A3","batch1","tol_tohand","488","","","","","","","","","tol_peg_2","488","488","0","[[2,1,0],[0,0],[0]]","9","[[2,0,0],[1,3],[0]]","10","0","","","","","","6","","","","",""
"","","","","","single-stim-button","281","1438354","0.0-3.0-40.8-1.8","5c3fd0d4c2d0b700017d02cd","A3","batch1","tol_toboard","405","","","","","","","","","tol_peg_3","405","405","0","[[2,1,0],[0,0],[3]]","9","[[2,0,0],[1,3],[0]]","10","0","","","","","","6","","","","",""
"","","","","","single-stim-button","282","1438827","0.0-3.0-40.9-0.9","5c3fd0d4c2d0b700017d02cd","A3","batch1","tol_tohand","473","","","","","","","","","tol_peg_1","473","473","0","[[2,0,0],[0,0],[3]]","10","[[2,0,0],[1,3],[0]]","10","0","","","","","","6","","","","",""
"","","","","","single-stim-button","283","1439224","0.0-3.0-40.9-1.9","5c3fd0d4c2d0b700017d02cd","A3","batch1","tol_toboard","397","","","","","","","","","tol_peg_2","397","397","0","[[2,0,0],[1,0],[3]]","10","[[2,0,0],[1,3],[0]]","10","0","","","","","","6","","","","",""
"","","","","","single-stim-button","284","1439625","0.0-3.0-40.10-0.10","5c3fd0d4c2d0b700017d02cd","A3","batch1","tol_tohand","400","","","","","","","","","tol_peg_3","400","400","0","[[2,0,0],[1,0],[0]]","11","[[2,0,0],[1,3],[0]]","10","0","","","","","","6","","","","",""
"","","","","","single-stim-button","285","1439930","0.0-3.0-40.10-1.10","5c3fd0d4c2d0b700017d02cd","A3","batch1","tol_toboard","304","","","","","","","","","tol_peg_2","304","304","0","[[2,0,0],[1,3],[0]]","11","[[2,0,0],[1,3],[0]]","10","0","","","","","","6","","","","",""
"","","","","","poldrack-single-stim","286","1440932","0.0-3.0-41.0","5c3fd0d4c2d0b700017d02cd","A3","batch1","tol_feedback","-1","","","","","true","","","","","1000","1000","500","","","","","","-1","none","true","16591","45275","","","","","",""
"","","","","","html-button-response","287","1441519","0.0-3.0-42.0","5c3fd0d4c2d0b700017d02cd","A3","batch1","tol_trial_num","586.1000000238419","<div class = centerbox><p class = center-block-text>problem <strong>12</strong> out of 25 problems</p></div>","0","","","","","","","","","","","","","","","","","","","","","","","","","",""
"","","","","","single-stim-button","288","1447099","0.0-3.0-43.0-0.0","5c3fd0d4c2d0b700017d02cd","A3","batch1","tol_tohand","5580","","","","","","","","","tol_peg_1","5580","5580","0","[[1,0,0],[3,0],[0]]","1","[[2,3,0],[0,0],[1]]","11","0","","","","","","4","","","","",""
"","","","","","single-stim-button","289","1447923","0.0-3.0-43.0-1.0","5c3fd0d4c2d0b700017d02cd","A3","batch1","tol_toboard","824","","","","","","","","","tol_peg_2","824","824","0","[[1,0,0],[3,2],[0]]","1","[[2,3,0],[0,0],[1]]","11","0","","","","","","4","","","","",""
"","","","","","single-stim-button","290","1448322","0.0-3.0-43.1-0.1","5c3fd0d4c2d0b700017d02cd","A3","batch1","tol_tohand","398","","","","","","","","","tol_peg_1","398","398","0","[[0,0,0],[3,2],[0]]","2","[[2,3,0],[0,0],[1]]","11","0","","","","","","4","","","","",""
"","","","","","single-stim-button","291","1448809","0.0-3.0-43.1-1.1","5c3fd0d4c2d0b700017d02cd","A3","batch1","tol_toboard","487","","","","","","","","","tol_peg_3","487","487","0","[[0,0,0],[3,2],[1]]","2","[[2,3,0],[0,0],[1]]","11","0","","","","","","4","","","","",""
"","","","","","single-stim-button","292","1449304","0.0-3.0-43.2-0.2","5c3fd0d4c2d0b700017d02cd","A3","batch1","tol_tohand","494","","","","","","","","","tol_peg_2","494","494","0","[[0,0,0],[3,0],[1]]","3","[[2,3,0],[0,0],[1]]","11","0","","","","","","4","","","","",""
"","","","","","single-stim-button","293","1449677","0.0-3.0-43.2-1.2","5c3fd0d4c2d0b700017d02cd","A3","batch1","tol_toboard","373","","","","","","","","","tol_peg_1","373","373","0","[[2,0,0],[3,0],[1]]","3","[[2,3,0],[0,0],[1]]","11","0","","","","","","4","","","","",""
"","","","","","single-stim-button","294","1450014","0.0-3.0-43.3-0.3","5c3fd0d4c2d0b700017d02cd","A3","batch1","tol_tohand","336","","","","","","","","","tol_peg_2","336","336","0","[[2,0,0],[0,0],[1]]","4","[[2,3,0],[0,0],[1]]","11","0","","","","","","4","","","","",""
"","","","","","single-stim-button","295","1450358","0.0-3.0-43.3-1.3","5c3fd0d4c2d0b700017d02cd","A3","batch1","tol_toboard","343","","","","","","","","","tol_peg_1","343","343","0","[[2,3,0],[0,0],[1]]","4","[[2,3,0],[0,0],[1]]","11","0","","","","","","4","","","","",""
"","","","","","poldrack-single-stim","296","1451359","0.0-3.0-44.0","5c3fd0d4c2d0b700017d02cd","A3","batch1","tol_feedback","-1","","","","","true","","","","","1000","1000","500","","","","","","-1","none","true","5580","6808","","","","","",""
"","","","","","html-button-response","297","1451932","0.0-3.0-45.0","5c3fd0d4c2d0b700017d02cd","A3","batch1","tol_trial_num","572.0999999046326","<div class = centerbox><p class = center-block-text>problem <strong>13</strong> out of 25 problems</p></div>","0","","","","","","","","","","","","","","","","","","","","","","","","","",""
"","","","","","single-stim-button","298","1459450","0.0-3.0-46.0-0.0","5c3fd0d4c2d0b700017d02cd","A3","batch1","tol_tohand","7517","","","","","","","","","tol_peg_2","7517","7517","0","[[1,2,0],[0,0],[0]]","1","[[0,0,0],[2,3],[1]]","12","0","","","","","","4","","","","",""
"","","","","","single-stim-button","299","1459836","0.0-3.0-46.0-1.0","5c3fd0d4c2d0b700017d02cd","A3","batch1","tol_toboard","386","","","","","","","","","tol_peg_3","386","386","0","[[1,2,0],[0,0],[3]]","1","[[0,0,0],[2,3],[1]]","12","0","","","","","","4","","","","",""
"","","","","","single-stim-button","300","1460261","0.0-3.0-46.1-0.1","5c3fd0d4c2d0b700017d02cd","A3","batch1","tol_tohand","424","","","","","","","","","tol_peg_1","424","424","0","[[1,0,0],[0,0],[3]]","2","[[0,0,0],[2,3],[1]]","12","0","","","","","","4","","","","",""
"","","","","","single-stim-button","301","1460612","0.0-3.0-46.1-1.1","5c3fd0d4c2d0b700017d02cd","A3","batch1","tol_toboard","350","","","","","","","","","tol_peg_2","350","350","0","[[1,0,0],[2,0],[3]]","2","[[0,0,0],[2,3],[1]]","12","0","","","","","","4","","","","",""
"","","","","","single-stim-button","302","1461253","0.0-3.0-46.2-0.2","5c3fd0d4c2d0b700017d02cd","A3","batch1","tol_tohand","641","","","","","","","","","tol_peg_3","641","641","0","[[1,0,0],[2,0],[0]]","3","[[0,0,0],[2,3],[1]]","12","0","","","","","","4","","","","",""
"","","","","","single-stim-button","303","1461962","0.0-3.0-46.2-1.2","5c3fd0d4c2d0b700017d02cd","A3","batch1","tol_toboard","709","","","","","","","","","tol_peg_2","709","709","0","[[1,0,0],[2,3],[0]]","3","[[0,0,0],[2,3],[1]]","12","0","","","","","","4","","","","",""
"","","","","","single-stim-button","304","1462371","0.0-3.0-46.3-0.3","5c3fd0d4c2d0b700017d02cd","A3","batch1","tol_tohand","409","","","","","","","","","tol_peg_1","409","409","0","[[0,0,0],[2,3],[0]]","4","[[0,0,0],[2,3],[1]]","12","0","","","","","","4","","","","",""
"","","","","","single-stim-button","305","1462777","0.0-3.0-46.3-1.3","5c3fd0d4c2d0b700017d02cd","A3","batch1","tol_toboard","406","","","","","","","","","tol_peg_3","406","406","0","[[0,0,0],[2,3],[1]]","4","[[0,0,0],[2,3],[1]]","12","0","","","","","","4","","","","",""
"","","","","","poldrack-single-stim","306","1463778","0.0-3.0-47.0","5c3fd0d4c2d0b700017d02cd","A3","batch1","tol_feedback","-1","","","","","true","","","","","1000","1000","500","","","","","","-1","none","true","7517","8991","","","","","",""
"","","","","","html-button-response","307","1469738","0.0-3.0-48.0","5c3fd0d4c2d0b700017d02cd","A3","batch1","attention_check","5959.600000023842","<p class = block-text>How many balls are in your board<br></p>","1","","","true","","","","","","","","","","","","","","","","","","","","","","",""
"","","","","","html-button-response","308","1470460","0.0-3.0-49.0","5c3fd0d4c2d0b700017d02cd","A3","batch1","tol_trial_num","721.2999999523163","<div class = centerbox><p class = center-block-text>problem <strong>14</strong> out of 25 problems</p></div>","0","","","","","","","","","","","","","","","","","","","","","","","","","",""
"","","","","","single-stim-button","309","1478695","0.0-3.0-50.0-0.0","5c3fd0d4c2d0b700017d02cd","A3","batch1","tol_tohand","8235","","","","","","","","","tol_peg_1","8235","8235","0","[[2,0,0],[3,0],[0]]","1","[[1,2,0],[3,0],[0]]","13","0","","","","","","4","","","","",""
"","","","","","single-stim-button","310","1479205","0.0-3.0-50.0-1.0","5c3fd0d4c2d0b700017d02cd","A3","batch1","tol_toboard","509","","","","","","","","","tol_peg_3","509","509","0","[[2,0,0],[3,0],[1]]","1","[[1,2,0],[3,0],[0]]","13","0","","","","","","4","","","","",""
"","","","","","single-stim-button","311","1479634","0.0-3.0-50.1-0.1","5c3fd0d4c2d0b700017d02cd","A3","batch1","tol_tohand","429","","","","","","","","","tol_peg_1","429","429","0","[[0,0,0],[3,0],[1]]","2","[[1,2,0],[3,0],[0]]","13","0","","","","","","4","","","","",""
"","","","","","single-stim-button","312","1480311","0.0-3.0-50.1-1.1","5c3fd0d4c2d0b700017d02cd","A3","batch1","tol_toboard","677","","","","","","","","","tol_peg_2","677","677","0","[[0,0,0],[3,2],[1]]","2","[[1,2,0],[3,0],[0]]","13","0","","","","","","4","","","","",""
"","","","","","single-stim-button","313","1480934","0.0-3.0-50.2-0.2","5c3fd0d4c2d0b700017d02cd","A3","batch1","tol_tohand","623","","","","","","","","","tol_peg_3","623","623","0","[[0,0,0],[3,2],[0]]","3","[[1,2,0],[3,0],[0]]","13","0","","","","","","4","","","","",""
"","","","","","single-stim-button","314","1481433","0.0-3.0-50.2-1.2","5c3fd0d4c2d0b700017d02cd","A3","batch1","tol_toboard","499","","","","","","","","","tol_peg_1","499","499","0","[[1,0,0],[3,2],[0]]","3","[[1,2,0],[3,0],[0]]","13","0","","","","","","4","","","","",""
"","","","","","single-stim-button","315","1481777","0.0-3.0-50.3-0.3","5c3fd0d4c2d0b700017d02cd","A3","batch1","tol_tohand","344","","","","","","","","","tol_peg_2","344","344","0","[[1,0,0],[3,0],[0]]","4","[[1,2,0],[3,0],[0]]","13","0","","","","","","4","","","","",""
"","","","","","single-stim-button","316","1482084","0.0-3.0-50.3-1.3","5c3fd0d4c2d0b700017d02cd","A3","batch1","tol_toboard","307","","","","","","","","","tol_peg_1","307","307","0","[[1,2,0],[3,0],[0]]","4","[[1,2,0],[3,0],[0]]","13","0","","","","","","4","","","","",""
"","","","","","poldrack-single-stim","317","1483086","0.0-3.0-51.0","5c3fd0d4c2d0b700017d02cd","A3","batch1","tol_feedback","-1","","","","","true","","","","","1000","1000","500","","","","","","-1","none","true","8235","9631","","","","","",""
"","","","","","html-button-response","318","1483611","0.0-3.0-52.0","5c3fd0d4c2d0b700017d02cd","A3","batch1","tol_trial_num","525.1000000238419","<div class = centerbox><p class = center-block-text>problem <strong>15</strong> out of 25 problems</p></div>","0","","","","","","","","","","","","","","","","","","","","","","","","","",""
"","","","","","single-stim-button","319","1489857","0.0-3.0-53.0-0.0","5c3fd0d4c2d0b700017d02cd","A3","batch1","tol_tohand","6246","","","","","","","","","tol_peg_1","6246","6246","0","[[1,0,0],[3,0],[0]]","1","[[2,0,0],[3,0],[1]]","14","0","","","","","","3","","","","",""
"","","","","","single-stim-button","320","1490297","0.0-3.0-53.0-1.0","5c3fd0d4c2d0b700017d02cd","A3","batch1","tol_toboard","439","","","","","","","","","tol_peg_2","439","439","0","[[1,0,0],[3,2],[0]]","1","[[2,0,0],[3,0],[1]]","14","0","","","","","","3","","","","",""
"","","","","","single-stim-button","321","1490728","0.0-3.0-53.1-0.1","5c3fd0d4c2d0b700017d02cd","A3","batch1","tol_tohand","431","","","","","","","","","tol_peg_1","431","431","0","[[0,0,0],[3,2],[0]]","2","[[2,0,0],[3,0],[1]]","14","0","","","","","","3","","","","",""
"","","","","","single-stim-button","322","1491367","0.0-3.0-53.1-1.1","5c3fd0d4c2d0b700017d02cd","A3","batch1","tol_toboard","639","","","","","","","","","tol_peg_3","639","639","0","[[0,0,0],[3,2],[1]]","2","[[2,0,0],[3,0],[1]]","14","0","","","","","","3","","","","",""
"","","","","","single-stim-button","323","1491834","0.0-3.0-53.2-0.2","5c3fd0d4c2d0b700017d02cd","A3","batch1","tol_tohand","467","","","","","","","","","tol_peg_2","467","467","0","[[0,0,0],[3,0],[1]]","3","[[2,0,0],[3,0],[1]]","14","0","","","","","","3","","","","",""
"","","","","","single-stim-button","324","1492344","0.0-3.0-53.2-1.2","5c3fd0d4c2d0b700017d02cd","A3","batch1","tol_toboard","510","","","","","","","","","tol_peg_1","510","510","0","[[2,0,0],[3,0],[1]]","3","[[2,0,0],[3,0],[1]]","14","0","","","","","","3","","","","",""
"","","","","","poldrack-single-stim","325","1493345","0.0-3.0-54.0","5c3fd0d4c2d0b700017d02cd","A3","batch1","tol_feedback","-1","","","","","true","","","","","1000","1000","500","","","","","","-1","none","true","6246","7144","","","","","",""
"","","","","","html-button-response","326","1494041","0.0-3.0-55.0","5c3fd0d4c2d0b700017d02cd","A3","batch1","tol_trial_num","696.1000000238419","<div class = centerbox><p class = center-block-text>problem <strong>16</strong> out of 25 problems</p></div>","0","","","","","","","","","","","","","","","","","","","","","","","","","",""
"","","","","","single-stim-button","327","1507264","0.0-3.0-56.0-0.0","5c3fd0d4c2d0b700017d02cd","A3","batch1","tol_tohand","13222","","","","","","","","","tol_peg_2","13222","13222","0","[[0,0,0],[2,0],[1]]","1","[[2,3,0],[1,0],[0]]","15","0","","","","","","7","","","","",""
"","","","","","single-stim-button","328","1507687","0.0-3.0-56.0-1.0","5c3fd0d4c2d0b700017d02cd","A3","batch1","tol_toboard","423","","","","","","","","","tol_peg_1","423","423","0","[[3,0,0],[2,0],[1]]","1","[[2,3,0],[1,0],[0]]","15","0","","","","","","7","","","","",""
"","","","","","single-stim-button","329","1511356","0.0-3.0-56.1-0.1","5c3fd0d4c2d0b700017d02cd","A3","batch1","tol_tohand","3669","","","","","","","","","tol_peg_2","3669","3669","0","[[3,0,0],[0,0],[1]]","2","[[2,3,0],[1,0],[0]]","15","0","","","","","","7","","","","",""
"","","","","","single-stim-button","330","1511853","0.0-3.0-56.1-1.1","5c3fd0d4c2d0b700017d02cd","A3","batch1","tol_toboard","496","","","","","","","","","tol_peg_1","496","496","0","[[3,2,0],[0,0],[1]]","2","[[2,3,0],[1,0],[0]]","15","0","","","","","","7","","","","",""
"","","","","","single-stim-button","331","1512369","0.0-3.0-56.2-0.2","5c3fd0d4c2d0b700017d02cd","A3","batch1","tol_tohand","515","","","","","","","","","tol_peg_3","515","515","0","[[3,2,0],[0,0],[0]]","3","[[2,3,0],[1,0],[0]]","15","0","","","","","","7","","","","",""
"","","","","","single-stim-button","332","1512676","0.0-3.0-56.2-1.2","5c3fd0d4c2d0b700017d02cd","A3","batch1","tol_toboard","306","","","","","","","","","tol_peg_2","306","306","0","[[3,2,0],[1,0],[0]]","3","[[2,3,0],[1,0],[0]]","15","0","","","","","","7","","","","",""
"","","","","","single-stim-button","333","1517758","0.0-3.0-56.3-0.3","5c3fd0d4c2d0b700017d02cd","A3","batch1","tol_tohand","5082","","","","","","","","","tol_peg_1","5082","5082","0","[[3,0,0],[1,0],[0]]","4","[[2,3,0],[1,0],[0]]","15","0","","","","","","7","","","","",""
"","","","","","single-stim-button","334","1518204","0.0-3.0-56.3-1.3","5c3fd0d4c2d0b700017d02cd","A3","batch1","tol_toboard","446","","","","","","","","","tol_peg_2","446","446","0","[[3,0,0],[1,2],[0]]","4","[[2,3,0],[1,0],[0]]","15","0","","","","","","7","","","","",""
"","","","","","single-stim-button","335","1519471","0.0-3.0-56.4-0.4","5c3fd0d4c2d0b700017d02cd","A3","batch1","tol_tohand","1267","","","","","","","","","tol_peg_1","1267","1267","0","[[0,0,0],[1,2],[0]]","5","[[2,3,0],[1,0],[0]]","15","0","","","","","","7","","","","",""
"","","","","","single-stim-button","336","1519994","0.0-3.0-56.4-1.4","5c3fd0d4c2d0b700017d02cd","A3","batch1","tol_toboard","522","","","","","","","","","tol_peg_3","522","522","0","[[0,0,0],[1,2],[3]]","5","[[2,3,0],[1,0],[0]]","15","0","","","","","","7","","","","",""
"","","","","","single-stim-button","337","1520402","0.0-3.0-56.5-0.5","5c3fd0d4c2d0b700017d02cd","A3","batch1","tol_tohand","408","","","","","","","","","tol_peg_2","408","408","0","[[0,0,0],[1,0],[3]]","6","[[2,3,0],[1,0],[0]]","15","0","","","","","","7","","","","",""
"","","","","","single-stim-button","338","1520788","0.0-3.0-56.5-1.5","5c3fd0d4c2d0b700017d02cd","A3","batch1","tol_toboard","386","","","","","","","","","tol_peg_1","386","386","0","[[2,0,0],[1,0],[3]]","6","[[2,3,0],[1,0],[0]]","15","0","","","","","","7","","","","",""
"","","","","","single-stim-button","339","1521263","0.0-3.0-56.6-0.6","5c3fd0d4c2d0b700017d02cd","A3","batch1","tol_tohand","475","","","","","","","","","tol_peg_3","475","475","0","[[2,0,0],[1,0],[0]]","7","[[2,3,0],[1,0],[0]]","15","0","","","","","","7","","","","",""
"","","","","","single-stim-button","340","1521741","0.0-3.0-56.6-1.6","5c3fd0d4c2d0b700017d02cd","A3","batch1","tol_toboard","476","","","","","","","","","tol_peg_1","476","476","0","[[2,3,0],[1,0],[0]]","7","[[2,3,0],[1,0],[0]]","15","0","","","","","","7","","","","",""
"","","","","","poldrack-single-stim","341","1522742","0.0-3.0-57.0","5c3fd0d4c2d0b700017d02cd","A3","batch1","tol_feedback","-1","","","","","true","","","","","1000","1000","500","","","","","","-1","none","true","13222","24638","","","","","",""
"","","","","","html-button-response","342","1523273","0.0-3.0-58.0","5c3fd0d4c2d0b700017d02cd","A3","batch1","tol_trial_num","531.1000000238419","<div class = centerbox><p class = center-block-text>problem <strong>17</strong> out of 25 problems</p></div>","0","","","","","","","","","","","","","","","","","","","","","","","","","",""
"","","","","","single-stim-button","343","1536683","0.0-3.0-59.0-0.0","5c3fd0d4c2d0b700017d02cd","A3","batch1","tol_tohand","13410","","","","","","","","","tol_peg_1","13410","13410","0","[[1,0,0],[3,0],[0]]","1","[[3,1,0],[2,0],[0]]","16","0","","","","","","5","","","","",""
"","","","","","single-stim-button","344","1537801","0.0-3.0-59.0-1.0","5c3fd0d4c2d0b700017d02cd","A3","batch1","tol_toboard","1118","","","","","","","","","tol_peg_3","1118","1118","0","[[1,0,0],[3,0],[2]]","1","[[3,1,0],[2,0],[0]]","16","0","","","","","","5","","","","",""
"","","","","","single-stim-button","345","1538403","0.0-3.0-59.1-0.1","5c3fd0d4c2d0b700017d02cd","A3","batch1","tol_tohand","602","","","","","","","","","tol_peg_2","602","602","0","[[1,0,0],[0,0],[2]]","2","[[3,1,0],[2,0],[0]]","16","0","","","","","","5","","","","",""
"","","","","","single-stim-button","346","1538924","0.0-3.0-59.1-1.1","5c3fd0d4c2d0b700017d02cd","A3","batch1","tol_toboard","521","","","","","","","","","tol_peg_1","521","521","0","[[1,3,0],[0,0],[2]]","2","[[3,1,0],[2,0],[0]]","16","0","","","","","","5","","","","",""
"","","","","","single-stim-button","347","1540149","0.0-3.0-59.2-0.2","5c3fd0d4c2d0b700017d02cd","A3","batch1","tol_tohand","1225","","","","","","","","","tol_peg_3","1225","1225","0","[[1,3,0],[0,0],[0]]","3","[[3,1,0],[2,0],[0]]","16","0","","","","","","5","","","","",""
"","","","","","single-stim-button","348","1540565","0.0-3.0-59.2-1.2","5c3fd0d4c2d0b700017d02cd","A3","batch1","tol_toboard","416","","","","","","","","","tol_peg_2","416","416","0","[[1,3,0],[2,0],[0]]","3","[[3,1,0],[2,0],[0]]","16","0","","","","","","5","","","","",""
"","","","","","single-stim-button","349","1542064","0.0-3.0-59.3-0.3","5c3fd0d4c2d0b700017d02cd","A3","batch1","tol_tohand","1499","","","","","","","","","tol_peg_1","1499","1499","0","[[1,0,0],[2,0],[0]]","4","[[3,1,0],[2,0],[0]]","16","0","","","","","","5","","","","",""
"","","","","","single-stim-button","350","1542643","0.0-3.0-59.3-1.3","5c3fd0d4c2d0b700017d02cd","A3","batch1","tol_toboard","578","","","","","","","","","tol_peg_2","578","578","0","[[1,0,0],[2,3],[0]]","4","[[3,1,0],[2,0],[0]]","16","0","","","","","","5","","","","",""
"","","","","","single-stim-button","351","1543690","0.0-3.0-59.4-0.4","5c3fd0d4c2d0b700017d02cd","A3","batch1","tol_tohand","1046","","","","","","","","","tol_peg_1","1046","1046","0","[[0,0,0],[2,3],[0]]","5","[[3,1,0],[2,0],[0]]","16","0","","","","","","5","","","","",""
"","","","","","single-stim-button","352","1544258","0.0-3.0-59.4-1.4","5c3fd0d4c2d0b700017d02cd","A3","batch1","tol_toboard","568","","","","","","","","","tol_peg_3","568","568","0","[[0,0,0],[2,3],[1]]","5","[[3,1,0],[2,0],[0]]","16","0","","","","","","5","","","","",""
"","","","","","single-stim-button","353","1544773","0.0-3.0-59.5-0.5","5c3fd0d4c2d0b700017d02cd","A3","batch1","tol_tohand","514","","","","","","","","","tol_peg_2","514","514","0","[[0,0,0],[2,0],[1]]","6","[[3,1,0],[2,0],[0]]","16","0","","","","","","5","","","","",""
