success,timeout,failed_images,failed_audio,failed_video,trial_type,trial_index,time_elapsed,internal_node_id,subject_id,study_id,session_id,view_history,rt,task,stimulus,response,correct,mouse_click,stim_duration,block_duration,timing_post_trial,current_position,tol_num_moves_made,tol_target,tol_problem_id,tol_rt,key_press,possible_responses,tol_correct,preplanning,tol_rt_per_trial,tol_min_moves,answer,item,fiar_detect_rt,fiar_detect_correct,total_correct_fiar_detect,post_trial_gap,choices,spm_correct,spm_rt
TRUE,FALSE,[],[],[],preload,0,13537,0.0-0.0,5c492c7167b61b000190bfe8,C3,batch3,,,,,,,,,,,,,,,,,,,,,,,,,,,,,,
TRUE,,,,,fullscreen,1,19621,0.0-1.0-0.0,5c492c7167b61b000190bfe8,C3,batch3,,,,,,,,,,,,,,,,,,,,,,,,,,,,,,
TRUE,,,,,fullscreen,2,22790,0.0-2.0-0.0,5c492c7167b61b000190bfe8,C3,batch3,,,,,,,,,,,,,,,,,,,,,,,,,,,,,,
,,,,,instructions,3,74995,0.0-2.0-1.0-0.0-0.0,5c492c7167b61b000190bfe8,C3,batch3,"[{""page_index"":0,""viewing_time"":13725.100000023842},{""page_index"":1,""viewing_time"":6879.800000011921},{""page_index"":2,""viewing_time"":9932.899999976158},{""page_index"":3,""viewing_time"":8149},{""page_index"":4,""viewing_time"":7471.100000023842},{""page_index"":5,""viewing_time"":3656.199999988079},{""page_index"":6,""viewing_time"":2387.800000011921}]",52202.30000001190,tol-instructions,,,,,,,,,,,,,,,,,,,,,,,,,,,
,,,,,html-button-response,4,75821,0.0-2.0-1.0-1.0-0.0,5c492c7167b61b000190bfe8,C3,batch3,,825.2999999523160,tol_enter_quiz,<p class=block-text> Let's answer a few questions <br>,0,,,,,,,,,,,,,,,,,,,,,,,,,
,,,,,html-button-response,5,79397,0.0-2.0-1.0-1.0-1.0,5c492c7167b61b000190bfe8,C3,batch3,,3574.199999988080,tol_quiz,<p class = block-text>True or False: You can only move the ball on top of a peg. <br></p>,1,FALSE,,,,,,,,,,,,,,,,,,,,,,,,
,,,,,html-button-response,6,82507,0.0-2.0-1.0-1.0-2.0,5c492c7167b61b000190bfe8,C3,batch3,,3108.399999976160,tol_quiz_feedback,"<p class = block-text>Incorrect. Remember, you can only move the ball on top of a peg.</p>",0,,,,,,,,,,,,,,,,,,,,,,,,,
,,,,,html-button-response,7,85532,0.0-2.0-1.0-1.0-3.0,5c492c7167b61b000190bfe8,C3,batch3,,3023.7999999523200,tol_quiz,<p class = block-text>True or False: You should try to match your board with the target board with fewest moves possible. <br></p>,0,TRUE,,,,,,,,,,,,,,,,,,,,,,,,
,,,,,html-button-response,8,86510,0.0-2.0-1.0-1.0-4.0,5c492c7167b61b000190bfe8,C3,batch3,,976.7999999523160,tol_quiz_feedback,<p class = block-text>Correct! </p>,0,,,,,,,,,,,,,,,,,,,,,,,,,
,,,,,html-button-response,9,90148,0.0-2.0-1.0-2.0-0.0,5c492c7167b61b000190bfe8,C3,batch3,,3636.100000023840,,<p class = block-text>You made too many incorrect choices.</p><p class = block-text>You will now repeat the instructions and quiz</p>,0,,,,,,,,,,,,,,,,,,,,,,,,,
,,,,,instructions,10,142460,0.0-2.0-1.1-0.1-0.1,5c492c7167b61b000190bfe8,C3,batch3,"[{""page_index"":0,""viewing_time"":8691.5},{""page_index"":1,""viewing_time"":3176.900000035763},{""page_index"":2,""viewing_time"":2991.099999964237},{""page_index"":3,""viewing_time"":12783},{""page_index"":4,""viewing_time"":4063},{""page_index"":5,""viewing_time"":18928.900000035763},{""page_index"":6,""viewing_time"":1676}]",52310.700000047700,tol-instructions,,,,,,,,,,,,,,,,,,,,,,,,,,,
,,,,,html-button-response,11,143523,0.0-2.0-1.1-1.1-0.1,5c492c7167b61b000190bfe8,C3,batch3,,1061.9000000357600,tol_enter_quiz,<p class=block-text> Let's answer a few questions <br>,0,,,,,,,,,,,,,,,,,,,,,,,,,
,,,,,html-button-response,12,145740,0.0-2.0-1.1-1.1-1.1,5c492c7167b61b000190bfe8,C3,batch3,,2215.699999988080,tol_quiz,<p class = block-text>True or False: You can only move the ball on top of a peg. <br></p>,0,TRUE,,,,,,,,,,,,,,,,,,,,,,,,
,,,,,html-button-response,13,148014,0.0-2.0-1.1-1.1-2.1,5c492c7167b61b000190bfe8,C3,batch3,,2272.800000011920,tol_quiz_feedback,<p class = block-text>Correct! You can only move the ball on top of a peg.</p>,0,,,,,,,,,,,,,,,,,,,,,,,,,
,,,,,html-button-response,14,149979,0.0-2.0-1.1-1.1-3.1,5c492c7167b61b000190bfe8,C3,batch3,,1963.8999999761600,tol_quiz,<p class = block-text>True or False: You should try to match your board with the target board with fewest moves possible. <br></p>,0,TRUE,,,,,,,,,,,,,,,,,,,,,,,,
,,,,,html-button-response,15,151552,0.0-2.0-1.1-1.1-4.1,5c492c7167b61b000190bfe8,C3,batch3,,1571.800000011920,tol_quiz_feedback,<p class = block-text>Correct! </p>,0,,,,,,,,,,,,,,,,,,,,,,,,,
,,,,,html-button-response,16,152533,0.0-2.0-2.0,5c492c7167b61b000190bfe8,C3,batch3,,979.6999999880790,,"<p class=block-text> Now that you've understood the game, let's practice a few easier examples before we start!<br> <br>",0,,,,,,,,,,,,,,,,,,,,,,,,,
,,,,,single-stim-button,17,156262,0.0-2.0-3.0-0.0,5c492c7167b61b000190bfe8,C3,batch3,,3726,tol_practice,,,,tol_peg_2,3726,3726,0,"[[1,2,0],[0,0],[0]]",1,"[[1,2,0],[0,0],[3]]",practice,3726,,,,,,,,,,,,,,,
,,,,,single-stim-button,18,159016,0.0-2.0-3.0-1.0,5c492c7167b61b000190bfe8,C3,batch3,,2753,tol_practice,,,,tol_peg_3,2753,2753,0,"[[1,2,0],[0,0],[3]]",1,"[[1,2,0],[0,0],[3]]",practice,2753,,,,,,,,,,,,,,,
,,,,,poldrack-single-stim,19,160020,0.0-2.0-4.0,5c492c7167b61b000190bfe8,C3,batch3,,-1,tol_feedback,,,TRUE,,1000,1000,500,,,,,,-1,none,TRUE,,0,,,,,,,,,,
,,,,,single-stim-button,20,166299,0.0-2.0-5.0-0.0,5c492c7167b61b000190bfe8,C3,batch3,,6278,tol_practice,,,,tol_peg_1,6278,6278,0,"[[1,0,0],[3,0],[0]]",2,"[[0,0,0],[3,1],[2]]",practice,6278,,,,,,,,,,,,,,,
,,,,,single-stim-button,21,167766,0.0-2.0-5.0-1.0,5c492c7167b61b000190bfe8,C3,batch3,,1466,tol_practice,,,,tol_peg_3,1466,1466,0,"[[1,0,0],[3,0],[2]]",2,"[[0,0,0],[3,1],[2]]",practice,1466,,,,,,,,,,,,,,,
,,,,,single-stim-button,22,169895,0.0-2.0-5.1-0.1,5c492c7167b61b000190bfe8,C3,batch3,,2129,tol_practice,,,,tol_peg_1,2129,2129,0,"[[0,0,0],[3,0],[2]]",3,"[[0,0,0],[3,1],[2]]",practice,2129,,,,,,,,,,,,,,,
,,,,,single-stim-button,23,171549,0.0-2.0-5.1-1.1,5c492c7167b61b000190bfe8,C3,batch3,,1654,tol_practice,,,,tol_peg_2,1654,1654,0,"[[0,0,0],[3,1],[2]]",3,"[[0,0,0],[3,1],[2]]",practice,1654,,,,,,,,,,,,,,,
,,,,,poldrack-single-stim,24,172556,0.0-2.0-6.0,5c492c7167b61b000190bfe8,C3,batch3,,-1,tol_feedback,,,TRUE,,1000,1000,500,,,,,,-1,none,TRUE,,0,,,,,,,,,,
,,,,,single-stim-button,25,177792,0.0-2.0-7.0-0.0,5c492c7167b61b000190bfe8,C3,batch3,,5234,tol_practice,,,,tol_peg_2,5234,5234,0,"[[1,2,0],[0,0],[0]]",4,"[[1,0,0],[2,0],[3]]",practice,5234,,,,,,,,,,,,,,,
,,,,,single-stim-button,26,178973,0.0-2.0-7.0-1.0,5c492c7167b61b000190bfe8,C3,batch3,,1180,tol_practice,,,,tol_peg_3,1180,1180,0,"[[1,2,0],[0,0],[3]]",4,"[[1,0,0],[2,0],[3]]",practice,1180,,,,,,,,,,,,,,,
,,,,,single-stim-button,27,180089,0.0-2.0-7.1-0.1,5c492c7167b61b000190bfe8,C3,batch3,,1115,tol_practice,,,,tol_peg_1,1115,1115,0,"[[1,0,0],[0,0],[3]]",5,"[[1,0,0],[2,0],[3]]",practice,1115,,,,,,,,,,,,,,,
,,,,,single-stim-button,28,180986,0.0-2.0-7.1-1.1,5c492c7167b61b000190bfe8,C3,batch3,,897,tol_practice,,,,tol_peg_2,897,897,0,"[[1,0,0],[2,0],[3]]",5,"[[1,0,0],[2,0],[3]]",practice,897,,,,,,,,,,,,,,,
,,,,,poldrack-single-stim,29,181990,0.0-2.0-8.0,5c492c7167b61b000190bfe8,C3,batch3,,-1,tol_feedback,,,TRUE,,1000,1000,500,,,,,,-1,none,TRUE,,0,,,,,,,,,,
,,,,,html-button-response,30,183596,0.0-2.0-9.0,5c492c7167b61b000190bfe8,C3,batch3,,1604.8999999761600,tol_instruction,<div class = centerbox><p class = center-block-text>Great job! You are done with practice trials<br>You are about to start official trials.<br> <br> Problem <strong>1</strong> out of 25 problems</p></div>,0,,,,,,,,,,,,,,,,,,,,,,,,,
,,,,,single-stim-button,31,188555,0.0-2.0-10.0-0.0,5c492c7167b61b000190bfe8,C3,batch3,,3952,tol_tohand,,,,tol_peg_1,3952,3952,0,"[[1,0,0],[3,0],[0]]",1,"[[1,3,0],[2,0],[0]]",0,0,,,,,,3,,,,,,,,,
,,,,,single-stim-button,32,191233,0.0-2.0-10.0-1.0,5c492c7167b61b000190bfe8,C3,batch3,,2678,tol_toboard,,,,tol_peg_3,2678,2678,0,"[[1,0,0],[3,0],[2]]",1,"[[1,3,0],[2,0],[0]]",0,0,,,,,,3,,,,,,,,,
,,,,,single-stim-button,33,193423,0.0-2.0-10.1-0.1,5c492c7167b61b000190bfe8,C3,batch3,,2189,tol_tohand,,,,tol_peg_2,2189,2189,0,"[[1,0,0],[0,0],[2]]",2,"[[1,3,0],[2,0],[0]]",0,0,,,,,,3,,,,,,,,,
,,,,,single-stim-button,34,194804,0.0-2.0-10.1-1.1,5c492c7167b61b000190bfe8,C3,batch3,,1381,tol_toboard,,,,tol_peg_1,1381,1381,0,"[[1,3,0],[0,0],[2]]",2,"[[1,3,0],[2,0],[0]]",0,0,,,,,,3,,,,,,,,,
,,,,,single-stim-button,35,196222,0.0-2.0-10.2-0.2,5c492c7167b61b000190bfe8,C3,batch3,,1418,tol_tohand,,,,tol_peg_3,1418,1418,0,"[[1,3,0],[0,0],[0]]",3,"[[1,3,0],[2,0],[0]]",0,0,,,,,,3,,,,,,,,,
,,,,,single-stim-button,36,196949,0.0-2.0-10.2-1.2,5c492c7167b61b000190bfe8,C3,batch3,,727,tol_toboard,,,,tol_peg_2,727,727,0,"[[1,3,0],[2,0],[0]]",3,"[[1,3,0],[2,0],[0]]",0,0,,,,,,3,,,,,,,,,
,,,,,poldrack-single-stim,37,197960,0.0-2.0-11.0,5c492c7167b61b000190bfe8,C3,batch3,,-1,tol_feedback,,,TRUE,,1000,1000,500,,,,,,-1,none,TRUE,3952,7559,,,,,,,,,,
,,,,,html-button-response,38,199218,0.0-2.0-12.0,5c492c7167b61b000190bfe8,C3,batch3,,1255.9000000357600,tol_trial_num,<div class = centerbox><p class = center-block-text>problem <strong>2</strong> out of 25 problems</p></div>,0,,,,,,,,,,,,,,,,,,,,,,,,,
,,,,,single-stim-button,39,203897,0.0-2.0-13.0-0.0,5c492c7167b61b000190bfe8,C3,batch3,,4678,tol_tohand,,,,tol_peg_1,4678,4678,0,"[[1,0,0],[3,0],[0]]",1,"[[2,1,3],[0,0],[0]]",1,0,,,,,,5,,,,,,,,,
,,,,,single-stim-button,40,204864,0.0-2.0-13.0-1.0,5c492c7167b61b000190bfe8,C3,batch3,,967,tol_toboard,,,,tol_peg_3,967,967,0,"[[1,0,0],[3,0],[2]]",1,"[[2,1,3],[0,0],[0]]",1,0,,,,,,5,,,,,,,,,
,,,,,single-stim-button,41,205855,0.0-2.0-13.1-0.1,5c492c7167b61b000190bfe8,C3,batch3,,991,tol_tohand,,,,tol_peg_1,991,991,0,"[[0,0,0],[3,0],[2]]",2,"[[2,1,3],[0,0],[0]]",1,0,,,,,,5,,,,,,,,,
,,,,,single-stim-button,42,208615,0.0-2.0-13.1-1.1,5c492c7167b61b000190bfe8,C3,batch3,,2760,tol_toboard,,,,tol_peg_2,2760,2760,0,"[[0,0,0],[3,1],[2]]",2,"[[2,1,3],[0,0],[0]]",1,0,,,,,,5,,,,,,,,,
,,,,,single-stim-button,43,210126,0.0-2.0-13.2-0.2,5c492c7167b61b000190bfe8,C3,batch3,,1511,tol_tohand,,,,tol_peg_3,1511,1511,0,"[[0,0,0],[3,1],[0]]",3,"[[2,1,3],[0,0],[0]]",1,0,,,,,,5,,,,,,,,,
,,,,,single-stim-button,44,211114,0.0-2.0-13.2-1.2,5c492c7167b61b000190bfe8,C3,batch3,,988,tol_toboard,,,,tol_peg_1,988,988,0,"[[2,0,0],[3,1],[0]]",3,"[[2,1,3],[0,0],[0]]",1,0,,,,,,5,,,,,,,,,
,,,,,single-stim-button,45,211948,0.0-2.0-13.3-0.3,5c492c7167b61b000190bfe8,C3,batch3,,833,tol_tohand,,,,tol_peg_2,833,833,0,"[[2,0,0],[3,0],[0]]",4,"[[2,1,3],[0,0],[0]]",1,0,,,,,,5,,,,,,,,,
,,,,,single-stim-button,46,212933,0.0-2.0-13.3-1.3,5c492c7167b61b000190bfe8,C3,batch3,,985,tol_toboard,,,,tol_peg_1,985,985,0,"[[2,1,0],[3,0],[0]]",4,"[[2,1,3],[0,0],[0]]",1,0,,,,,,5,,,,,,,,,
,,,,,single-stim-button,47,213807,0.0-2.0-13.4-0.4,5c492c7167b61b000190bfe8,C3,batch3,,873,tol_tohand,,,,tol_peg_2,873,873,0,"[[2,1,0],[0,0],[0]]",5,"[[2,1,3],[0,0],[0]]",1,0,,,,,,5,,,,,,,,,
,,,,,single-stim-button,48,214470,0.0-2.0-13.4-1.4,5c492c7167b61b000190bfe8,C3,batch3,,662,tol_toboard,,,,tol_peg_1,662,662,0,"[[2,1,3],[0,0],[0]]",5,"[[2,1,3],[0,0],[0]]",1,0,,,,,,5,,,,,,,,,
,,,,,poldrack-single-stim,49,215479,0.0-2.0-14.0,5c492c7167b61b000190bfe8,C3,batch3,,-1,tol_feedback,,,TRUE,,1000,1000,500,,,,,,-1,none,TRUE,4678,8886,,,,,,,,,,
,,,,,html-button-response,50,216583,0.0-2.0-15.0,5c492c7167b61b000190bfe8,C3,batch3,,1102.5,tol_trial_num,<div class = centerbox><p class = center-block-text>problem <strong>3</strong> out of 25 problems</p></div>,0,,,,,,,,,,,,,,,,,,,,,,,,,
,,,,,single-stim-button,51,223776,0.0-2.0-16.0-0.0,5c492c7167b61b000190bfe8,C3,batch3,,7193,tol_tohand,,,,tol_peg_1,7193,7193,0,"[[2,0,0],[0,0],[1]]",1,"[[1,2,0],[3,0],[0]]",2,0,,,,,,4,,,,,,,,,
,,,,,single-stim-button,52,225842,0.0-2.0-16.0-1.0,5c492c7167b61b000190bfe8,C3,batch3,,2065,tol_toboard,,,,tol_peg_2,2065,2065,0,"[[2,0,0],[3,0],[1]]",1,"[[1,2,0],[3,0],[0]]",2,0,,,,,,4,,,,,,,,,
,,,,,single-stim-button,53,226584,0.0-2.0-16.1-0.1,5c492c7167b61b000190bfe8,C3,batch3,,742,tol_tohand,,,,tol_peg_1,742,742,0,"[[0,0,0],[3,0],[1]]",2,"[[1,2,0],[3,0],[0]]",2,0,,,,,,4,,,,,,,,,
,,,,,single-stim-button,54,227083,0.0-2.0-16.1-1.1,5c492c7167b61b000190bfe8,C3,batch3,,499,tol_toboard,,,,tol_peg_2,499,499,0,"[[0,0,0],[3,2],[1]]",2,"[[1,2,0],[3,0],[0]]",2,0,,,,,,4,,,,,,,,,
,,,,,single-stim-button,55,227800,0.0-2.0-16.2-0.2,5c492c7167b61b000190bfe8,C3,batch3,,716,tol_tohand,,,,tol_peg_3,716,716,0,"[[0,0,0],[3,2],[0]]",3,"[[1,2,0],[3,0],[0]]",2,0,,,,,,4,,,,,,,,,
,,,,,single-stim-button,56,230142,0.0-2.0-16.2-1.2,5c492c7167b61b000190bfe8,C3,batch3,,2342,tol_toboard,,,,tol_peg_1,2342,2342,0,"[[1,0,0],[3,2],[0]]",3,"[[1,2,0],[3,0],[0]]",2,0,,,,,,4,,,,,,,,,
,,,,,single-stim-button,57,230768,0.0-2.0-16.3-0.3,5c492c7167b61b000190bfe8,C3,batch3,,625,tol_tohand,,,,tol_peg_2,625,625,0,"[[1,0,0],[3,0],[0]]",4,"[[1,2,0],[3,0],[0]]",2,0,,,,,,4,,,,,,,,,
,,,,,single-stim-button,58,231684,0.0-2.0-16.3-1.3,5c492c7167b61b000190bfe8,C3,batch3,,916,tol_toboard,,,,tol_peg_1,916,916,0,"[[1,2,0],[3,0],[0]]",4,"[[1,2,0],[3,0],[0]]",2,0,,,,,,4,,,,,,,,,
,,,,,poldrack-single-stim,59,232686,0.0-2.0-17.0,5c492c7167b61b000190bfe8,C3,batch3,,-1,tol_feedback,,,TRUE,,1000,1000,500,,,,,,-1,none,TRUE,7193,9276,,,,,,,,,,
,,,,,html-button-response,60,233454,0.0-2.0-18.0,5c492c7167b61b000190bfe8,C3,batch3,,765.6000000238420,tol_trial_num,<div class = centerbox><p class = center-block-text>problem <strong>4</strong> out of 25 problems</p></div>,0,,,,,,,,,,,,,,,,,,,,,,,,,
,,,,,single-stim-button,61,239055,0.0-2.0-19.0-0.0,5c492c7167b61b000190bfe8,C3,batch3,,5601,tol_tohand,,,,tol_peg_2,5601,5601,0,"[[3,0,0],[2,0],[0]]",1,"[[3,0,0],[1,0],[2]]",3,0,,,,,,3,,,,,,,,,
,,,,,single-stim-button,62,239721,0.0-2.0-19.0-1.0,5c492c7167b61b000190bfe8,C3,batch3,,665,tol_toboard,,,,tol_peg_1,665,665,0,"[[3,1,0],[2,0],[0]]",1,"[[3,0,0],[1,0],[2]]",3,0,,,,,,3,,,,,,,,,
,,,,,single-stim-button,63,240637,0.0-2.0-19.1-0.1,5c492c7167b61b000190bfe8,C3,batch3,,916,tol_tohand,,,,tol_peg_2,916,916,0,"[[3,1,0],[0,0],[0]]",2,"[[3,0,0],[1,0],[2]]",3,0,,,,,,3,,,,,,,,,
,,,,,single-stim-button,64,241450,0.0-2.0-19.1-1.1,5c492c7167b61b000190bfe8,C3,batch3,,812,tol_toboard,,,,tol_peg_3,812,812,0,"[[3,1,0],[0,0],[2]]",2,"[[3,0,0],[1,0],[2]]",3,0,,,,,,3,,,,,,,,,
,,,,,single-stim-button,65,242088,0.0-2.0-19.2-0.2,5c492c7167b61b000190bfe8,C3,batch3,,638,tol_tohand,,,,tol_peg_1,638,638,0,"[[3,0,0],[0,0],[2]]",3,"[[3,0,0],[1,0],[2]]",3,0,,,,,,3,,,,,,,,,
,,,,,single-stim-button,66,242549,0.0-2.0-19.2-1.2,5c492c7167b61b000190bfe8,C3,batch3,,460,tol_toboard,,,,tol_peg_2,460,460,0,"[[3,0,0],[1,0],[2]]",3,"[[3,0,0],[1,0],[2]]",3,0,,,,,,3,,,,,,,,,
,,,,,poldrack-single-stim,67,243553,0.0-2.0-20.0,5c492c7167b61b000190bfe8,C3,batch3,,-1,tol_feedback,,,TRUE,,1000,1000,500,,,,,,-1,none,TRUE,5601,7155,,,,,,,,,,
,,,,,html-button-response,68,244649,0.0-2.0-21.0,5c492c7167b61b000190bfe8,C3,batch3,,1094.699999988080,tol_trial_num,<div class = centerbox><p class = center-block-text>problem <strong>5</strong> out of 25 problems</p></div>,0,,,,,,,,,,,,,,,,,,,,,,,,,
,,,,,single-stim-button,69,252248,0.0-2.0-22.0-0.0,5c492c7167b61b000190bfe8,C3,batch3,,7598,tol_tohand,,,,tol_peg_2,7598,7598,0,"[[1,0,0],[0,0],[3]]",1,"[[0,0,0],[1,2],[3]]",4,0,,,,,,7,,,,,,,,,
,,,,,single-stim-button,70,255442,0.0-2.0-22.0-1.0,5c492c7167b61b000190bfe8,C3,batch3,,3194,tol_toboard,,,,tol_peg_2,3194,3194,0,"[[1,0,0],[2,0],[3]]",1,"[[0,0,0],[1,2],[3]]",4,0,,,,,,7,,,,,,,,,
,,,,,single-stim-button,71,269802,0.0-2.0-22.1-0.1,5c492c7167b61b000190bfe8,C3,batch3,,14360,tol_tohand,,,,tol_peg_3,14360,14360,0,"[[1,0,0],[2,0],[0]]",2,"[[0,0,0],[1,2],[3]]",4,0,,,,,,7,,,,,,,,,
,,,,,single-stim-button,72,272495,0.0-2.0-22.1-1.1,5c492c7167b61b000190bfe8,C3,batch3,,2692,tol_toboard,,,,tol_peg_2,2692,2692,0,"[[1,0,0],[2,3],[0]]",2,"[[0,0,0],[1,2],[3]]",4,0,,,,,,7,,,,,,,,,
,,,,,single-stim-button,73,272997,0.0-2.0-22.2-0.2,5c492c7167b61b000190bfe8,C3,batch3,,501,tol_tohand,,,,tol_peg_1,501,501,0,"[[0,0,0],[2,3],[0]]",3,"[[0,0,0],[1,2],[3]]",4,0,,,,,,7,,,,,,,,,
,,,,,single-stim-button,74,273904,0.0-2.0-22.2-1.2,5c492c7167b61b000190bfe8,C3,batch3,,906,tol_toboard,,,,tol_peg_3,906,906,0,"[[0,0,0],[2,3],[1]]",3,"[[0,0,0],[1,2],[3]]",4,0,,,,,,7,,,,,,,,,
,,,,,single-stim-button,75,275916,0.0-2.0-22.3-0.3,5c492c7167b61b000190bfe8,C3,batch3,,2011,tol_tohand,,,,tol_peg_2,2011,2011,0,"[[0,0,0],[2,0],[1]]",4,"[[0,0,0],[1,2],[3]]",4,0,,,,,,7,,,,,,,,,
,,,,,single-stim-button,76,276812,0.0-2.0-22.3-1.3,5c492c7167b61b000190bfe8,C3,batch3,,895,tol_toboard,,,,tol_peg_1,895,895,0,"[[3,0,0],[2,0],[1]]",4,"[[0,0,0],[1,2],[3]]",4,0,,,,,,7,,,,,,,,,
,,,,,single-stim-button,77,277337,0.0-2.0-22.4-0.4,5c492c7167b61b000190bfe8,C3,batch3,,525,tol_tohand,,,,tol_peg_2,525,525,0,"[[3,0,0],[0,0],[1]]",5,"[[0,0,0],[1,2],[3]]",4,0,,,,,,7,,,,,,,,,
,,,,,single-stim-button,78,279413,0.0-2.0-22.4-1.4,5c492c7167b61b000190bfe8,C3,batch3,,2076,tol_toboard,,,,tol_peg_1,2076,2076,0,"[[3,2,0],[0,0],[1]]",5,"[[0,0,0],[1,2],[3]]",4,0,,,,,,7,,,,,,,,,
,,,,,single-stim-button,79,280441,0.0-2.0-22.5-0.5,5c492c7167b61b000190bfe8,C3,batch3,,1027,tol_tohand,,,,tol_peg_3,1027,1027,0,"[[3,2,0],[0,0],[0]]",6,"[[0,0,0],[1,2],[3]]",4,0,,,,,,7,,,,,,,,,
,,,,,single-stim-button,80,281575,0.0-2.0-22.5-1.5,5c492c7167b61b000190bfe8,C3,batch3,,1133,tol_toboard,,,,tol_peg_2,1133,1133,0,"[[3,2,0],[1,0],[0]]",6,"[[0,0,0],[1,2],[3]]",4,0,,,,,,7,,,,,,,,,
,,,,,single-stim-button,81,282158,0.0-2.0-22.6-0.6,5c492c7167b61b000190bfe8,C3,batch3,,582,tol_tohand,,,,tol_peg_1,582,582,0,"[[3,0,0],[1,0],[0]]",7,"[[0,0,0],[1,2],[3]]",4,0,,,,,,7,,,,,,,,,
,,,,,single-stim-button,82,282802,0.0-2.0-22.6-1.6,5c492c7167b61b000190bfe8,C3,batch3,,643,tol_toboard,,,,tol_peg_2,643,643,0,"[[3,0,0],[1,2],[0]]",7,"[[0,0,0],[1,2],[3]]",4,0,,,,,,7,,,,,,,,,
,,,,,single-stim-button,83,283622,0.0-2.0-22.7-0.7,5c492c7167b61b000190bfe8,C3,batch3,,820,tol_tohand,,,,tol_peg_1,820,820,0,"[[0,0,0],[1,2],[0]]",8,"[[0,0,0],[1,2],[3]]",4,0,,,,,,7,,,,,,,,,
,,,,,single-stim-button,84,284466,0.0-2.0-22.7-1.7,5c492c7167b61b000190bfe8,C3,batch3,,844,tol_toboard,,,,tol_peg_3,844,844,0,"[[0,0,0],[1,2],[3]]",8,"[[0,0,0],[1,2],[3]]",4,0,,,,,,7,,,,,,,,,
,,,,,poldrack-single-stim,85,285468,0.0-2.0-23.0,5c492c7167b61b000190bfe8,C3,batch3,,-1,tol_feedback,,,TRUE,,1000,1000,500,,,,,,-1,none,TRUE,7598,27424,,,,,,,,,,
,,,,,html-button-response,86,286365,0.0-2.0-24.0,5c492c7167b61b000190bfe8,C3,batch3,,895.6000000238420,tol_trial_num,<div class = centerbox><p class = center-block-text>problem <strong>6</strong> out of 25 problems</p></div>,0,,,,,,,,,,,,,,,,,,,,,,,,,
,,,,,single-stim-button,87,292299,0.0-2.0-25.0-0.0,5c492c7167b61b000190bfe8,C3,batch3,,5933,tol_tohand,,,,tol_peg_3,5933,5933,0,"[[0,0,0],[1,2],[0]]",1,"[[1,0,0],[2,3],[0]]",5,0,,,,,,6,,,,,,,,,
,,,,,single-stim-button,88,293679,0.0-2.0-25.0-1.0,5c492c7167b61b000190bfe8,C3,batch3,,1379,tol_toboard,,,,tol_peg_1,1379,1379,0,"[[3,0,0],[1,2],[0]]",1,"[[1,0,0],[2,3],[0]]",5,0,,,,,,6,,,,,,,,,
,,,,,single-stim-button,89,294200,0.0-2.0-25.1-0.1,5c492c7167b61b000190bfe8,C3,batch3,,521,tol_tohand,,,,tol_peg_2,521,521,0,"[[3,0,0],[1,0],[0]]",2,"[[1,0,0],[2,3],[0]]",5,0,,,,,,6,,,,,,,,,
,,,,,single-stim-button,90,295072,0.0-2.0-25.1-1.1,5c492c7167b61b000190bfe8,C3,batch3,,871,tol_toboard,,,,tol_peg_1,871,871,0,"[[3,2,0],[1,0],[0]]",2,"[[1,0,0],[2,3],[0]]",5,0,,,,,,6,,,,,,,,,
,,,,,single-stim-button,91,295831,0.0-2.0-25.2-0.2,5c492c7167b61b000190bfe8,C3,batch3,,759,tol_tohand,,,,tol_peg_2,759,759,0,"[[3,2,0],[0,0],[0]]",3,"[[1,0,0],[2,3],[0]]",5,0,,,,,,6,,,,,,,,,
,,,,,single-stim-button,92,296475,0.0-2.0-25.2-1.2,5c492c7167b61b000190bfe8,C3,batch3,,643,tol_toboard,,,,tol_peg_3,643,643,0,"[[3,2,0],[0,0],[1]]",3,"[[1,0,0],[2,3],[0]]",5,0,,,,,,6,,,,,,,,,
,,,,,single-stim-button,93,297537,0.0-2.0-25.3-0.3,5c492c7167b61b000190bfe8,C3,batch3,,1062,tol_tohand,,,,tol_peg_1,1062,1062,0,"[[3,0,0],[0,0],[1]]",4,"[[1,0,0],[2,3],[0]]",5,0,,,,,,6,,,,,,,,,
,,,,,single-stim-button,94,298144,0.0-2.0-25.3-1.3,5c492c7167b61b000190bfe8,C3,batch3,,607,tol_toboard,,,,tol_peg_2,607,607,0,"[[3,0,0],[2,0],[1]]",4,"[[1,0,0],[2,3],[0]]",5,0,,,,,,6,,,,,,,,,
,,,,,single-stim-button,95,298608,0.0-2.0-25.4-0.4,5c492c7167b61b000190bfe8,C3,batch3,,464,tol_tohand,,,,tol_peg_1,464,464,0,"[[0,0,0],[2,0],[1]]",5,"[[1,0,0],[2,3],[0]]",5,0,,,,,,6,,,,,,,,,
,,,,,single-stim-button,96,299423,0.0-2.0-25.4-1.4,5c492c7167b61b000190bfe8,C3,batch3,,814,tol_toboard,,,,tol_peg_2,814,814,0,"[[0,0,0],[2,3],[1]]",5,"[[1,0,0],[2,3],[0]]",5,0,,,,,,6,,,,,,,,,
,,,,,single-stim-button,97,300025,0.0-2.0-25.5-0.5,5c492c7167b61b000190bfe8,C3,batch3,,601,tol_tohand,,,,tol_peg_3,601,601,0,"[[0,0,0],[2,3],[0]]",6,"[[1,0,0],[2,3],[0]]",5,0,,,,,,6,,,,,,,,,
,,,,,single-stim-button,98,300649,0.0-2.0-25.5-1.5,5c492c7167b61b000190bfe8,C3,batch3,,624,tol_toboard,,,,tol_peg_1,624,624,0,"[[1,0,0],[2,3],[0]]",6,"[[1,0,0],[2,3],[0]]",5,0,,,,,,6,,,,,,,,,
,,,,,poldrack-single-stim,99,301656,0.0-2.0-26.0,5c492c7167b61b000190bfe8,C3,batch3,,-1,tol_feedback,,,TRUE,,1000,1000,500,,,,,,-1,none,TRUE,5933,9340,,,,,,,,,,
,,,,,html-button-response,100,302276,0.0-2.0-27.0,5c492c7167b61b000190bfe8,C3,batch3,,618.9000000357630,tol_trial_num,<div class = centerbox><p class = center-block-text>problem <strong>7</strong> out of 25 problems</p></div>,0,,,,,,,,,,,,,,,,,,,,,,,,,
,,,,,single-stim-button,101,307922,0.0-2.0-28.0-0.0,5c492c7167b61b000190bfe8,C3,batch3,,5645,tol_tohand,,,,tol_peg_3,5645,5645,0,"[[2,1,0],[0,0],[0]]",1,"[[1,2,0],[3,0],[0]]",6,0,,,,,,5,,,,,,,,,
,,,,,single-stim-button,102,308883,0.0-2.0-28.0-1.0,5c492c7167b61b000190bfe8,C3,batch3,,961,tol_toboard,,,,tol_peg_2,961,961,0,"[[2,1,0],[3,0],[0]]",1,"[[1,2,0],[3,0],[0]]",6,0,,,,,,5,,,,,,,,,
,,,,,single-stim-button,103,309654,0.0-2.0-28.1-0.1,5c492c7167b61b000190bfe8,C3,batch3,,770,tol_tohand,,,,tol_peg_1,770,770,0,"[[2,0,0],[3,0],[0]]",2,"[[1,2,0],[3,0],[0]]",6,0,,,,,,5,,,,,,,,,
,,,,,single-stim-button,104,312356,0.0-2.0-28.1-1.1,5c492c7167b61b000190bfe8,C3,batch3,,2702,tol_toboard,,,,tol_peg_3,2702,2702,0,"[[2,0,0],[3,0],[1]]",2,"[[1,2,0],[3,0],[0]]",6,0,,,,,,5,,,,,,,,,
,,,,,single-stim-button,105,312892,0.0-2.0-28.2-0.2,5c492c7167b61b000190bfe8,C3,batch3,,536,tol_tohand,,,,tol_peg_1,536,536,0,"[[0,0,0],[3,0],[1]]",3,"[[1,2,0],[3,0],[0]]",6,0,,,,,,5,,,,,,,,,
,,,,,single-stim-button,106,313633,0.0-2.0-28.2-1.2,5c492c7167b61b000190bfe8,C3,batch3,,741,tol_toboard,,,,tol_peg_2,741,741,0,"[[0,0,0],[3,2],[1]]",3,"[[1,2,0],[3,0],[0]]",6,0,,,,,,5,,,,,,,,,
,,,,,single-stim-button,107,315394,0.0-2.0-28.3-0.3,5c492c7167b61b000190bfe8,C3,batch3,,1761,tol_tohand,,,,tol_peg_3,1761,1761,0,"[[0,0,0],[3,2],[0]]",4,"[[1,2,0],[3,0],[0]]",6,0,,,,,,5,,,,,,,,,
,,,,,single-stim-button,108,315922,0.0-2.0-28.3-1.3,5c492c7167b61b000190bfe8,C3,batch3,,528,tol_toboard,,,,tol_peg_1,528,528,0,"[[1,0,0],[3,2],[0]]",4,"[[1,2,0],[3,0],[0]]",6,0,,,,,,5,,,,,,,,,
,,,,,single-stim-button,109,316493,0.0-2.0-28.4-0.4,5c492c7167b61b000190bfe8,C3,batch3,,571,tol_tohand,,,,tol_peg_2,571,571,0,"[[1,0,0],[3,0],[0]]",5,"[[1,2,0],[3,0],[0]]",6,0,,,,,,5,,,,,,,,,
,,,,,single-stim-button,110,317004,0.0-2.0-28.4-1.4,5c492c7167b61b000190bfe8,C3,batch3,,511,tol_toboard,,,,tol_peg_1,511,511,0,"[[1,2,0],[3,0],[0]]",5,"[[1,2,0],[3,0],[0]]",6,0,,,,,,5,,,,,,,,,
,,,,,poldrack-single-stim,111,318005,0.0-2.0-29.0,5c492c7167b61b000190bfe8,C3,batch3,,-1,tol_feedback,,,TRUE,,1000,1000,500,,,,,,-1,none,TRUE,5645,9283,,,,,,,,,,
,,,,,html-button-response,112,318682,0.0-2.0-30.0,5c492c7167b61b000190bfe8,C3,batch3,,675.8000000119210,tol_trial_num,<div class = centerbox><p class = center-block-text>problem <strong>8</strong> out of 25 problems</p></div>,0,,,,,,,,,,,,,,,,,,,,,,,,,
,,,,,single-stim-button,113,321834,0.0-2.0-31.0-0.0,5c492c7167b61b000190bfe8,C3,batch3,,3151,tol_tohand,,,,tol_peg_3,3151,3151,0,"[[0,0,0],[2,3],[0]]",1,"[[1,2,0],[3,0],[0]]",7,0,,,,,,4,,,,,,,,,
,,,,,single-stim-button,114,322515,0.0-2.0-31.0-1.0,5c492c7167b61b000190bfe8,C3,batch3,,681,tol_toboard,,,,tol_peg_1,681,681,0,"[[1,0,0],[2,3],[0]]",1,"[[1,2,0],[3,0],[0]]",7,0,,,,,,4,,,,,,,,,
,,,,,single-stim-button,115,323401,0.0-2.0-31.1-0.1,5c492c7167b61b000190bfe8,C3,batch3,,886,tol_tohand,,,,tol_peg_2,886,886,0,"[[1,0,0],[2,0],[0]]",2,"[[1,2,0],[3,0],[0]]",7,0,,,,,,4,,,,,,,,,
,,,,,single-stim-button,116,323934,0.0-2.0-31.1-1.1,5c492c7167b61b000190bfe8,C3,batch3,,533,tol_toboard,,,,tol_peg_3,533,533,0,"[[1,0,0],[2,0],[3]]",2,"[[1,2,0],[3,0],[0]]",7,0,,,,,,4,,,,,,,,,
,,,,,single-stim-button,117,324367,0.0-2.0-31.2-0.2,5c492c7167b61b000190bfe8,C3,batch3,,433,tol_tohand,,,,tol_peg_2,433,433,0,"[[1,0,0],[0,0],[3]]",3,"[[1,2,0],[3,0],[0]]",7,0,,,,,,4,,,,,,,,,
,,,,,single-stim-button,118,325871,0.0-2.0-31.2-1.2,5c492c7167b61b000190bfe8,C3,batch3,,1504,tol_toboard,,,,tol_peg_1,1504,1504,0,"[[1,2,0],[0,0],[3]]",3,"[[1,2,0],[3,0],[0]]",7,0,,,,,,4,,,,,,,,,
,,,,,single-stim-button,119,326916,0.0-2.0-31.3-0.3,5c492c7167b61b000190bfe8,C3,batch3,,1045,tol_tohand,,,,tol_peg_3,1045,1045,0,"[[1,2,0],[0,0],[0]]",4,"[[1,2,0],[3,0],[0]]",7,0,,,,,,4,,,,,,,,,
,,,,,single-stim-button,120,327398,0.0-2.0-31.3-1.3,5c492c7167b61b000190bfe8,C3,batch3,,482,tol_toboard,,,,tol_peg_2,482,482,0,"[[1,2,0],[3,0],[0]]",4,"[[1,2,0],[3,0],[0]]",7,0,,,,,,4,,,,,,,,,
,,,,,poldrack-single-stim,121,328400,0.0-2.0-32.0,5c492c7167b61b000190bfe8,C3,batch3,,-1,tol_feedback,,,TRUE,,1000,1000,500,,,,,,-1,none,TRUE,3151,5515,,,,,,,,,,
,,,,,html-button-response,122,330104,0.0-2.0-33.0,5c492c7167b61b000190bfe8,C3,batch3,,1701.8999999761600,tol_trial_num,<div class = centerbox><p class = center-block-text>problem <strong>9</strong> out of 25 problems</p></div>,0,,,,,,,,,,,,,,,,,,,,,,,,,
,,,,,single-stim-button,123,336004,0.0-2.0-34.0-0.0,5c492c7167b61b000190bfe8,C3,batch3,,5900,tol_tohand,,,,tol_peg_1,5900,5900,0,"[[3,0,0],[0,0],[1]]",1,"[[2,1,0],[3,0],[0]]",8,0,,,,,,6,,,,,,,,,
,,,,,single-stim-button,124,340869,0.0-2.0-34.0-1.0,5c492c7167b61b000190bfe8,C3,batch3,,4865,tol_toboard,,,,tol_peg_1,4865,4865,0,"[[3,2,0],[0,0],[1]]",1,"[[2,1,0],[3,0],[0]]",8,0,,,,,,6,,,,,,,,,
,,,,,single-stim-button,125,341724,0.0-2.0-34.1-0.1,5c492c7167b61b000190bfe8,C3,batch3,,855,tol_tohand,,,,tol_peg_3,855,855,0,"[[3,2,0],[0,0],[0]]",2,"[[2,1,0],[3,0],[0]]",8,0,,,,,,6,,,,,,,,,
,,,,,single-stim-button,126,342057,0.0-2.0-34.1-1.1,5c492c7167b61b000190bfe8,C3,batch3,,333,tol_toboard,,,,tol_peg_2,333,333,0,"[[3,2,0],[1,0],[0]]",2,"[[2,1,0],[3,0],[0]]",8,0,,,,,,6,,,,,,,,,
,,,,,single-stim-button,127,344234,0.0-2.0-34.2-0.2,5c492c7167b61b000190bfe8,C3,batch3,,2177,tol_tohand,,,,tol_peg_1,2177,2177,0,"[[3,0,0],[1,0],[0]]",3,"[[2,1,0],[3,0],[0]]",8,0,,,,,,6,,,,,,,,,
,,,,,single-stim-button,128,344935,0.0-2.0-34.2-1.2,5c492c7167b61b000190bfe8,C3,batch3,,700,tol_toboard,,,,tol_peg_2,700,700,0,"[[3,0,0],[1,2],[0]]",3,"[[2,1,0],[3,0],[0]]",8,0,,,,,,6,,,,,,,,,
,,,,,single-stim-button,129,345638,0.0-2.0-34.3-0.3,5c492c7167b61b000190bfe8,C3,batch3,,703,tol_tohand,,,,tol_peg_1,703,703,0,"[[0,0,0],[1,2],[0]]",4,"[[2,1,0],[3,0],[0]]",8,0,,,,,,6,,,,,,,,,
,,,,,single-stim-button,130,346382,0.0-2.0-34.3-1.3,5c492c7167b61b000190bfe8,C3,batch3,,743,tol_toboard,,,,tol_peg_3,743,743,0,"[[0,0,0],[1,2],[3]]",4,"[[2,1,0],[3,0],[0]]",8,0,,,,,,6,,,,,,,,,
,,,,,single-stim-button,131,347060,0.0-2.0-34.4-0.4,5c492c7167b61b000190bfe8,C3,batch3,,678,tol_tohand,,,,tol_peg_2,678,678,0,"[[0,0,0],[1,0],[3]]",5,"[[2,1,0],[3,0],[0]]",8,0,,,,,,6,,,,,,,,,
,,,,,single-stim-button,132,347570,0.0-2.0-34.4-1.4,5c492c7167b61b000190bfe8,C3,batch3,,510,tol_toboard,,,,tol_peg_1,510,510,0,"[[2,0,0],[1,0],[3]]",5,"[[2,1,0],[3,0],[0]]",8,0,,,,,,6,,,,,,,,,
,,,,,single-stim-button,133,347980,0.0-2.0-34.5-0.5,5c492c7167b61b000190bfe8,C3,batch3,,409,tol_tohand,,,,tol_peg_2,409,409,0,"[[2,0,0],[0,0],[3]]",6,"[[2,1,0],[3,0],[0]]",8,0,,,,,,6,,,,,,,,,
,,,,,single-stim-button,134,348771,0.0-2.0-34.5-1.5,5c492c7167b61b000190bfe8,C3,batch3,,791,tol_toboard,,,,tol_peg_1,791,791,0,"[[2,1,0],[0,0],[3]]",6,"[[2,1,0],[3,0],[0]]",8,0,,,,,,6,,,,,,,,,
,,,,,single-stim-button,135,349980,0.0-2.0-34.6-0.6,5c492c7167b61b000190bfe8,C3,batch3,,1209,tol_tohand,,,,tol_peg_3,1209,1209,0,"[[2,1,0],[0,0],[0]]",7,"[[2,1,0],[3,0],[0]]",8,0,,,,,,6,,,,,,,,,
,,,,,single-stim-button,136,350384,0.0-2.0-34.6-1.6,5c492c7167b61b000190bfe8,C3,batch3,,403,tol_toboard,,,,tol_peg_2,403,403,0,"[[2,1,0],[3,0],[0]]",7,"[[2,1,0],[3,0],[0]]",8,0,,,,,,6,,,,,,,,,
,,,,,poldrack-single-stim,137,351387,0.0-2.0-35.0,5c492c7167b61b000190bfe8,C3,batch3,,-1,tol_feedback,,,TRUE,,1000,1000,500,,,,,,-1,none,TRUE,5900,11931,,,,,,,,,,
,,,,,html-button-response,138,352010,0.0-2.0-36.0,5c492c7167b61b000190bfe8,C3,batch3,,621.8000000119210,tol_trial_num,<div class = centerbox><p class = center-block-text>problem <strong>10</strong> out of 25 problems</p></div>,0,,,,,,,,,,,,,,,,,,,,,,,,,
,,,,,single-stim-button,139,359575,0.0-2.0-37.0-0.0,5c492c7167b61b000190bfe8,C3,batch3,,7564,tol_tohand,,,,tol_peg_2,7564,7564,0,"[[3,0,0],[0,0],[2]]",1,"[[3,0,0],[2,1],[0]]",9,0,,,,,,3,,,,,,,,,
,,,,,single-stim-button,140,359980,0.0-2.0-37.0-1.0,5c492c7167b61b000190bfe8,C3,batch3,,404,tol_toboard,,,,tol_peg_1,404,404,0,"[[3,1,0],[0,0],[2]]",1,"[[3,0,0],[2,1],[0]]",9,0,,,,,,3,,,,,,,,,
,,,,,single-stim-button,141,360571,0.0-2.0-37.1-0.1,5c492c7167b61b000190bfe8,C3,batch3,,590,tol_tohand,,,,tol_peg_3,590,590,0,"[[3,1,0],[0,0],[0]]",2,"[[3,0,0],[2,1],[0]]",9,0,,,,,,3,,,,,,,,,
,,,,,single-stim-button,142,361278,0.0-2.0-37.1-1.1,5c492c7167b61b000190bfe8,C3,batch3,,706,tol_toboard,,,,tol_peg_2,706,706,0,"[[3,1,0],[2,0],[0]]",2,"[[3,0,0],[2,1],[0]]",9,0,,,,,,3,,,,,,,,,
,,,,,single-stim-button,143,361826,0.0-2.0-37.2-0.2,5c492c7167b61b000190bfe8,C3,batch3,,547,tol_tohand,,,,tol_peg_1,547,547,0,"[[3,0,0],[2,0],[0]]",3,"[[3,0,0],[2,1],[0]]",9,0,,,,,,3,,,,,,,,,
,,,,,single-stim-button,144,362210,0.0-2.0-37.2-1.2,5c492c7167b61b000190bfe8,C3,batch3,,383,tol_toboard,,,,tol_peg_2,383,383,0,"[[3,0,0],[2,1],[0]]",3,"[[3,0,0],[2,1],[0]]",9,0,,,,,,3,,,,,,,,,
,,,,,poldrack-single-stim,145,363216,0.0-2.0-38.0,5c492c7167b61b000190bfe8,C3,batch3,,-1,tol_feedback,,,TRUE,,1000,1000,500,,,,,,-1,none,TRUE,7564,8701,,,,,,,,,,
,,,,,html-button-response,146,364219,0.0-2.0-39.0,5c492c7167b61b000190bfe8,C3,batch3,,1001.6000000238400,tol_trial_num,<div class = centerbox><p class = center-block-text>problem <strong>11</strong> out of 25 problems</p></div>,0,,,,,,,,,,,,,,,,,,,,,,,,,
,,,,,single-stim-button,147,376816,0.0-2.0-40.0-0.0,5c492c7167b61b000190bfe8,C3,batch3,,12596,tol_tohand,,,,tol_peg_1,12596,12596,0,"[[1,0,0],[3,0],[0]]",1,"[[2,0,0],[1,3],[0]]",10,0,,,,,,6,,,,,,,,,
,,,,,single-stim-button,148,378066,0.0-2.0-40.0-1.0,5c492c7167b61b000190bfe8,C3,batch3,,1249,tol_toboard,,,,tol_peg_2,1249,1249,0,"[[1,0,0],[3,2],[0]]",1,"[[2,0,0],[1,3],[0]]",10,0,,,,,,6,,,,,,,,,
,,,,,single-stim-button,149,378550,0.0-2.0-40.1-0.1,5c492c7167b61b000190bfe8,C3,batch3,,483,tol_tohand,,,,tol_peg_1,483,483,0,"[[0,0,0],[3,2],[0]]",2,"[[2,0,0],[1,3],[0]]",10,0,,,,,,6,,,,,,,,,
,,,,,single-stim-button,150,379167,0.0-2.0-40.1-1.1,5c492c7167b61b000190bfe8,C3,batch3,,617,tol_toboard,,,,tol_peg_3,617,617,0,"[[0,0,0],[3,2],[1]]",2,"[[2,0,0],[1,3],[0]]",10,0,,,,,,6,,,,,,,,,
,,,,,single-stim-button,151,379810,0.0-2.0-40.2-0.2,5c492c7167b61b000190bfe8,C3,batch3,,642,tol_tohand,,,,tol_peg_2,642,642,0,"[[0,0,0],[3,0],[1]]",3,"[[2,0,0],[1,3],[0]]",10,0,,,,,,6,,,,,,,,,
,,,,,single-stim-button,152,381489,0.0-2.0-40.2-1.2,5c492c7167b61b000190bfe8,C3,batch3,,1679,tol_toboard,,,,tol_peg_1,1679,1679,0,"[[2,0,0],[3,0],[1]]",3,"[[2,0,0],[1,3],[0]]",10,0,,,,,,6,,,,,,,,,
,,,,,single-stim-button,153,381929,0.0-2.0-40.3-0.3,5c492c7167b61b000190bfe8,C3,batch3,,439,tol_tohand,,,,tol_peg_2,439,439,0,"[[2,0,0],[0,0],[1]]",4,"[[2,0,0],[1,3],[0]]",10,0,,,,,,6,,,,,,,,,
,,,,,single-stim-button,154,382504,0.0-2.0-40.3-1.3,5c492c7167b61b000190bfe8,C3,batch3,,575,tol_toboard,,,,tol_peg_1,575,575,0,"[[2,3,0],[0,0],[1]]",4,"[[2,0,0],[1,3],[0]]",10,0,,,,,,6,,,,,,,,,
,,,,,single-stim-button,155,383079,0.0-2.0-40.4-0.4,5c492c7167b61b000190bfe8,C3,batch3,,574,tol_tohand,,,,tol_peg_3,574,574,0,"[[2,3,0],[0,0],[0]]",5,"[[2,0,0],[1,3],[0]]",10,0,,,,,,6,,,,,,,,,
,,,,,single-stim-button,156,383625,0.0-2.0-40.4-1.4,5c492c7167b61b000190bfe8,C3,batch3,,546,tol_toboard,,,,tol_peg_2,546,546,0,"[[2,3,0],[1,0],[0]]",5,"[[2,0,0],[1,3],[0]]",10,0,,,,,,6,,,,,,,,,
,,,,,single-stim-button,157,384130,0.0-2.0-40.5-0.5,5c492c7167b61b000190bfe8,C3,batch3,,504,tol_tohand,,,,tol_peg_1,504,504,0,"[[2,0,0],[1,0],[0]]",6,"[[2,0,0],[1,3],[0]]",10,0,,,,,,6,,,,,,,,,
,,,,,single-stim-button,158,384739,0.0-2.0-40.5-1.5,5c492c7167b61b000190bfe8,C3,batch3,,609,tol_toboard,,,,tol_peg_2,609,609,0,"[[2,0,0],[1,3],[0]]",6,"[[2,0,0],[1,3],[0]]",10,0,,,,,,6,,,,,,,,,
,,,,,poldrack-single-stim,159,385752,0.0-2.0-41.0,5c492c7167b61b000190bfe8,C3,batch3,,-1,tol_feedback,,,TRUE,,1000,1000,500,,,,,,-1,none,TRUE,12596,15238,,,,,,,,,,
,,,,,html-button-response,160,386375,0.0-2.0-42.0,5c492c7167b61b000190bfe8,C3,batch3,,621.1000000238420,tol_trial_num,<div class = centerbox><p class = center-block-text>problem <strong>12</strong> out of 25 problems</p></div>,0,,,,,,,,,,,,,,,,,,,,,,,,,
,,,,,single-stim-button,161,391402,0.0-2.0-43.0-0.0,5c492c7167b61b000190bfe8,C3,batch3,,5026,tol_tohand,,,,tol_peg_1,5026,5026,0,"[[1,0,0],[3,0],[0]]",1,"[[2,3,0],[0,0],[1]]",11,0,,,,,,4,,,,,,,,,
,,,,,single-stim-button,162,392015,0.0-2.0-43.0-1.0,5c492c7167b61b000190bfe8,C3,batch3,,612,tol_toboard,,,,tol_peg_2,612,612,0,"[[1,0,0],[3,2],[0]]",1,"[[2,3,0],[0,0],[1]]",11,0,,,,,,4,,,,,,,,,
,,,,,single-stim-button,163,392518,0.0-2.0-43.1-0.1,5c492c7167b61b000190bfe8,C3,batch3,,503,tol_tohand,,,,tol_peg_1,503,503,0,"[[0,0,0],[3,2],[0]]",2,"[[2,3,0],[0,0],[1]]",11,0,,,,,,4,,,,,,,,,
,,,,,single-stim-button,164,395789,0.0-2.0-43.1-1.1,5c492c7167b61b000190bfe8,C3,batch3,,3271,tol_toboard,,,,tol_peg_3,3271,3271,0,"[[0,0,0],[3,2],[1]]",2,"[[2,3,0],[0,0],[1]]",11,0,,,,,,4,,,,,,,,,
,,,,,single-stim-button,165,402177,0.0-2.0-43.2-0.2,5c492c7167b61b000190bfe8,C3,batch3,,6387,tol_tohand,,,,tol_peg_3,6387,6387,0,"[[0,0,0],[3,2],[0]]",3,"[[2,3,0],[0,0],[1]]",11,0,,,,,,4,,,,,,,,,
,,,,,single-stim-button,166,403331,0.0-2.0-43.2-1.2,5c492c7167b61b000190bfe8,C3,batch3,,1153,tol_toboard,,,,tol_peg_1,1153,1153,0,"[[1,0,0],[3,2],[0]]",3,"[[2,3,0],[0,0],[1]]",11,0,,,,,,4,,,,,,,,,
,,,,,single-stim-button,167,405578,0.0-2.0-43.3-0.3,5c492c7167b61b000190bfe8,C3,batch3,,2246,tol_tohand,,,,tol_peg_2,2246,2246,0,"[[1,0,0],[3,0],[0]]",4,"[[2,3,0],[0,0],[1]]",11,0,,,,,,4,,,,,,,,,
,,,,,single-stim-button,168,406412,0.0-2.0-43.3-1.3,5c492c7167b61b000190bfe8,C3,batch3,,833,tol_toboard,,,,tol_peg_3,833,833,0,"[[1,0,0],[3,0],[2]]",4,"[[2,3,0],[0,0],[1]]",11,0,,,,,,4,,,,,,,,,
,,,,,single-stim-button,169,407400,0.0-2.0-43.4-0.4,5c492c7167b61b000190bfe8,C3,batch3,,987,tol_tohand,,,,tol_peg_1,987,987,0,"[[0,0,0],[3,0],[2]]",5,"[[2,3,0],[0,0],[1]]",11,0,,,,,,4,,,,,,,,,
,,,,,single-stim-button,170,408723,0.0-2.0-43.4-1.4,5c492c7167b61b000190bfe8,C3,batch3,,1323,tol_toboard,,,,tol_peg_2,1323,1323,0,"[[0,0,0],[3,1],[2]]",5,"[[2,3,0],[0,0],[1]]",11,0,,,,,,4,,,,,,,,,
,,,,,single-stim-button,171,409464,0.0-2.0-43.5-0.5,5c492c7167b61b000190bfe8,C3,batch3,,740,tol_tohand,,,,tol_peg_3,740,740,0,"[[0,0,0],[3,1],[0]]",6,"[[2,3,0],[0,0],[1]]",11,0,,,,,,4,,,,,,,,,
,,,,,single-stim-button,172,410586,0.0-2.0-43.5-1.5,5c492c7167b61b000190bfe8,C3,batch3,,1122,tol_toboard,,,,tol_peg_1,1122,1122,0,"[[2,0,0],[3,1],[0]]",6,"[[2,3,0],[0,0],[1]]",11,0,,,,,,4,,,,,,,,,
,,,,,single-stim-button,173,411657,0.0-2.0-43.6-0.6,5c492c7167b61b000190bfe8,C3,batch3,,1070,tol_tohand,,,,tol_peg_2,1070,1070,0,"[[2,0,0],[3,0],[0]]",7,"[[2,3,0],[0,0],[1]]",11,0,,,,,,4,,,,,,,,,
,,,,,single-stim-button,174,412453,0.0-2.0-43.6-1.6,5c492c7167b61b000190bfe8,C3,batch3,,796,tol_toboard,,,,tol_peg_3,796,796,0,"[[2,0,0],[3,0],[1]]",7,"[[2,3,0],[0,0],[1]]",11,0,,,,,,4,,,,,,,,,
,,,,,single-stim-button,175,413125,0.0-2.0-43.7-0.7,5c492c7167b61b000190bfe8,C3,batch3,,671,tol_tohand,,,,tol_peg_2,671,671,0,"[[2,0,0],[0,0],[1]]",8,"[[2,3,0],[0,0],[1]]",11,0,,,,,,4,,,,,,,,,
,,,,,single-stim-button,176,413739,0.0-2.0-43.7-1.7,5c492c7167b61b000190bfe8,C3,batch3,,614,tol_toboard,,,,tol_peg_1,614,614,0,"[[2,3,0],[0,0],[1]]",8,"[[2,3,0],[0,0],[1]]",11,0,,,,,,4,,,,,,,,,
,,,,,poldrack-single-stim,177,414745,0.0-2.0-44.0,5c492c7167b61b000190bfe8,C3,batch3,,-1,tol_feedback,,,TRUE,,1000,1000,500,,,,,,-1,none,TRUE,5026,17630,,,,,,,,,,
,,,,,html-button-response,178,415385,0.0-2.0-45.0,5c492c7167b61b000190bfe8,C3,batch3,,638.4000000357630,tol_trial_num,<div class = centerbox><p class = center-block-text>problem <strong>13</strong> out of 25 problems</p></div>,0,,,,,,,,,,,,,,,,,,,,,,,,,
,,,,,single-stim-button,179,420437,0.0-2.0-46.0-0.0,5c492c7167b61b000190bfe8,C3,batch3,,5052,tol_tohand,,,,tol_peg_1,5052,5052,0,"[[1,0,0],[3,0],[0]]",1,"[[0,0,0],[2,3],[1]]",12,0,,,,,,4,,,,,,,,,
,,,,,single-stim-button,180,421166,0.0-2.0-46.0-1.0,5c492c7167b61b000190bfe8,C3,batch3,,728,tol_toboard,,,,tol_peg_3,728,728,0,"[[1,0,0],[3,0],[2]]",1,"[[0,0,0],[2,3],[1]]",12,0,,,,,,4,,,,,,,,,
,,,,,single-stim-button,181,421967,0.0-2.0-46.1-0.1,5c492c7167b61b000190bfe8,C3,batch3,,801,tol_tohand,,,,tol_peg_1,801,801,0,"[[0,0,0],[3,0],[2]]",2,"[[0,0,0],[2,3],[1]]",12,0,,,,,,4,,,,,,,,,
,,,,,single-stim-button,182,422761,0.0-2.0-46.1-1.1,5c492c7167b61b000190bfe8,C3,batch3,,793,tol_toboard,,,,tol_peg_2,793,793,0,"[[0,0,0],[3,1],[2]]",2,"[[0,0,0],[2,3],[1]]",12,0,,,,,,4,,,,,,,,,
,,,,,single-stim-button,183,424033,0.0-2.0-46.2-0.2,5c492c7167b61b000190bfe8,C3,batch3,,1271,tol_tohand,,,,tol_peg_3,1271,1271,0,"[[0,0,0],[3,1],[0]]",3,"[[0,0,0],[2,3],[1]]",12,0,,,,,,4,,,,,,,,,
,,,,,single-stim-button,184,424738,0.0-2.0-46.2-1.2,5c492c7167b61b000190bfe8,C3,batch3,,704,tol_toboard,,,,tol_peg_1,704,704,0,"[[2,0,0],[3,1],[0]]",3,"[[0,0,0],[2,3],[1]]",12,0,,,,,,4,,,,,,,,,
,,,,,single-stim-button,185,425425,0.0-2.0-46.3-0.3,5c492c7167b61b000190bfe8,C3,batch3,,686,tol_tohand,,,,tol_peg_2,686,686,0,"[[2,0,0],[3,0],[0]]",4,"[[0,0,0],[2,3],[1]]",12,0,,,,,,4,,,,,,,,,
,,,,,single-stim-button,186,427575,0.0-2.0-46.3-1.3,5c492c7167b61b000190bfe8,C3,batch3,,2149,tol_toboard,,,,tol_peg_3,2149,2149,0,"[[2,0,0],[3,0],[1]]",4,"[[0,0,0],[2,3],[1]]",12,0,,,,,,4,,,,,,,,,
,,,,,single-stim-button,187,428940,0.0-2.0-46.4-0.4,5c492c7167b61b000190bfe8,C3,batch3,,1364,tol_tohand,,,,tol_peg_2,1364,1364,0,"[[2,0,0],[0,0],[1]]",5,"[[0,0,0],[2,3],[1]]",12,0,,,,,,4,,,,,,,,,
,,,,,single-stim-button,188,429737,0.0-2.0-46.4-1.4,5c492c7167b61b000190bfe8,C3,batch3,,797,tol_toboard,,,,tol_peg_1,797,797,0,"[[2,3,0],[0,0],[1]]",5,"[[0,0,0],[2,3],[1]]",12,0,,,,,,4,,,,,,,,,
,,,,,single-stim-button,189,431085,0.0-2.0-46.5-0.5,5c492c7167b61b000190bfe8,C3,batch3,,1347,tol_tohand,,,,tol_peg_3,1347,1347,0,"[[2,3,0],[0,0],[0]]",6,"[[0,0,0],[2,3],[1]]",12,0,,,,,,4,,,,,,,,,
,,,,,single-stim-button,190,431439,0.0-2.0-46.5-1.5,5c492c7167b61b000190bfe8,C3,batch3,,353,tol_toboard,,,,tol_peg_2,353,353,0,"[[2,3,0],[1,0],[0]]",6,"[[0,0,0],[2,3],[1]]",12,0,,,,,,4,,,,,,,,,
,,,,,single-stim-button,191,432021,0.0-2.0-46.6-0.6,5c492c7167b61b000190bfe8,C3,batch3,,581,tol_tohand,,,,tol_peg_1,581,581,0,"[[2,0,0],[1,0],[0]]",7,"[[0,0,0],[2,3],[1]]",12,0,,,,,,4,,,,,,,,,
,,,,,single-stim-button,192,432351,0.0-2.0-46.6-1.6,5c492c7167b61b000190bfe8,C3,batch3,,329,tol_toboard,,,,tol_peg_2,329,329,0,"[[2,0,0],[1,3],[0]]",7,"[[0,0,0],[2,3],[1]]",12,0,,,,,,4,,,,,,,,,
,,,,,single-stim-button,193,432913,0.0-2.0-46.7-0.7,5c492c7167b61b000190bfe8,C3,batch3,,562,tol_tohand,,,,tol_peg_1,562,562,0,"[[0,0,0],[1,3],[0]]",8,"[[0,0,0],[2,3],[1]]",12,0,,,,,,4,,,,,,,,,
,,,,,single-stim-button,194,433753,0.0-2.0-46.7-1.7,5c492c7167b61b000190bfe8,C3,batch3,,839,tol_toboard,,,,tol_peg_3,839,839,0,"[[0,0,0],[1,3],[2]]",8,"[[0,0,0],[2,3],[1]]",12,0,,,,,,4,,,,,,,,,
,,,,,single-stim-button,195,434742,0.0-2.0-46.8-0.8,5c492c7167b61b000190bfe8,C3,batch3,,988,tol_tohand,,,,tol_peg_2,988,988,0,"[[0,0,0],[1,0],[2]]",9,"[[0,0,0],[2,3],[1]]",12,0,,,,,,4,,,,,,,,,
,,,,,single-stim-button,196,435165,0.0-2.0-46.8-1.8,5c492c7167b61b000190bfe8,C3,batch3,,422,tol_toboard,,,,tol_peg_1,422,422,0,"[[3,0,0],[1,0],[2]]",9,"[[0,0,0],[2,3],[1]]",12,0,,,,,,4,,,,,,,,,
,,,,,single-stim-button,197,436231,0.0-2.0-46.9-0.9,5c492c7167b61b000190bfe8,C3,batch3,,1065,tol_tohand,,,,tol_peg_2,1065,1065,0,"[[3,0,0],[0,0],[2]]",10,"[[0,0,0],[2,3],[1]]",12,0,,,,,,4,,,,,,,,,
,,,,,single-stim-button,198,436692,0.0-2.0-46.9-1.9,5c492c7167b61b000190bfe8,C3,batch3,,460,tol_toboard,,,,tol_peg_1,460,460,0,"[[3,1,0],[0,0],[2]]",10,"[[0,0,0],[2,3],[1]]",12,0,,,,,,4,,,,,,,,,
,,,,,single-stim-button,199,437415,0.0-2.0-46.10-0.10,5c492c7167b61b000190bfe8,C3,batch3,,723,tol_tohand,,,,tol_peg_3,723,723,0,"[[3,1,0],[0,0],[0]]",11,"[[0,0,0],[2,3],[1]]",12,0,,,,,,4,,,,,,,,,
,,,,,single-stim-button,200,438129,0.0-2.0-46.10-1.10,5c492c7167b61b000190bfe8,C3,batch3,,713,tol_toboard,,,,tol_peg_2,713,713,0,"[[3,1,0],[2,0],[0]]",11,"[[0,0,0],[2,3],[1]]",12,0,,,,,,4,,,,,,,,,
,,,,,single-stim-button,201,438760,0.0-2.0-46.11-0.11,5c492c7167b61b000190bfe8,C3,batch3,,630,tol_tohand,,,,tol_peg_1,630,630,0,"[[3,0,0],[2,0],[0]]",12,"[[0,0,0],[2,3],[1]]",12,0,,,,,,4,,,,,,,,,
,,,,,single-stim-button,202,439290,0.0-2.0-46.11-1.11,5c492c7167b61b000190bfe8,C3,batch3,,529,tol_toboard,,,,tol_peg_3,529,529,0,"[[3,0,0],[2,0],[1]]",12,"[[0,0,0],[2,3],[1]]",12,0,,,,,,4,,,,,,,,,
,,,,,single-stim-button,203,439868,0.0-2.0-46.12-0.12,5c492c7167b61b000190bfe8,C3,batch3,,577,tol_tohand,,,,tol_peg_1,577,577,0,"[[0,0,0],[2,0],[1]]",13,"[[0,0,0],[2,3],[1]]",12,0,,,,,,4,,,,,,,,,
,,,,,single-stim-button,204,440409,0.0-2.0-46.12-1.12,5c492c7167b61b000190bfe8,C3,batch3,,540,tol_toboard,,,,tol_peg_2,540,540,0,"[[0,0,0],[2,3],[1]]",13,"[[0,0,0],[2,3],[1]]",12,0,,,,,,4,,,,,,,,,
,,,,,poldrack-single-stim,205,441421,0.0-2.0-47.0,5c492c7167b61b000190bfe8,C3,batch3,,-1,tol_feedback,,,TRUE,,1000,1000,500,,,,,,-1,none,TRUE,5052,15647,,,,,,,,,,
,,,,,html-button-response,206,444303,0.0-2.0-48.0,5c492c7167b61b000190bfe8,C3,batch3,,2881.400000035760,attention_check,<p class = block-text>How many balls are in your board<br></p>,1,TRUE,,,,,,,,,,,,,,,,,,,,,,,,
,,,,,html-button-response,207,445383,0.0-2.0-49.0,5c492c7167b61b000190bfe8,C3,batch3,,1078.2999999523200,tol_trial_num,<div class = centerbox><p class = center-block-text>problem <strong>14</strong> out of 25 problems</p></div>,0,,,,,,,,,,,,,,,,,,,,,,,,,
,,,,,single-stim-button,208,447420,0.0-2.0-50.0-0.0,5c492c7167b61b000190bfe8,C3,batch3,,2037,tol_tohand,,,,tol_peg_2,2037,2037,0,"[[2,1,0],[0,0],[0]]",1,"[[1,2,0],[3,0],[0]]",13,0,,,,,,4,,,,,,,,,
,,,,,single-stim-button,209,448763,0.0-2.0-50.0-1.0,5c492c7167b61b000190bfe8,C3,batch3,,1342,tol_toboard,,,,tol_peg_3,1342,1342,0,"[[2,1,0],[0,0],[3]]",1,"[[1,2,0],[3,0],[0]]",13,0,,,,,,4,,,,,,,,,
,,,,,single-stim-button,210,450205,0.0-2.0-50.1-0.1,5c492c7167b61b000190bfe8,C3,batch3,,1441,tol_tohand,,,,tol_peg_1,1441,1441,0,"[[2,0,0],[0,0],[3]]",2,"[[1,2,0],[3,0],[0]]",13,0,,,,,,4,,,,,,,,,
,,,,,single-stim-button,211,450783,0.0-2.0-50.1-1.1,5c492c7167b61b000190bfe8,C3,batch3,,578,tol_toboard,,,,tol_peg_2,578,578,0,"[[2,0,0],[1,0],[3]]",2,"[[1,2,0],[3,0],[0]]",13,0,,,,,,4,,,,,,,,,
,,,,,single-stim-button,212,451495,0.0-2.0-50.2-0.2,5c492c7167b61b000190bfe8,C3,batch3,,711,tol_tohand,,,,tol_peg_1,711,711,0,"[[0,0,0],[1,0],[3]]",3,"[[1,2,0],[3,0],[0]]",13,0,,,,,,4,,,,,,,,,
,,,,,single-stim-button,213,453563,0.0-2.0-50.2-1.2,5c492c7167b61b000190bfe8,C3,batch3,,2067,tol_toboard,,,,tol_peg_1,2067,2067,0,"[[2,0,0],[1,0],[3]]",3,"[[1,2,0],[3,0],[0]]",13,0,,,,,,4,,,,,,,,,
,,,,,single-stim-button,214,454187,0.0-2.0-50.3-0.3,5c492c7167b61b000190bfe8,C3,batch3,,623,tol_tohand,,,,tol_peg_2,623,623,0,"[[2,0,0],[0,0],[3]]",4,"[[1,2,0],[3,0],[0]]",13,0,,,,,,4,,,,,,,,,
,,,,,single-stim-button,215,454523,0.0-2.0-50.3-1.3,5c492c7167b61b000190bfe8,C3,batch3,,336,tol_toboard,,,,tol_peg_1,336,336,0,"[[2,1,0],[0,0],[3]]",4,"[[1,2,0],[3,0],[0]]",13,0,,,,,,4,,,,,,,,,
,,,,,single-stim-button,216,455128,0.0-2.0-50.4-0.4,5c492c7167b61b000190bfe8,C3,batch3,,603,tol_tohand,,,,tol_peg_3,603,603,0,"[[2,1,0],[0,0],[0]]",5,"[[1,2,0],[3,0],[0]]",13,0,,,,,,4,,,,,,,,,
,,,,,single-stim-button,217,455453,0.0-2.0-50.4-1.4,5c492c7167b61b000190bfe8,C3,batch3,,324,tol_toboard,,,,tol_peg_2,324,324,0,"[[2,1,0],[3,0],[0]]",5,"[[1,2,0],[3,0],[0]]",13,0,,,,,,4,,,,,,,,,
,,,,,single-stim-button,218,457329,0.0-2.0-50.5-0.5,5c492c7167b61b000190bfe8,C3,batch3,,1876,tol_tohand,,,,tol_peg_1,1876,1876,0,"[[2,0,0],[3,0],[0]]",6,"[[1,2,0],[3,0],[0]]",13,0,,,,,,4,,,,,,,,,
,,,,,single-stim-button,219,460394,0.0-2.0-50.5-1.5,5c492c7167b61b000190bfe8,C3,batch3,,3064,tol_toboard,,,,tol_peg_3,3064,3064,0,"[[2,0,0],[3,0],[1]]",6,"[[1,2,0],[3,0],[0]]",13,0,,,,,,4,,,,,,,,,
,,,,,single-stim-button,220,460957,0.0-2.0-50.6-0.6,5c492c7167b61b000190bfe8,C3,batch3,,562,tol_tohand,,,,tol_peg_1,562,562,0,"[[0,0,0],[3,0],[1]]",7,"[[1,2,0],[3,0],[0]]",13,0,,,,,,4,,,,,,,,,
,,,,,single-stim-button,221,461357,0.0-2.0-50.6-1.6,5c492c7167b61b000190bfe8,C3,batch3,,399,tol_toboard,,,,tol_peg_2,399,399,0,"[[0,0,0],[3,2],[1]]",7,"[[1,2,0],[3,0],[0]]",13,0,,,,,,4,,,,,,,,,
,,,,,single-stim-button,222,461851,0.0-2.0-50.7-0.7,5c492c7167b61b000190bfe8,C3,batch3,,493,tol_tohand,,,,tol_peg_3,493,493,0,"[[0,0,0],[3,2],[0]]",8,"[[1,2,0],[3,0],[0]]",13,0,,,,,,4,,,,,,,,,
,,,,,single-stim-button,223,462437,0.0-2.0-50.7-1.7,5c492c7167b61b000190bfe8,C3,batch3,,586,tol_toboard,,,,tol_peg_1,586,586,0,"[[1,0,0],[3,2],[0]]",8,"[[1,2,0],[3,0],[0]]",13,0,,,,,,4,,,,,,,,,
,,,,,single-stim-button,224,462840,0.0-2.0-50.8-0.8,5c492c7167b61b000190bfe8,C3,batch3,,402,tol_tohand,,,,tol_peg_2,402,402,0,"[[1,0,0],[3,0],[0]]",9,"[[1,2,0],[3,0],[0]]",13,0,,,,,,4,,,,,,,,,
,,,,,single-stim-button,225,463540,0.0-2.0-50.8-1.8,5c492c7167b61b000190bfe8,C3,batch3,,699,tol_toboard,,,,tol_peg_1,699,699,0,"[[1,2,0],[3,0],[0]]",9,"[[1,2,0],[3,0],[0]]",13,0,,,,,,4,,,,,,,,,
,,,,,poldrack-single-stim,226,464541,0.0-2.0-51.0,5c492c7167b61b000190bfe8,C3,batch3,,-1,tol_feedback,,,TRUE,,1000,1000,500,,,,,,-1,none,TRUE,2037,8748,,,,,,,,,,
,,,,,html-button-response,227,465182,0.0-2.0-52.0,5c492c7167b61b000190bfe8,C3,batch3,,638.9000000357630,tol_trial_num,<div class = centerbox><p class = center-block-text>problem <strong>15</strong> out of 25 problems</p></div>,0,,,,,,,,,,,,,,,,,,,,,,,,,
,,,,,single-stim-button,228,470977,0.0-2.0-53.0-0.0,5c492c7167b61b000190bfe8,C3,batch3,,5795,tol_tohand,,,,tol_peg_1,5795,5795,0,"[[1,0,0],[3,0],[0]]",1,"[[2,0,0],[3,0],[1]]",14,0,,,,,,3,,,,,,,,,
,,,,,single-stim-button,229,471435,0.0-2.0-53.0-1.0,5c492c7167b61b000190bfe8,C3,batch3,,457,tol_toboard,,,,tol_peg_2,457,457,0,"[[1,0,0],[3,2],[0]]",1,"[[2,0,0],[3,0],[1]]",14,0,,,,,,3,,,,,,,,,
,,,,,single-stim-button,230,471988,0.0-2.0-53.1-0.1,5c492c7167b61b000190bfe8,C3,batch3,,552,tol_tohand,,,,tol_peg_1,552,552,0,"[[0,0,0],[3,2],[0]]",2,"[[2,0,0],[3,0],[1]]",14,0,,,,,,3,,,,,,,,,
,,,,,single-stim-button,231,472961,0.0-2.0-53.1-1.1,5c492c7167b61b000190bfe8,C3,batch3,,972,tol_toboard,,,,tol_peg_3,972,972,0,"[[0,0,0],[3,2],[1]]",2,"[[2,0,0],[3,0],[1]]",14,0,,,,,,3,,,,,,,,,
,,,,,single-stim-button,232,473506,0.0-2.0-53.2-0.2,5c492c7167b61b000190bfe8,C3,batch3,,544,tol_tohand,,,,tol_peg_2,544,544,0,"[[0,0,0],[3,0],[1]]",3,"[[2,0,0],[3,0],[1]]",14,0,,,,,,3,,,,,,,,,
,,,,,single-stim-button,233,474343,0.0-2.0-53.2-1.2,5c492c7167b61b000190bfe8,C3,batch3,,836,tol_toboard,,,,tol_peg_1,836,836,0,"[[2,0,0],[3,0],[1]]",3,"[[2,0,0],[3,0],[1]]",14,0,,,,,,3,,,,,,,,,
,,,,,poldrack-single-stim,234,475353,0.0-2.0-54.0,5c492c7167b61b000190bfe8,C3,batch3,,-1,tol_feedback,,,TRUE,,1000,1000,500,,,,,,-1,none,TRUE,5795,6891,,,,,,,,,,
,,,,,html-button-response,235,475870,0.0-2.0-55.0,5c492c7167b61b000190bfe8,C3,batch3,,515.8000000119210,tol_trial_num,<div class = centerbox><p class = center-block-text>problem <strong>16</strong> out of 25 problems</p></div>,0,,,,,,,,,,,,,,,,,,,,,,,,,
,,,,,single-stim-button,236,489561,0.0-2.0-56.0-0.0,5c492c7167b61b000190bfe8,C3,batch3,,13690,tol_tohand,,,,tol_peg_2,13690,13690,0,"[[0,0,0],[2,0],[1]]",1,"[[2,3,0],[1,0],[0]]",15,0,,,,,,7,,,,,,,,,
,,,,,single-stim-button,237,490982,0.0-2.0-56.0-1.0,5c492c7167b61b000190bfe8,C3,batch3,,1420,tol_toboard,,,,tol_peg_1,1420,1420,0,"[[3,0,0],[2,0],[1]]",1,"[[2,3,0],[1,0],[0]]",15,0,,,,,,7,,,,,,,,,
,,,,,single-stim-button,238,491612,0.0-2.0-56.1-0.1,5c492c7167b61b000190bfe8,C3,batch3,,629,tol_tohand,,,,tol_peg_2,629,629,0,"[[3,0,0],[0,0],[1]]",2,"[[2,3,0],[1,0],[0]]",15,0,,,,,,7,,,,,,,,,
,,,,,single-stim-button,239,492194,0.0-2.0-56.1-1.1,5c492c7167b61b000190bfe8,C3,batch3,,582,tol_toboard,,,,tol_peg_1,582,582,0,"[[3,2,0],[0,0],[1]]",2,"[[2,3,0],[1,0],[0]]",15,0,,,,,,7,,,,,,,,,
,,,,,single-stim-button,240,492944,0.0-2.0-56.2-0.2,5c492c7167b61b000190bfe8,C3,batch3,,749,tol_tohand,,,,tol_peg_3,749,749,0,"[[3,2,0],[0,0],[0]]",3,"[[2,3,0],[1,0],[0]]",15,0,,,,,,7,,,,,,,,,
,,,,,single-stim-button,241,494043,0.0-2.0-56.2-1.2,5c492c7167b61b000190bfe8,C3,batch3,,1098,tol_toboard,,,,tol_peg_2,1098,1098,0,"[[3,2,0],[1,0],[0]]",3,"[[2,3,0],[1,0],[0]]",15,0,,,,,,7,,,,,,,,,
,,,,,single-stim-button,242,495097,0.0-2.0-56.3-0.3,5c492c7167b61b000190bfe8,C3,batch3,,1054,tol_tohand,,,,tol_peg_1,1054,1054,0,"[[3,0,0],[1,0],[0]]",4,"[[2,3,0],[1,0],[0]]",15,0,,,,,,7,,,,,,,,,
,,,,,single-stim-button,243,496685,0.0-2.0-56.3-1.3,5c492c7167b61b000190bfe8,C3,batch3,,1588,tol_toboard,,,,tol_peg_3,1588,1588,0,"[[3,0,0],[1,0],[2]]",4,"[[2,3,0],[1,0],[0]]",15,0,,,,,,7,,,,,,,,,
,,,,,single-stim-button,244,497235,0.0-2.0-56.4-0.4,5c492c7167b61b000190bfe8,C3,batch3,,549,tol_tohand,,,,tol_peg_1,549,549,0,"[[0,0,0],[1,0],[2]]",5,"[[2,3,0],[1,0],[0]]",15,0,,,,,,7,,,,,,,,,
,,,,,single-stim-button,245,497888,0.0-2.0-56.4-1.4,5c492c7167b61b000190bfe8,C3,batch3,,652,tol_toboard,,,,tol_peg_2,652,652,0,"[[0,0,0],[1,3],[2]]",5,"[[2,3,0],[1,0],[0]]",15,0,,,,,,7,,,,,,,,,
,,,,,single-stim-button,246,498342,0.0-2.0-56.5-0.5,5c492c7167b61b000190bfe8,C3,batch3,,454,tol_tohand,,,,tol_peg_3,454,454,0,"[[0,0,0],[1,3],[0]]",6,"[[2,3,0],[1,0],[0]]",15,0,,,,,,7,,,,,,,,,
,,,,,single-stim-button,247,498942,0.0-2.0-56.5-1.5,5c492c7167b61b000190bfe8,C3,batch3,,600,tol_toboard,,,,tol_peg_1,600,600,0,"[[2,0,0],[1,3],[0]]",6,"[[2,3,0],[1,0],[0]]",15,0,,,,,,7,,,,,,,,,
,,,,,single-stim-button,248,499344,0.0-2.0-56.6-0.6,5c492c7167b61b000190bfe8,C3,batch3,,402,tol_tohand,,,,tol_peg_2,402,402,0,"[[2,0,0],[1,0],[0]]",7,"[[2,3,0],[1,0],[0]]",15,0,,,,,,7,,,,,,,,,
,,,,,single-stim-button,249,499723,0.0-2.0-56.6-1.6,5c492c7167b61b000190bfe8,C3,batch3,,379,tol_toboard,,,,tol_peg_1,379,379,0,"[[2,3,0],[1,0],[0]]",7,"[[2,3,0],[1,0],[0]]",15,0,,,,,,7,,,,,,,,,
,,,,,poldrack-single-stim,250,500727,0.0-2.0-57.0,5c492c7167b61b000190bfe8,C3,batch3,,-1,tol_feedback,,,TRUE,,1000,1000,500,,,,,,-1,none,TRUE,13690,17527,,,,,,,,,,
,,,,,html-button-response,251,502274,0.0-2.0-58.0,5c492c7167b61b000190bfe8,C3,batch3,,1545.699999988080,tol_trial_num,<div class = centerbox><p class = center-block-text>problem <strong>17</strong> out of 25 problems</p></div>,0,,,,,,,,,,,,,,,,,,,,,,,,,
,,,,,single-stim-button,252,510446,0.0-2.0-59.0-0.0,5c492c7167b61b000190bfe8,C3,batch3,,8171,tol_tohand,,,,tol_peg_2,8171,8171,0,"[[1,2,0],[0,0],[0]]",1,"[[3,1,0],[2,0],[0]]",16,0,,,,,,5,,,,,,,,,
,,,,,single-stim-button,253,511342,0.0-2.0-59.0-1.0,5c492c7167b61b000190bfe8,C3,batch3,,895,tol_toboard,,,,tol_peg_3,895,895,0,"[[1,2,0],[0,0],[3]]",1,"[[3,1,0],[2,0],[0]]",16,0,,,,,,5,,,,,,,,,
,,,,,single-stim-button,254,512426,0.0-2.0-59.1-0.1,5c492c7167b61b000190bfe8,C3,batch3,,1084,tol_tohand,,,,tol_peg_1,1084,1084,0,"[[1,0,0],[0,0],[3]]",2,"[[3,1,0],[2,0],[0]]",16,0,,,,,,5,,,,,,,,,
,,,,,single-stim-button,255,513105,0.0-2.0-59.1-1.1,5c492c7167b61b000190bfe8,C3,batch3,,679,tol_toboard,,,,tol_peg_2,679,679,0,"[[1,0,0],[2,0],[3]]",2,"[[3,1,0],[2,0],[0]]",16,0,,,,,,5,,,,,,,,,
,,,,,single-stim-button,256,514068,0.0-2.0-59.2-0.2,5c492c7167b61b000190bfe8,C3,batch3,,962,tol_tohand,,,,tol_peg_1,962,962,0,"[[0,0,0],[2,0],[3]]",3,"[[3,1,0],[2,0],[0]]",16,0,,,,,,5,,,,,,,,,
,,,,,single-stim-button,257,514770,0.0-2.0-59.2-1.2,5c492c7167b61b000190bfe8,C3,batch3,,702,tol_toboard,,,,tol_peg_2,702,702,0,"[[0,0,0],[2,1],[3]]",3,"[[3,1,0],[2,0],[0]]",16,0,,,,,,5,,,,,,,,,
,,,,,single-stim-button,258,515779,0.0-2.0-59.3-0.3,5c492c7167b61b000190bfe8,C3,batch3,,1008,tol_tohand,,,,tol_peg_3,1008,1008,0,"[[0,0,0],[2,1],[0]]",4,"[[3,1,0],[2,0],[0]]",16,0,,,,,,5,,,,,,,,,
,,,,,single-stim-button,259,516419,0.0-2.0-59.3-1.3,5c492c7167b61b000190bfe8,C3,batch3,,638,tol_toboard,,,,tol_peg_1,638,638,0,"[[3,0,0],[2,1],[0]]",4,"[[3,1,0],[2,0],[0]]",16,0,,,,,,5,,,,,,,,,
,,,,,single-stim-button,260,516833,0.0-2.0-59.4-0.4,5c492c7167b61b000190bfe8,C3,batch3,,414,tol_tohand,,,,tol_peg_2,414,414,0,"[[3,0,0],[2,0],[0]]",5,"[[3,1,0],[2,0],[0]]",16,0,,,,,,5,,,,,,,,,
,,,,,single-stim-button,261,517381,0.0-2.0-59.4-1.4,5c492c7167b61b000190bfe8,C3,batch3,,547,tol_toboard,,,,tol_peg_1,547,547,0,"[[3,1,0],[2,0],[0]]",5,"[[3,1,0],[2,0],[0]]",16,0,,,,,,5,,,,,,,,,
,,,,,poldrack-single-stim,262,518382,0.0-2.0-60.0,5c492c7167b61b000190bfe8,C3,batch3,,-1,tol_feedback,,,TRUE,,1000,1000,500,,,,,,-1,none,TRUE,8171,11639,,,,,,,,,,
,,,,,html-button-response,263,518849,0.0-2.0-61.0,5c492c7167b61b000190bfe8,C3,batch3,,465.80000001192100,tol_trial_num,<div class = centerbox><p class = center-block-text>problem <strong>18</strong> out of 25 problems</p></div>,0,,,,,,,,,,,,,,,,,,,,,,,,,
,,,,,single-stim-button,264,520384,0.0-2.0-62.0-0.0,5c492c7167b61b000190bfe8,C3,batch3,,1534,tol_tohand,,,,tol_peg_2,1534,1534,0,"[[1,2,0],[0,0],[0]]",1,"[[3,0,0],[2,0],[1]]",17,0,,,,,,5,,,,,,,,,
,,,,,single-stim-button,265,521635,0.0-2.0-62.0-1.0,5c492c7167b61b000190bfe8,C3,batch3,,1251,tol_toboard,,,,tol_peg_3,1251,1251,0,"[[1,2,0],[0,0],[3]]",1,"[[3,0,0],[2,0],[1]]",17,0,,,,,,5,,,,,,,,,
,,,,,single-stim-button,266,522305,0.0-2.0-62.1-0.1,5c492c7167b61b000190bfe8,C3,batch3,,669,tol_tohand,,,,tol_peg_1,669,669,0,"[[1,0,0],[0,0],[3]]",2,"[[3,0,0],[2,0],[1]]",17,0,,,,,,5,,,,,,,,,
,,,,,single-stim-button,267,522970,0.0-2.0-62.1-1.1,5c492c7167b61b000190bfe8,C3,batch3,,664,tol_toboard,,,,tol_peg_2,664,664,0,"[[1,0,0],[2,0],[3]]",2,"[[3,0,0],[2,0],[1]]",17,0,,,,,,5,,,,,,,,,
,,,,,single-stim-button,268,524584,0.0-2.0-62.2-0.2,5c492c7167b61b000190bfe8,C3,batch3,,1613,tol_tohand,,,,tol_peg_1,1613,1613,0,"[[0,0,0],[2,0],[3]]",3,"[[3,0,0],[2,0],[1]]",17,0,,,,,,5,,,,,,,,,
,,,,,single-stim-button,269,525066,0.0-2.0-62.2-1.2,5c492c7167b61b000190bfe8,C3,batch3,,482,tol_toboard,,,,tol_peg_2,482,482,0,"[[0,0,0],[2,1],[3]]",3,"[[3,0,0],[2,0],[1]]",17,0,,,,,,5,,,,,,,,,
,,,,,single-stim-button,270,525744,0.0-2.0-62.3-0.3,5c492c7167b61b000190bfe8,C3,batch3,,677,tol_tohand,,,,tol_peg_3,677,677,0,"[[0,0,0],[2,1],[0]]",4,"[[3,0,0],[2,0],[1]]",17,0,,,,,,5,,,,,,,,,
,,,,,single-stim-button,271,526511,0.0-2.0-62.3-1.3,5c492c7167b61b000190bfe8,C3,batch3,,767,tol_toboard,,,,tol_peg_1,767,767,0,"[[3,0,0],[2,1],[0]]",4,"[[3,0,0],[2,0],[1]]",17,0,,,,,,5,,,,,,,,,
,,,,,single-stim-button,272,527172,0.0-2.0-62.4-0.4,5c492c7167b61b000190bfe8,C3,batch3,,660,tol_tohand,,,,tol_peg_2,660,660,0,"[[3,0,0],[2,0],[0]]",5,"[[3,0,0],[2,0],[1]]",17,0,,,,,,5,,,,,,,,,
,,,,,single-stim-button,273,527628,0.0-2.0-62.4-1.4,5c492c7167b61b000190bfe8,C3,batch3,,456,tol_toboard,,,,tol_peg_3,456,456,0,"[[3,0,0],[2,0],[1]]",5,"[[3,0,0],[2,0],[1]]",17,0,,,,,,5,,,,,,,,,
,,,,,poldrack-single-stim,274,528630,0.0-2.0-63.0,5c492c7167b61b000190bfe8,C3,batch3,,-1,tol_feedback,,,TRUE,,1000,1000,500,,,,,,-1,none,TRUE,1534,5153,,,,,,,,,,
,,,,,html-button-response,275,529036,0.0-2.0-64.0,5c492c7167b61b000190bfe8,C3,batch3,,405.10000002384200,tol_trial_num,<div class = centerbox><p class = center-block-text>problem <strong>19</strong> out of 25 problems</p></div>,0,,,,,,,,,,,,,,,,,,,,,,,,,
,,,,,single-stim-button,276,530783,0.0-2.0-65.0-0.0,5c492c7167b61b000190bfe8,C3,batch3,,1746,tol_tohand,,,,tol_peg_2,1746,1746,0,"[[1,2,0],[0,0],[0]]",1,"[[0,0,0],[1,2],[3]]",18,0,,,,,,7,,,,,,,,,
,,,,,single-stim-button,277,537860,0.0-2.0-65.0-1.0,5c492c7167b61b000190bfe8,C3,batch3,,7076,tol_toboard,,,,tol_peg_2,7076,7076,0,"[[1,2,0],[3,0],[0]]",1,"[[0,0,0],[1,2],[3]]",18,0,,,,,,7,,,,,,,,,
,,,,,single-stim-button,278,539201,0.0-2.0-65.1-0.1,5c492c7167b61b000190bfe8,C3,batch3,,1340,tol_tohand,,,,tol_peg_1,1340,1340,0,"[[1,0,0],[3,0],[0]]",2,"[[0,0,0],[1,2],[3]]",18,0,,,,,,7,,,,,,,,,
,,,,,single-stim-button,279,541297,0.0-2.0-65.1-1.1,5c492c7167b61b000190bfe8,C3,batch3,,2096,tol_toboard,,,,tol_peg_3,2096,2096,0,"[[1,0,0],[3,0],[2]]",2,"[[0,0,0],[1,2],[3]]",18,0,,,,,,7,,,,,,,,,
,,,,,single-stim-button,280,542338,0.0-2.0-65.2-0.2,5c492c7167b61b000190bfe8,C3,batch3,,1040,tol_tohand,,,,tol_peg_1,1040,1040,0,"[[0,0,0],[3,0],[2]]",3,"[[0,0,0],[1,2],[3]]",18,0,,,,,,7,,,,,,,,,
,,,,,single-stim-button,281,543522,0.0-2.0-65.2-1.2,5c492c7167b61b000190bfe8,C3,batch3,,1183,tol_toboard,,,,tol_peg_2,1183,1183,0,"[[0,0,0],[3,1],[2]]",3,"[[0,0,0],[1,2],[3]]",18,0,,,,,,7,,,,,,,,,
,,,,,single-stim-button,282,545374,0.0-2.0-65.3-0.3,5c492c7167b61b000190bfe8,C3,batch3,,1851,tol_tohand,,,,tol_peg_3,1851,1851,0,"[[0,0,0],[3,1],[0]]",4,"[[0,0,0],[1,2],[3]]",18,0,,,,,,7,,,,,,,,,
,,,,,single-stim-button,283,546211,0.0-2.0-65.3-1.3,5c492c7167b61b000190bfe8,C3,batch3,,836,tol_toboard,,,,tol_peg_1,836,836,0,"[[2,0,0],[3,1],[0]]",4,"[[0,0,0],[1,2],[3]]",18,0,,,,,,7,,,,,,,,,
,,,,,single-stim-button,284,547250,0.0-2.0-65.4-0.4,5c492c7167b61b000190bfe8,C3,batch3,,1038,tol_tohand,,,,tol_peg_2,1038,1038,0,"[[2,0,0],[3,0],[0]]",5,"[[0,0,0],[1,2],[3]]",18,0,,,,,,7,,,,,,,,,
,,,,,single-stim-button,285,547866,0.0-2.0-65.4-1.4,5c492c7167b61b000190bfe8,C3,batch3,,615,tol_toboard,,,,tol_peg_1,615,615,0,"[[2,1,0],[3,0],[0]]",5,"[[0,0,0],[1,2],[3]]",18,0,,,,,,7,,,,,,,,,
,,,,,single-stim-button,286,548643,0.0-2.0-65.5-0.5,5c492c7167b61b000190bfe8,C3,batch3,,776,tol_tohand,,,,tol_peg_2,776,776,0,"[[2,1,0],[0,0],[0]]",6,"[[0,0,0],[1,2],[3]]",18,0,,,,,,7,,,,,,,,,
,,,,,single-stim-button,287,549386,0.0-2.0-65.5-1.5,5c492c7167b61b000190bfe8,C3,batch3,,742,tol_toboard,,,,tol_peg_3,742,742,0,"[[2,1,0],[0,0],[3]]",6,"[[0,0,0],[1,2],[3]]",18,0,,,,,,7,,,,,,,,,
,,,,,single-stim-button,288,550229,0.0-2.0-65.6-0.6,5c492c7167b61b000190bfe8,C3,batch3,,842,tol_tohand,,,,tol_peg_1,842,842,0,"[[2,0,0],[0,0],[3]]",7,"[[0,0,0],[1,2],[3]]",18,0,,,,,,7,,,,,,,,,
,,,,,single-stim-button,289,550732,0.0-2.0-65.6-1.6,5c492c7167b61b000190bfe8,C3,batch3,,502,tol_toboard,,,,tol_peg_2,502,502,0,"[[2,0,0],[1,0],[3]]",7,"[[0,0,0],[1,2],[3]]",18,0,,,,,,7,,,,,,,,,
,,,,,single-stim-button,290,551120,0.0-2.0-65.7-0.7,5c492c7167b61b000190bfe8,C3,batch3,,387,tol_tohand,,,,tol_peg_1,387,387,0,"[[0,0,0],[1,0],[3]]",8,"[[0,0,0],[1,2],[3]]",18,0,,,,,,7,,,,,,,,,
,,,,,single-stim-button,291,551449,0.0-2.0-65.7-1.7,5c492c7167b61b000190bfe8,C3,batch3,,328,tol_toboard,,,,tol_peg_2,328,328,0,"[[0,0,0],[1,2],[3]]",8,"[[0,0,0],[1,2],[3]]",18,0,,,,,,7,,,,,,,,,
,,,,,poldrack-single-stim,292,552454,0.0-2.0-66.0,5c492c7167b61b000190bfe8,C3,batch3,,-1,tol_feedback,,,TRUE,,1000,1000,500,,,,,,-1,none,TRUE,1746,9020,,,,,,,,,,
,,,,,html-button-response,293,553027,0.0-2.0-67.0,5c492c7167b61b000190bfe8,C3,batch3,,571.7000000476840,tol_trial_num,<div class = centerbox><p class = center-block-text>problem <strong>20</strong> out of 25 problems</p></div>,0,,,,,,,,,,,,,,,,,,,,,,,,,
,,,,,single-stim-button,294,555474,0.0-2.0-68.0-0.0,5c492c7167b61b000190bfe8,C3,batch3,,2446,tol_tohand,,,,tol_peg_1,2446,2446,0,"[[1,0,0],[3,0],[0]]",1,"[[2,1,0],[0,0],[3]]",19,0,,,,,,5,,,,,,,,,
,,,,,single-stim-button,295,555994,0.0-2.0-68.0-1.0,5c492c7167b61b000190bfe8,C3,batch3,,520,tol_toboard,,,,tol_peg_2,520,520,0,"[[1,0,0],[3,2],[0]]",1,"[[2,1,0],[0,0],[3]]",19,0,,,,,,5,,,,,,,,,
,,,,,single-stim-button,296,556730,0.0-2.0-68.1-0.1,5c492c7167b61b000190bfe8,C3,batch3,,735,tol_tohand,,,,tol_peg_1,735,735,0,"[[0,0,0],[3,2],[0]]",2,"[[2,1,0],[0,0],[3]]",19,0,,,,,,5,,,,,,,,,
,,,,,single-stim-button,297,557740,0.0-2.0-68.1-1.1,5c492c7167b61b000190bfe8,C3,batch3,,1010,tol_toboard,,,,tol_peg_3,1010,1010,0,"[[0,0,0],[3,2],[1]]",2,"[[2,1,0],[0,0],[3]]",19,0,,,,,,5,,,,,,,,,
,,,,,single-stim-button,298,564400,0.0-2.0-68.2-0.2,5c492c7167b61b000190bfe8,C3,batch3,,6659,tol_tohand,,,,tol_peg_2,6659,6659,0,"[[0,0,0],[3,0],[1]]",3,"[[2,1,0],[0,0],[3]]",19,0,,,,,,5,,,,,,,,,
,,,,,single-stim-button,299,565649,0.0-2.0-68.2-1.2,5c492c7167b61b000190bfe8,C3,batch3,,1248,tol_toboard,,,,tol_peg_1,1248,1248,0,"[[2,0,0],[3,0],[1]]",3,"[[2,1,0],[0,0],[3]]",19,0,,,,,,5,,,,,,,,,
,,,,,single-stim-button,300,566085,0.0-2.0-68.3-0.3,5c492c7167b61b000190bfe8,C3,batch3,,435,tol_tohand,,,,tol_peg_3,435,435,0,"[[2,0,0],[3,0],[0]]",4,"[[2,1,0],[0,0],[3]]",19,0,,,,,,5,,,,,,,,,
,,,,,single-stim-button,301,566605,0.0-2.0-68.3-1.3,5c492c7167b61b000190bfe8,C3,batch3,,519,tol_toboard,,,,tol_peg_1,519,519,0,"[[2,1,0],[3,0],[0]]",4,"[[2,1,0],[0,0],[3]]",19,0,,,,,,5,,,,,,,,,
,,,,,single-stim-button,302,567164,0.0-2.0-68.4-0.4,5c492c7167b61b000190bfe8,C3,batch3,,559,tol_tohand,,,,tol_peg_2,559,559,0,"[[2,1,0],[0,0],[0]]",5,"[[2,1,0],[0,0],[3]]",19,0,,,,,,5,,,,,,,,,
,,,,,single-stim-button,303,567715,0.0-2.0-68.4-1.4,5c492c7167b61b000190bfe8,C3,batch3,,550,tol_toboard,,,,tol_peg_3,550,550,0,"[[2,1,0],[0,0],[3]]",5,"[[2,1,0],[0,0],[3]]",19,0,,,,,,5,,,,,,,,,
,,,,,poldrack-single-stim,304,568717,0.0-2.0-69.0,5c492c7167b61b000190bfe8,C3,batch3,,-1,tol_feedback,,,TRUE,,1000,1000,500,,,,,,-1,none,TRUE,2446,10834,,,,,,,,,,
,,,,,html-button-response,305,570183,0.0-2.0-70.0,5c492c7167b61b000190bfe8,C3,batch3,,1464.5,tol_trial_num,<div class = centerbox><p class = center-block-text>problem <strong>21</strong> out of 25 problems</p></div>,0,,,,,,,,,,,,,,,,,,,,,,,,,
,,,,,single-stim-button,306,572502,0.0-2.0-71.0-0.0,5c492c7167b61b000190bfe8,C3,batch3,,2318,tol_tohand,,,,tol_peg_2,2318,2318,0,"[[1,2,0],[0,0],[0]]",1,"[[3,2,0],[0,0],[1]]",20,0,,,,,,6,,,,,,,,,
,,,,,single-stim-button,307,575585,0.0-2.0-71.0-1.0,5c492c7167b61b000190bfe8,C3,batch3,,3082,tol_toboard,,,,tol_peg_2,3082,3082,0,"[[1,2,0],[3,0],[0]]",1,"[[3,2,0],[0,0],[1]]",20,0,,,,,,6,,,,,,,,,
,,,,,single-stim-button,308,576577,0.0-2.0-71.1-0.1,5c492c7167b61b000190bfe8,C3,batch3,,991,tol_tohand,,,,tol_peg_1,991,991,0,"[[1,0,0],[3,0],[0]]",2,"[[3,2,0],[0,0],[1]]",20,0,,,,,,6,,,,,,,,,
,,,,,single-stim-button,309,579149,0.0-2.0-71.1-1.1,5c492c7167b61b000190bfe8,C3,batch3,,2571,tol_toboard,,,,tol_peg_3,2571,2571,0,"[[1,0,0],[3,0],[2]]",2,"[[3,2,0],[0,0],[1]]",20,0,,,,,,6,,,,,,,,,
,,,,,single-stim-button,310,580168,0.0-2.0-71.2-0.2,5c492c7167b61b000190bfe8,C3,batch3,,1017,tol_tohand,,,,tol_peg_1,1017,1017,0,"[[0,0,0],[3,0],[2]]",3,"[[3,2,0],[0,0],[1]]",20,0,,,,,,6,,,,,,,,,
,,,,,single-stim-button,311,580810,0.0-2.0-71.2-1.2,5c492c7167b61b000190bfe8,C3,batch3,,642,tol_toboard,,,,tol_peg_2,642,642,0,"[[0,0,0],[3,1],[2]]",3,"[[3,2,0],[0,0],[1]]",20,0,,,,,,6,,,,,,,,,
,,,,,single-stim-button,312,582041,0.0-2.0-71.3-0.3,5c492c7167b61b000190bfe8,C3,batch3,,1230,tol_tohand,,,,tol_peg_2,1230,1230,0,"[[0,0,0],[3,0],[2]]",4,"[[3,2,0],[0,0],[1]]",20,0,,,,,,6,,,,,,,,,
,,,,,single-stim-button,313,582660,0.0-2.0-71.3-1.3,5c492c7167b61b000190bfe8,C3,batch3,,618,tol_toboard,,,,tol_peg_1,618,618,0,"[[1,0,0],[3,0],[2]]",4,"[[3,2,0],[0,0],[1]]",20,0,,,,,,6,,,,,,,,,
,,,,,single-stim-button,314,585468,0.0-2.0-71.4-0.4,5c492c7167b61b000190bfe8,C3,batch3,,2807,tol_tohand,,,,tol_peg_3,2807,2807,0,"[[1,0,0],[3,0],[0]]",5,"[[3,2,0],[0,0],[1]]",20,0,,,,,,6,,,,,,,,,
,,,,,single-stim-button,315,586010,0.0-2.0-71.4-1.4,5c492c7167b61b000190bfe8,C3,batch3,,541,tol_toboard,,,,tol_peg_2,541,541,0,"[[1,0,0],[3,2],[0]]",5,"[[3,2,0],[0,0],[1]]",20,0,,,,,,6,,,,,,,,,
,,,,,single-stim-button,316,586605,0.0-2.0-71.5-0.5,5c492c7167b61b000190bfe8,C3,batch3,,595,tol_tohand,,,,tol_peg_1,595,595,0,"[[0,0,0],[3,2],[0]]",6,"[[3,2,0],[0,0],[1]]",20,0,,,,,,6,,,,,,,,,
,,,,,single-stim-button,317,587177,0.0-2.0-71.5-1.5,5c492c7167b61b000190bfe8,C3,batch3,,572,tol_toboard,,,,tol_peg_3,572,572,0,"[[0,0,0],[3,2],[1]]",6,"[[3,2,0],[0,0],[1]]",20,0,,,,,,6,,,,,,,,,
,,,,,single-stim-button,318,590479,0.0-2.0-71.6-0.6,5c492c7167b61b000190bfe8,C3,batch3,,3301,tol_tohand,,,,tol_peg_3,3301,3301,0,"[[0,0,0],[3,2],[0]]",7,"[[3,2,0],[0,0],[1]]",20,0,,,,,,6,,,,,,,,,
,,,,,single-stim-button,319,591169,0.0-2.0-71.6-1.6,5c492c7167b61b000190bfe8,C3,batch3,,689,tol_toboard,,,,tol_peg_1,689,689,0,"[[1,0,0],[3,2],[0]]",7,"[[3,2,0],[0,0],[1]]",20,0,,,,,,6,,,,,,,,,
,,,,,single-stim-button,320,592256,0.0-2.0-71.7-0.7,5c492c7167b61b000190bfe8,C3,batch3,,1086,tol_tohand,,,,tol_peg_2,1086,1086,0,"[[1,0,0],[3,0],[0]]",8,"[[3,2,0],[0,0],[1]]",20,0,,,,,,6,,,,,,,,,
,,,,,single-stim-button,321,592792,0.0-2.0-71.7-1.7,5c492c7167b61b000190bfe8,C3,batch3,,536,tol_toboard,,,,tol_peg_3,536,536,0,"[[1,0,0],[3,0],[2]]",8,"[[3,2,0],[0,0],[1]]",20,0,,,,,,6,,,,,,,,,
,,,,,single-stim-button,322,596102,0.0-2.0-71.8-0.8,5c492c7167b61b000190bfe8,C3,batch3,,3309,tol_tohand,,,,tol_peg_2,3309,3309,0,"[[1,0,0],[0,0],[2]]",9,"[[3,2,0],[0,0],[1]]",20,0,,,,,,6,,,,,,,,,
,,,,,single-stim-button,323,596579,0.0-2.0-71.8-1.8,5c492c7167b61b000190bfe8,C3,batch3,,476,tol_toboard,,,,tol_peg_1,476,476,0,"[[1,3,0],[0,0],[2]]",9,"[[3,2,0],[0,0],[1]]",20,0,,,,,,6,,,,,,,,,
,,,,,single-stim-button,324,597174,0.0-2.0-71.9-0.9,5c492c7167b61b000190bfe8,C3,batch3,,593,tol_tohand,,,,tol_peg_3,593,593,0,"[[1,3,0],[0,0],[0]]",10,"[[3,2,0],[0,0],[1]]",20,0,,,,,,6,,,,,,,,,
,,,,,single-stim-button,325,597548,0.0-2.0-71.9-1.9,5c492c7167b61b000190bfe8,C3,batch3,,374,tol_toboard,,,,tol_peg_2,374,374,0,"[[1,3,0],[2,0],[0]]",10,"[[3,2,0],[0,0],[1]]",20,0,,,,,,6,,,,,,,,,
,,,,,single-stim-button,326,598213,0.0-2.0-71.10-0.10,5c492c7167b61b000190bfe8,C3,batch3,,664,tol_tohand,,,,tol_peg_1,664,664,0,"[[1,0,0],[2,0],[0]]",11,"[[3,2,0],[0,0],[1]]",20,0,,,,,,6,,,,,,,,,
,,,,,single-stim-button,327,599581,0.0-2.0-71.10-1.10,5c492c7167b61b000190bfe8,C3,batch3,,1367,tol_toboard,,,,tol_peg_2,1367,1367,0,"[[1,0,0],[2,3],[0]]",11,"[[3,2,0],[0,0],[1]]",20,0,,,,,,6,,,,,,,,,
,,,,,single-stim-button,328,600080,0.0-2.0-71.11-0.11,5c492c7167b61b000190bfe8,C3,batch3,,498,tol_tohand,,,,tol_peg_1,498,498,0,"[[0,0,0],[2,3],[0]]",12,"[[3,2,0],[0,0],[1]]",20,0,,,,,,6,,,,,,,,,
,,,,,single-stim-button,329,600688,0.0-2.0-71.11-1.11,5c492c7167b61b000190bfe8,C3,batch3,,607,tol_toboard,,,,tol_peg_3,607,607,0,"[[0,0,0],[2,3],[1]]",12,"[[3,2,0],[0,0],[1]]",20,0,,,,,,6,,,,,,,,,
,,,,,single-stim-button,330,601227,0.0-2.0-71.12-0.12,5c492c7167b61b000190bfe8,C3,batch3,,538,tol_tohand,,,,tol_peg_2,538,538,0,"[[0,0,0],[2,0],[1]]",13,"[[3,2,0],[0,0],[1]]",20,0,,,,,,6,,,,,,,,,
,,,,,single-stim-button,331,601731,0.0-2.0-71.12-1.12,5c492c7167b61b000190bfe8,C3,batch3,,503,tol_toboard,,,,tol_peg_1,503,503,0,"[[3,0,0],[2,0],[1]]",13,"[[3,2,0],[0,0],[1]]",20,0,,,,,,6,,,,,,,,,
,,,,,single-stim-button,332,602432,0.0-2.0-71.13-0.13,5c492c7167b61b000190bfe8,C3,batch3,,699,tol_tohand,,,,tol_peg_2,699,699,0,"[[3,0,0],[0,0],[1]]",14,"[[3,2,0],[0,0],[1]]",20,0,,,,,,6,,,,,,,,,
,,,,,single-stim-button,333,602835,0.0-2.0-71.13-1.13,5c492c7167b61b000190bfe8,C3,batch3,,403,tol_toboard,,,,tol_peg_1,403,403,0,"[[3,2,0],[0,0],[1]]",14,"[[3,2,0],[0,0],[1]]",20,0,,,,,,6,,,,,,,,,
,,,,,poldrack-single-stim,334,603838,0.0-2.0-72.0,5c492c7167b61b000190bfe8,C3,batch3,,-1,tol_feedback,,,TRUE,,1000,1000,500,,,,,,-1,none,TRUE,2318,19646,,,,,,,,,,
,,,,,html-button-response,335,604840,0.0-2.0-73.0,5c492c7167b61b000190bfe8,C3,batch3,,1000.3999999761600,tol_trial_num,<div class = centerbox><p class = center-block-text>problem <strong>22</strong> out of 25 problems</p></div>,0,,,,,,,,,,,,,,,,,,,,,,,,,
,,,,,single-stim-button,336,607029,0.0-2.0-74.0-0.0,5c492c7167b61b000190bfe8,C3,batch3,,2189,tol_tohand,,,,tol_peg_2,2189,2189,0,"[[1,0,0],[2,0],[0]]",1,"[[0,0,0],[1,2],[3]]",21,0,,,,,,6,,,,,,,,,
,,,,,single-stim-button,337,610313,0.0-2.0-74.0-1.0,5c492c7167b61b000190bfe8,C3,batch3,,3282,tol_toboard,,,,tol_peg_3,3282,3282,0,"[[1,0,0],[2,0],[3]]",1,"[[0,0,0],[1,2],[3]]",21,0,,,,,,6,,,,,,,,,
,,,,,single-stim-button,338,612517,0.0-2.0-74.1-0.1,5c492c7167b61b000190bfe8,C3,batch3,,2204,tol_tohand,,,,tol_peg_3,2204,2204,0,"[[1,0,0],[2,0],[0]]",2,"[[0,0,0],[1,2],[3]]",21,0,,,,,,6,,,,,,,,,
,,,,,single-stim-button,339,613553,0.0-2.0-74.1-1.1,5c492c7167b61b000190bfe8,C3,batch3,,1034,tol_toboard,,,,tol_peg_1,1034,1034,0,"[[1,3,0],[2,0],[0]]",2,"[[0,0,0],[1,2],[3]]",21,0,,,,,,6,,,,,,,,,
,,,,,single-stim-button,340,614538,0.0-2.0-74.2-0.2,5c492c7167b61b000190bfe8,C3,batch3,,985,tol_tohand,,,,tol_peg_2,985,985,0,"[[1,3,0],[0,0],[0]]",3,"[[0,0,0],[1,2],[3]]",21,0,,,,,,6,,,,,,,,,
,,,,,single-stim-button,341,614984,0.0-2.0-74.2-1.2,5c492c7167b61b000190bfe8,C3,batch3,,444,tol_toboard,,,,tol_peg_3,444,444,0,"[[1,3,0],[0,0],[2]]",3,"[[0,0,0],[1,2],[3]]",21,0,,,,,,6,,,,,,,,,
,,,,,single-stim-button,342,616342,0.0-2.0-74.3-0.3,5c492c7167b61b000190bfe8,C3,batch3,,1357,tol_tohand,,,,tol_peg_1,1357,1357,0,"[[1,0,0],[0,0],[2]]",4,"[[0,0,0],[1,2],[3]]",21,0,,,,,,6,,,,,,,,,
,,,,,single-stim-button,343,617296,0.0-2.0-74.3-1.3,5c492c7167b61b000190bfe8,C3,batch3,,953,tol_toboard,,,,tol_peg_2,953,953,0,"[[1,0,0],[3,0],[2]]",4,"[[0,0,0],[1,2],[3]]",21,0,,,,,,6,,,,,,,,,
,,,,,single-stim-button,344,620790,0.0-2.0-74.4-0.4,5c492c7167b61b000190bfe8,C3,batch3,,3493,tol_tohand,,,,tol_peg_2,3493,3493,0,"[[1,0,0],[0,0],[2]]",5,"[[0,0,0],[1,2],[3]]",21,0,,,,,,6,,,,,,,,,
,,,,,single-stim-button,345,623704,0.0-2.0-74.4-1.4,5c492c7167b61b000190bfe8,C3,batch3,,2913,tol_toboard,,,,tol_peg_1,2913,2913,0,"[[1,3,0],[0,0],[2]]",5,"[[0,0,0],[1,2],[3]]",21,0,,,,,,6,,,,,,,,,
,,,,,single-stim-button,346,625612,0.0-2.0-74.5-0.5,5c492c7167b61b000190bfe8,C3,batch3,,1907,tol_tohand,,,,tol_peg_3,1907,1907,0,"[[1,3,0],[0,0],[0]]",6,"[[0,0,0],[1,2],[3]]",21,0,,,,,,6,,,,,,,,,
,,,,,single-stim-button,347,627431,0.0-2.0-74.5-1.5,5c492c7167b61b000190bfe8,C3,batch3,,1818,tol_toboard,,,,tol_peg_2,1818,1818,0,"[[1,3,0],[2,0],[0]]",6,"[[0,0,0],[1,2],[3]]",21,0,,,,,,6,,,,,,,,,
,,,,,single-stim-button,348,628253,0.0-2.0-74.6-0.6,5c492c7167b61b000190bfe8,C3,batch3,,821,tol_tohand,,,,tol_peg_1,821,821,0,"[[1,0,0],[2,0],[0]]",7,"[[0,0,0],[1,2],[3]]",21,0,,,,,,6,,,,,,,,,
,,,,,single-stim-button,349,629940,0.0-2.0-74.6-1.6,5c492c7167b61b000190bfe8,C3,batch3,,1687,tol_toboard,,,,tol_peg_3,1687,1687,0,"[[1,0,0],[2,0],[3]]",7,"[[0,0,0],[1,2],[3]]",21,0,,,,,,6,,,,,,,,,
,,,,,single-stim-button,350,631245,0.0-2.0-74.7-0.7,5c492c7167b61b000190bfe8,C3,batch3,,1304,tol_tohand,,,,tol_peg_2,1304,1304,0,"[[1,0,0],[0,0],[3]]",8,"[[0,0,0],[1,2],[3]]",21,0,,,,,,6,,,,,,,,,
,,,,,single-stim-button,351,632120,0.0-2.0-74.7-1.7,5c492c7167b61b000190bfe8,C3,batch3,,874,tol_toboard,,,,tol_peg_1,874,874,0,"[[1,2,0],[0,0],[3]]",8,"[[0,0,0],[1,2],[3]]",21,0,,,,,,6,,,,,,,,,
,,,,,single-stim-button,352,634819,0.0-2.0-74.8-0.8,5c492c7167b61b000190bfe8,C3,batch3,,2697,tol_tohand,,,,tol_peg_3,2697,2697,0,"[[1,2,0],[0,0],[0]]",9,"[[0,0,0],[1,2],[3]]",21,0,,,,,,6,,,,,,,,,
,,,,,single-stim-button,353,635459,0.0-2.0-74.8-1.8,5c492c7167b61b000190bfe8,C3,batch3,,640,tol_toboard,,,,tol_peg_1,640,640,0,"[[1,2,3],[0,0],[0]]",9,"[[0,0,0],[1,2],[3]]",21,0,,,,,,6,,,,,,,,,
,,,,,single-stim-button,354,636708,0.0-2.0-74.9-0.9,5c492c7167b61b000190bfe8,C3,batch3,,1248,tol_tohand,,,,tol_peg_1,1248,1248,0,"[[1,2,0],[0,0],[0]]",10,"[[0,0,0],[1,2],[3]]",21,0,,,,,,6,,,,,,,,,
,,,,,single-stim-button,355,637351,0.0-2.0-74.9-1.9,5c492c7167b61b000190bfe8,C3,batch3,,642,tol_toboard,,,,tol_peg_2,642,642,0,"[[1,2,0],[3,0],[0]]",10,"[[0,0,0],[1,2],[3]]",21,0,,,,,,6,,,,,,,,,
,,,,,single-stim-button,356,637852,0.0-2.0-74.10-0.10,5c492c7167b61b000190bfe8,C3,batch3,,500,tol_tohand,,,,tol_peg_1,500,500,0,"[[1,0,0],[3,0],[0]]",11,"[[0,0,0],[1,2],[3]]",21,0,,,,,,6,,,,,,,,,
,,,,,single-stim-button,357,638857,0.0-2.0-74.10-1.10,5c492c7167b61b000190bfe8,C3,batch3,,1004,tol_toboard,,,,tol_peg_3,1004,1004,0,"[[1,0,0],[3,0],[2]]",11,"[[0,0,0],[1,2],[3]]",21,0,,,,,,6,,,,,,,,,
,,,,,single-stim-button,358,641131,0.0-2.0-74.11-0.11,5c492c7167b61b000190bfe8,C3,batch3,,2273,tol_tohand,,,,tol_peg_1,2273,2273,0,"[[0,0,0],[3,0],[2]]",12,"[[0,0,0],[1,2],[3]]",21,0,,,,,,6,,,,,,,,,
,,,,,single-stim-button,359,642412,0.0-2.0-74.11-1.11,5c492c7167b61b000190bfe8,C3,batch3,,1280,tol_toboard,,,,tol_peg_2,1280,1280,0,"[[0,0,0],[3,1],[2]]",12,"[[0,0,0],[1,2],[3]]",21,0,,,,,,6,,,,,,,,,
,,,,,single-stim-button,360,642953,0.0-2.0-74.12-0.12,5c492c7167b61b000190bfe8,C3,batch3,,539,tol_tohand,,,,tol_peg_3,539,539,0,"[[0,0,0],[3,1],[0]]",13,"[[0,0,0],[1,2],[3]]",21,0,,,,,,6,,,,,,,,,
,,,,,single-stim-button,361,643701,0.0-2.0-74.12-1.12,5c492c7167b61b000190bfe8,C3,batch3,,748,tol_toboard,,,,tol_peg_1,748,748,0,"[[2,0,0],[3,1],[0]]",13,"[[0,0,0],[1,2],[3]]",21,0,,,,,,6,,,,,,,,,
,,,,,single-stim-button,362,645485,0.0-2.0-74.13-0.13,5c492c7167b61b000190bfe8,C3,batch3,,1783,tol_tohand,,,,tol_peg_2,1783,1783,0,"[[2,0,0],[3,0],[0]]",14,"[[0,0,0],[1,2],[3]]",21,0,,,,,,6,,,,,,,,,
,,,,,single-stim-button,363,646064,0.0-2.0-74.13-1.13,5c492c7167b61b000190bfe8,C3,batch3,,578,tol_toboard,,,,tol_peg_1,578,578,0,"[[2,1,0],[3,0],[0]]",14,"[[0,0,0],[1,2],[3]]",21,0,,,,,,6,,,,,,,,,
,,,,,single-stim-button,364,646520,0.0-2.0-74.14-0.14,5c492c7167b61b000190bfe8,C3,batch3,,455,tol_tohand,,,,tol_peg_2,455,455,0,"[[2,1,0],[0,0],[0]]",15,"[[0,0,0],[1,2],[3]]",21,0,,,,,,6,,,,,,,,,
,,,,,single-stim-button,365,647371,0.0-2.0-74.14-1.14,5c492c7167b61b000190bfe8,C3,batch3,,850,tol_toboard,,,,tol_peg_3,850,850,0,"[[2,1,0],[0,0],[3]]",15,"[[0,0,0],[1,2],[3]]",21,0,,,,,,6,,,,,,,,,
,,,,,single-stim-button,366,649699,0.0-2.0-74.15-0.15,5c492c7167b61b000190bfe8,C3,batch3,,2327,tol_tohand,,,,tol_peg_1,2327,2327,0,"[[2,0,0],[0,0],[3]]",16,"[[0,0,0],[1,2],[3]]",21,0,,,,,,6,,,,,,,,,
,,,,,single-stim-button,367,650470,0.0-2.0-74.15-1.15,5c492c7167b61b000190bfe8,C3,batch3,,769,tol_toboard,,,,tol_peg_2,769,769,0,"[[2,0,0],[1,0],[3]]",16,"[[0,0,0],[1,2],[3]]",21,0,,,,,,6,,,,,,,,,
,,,,,single-stim-button,368,650924,0.0-2.0-74.16-0.16,5c492c7167b61b000190bfe8,C3,batch3,,454,tol_tohand,,,,tol_peg_1,454,454,0,"[[0,0,0],[1,0],[3]]",17,"[[0,0,0],[1,2],[3]]",21,0,,,,,,6,,,,,,,,,
,,,,,single-stim-button,369,651270,0.0-2.0-74.16-1.16,5c492c7167b61b000190bfe8,C3,batch3,,344,tol_toboard,,,,tol_peg_2,344,344,0,"[[0,0,0],[1,2],[3]]",17,"[[0,0,0],[1,2],[3]]",21,0,,,,,,6,,,,,,,,,
,,,,,poldrack-single-stim,370,652271,0.0-2.0-75.0,5c492c7167b61b000190bfe8,C3,batch3,,-1,tol_feedback,,,TRUE,,1000,1000,500,,,,,,-1,none,TRUE,2189,26536,,,,,,,,,,
,,,,,html-button-response,371,652860,0.0-2.0-76.0,5c492c7167b61b000190bfe8,C3,batch3,,587.6999999880790,tol_trial_num,<div class = centerbox><p class = center-block-text>problem <strong>23</strong> out of 25 problems</p></div>,0,,,,,,,,,,,,,,,,,,,,,,,,,
,,,,,single-stim-button,372,653917,0.0-2.0-77.0-0.0,5c492c7167b61b000190bfe8,C3,batch3,,1057,tol_tohand,,,,tol_peg_2,1057,1057,0,"[[1,2,0],[0,0],[0]]",1,"[[1,3,2],[0,0],[0]]",22,0,,,,,,3,,,,,,,,,
,,,,,single-stim-button,373,654972,0.0-2.0-77.0-1.0,5c492c7167b61b000190bfe8,C3,batch3,,1054,tol_toboard,,,,tol_peg_3,1054,1054,0,"[[1,2,0],[0,0],[3]]",1,"[[1,3,2],[0,0],[0]]",22,0,,,,,,3,,,,,,,,,
,,,,,single-stim-button,374,655745,0.0-2.0-77.1-0.1,5c492c7167b61b000190bfe8,C3,batch3,,771,tol_tohand,,,,tol_peg_1,771,771,0,"[[1,0,0],[0,0],[3]]",2,"[[1,3,2],[0,0],[0]]",22,0,,,,,,3,,,,,,,,,
,,,,,single-stim-button,375,656315,0.0-2.0-77.1-1.1,5c492c7167b61b000190bfe8,C3,batch3,,570,tol_toboard,,,,tol_peg_2,570,570,0,"[[1,0,0],[2,0],[3]]",2,"[[1,3,2],[0,0],[0]]",22,0,,,,,,3,,,,,,,,,
,,,,,single-stim-button,376,657237,0.0-2.0-77.2-0.2,5c492c7167b61b000190bfe8,C3,batch3,,921,tol_tohand,,,,tol_peg_1,921,921,0,"[[0,0,0],[2,0],[3]]",3,"[[1,3,2],[0,0],[0]]",22,0,,,,,,3,,,,,,,,,
,,,,,single-stim-button,377,657731,0.0-2.0-77.2-1.2,5c492c7167b61b000190bfe8,C3,batch3,,492,tol_toboard,,,,tol_peg_2,492,492,0,"[[0,0,0],[2,1],[3]]",3,"[[1,3,2],[0,0],[0]]",22,0,,,,,,3,,,,,,,,,
,,,,,single-stim-button,378,658301,0.0-2.0-77.3-0.3,5c492c7167b61b000190bfe8,C3,batch3,,570,tol_tohand,,,,tol_peg_3,570,570,0,"[[0,0,0],[2,1],[0]]",4,"[[1,3,2],[0,0],[0]]",22,0,,,,,,3,,,,,,,,,
,,,,,single-stim-button,379,659178,0.0-2.0-77.3-1.3,5c492c7167b61b000190bfe8,C3,batch3,,876,tol_toboard,,,,tol_peg_1,876,876,0,"[[3,0,0],[2,1],[0]]",4,"[[1,3,2],[0,0],[0]]",22,0,,,,,,3,,,,,,,,,
,,,,,single-stim-button,380,660478,0.0-2.0-77.4-0.4,5c492c7167b61b000190bfe8,C3,batch3,,1299,tol_tohand,,,,tol_peg_2,1299,1299,0,"[[3,0,0],[2,0],[0]]",5,"[[1,3,2],[0,0],[0]]",22,0,,,,,,3,,,,,,,,,
,,,,,single-stim-button,381,661207,0.0-2.0-77.4-1.4,5c492c7167b61b000190bfe8,C3,batch3,,728,tol_toboard,,,,tol_peg_1,728,728,0,"[[3,1,0],[2,0],[0]]",5,"[[1,3,2],[0,0],[0]]",22,0,,,,,,3,,,,,,,,,
,,,,,single-stim-button,382,662254,0.0-2.0-77.5-0.5,5c492c7167b61b000190bfe8,C3,batch3,,1046,tol_tohand,,,,tol_peg_1,1046,1046,0,"[[3,0,0],[2,0],[0]]",6,"[[1,3,2],[0,0],[0]]",22,0,,,,,,3,,,,,,,,,
,,,,,single-stim-button,383,663017,0.0-2.0-77.5-1.5,5c492c7167b61b000190bfe8,C3,batch3,,762,tol_toboard,,,,tol_peg_1,762,762,0,"[[3,1,0],[2,0],[0]]",6,"[[1,3,2],[0,0],[0]]",22,0,,,,,,3,,,,,,,,,
,,,,,single-stim-button,384,663747,0.0-2.0-77.6-0.6,5c492c7167b61b000190bfe8,C3,batch3,,729,tol_tohand,,,,tol_peg_1,729,729,0,"[[3,0,0],[2,0],[0]]",7,"[[1,3,2],[0,0],[0]]",22,0,,,,,,3,,,,,,,,,
,,,,,single-stim-button,385,664125,0.0-2.0-77.6-1.6,5c492c7167b61b000190bfe8,C3,batch3,,377,tol_toboard,,,,tol_peg_2,377,377,0,"[[3,0,0],[2,1],[0]]",7,"[[1,3,2],[0,0],[0]]",22,0,,,,,,3,,,,,,,,,
,,,,,single-stim-button,386,664762,0.0-2.0-77.7-0.7,5c492c7167b61b000190bfe8,C3,batch3,,636,tol_tohand,,,,tol_peg_1,636,636,0,"[[0,0,0],[2,1],[0]]",8,"[[1,3,2],[0,0],[0]]",22,0,,,,,,3,,,,,,,,,
,,,,,single-stim-button,387,665403,0.0-2.0-77.7-1.7,5c492c7167b61b000190bfe8,C3,batch3,,641,tol_toboard,,,,tol_peg_3,641,641,0,"[[0,0,0],[2,1],[3]]",8,"[[1,3,2],[0,0],[0]]",22,0,,,,,,3,,,,,,,,,
,,,,,single-stim-button,388,665895,0.0-2.0-77.8-0.8,5c492c7167b61b000190bfe8,C3,batch3,,491,tol_tohand,,,,tol_peg_2,491,491,0,"[[0,0,0],[2,0],[3]]",9,"[[1,3,2],[0,0],[0]]",22,0,,,,,,3,,,,,,,,,
,,,,,single-stim-button,389,666341,0.0-2.0-77.8-1.8,5c492c7167b61b000190bfe8,C3,batch3,,446,tol_toboard,,,,tol_peg_1,446,446,0,"[[1,0,0],[2,0],[3]]",9,"[[1,3,2],[0,0],[0]]",22,0,,,,,,3,,,,,,,,,
,,,,,single-stim-button,390,666898,0.0-2.0-77.9-0.9,5c492c7167b61b000190bfe8,C3,batch3,,556,tol_tohand,,,,tol_peg_3,556,556,0,"[[1,0,0],[2,0],[0]]",10,"[[1,3,2],[0,0],[0]]",22,0,,,,,,3,,,,,,,,,
,,,,,single-stim-button,391,667517,0.0-2.0-77.9-1.9,5c492c7167b61b000190bfe8,C3,batch3,,618,tol_toboard,,,,tol_peg_1,618,618,0,"[[1,3,0],[2,0],[0]]",10,"[[1,3,2],[0,0],[0]]",22,0,,,,,,3,,,,,,,,,
,,,,,single-stim-button,392,667955,0.0-2.0-77.10-0.10,5c492c7167b61b000190bfe8,C3,batch3,,437,tol_tohand,,,,tol_peg_2,437,437,0,"[[1,3,0],[0,0],[0]]",11,"[[1,3,2],[0,0],[0]]",22,0,,,,,,3,,,,,,,,,
,,,,,single-stim-button,393,668447,0.0-2.0-77.10-1.10,5c492c7167b61b000190bfe8,C3,batch3,,492,tol_toboard,,,,tol_peg_1,492,492,0,"[[1,3,2],[0,0],[0]]",11,"[[1,3,2],[0,0],[0]]",22,0,,,,,,3,,,,,,,,,
,,,,,poldrack-single-stim,394,669452,0.0-2.0-78.0,5c492c7167b61b000190bfe8,C3,batch3,,-1,tol_feedback,,,TRUE,,1000,1000,500,,,,,,-1,none,TRUE,1057,8513,,,,,,,,,,
,,,,,html-button-response,395,670385,0.0-2.0-79.0,5c492c7167b61b000190bfe8,C3,batch3,,932.6999999880790,tol_trial_num,<div class = centerbox><p class = center-block-text>problem <strong>24</strong> out of 25 problems</p></div>,0,,,,,,,,,,,,,,,,,,,,,,,,,
,,,,,single-stim-button,396,675444,0.0-2.0-80.0-0.0,5c492c7167b61b000190bfe8,C3,batch3,,5058,tol_tohand,,,,tol_peg_3,5058,5058,0,"[[0,0,0],[2,3],[0]]",1,"[[2,0,0],[3,0],[1]]",23,0,,,,,,7,,,,,,,,,
,,,,,single-stim-button,397,676005,0.0-2.0-80.0-1.0,5c492c7167b61b000190bfe8,C3,batch3,,560,tol_toboard,,,,tol_peg_1,560,560,0,"[[1,0,0],[2,3],[0]]",1,"[[2,0,0],[3,0],[1]]",23,0,,,,,,7,,,,,,,,,
,,,,,single-stim-button,398,676618,0.0-2.0-80.1-0.1,5c492c7167b61b000190bfe8,C3,batch3,,612,tol_tohand,,,,tol_peg_2,612,612,0,"[[1,0,0],[2,0],[0]]",2,"[[2,0,0],[3,0],[1]]",23,0,,,,,,7,,,,,,,,,
,,,,,single-stim-button,399,677092,0.0-2.0-80.1-1.1,5c492c7167b61b000190bfe8,C3,batch3,,474,tol_toboard,,,,tol_peg_1,474,474,0,"[[1,3,0],[2,0],[0]]",2,"[[2,0,0],[3,0],[1]]",23,0,,,,,,7,,,,,,,,,
,,,,,single-stim-button,400,678994,0.0-2.0-80.2-0.2,5c492c7167b61b000190bfe8,C3,batch3,,1902,tol_tohand,,,,tol_peg_2,1902,1902,0,"[[1,3,0],[0,0],[0]]",3,"[[2,0,0],[3,0],[1]]",23,0,,,,,,7,,,,,,,,,
,,,,,single-stim-button,401,679987,0.0-2.0-80.2-1.2,5c492c7167b61b000190bfe8,C3,batch3,,993,tol_toboard,,,,tol_peg_3,993,993,0,"[[1,3,0],[0,0],[2]]",3,"[[2,0,0],[3,0],[1]]",23,0,,,,,,7,,,,,,,,,
,,,,,single-stim-button,402,680542,0.0-2.0-80.3-0.3,5c492c7167b61b000190bfe8,C3,batch3,,554,tol_tohand,,,,tol_peg_1,554,554,0,"[[1,0,0],[0,0],[2]]",4,"[[2,0,0],[3,0],[1]]",23,0,,,,,,7,,,,,,,,,
,,,,,single-stim-button,403,681324,0.0-2.0-80.3-1.3,5c492c7167b61b000190bfe8,C3,batch3,,781,tol_toboard,,,,tol_peg_2,781,781,0,"[[1,0,0],[3,0],[2]]",4,"[[2,0,0],[3,0],[1]]",23,0,,,,,,7,,,,,,,,,
,,,,,single-stim-button,404,682164,0.0-2.0-80.4-0.4,5c492c7167b61b000190bfe8,C3,batch3,,839,tol_tohand,,,,tol_peg_3,839,839,0,"[[1,0,0],[3,0],[0]]",5,"[[2,0,0],[3,0],[1]]",23,0,,,,,,7,,,,,,,,,
,,,,,single-stim-button,405,682657,0.0-2.0-80.4-1.4,5c492c7167b61b000190bfe8,C3,batch3,,492,tol_toboard,,,,tol_peg_2,492,492,0,"[[1,0,0],[3,2],[0]]",5,"[[2,0,0],[3,0],[1]]",23,0,,,,,,7,,,,,,,,,
,,,,,single-stim-button,406,683417,0.0-2.0-80.5-0.5,5c492c7167b61b000190bfe8,C3,batch3,,759,tol_tohand,,,,tol_peg_1,759,759,0,"[[0,0,0],[3,2],[0]]",6,"[[2,0,0],[3,0],[1]]",23,0,,,,,,7,,,,,,,,,
,,,,,single-stim-button,407,684300,0.0-2.0-80.5-1.5,5c492c7167b61b000190bfe8,C3,batch3,,882,tol_toboard,,,,tol_peg_3,882,882,0,"[[0,0,0],[3,2],[1]]",6,"[[2,0,0],[3,0],[1]]",23,0,,,,,,7,,,,,,,,,
,,,,,single-stim-button,408,684858,0.0-2.0-80.6-0.6,5c492c7167b61b000190bfe8,C3,batch3,,557,tol_tohand,,,,tol_peg_2,557,557,0,"[[0,0,0],[3,0],[1]]",7,"[[2,0,0],[3,0],[1]]",23,0,,,,,,7,,,,,,,,,
,,,,,single-stim-button,409,685530,0.0-2.0-80.6-1.6,5c492c7167b61b000190bfe8,C3,batch3,,671,tol_toboard,,,,tol_peg_1,671,671,0,"[[2,0,0],[3,0],[1]]",7,"[[2,0,0],[3,0],[1]]",23,0,,,,,,7,,,,,,,,,
,,,,,poldrack-single-stim,410,686532,0.0-2.0-81.0,5c492c7167b61b000190bfe8,C3,batch3,,-1,tol_feedback,,,TRUE,,1000,1000,500,,,,,,-1,none,TRUE,5058,10281,,,,,,,,,,
,,,,,html-button-response,411,687276,0.0-2.0-82.0,5c492c7167b61b000190bfe8,C3,batch3,,742.2999999523160,tol_trial_num,<div class = centerbox><p class = center-block-text>problem <strong>25</strong> out of 25 problems</p></div>,0,,,,,,,,,,,,,,,,,,,,,,,,,
,,,,,single-stim-button,412,688443,0.0-2.0-83.0-0.0,5c492c7167b61b000190bfe8,C3,batch3,,1166,tol_tohand,,,,tol_peg_2,1166,1166,0,"[[1,2,0],[0,0],[0]]",1,"[[3,0,0],[1,0],[2]]",24,0,,,,,,7,,,,,,,,,
,,,,,single-stim-button,413,690811,0.0-2.0-83.0-1.0,5c492c7167b61b000190bfe8,C3,batch3,,2367,tol_toboard,,,,tol_peg_3,2367,2367,0,"[[1,2,0],[0,0],[3]]",1,"[[3,0,0],[1,0],[2]]",24,0,,,,,,7,,,,,,,,,
,,,,,single-stim-button,414,691522,0.0-2.0-83.1-0.1,5c492c7167b61b000190bfe8,C3,batch3,,709,tol_tohand,,,,tol_peg_1,709,709,0,"[[1,0,0],[0,0],[3]]",2,"[[3,0,0],[1,0],[2]]",24,0,,,,,,7,,,,,,,,,
,,,,,single-stim-button,415,692347,0.0-2.0-83.1-1.1,5c492c7167b61b000190bfe8,C3,batch3,,825,tol_toboard,,,,tol_peg_2,825,825,0,"[[1,0,0],[2,0],[3]]",2,"[[3,0,0],[1,0],[2]]",24,0,,,,,,7,,,,,,,,,
,,,,,single-stim-button,416,693048,0.0-2.0-83.2-0.2,5c492c7167b61b000190bfe8,C3,batch3,,700,tol_tohand,,,,tol_peg_1,700,700,0,"[[0,0,0],[2,0],[3]]",3,"[[3,0,0],[1,0],[2]]",24,0,,,,,,7,,,,,,,,,
,,,,,single-stim-button,417,694084,0.0-2.0-83.2-1.2,5c492c7167b61b000190bfe8,C3,batch3,,1036,tol_toboard,,,,tol_peg_2,1036,1036,0,"[[0,0,0],[2,1],[3]]",3,"[[3,0,0],[1,0],[2]]",24,0,,,,,,7,,,,,,,,,
,,,,,single-stim-button,418,694511,0.0-2.0-83.3-0.3,5c492c7167b61b000190bfe8,C3,batch3,,426,tol_tohand,,,,tol_peg_3,426,426,0,"[[0,0,0],[2,1],[0]]",4,"[[3,0,0],[1,0],[2]]",24,0,,,,,,7,,,,,,,,,
,,,,,single-stim-button,419,695079,0.0-2.0-83.3-1.3,5c492c7167b61b000190bfe8,C3,batch3,,566,tol_toboard,,,,tol_peg_1,566,566,0,"[[3,0,0],[2,1],[0]]",4,"[[3,0,0],[1,0],[2]]",24,0,,,,,,7,,,,,,,,,
,,,,,single-stim-button,420,695508,0.0-2.0-83.4-0.4,5c492c7167b61b000190bfe8,C3,batch3,,429,tol_tohand,,,,tol_peg_2,429,429,0,"[[3,0,0],[2,0],[0]]",5,"[[3,0,0],[1,0],[2]]",24,0,,,,,,7,,,,,,,,,
,,,,,single-stim-button,421,696878,0.0-2.0-83.4-1.4,5c492c7167b61b000190bfe8,C3,batch3,,1370,tol_toboard,,,,tol_peg_1,1370,1370,0,"[[3,1,0],[2,0],[0]]",5,"[[3,0,0],[1,0],[2]]",24,0,,,,,,7,,,,,,,,,
,,,,,single-stim-button,422,697415,0.0-2.0-83.5-0.5,5c492c7167b61b000190bfe8,C3,batch3,,536,tol_tohand,,,,tol_peg_2,536,536,0,"[[3,1,0],[0,0],[0]]",6,"[[3,0,0],[1,0],[2]]",24,0,,,,,,7,,,,,,,,,
,,,,,single-stim-button,423,698083,0.0-2.0-83.5-1.5,5c492c7167b61b000190bfe8,C3,batch3,,668,tol_toboard,,,,tol_peg_3,668,668,0,"[[3,1,0],[0,0],[2]]",6,"[[3,0,0],[1,0],[2]]",24,0,,,,,,7,,,,,,,,,
,,,,,single-stim-button,424,698758,0.0-2.0-83.6-0.6,5c492c7167b61b000190bfe8,C3,batch3,,675,tol_tohand,,,,tol_peg_1,675,675,0,"[[3,0,0],[0,0],[2]]",7,"[[3,0,0],[1,0],[2]]",24,0,,,,,,7,,,,,,,,,
,,,,,single-stim-button,425,699126,0.0-2.0-83.6-1.6,5c492c7167b61b000190bfe8,C3,batch3,,368,tol_toboard,,,,tol_peg_2,368,368,0,"[[3,0,0],[1,0],[2]]",7,"[[3,0,0],[1,0],[2]]",24,0,,,,,,7,,,,,,,,,
,,,,,poldrack-single-stim,426,700128,0.0-2.0-84.0,5c492c7167b61b000190bfe8,C3,batch3,,-1,tol_feedback,,,TRUE,,1000,1000,500,,,,,,-1,none,TRUE,1166,4641,,,,,,,,,,
,,,,,html-button-response,427,701297,0.0-2.0-85.0,5c492c7167b61b000190bfe8,C3,batch3,,1167.7999999523200,tol-goodbye,<p class= block-text>This concludes the Tower of London Task. Thank you for your responses!<br> Click the button below to continue</p>,0,,,,,,,,,,,,,,,,,,,,,,,,,
TRUE,,,,,fullscreen,428,704308,0.0-3.0-0.0,5c492c7167b61b000190bfe8,C3,batch3,,,,,,,,,,,,,,,,,,,,,,,,,,,,,,
,,,,,instructions,429,708500,0.0-3.0-1.0-0.0,5c492c7167b61b000190bfe8,C3,batch3,"[{""page_index"":0,""viewing_time"":2741.5},{""page_index"":1,""viewing_time"":1446.9000000357628}]",4188.800000011920,,,,,,,,,,,,,,,,,,,,,,,,,,,,
,,,,,html-button-response,430,709304,0.0-3.0-1.0-1.0-0.0,5c492c7167b61b000190bfe8,C3,batch3,,802,pattern_enter_quiz,<p class=block-text> Let's answer a few questions <br>,0,,,,,,,,,,,,,,,,,,,,,,,,,
,,,,,html-button-response,431,712608,0.0-3.0-1.0-1.0-1.0,5c492c7167b61b000190bfe8,C3,batch3,,3303.100000023840,pattern_quiz,<p class = block-text>True or False: You will have as much time as you want to make each choice. <br></p>,1,TRUE,,,,,,,,,,,,,,,,,,,,,,,,
,,,,,html-button-response,432,714348,0.0-3.0-1.0-1.0-2.0,5c492c7167b61b000190bfe8,C3,batch3,,1739.4000000357600,pattern_quiz_feedback,<p class = block-text>Correct! You should make your choice <strong> as fast as you can</strong>.</p>,0,,,,,,,,,,,,,,,,,,,,,,,,,
,,,,,html-button-response,433,720363,0.0-3.0-1.0-1.0-3.0,5c492c7167b61b000190bfe8,C3,batch3,,6014.800000011920,pattern_quiz,"<p class = block-text>True or False: You will look for 4 pieces in black or white color connected in a row either horizontally, vertically or diagonally. <br></p>",0,TRUE,,,,,,,,,,,,,,,,,,,,,,,,
,,,,,html-button-response,434,721315,0.0-3.0-1.0-1.0-4.0,5c492c7167b61b000190bfe8,C3,batch3,,950.5,pattern_quiz_feedback,<p class = block-text>Correct! </p>,0,,,,,,,,,,,,,,,,,,,,,,,,,
,,,,,html-button-response,435,722592,0.0-3.0-2.0,5c492c7167b61b000190bfe8,C3,batch3,,1274.199999988080,pattern_enter_practice,"<p class=block-text> Now that you've understood the game, let's do a few practice trials before we start!<br> <br>",0,,,,,,,,,,,,,,,,,,,,,,,,,
,,,,,image-keyboard-response,436,729830,0.0-3.0-3.0-0.0,5c492c7167b61b000190bfe8,C3,batch3,,7234.599999964240,pattern_practice,stim/prac_yes_16_ver_w1.png,f,TRUE,,,,,,,,,,,,,,,,f,,,,,,,,
,,,,,html-keyboard-response,437,730857,0.0-3.0-3.0-1.0,5c492c7167b61b000190bfe8,C3,batch3,,null,pattern_feedback,"<p style=""font-size:30px;color:green;"">Correct!</p>",null,,,,,,,,,,,,,,,,,,,,,,,,,
,,,,,image-keyboard-response,438,732602,0.0-3.0-3.0-0.1,5c492c7167b61b000190bfe8,C3,batch3,,1741.9000000357600,pattern_practice,stim/prac_no_18_1.png,j,TRUE,,,,,,,,,,,,,,,,j,,,,,,,,
,,,,,html-keyboard-response,439,733611,0.0-3.0-3.0-1.1,5c492c7167b61b000190bfe8,C3,batch3,,null,pattern_feedback,"<p style=""font-size:30px;color:green;"">Correct!</p>",null,,,,,,,,,,,,,,,,,,,,,,,,,
,,,,,image-keyboard-response,440,736753,0.0-3.0-3.0-0.2,5c492c7167b61b000190bfe8,C3,batch3,,3139.100000023840,pattern_practice,stim/prac_no_16_1.png,j,TRUE,,,,,,,,,,,,,,,,j,,,,,,,,
,,,,,html-keyboard-response,441,737764,0.0-3.0-3.0-1.2,5c492c7167b61b000190bfe8,C3,batch3,,null,pattern_feedback,"<p style=""font-size:30px;color:green;"">Correct!</p>",null,,,,,,,,,,,,,,,,,,,,,,,,,
,,,,,image-keyboard-response,442,739345,0.0-3.0-3.0-0.3,5c492c7167b61b000190bfe8,C3,batch3,,1576.9000000357600,pattern_practice,stim/prac_yes_20_dia_b1.png,f,TRUE,,,,,,,,,,,,,,,,f,,,,,,,,
,,,,,html-keyboard-response,443,740359,0.0-3.0-3.0-1.3,5c492c7167b61b000190bfe8,C3,batch3,,null,pattern_feedback,"<p style=""font-size:30px;color:green;"">Correct!</p>",null,,,,,,,,,,,,,,,,,,,,,,,,,
,,,,,image-keyboard-response,444,741369,0.0-3.0-3.0-0.4,5c492c7167b61b000190bfe8,C3,batch3,,1005.6999999880800,pattern_practice,stim/prac_yes_18_hor_w1.png,f,TRUE,,,,,,,,,,,,,,,,f,,,,,,,,
,,,,,html-keyboard-response,445,742384,0.0-3.0-3.0-1.4,5c492c7167b61b000190bfe8,C3,batch3,,null,pattern_feedback,"<p style=""font-size:30px;color:green;"">Correct!</p>",null,,,,,,,,,,,,,,,,,,,,,,,,,
,,,,,html-button-response,446,744019,0.0-3.0-4.0,5c492c7167b61b000190bfe8,C3,batch3,,1630.800000011920,pattern_enter_official_trials,"<p class=block-text> Good job! You are done with practice trials!<br>
        You responded correctly on 100% of the trials.<br>
        Press the button below to start official trials. Now you won't see any feedback about your response</p>",0,,,,,,,,,,,,,,,,,,,,,,,,,
,,,,,html-keyboard-response,447,744820,0.0-3.0-5.0-0.0,5c492c7167b61b000190bfe8,C3,batch3,,null,pattern_show_trial_num,<p class=block-text>Trial 1 out of 78</p>,null,,,,,,,,,,,,,,,,,,,,,,,,,
,,,,,image-keyboard-response,448,748017,0.0-3.0-5.0-1.0,5c492c7167b61b000190bfe8,C3,batch3,,3193.600000023840,pattern_response,stim/no_25_1_b.png,j,TRUE,,,,,,,,,,,,,,,,j,pattern_09,3193.600000023840,TRUE,1,,,,
,,,,,html-keyboard-response,449,749339,0.0-3.0-5.0-0.1,5c492c7167b61b000190bfe8,C3,batch3,,null,pattern_show_trial_num,<p class=block-text>Trial 2 out of 78</p>,null,,,,,,,,,,,,,,,,,,,,,,,,,
,,,,,image-keyboard-response,450,750769,0.0-3.0-5.0-1.1,5c492c7167b61b000190bfe8,C3,batch3,,1425,pattern_response,stim/yes_44_ver_w1_w.png,f,TRUE,,,,,,,,,,,,,,,,f,pattern_66,1425,TRUE,2,,,,
,,,,,html-keyboard-response,451,752082,0.0-3.0-5.0-0.2,5c492c7167b61b000190bfe8,C3,batch3,,null,pattern_show_trial_num,<p class=block-text>Trial 3 out of 78</p>,null,,,,,,,,,,,,,,,,,,,,,,,,,
,,,,,image-keyboard-response,452,752801,0.0-3.0-5.0-1.2,5c492c7167b61b000190bfe8,C3,batch3,,715.2999999523160,pattern_response,stim/yes_12_hor_w1_w.png,f,TRUE,,,,,,,,,,,,,,,,f,pattern_42,715.2999999523160,TRUE,3,,,,
,,,,,html-keyboard-response,453,754130,0.0-3.0-5.0-0.3,5c492c7167b61b000190bfe8,C3,batch3,,null,pattern_show_trial_num,<p class=block-text>Trial 4 out of 78</p>,null,,,,,,,,,,,,,,,,,,,,,,,,,
,,,,,image-keyboard-response,454,755520,0.0-3.0-5.0-1.3,5c492c7167b61b000190bfe8,C3,batch3,,1386.800000011920,pattern_response,stim/no_18_1_b.png,j,TRUE,,,,,,,,,,,,,,,,j,pattern_05,1386.800000011920,TRUE,4,,,,
,,,,,html-keyboard-response,455,756837,0.0-3.0-5.0-0.4,5c492c7167b61b000190bfe8,C3,batch3,,null,pattern_show_trial_num,<p class=block-text>Trial 5 out of 78</p>,null,,,,,,,,,,,,,,,,,,,,,,,,,
,,,,,image-keyboard-response,456,759089,0.0-3.0-5.0-1.4,5c492c7167b61b000190bfe8,C3,batch3,,2248,pattern_response,stim/yes_70_ver_b1.png,f,TRUE,,,,,,,,,,,,,,,,f,pattern_80,2248,TRUE,5,,,,
,,,,,html-keyboard-response,457,760408,0.0-3.0-5.0-0.5,5c492c7167b61b000190bfe8,C3,batch3,,null,pattern_show_trial_num,<p class=block-text>Trial 6 out of 78</p>,null,,,,,,,,,,,,,,,,,,,,,,,,,
,,,,,image-keyboard-response,458,761569,0.0-3.0-5.0-1.5,5c492c7167b61b000190bfe8,C3,batch3,,1157.199999988080,pattern_response,stim/yes_46_ver_b1_b.png,f,TRUE,,,,,,,,,,,,,,,,f,pattern_68,1157.199999988080,TRUE,6,,,,
,,,,,html-keyboard-response,459,762892,0.0-3.0-5.0-0.6,5c492c7167b61b000190bfe8,C3,batch3,,null,pattern_show_trial_num,<p class=block-text>Trial 7 out of 78</p>,null,,,,,,,,,,,,,,,,,,,,,,,,,
,,,,,image-keyboard-response,460,763937,0.0-3.0-5.0-1.6,5c492c7167b61b000190bfe8,C3,batch3,,1041.5,pattern_response,stim/no_36_1_b.png,f,FALSE,,,,,,,,,,,,,,,,j,pattern_17,1041.5,FALSE,6,,,,
,,,,,html-keyboard-response,461,765251,0.0-3.0-5.0-0.7,5c492c7167b61b000190bfe8,C3,batch3,,null,pattern_show_trial_num,<p class=block-text>Trial 8 out of 78</p>,null,,,,,,,,,,,,,,,,,,,,,,,,,
,,,,,image-keyboard-response,462,766121,0.0-3.0-5.0-1.7,5c492c7167b61b000190bfe8,C3,batch3,,866.6999999880790,pattern_response,stim/no_12_1.png,j,TRUE,,,,,,,,,,,,,,,,j,pattern_01,866.6999999880790,TRUE,7,,,,
,,,,,html-keyboard-response,463,767437,0.0-3.0-5.0-0.8,5c492c7167b61b000190bfe8,C3,batch3,,null,pattern_show_trial_num,<p class=block-text>Trial 9 out of 78</p>,null,,,,,,,,,,,,,,,,,,,,,,,,,
,,,,,image-keyboard-response,464,771697,0.0-3.0-5.0-1.8,5c492c7167b61b000190bfe8,C3,batch3,,4257.100000023840,pattern_response,stim/yes_63_dia_b1.png,j,FALSE,,,,,,,,,,,,,,,,f,pattern_78,4257.100000023840,FALSE,7,,,,
,,,,,html-keyboard-response,465,773011,0.0-3.0-5.0-0.9,5c492c7167b61b000190bfe8,C3,batch3,,null,pattern_show_trial_num,<p class=block-text>Trial 10 out of 78</p>,null,,,,,,,,,,,,,,,,,,,,,,,,,
,,,,,image-keyboard-response,466,777242,0.0-3.0-5.0-1.9,5c492c7167b61b000190bfe8,C3,batch3,,4226.199999988080,pattern_response,stim/yes_58_dia_w1_w.png,j,FALSE,,,,,,,,,,,,,,,,f,pattern_76,4226.199999988080,FALSE,7,,,,
,,,,,html-keyboard-response,467,778547,0.0-3.0-5.0-0.10,5c492c7167b61b000190bfe8,C3,batch3,,null,pattern_show_trial_num,<p class=block-text>Trial 11 out of 78</p>,null,,,,,,,,,,,,,,,,,,,,,,,,,
,,,,,image-keyboard-response,468,782401,0.0-3.0-5.0-1.10,5c492c7167b61b000190bfe8,C3,batch3,,3849.900000035760,pattern_response,stim/no_58_1_w.png,j,TRUE,,,,,,,,,,,,,,,,j,pattern_35,3849.900000035760,TRUE,8,,,,
,,,,,html-keyboard-response,469,783727,0.0-3.0-5.0-0.11,5c492c7167b61b000190bfe8,C3,batch3,,null,pattern_show_trial_num,<p class=block-text>Trial 12 out of 78</p>,null,,,,,,,,,,,,,,,,,,,,,,,,,
,,,,,image-keyboard-response,470,786921,0.0-3.0-5.0-1.11,5c492c7167b61b000190bfe8,C3,batch3,,3190.600000023840,pattern_response,stim/no_39_1_w.png,j,TRUE,,,,,,,,,,,,,,,,j,pattern_21,3190.600000023840,TRUE,9,,,,
,,,,,html-keyboard-response,471,788247,0.0-3.0-5.0-0.12,5c492c7167b61b000190bfe8,C3,batch3,,null,pattern_show_trial_num,<p class=block-text>Trial 13 out of 78</p>,null,,,,,,,,,,,,,,,,,,,,,,,,,
,,,,,image-keyboard-response,472,789147,0.0-3.0-5.0-1.12,5c492c7167b61b000190bfe8,C3,batch3,,894.8999999761580,pattern_response,stim/yes_39_hor_w1_w.png,f,TRUE,,,,,,,,,,,,,,,,f,pattern_62,894.8999999761580,TRUE,10,,,,
,,,,,html-keyboard-response,473,790458,0.0-3.0-5.0-0.13,5c492c7167b61b000190bfe8,C3,batch3,,null,pattern_show_trial_num,<p class=block-text>Trial 14 out of 78</p>,null,,,,,,,,,,,,,,,,,,,,,,,,,
,,,,,image-keyboard-response,474,792441,0.0-3.0-5.0-1.13,5c492c7167b61b000190bfe8,C3,batch3,,1979.9000000357600,pattern_response,stim/no_28_2.png,j,TRUE,,,,,,,,,,,,,,,,j,pattern_11,1979.9000000357600,TRUE,11,,,,
,,,,,html-keyboard-response,475,793767,0.0-3.0-5.0-0.14,5c492c7167b61b000190bfe8,C3,batch3,,null,pattern_show_trial_num,<p class=block-text>Trial 15 out of 78</p>,null,,,,,,,,,,,,,,,,,,,,,,,,,
,,,,,image-keyboard-response,476,796209,0.0-3.0-5.0-1.14,5c492c7167b61b000190bfe8,C3,batch3,,2439.5,pattern_response,stim/no_51_1.png,j,TRUE,,,,,,,,,,,,,,,,j,pattern_31,2439.5,TRUE,12,,,,
,,,,,html-keyboard-response,477,797532,0.0-3.0-5.0-0.15,5c492c7167b61b000190bfe8,C3,batch3,,null,pattern_show_trial_num,<p class=block-text>Trial 16 out of 78</p>,null,,,,,,,,,,,,,,,,,,,,,,,,,
,,,,,image-keyboard-response,478,798737,0.0-3.0-5.0-1.15,5c492c7167b61b000190bfe8,C3,batch3,,1200.699999988080,pattern_response,stim/yes_30_ver_b1_b.png,f,TRUE,,,,,,,,,,,,,,,,f,pattern_54,1200.699999988080,TRUE,13,,,,
,,,,,html-keyboard-response,479,800060,0.0-3.0-5.0-0.16,5c492c7167b61b000190bfe8,C3,batch3,,null,pattern_show_trial_num,<p class=block-text>Trial 17 out of 78</p>,null,,,,,,,,,,,,,,,,,,,,,,,,,
,,,,,image-keyboard-response,480,804378,0.0-3.0-5.0-1.16,5c492c7167b61b000190bfe8,C3,batch3,,4314.899999976160,pattern_response,stim/no_67_1.png,j,TRUE,,,,,,,,,,,,,,,,j,pattern_39,4314.899999976160,TRUE,14,,,,
,,,,,html-keyboard-response,481,805695,0.0-3.0-5.0-0.17,5c492c7167b61b000190bfe8,C3,batch3,,null,pattern_show_trial_num,<p class=block-text>Trial 18 out of 78</p>,null,,,,,,,,,,,,,,,,,,,,,,,,,
,,,,,image-keyboard-response,482,806985,0.0-3.0-5.0-1.17,5c492c7167b61b000190bfe8,C3,batch3,,1286.4000000357600,pattern_response,stim/no_22_1_b.png,j,TRUE,,,,,,,,,,,,,,,,j,pattern_07,1286.4000000357600,TRUE,15,,,,
,,,,,html-keyboard-response,483,808309,0.0-3.0-5.0-0.18,5c492c7167b61b000190bfe8,C3,batch3,,null,pattern_show_trial_num,<p class=block-text>Trial 19 out of 78</p>,null,,,,,,,,,,,,,,,,,,,,,,,,,
,,,,,image-keyboard-response,484,809585,0.0-3.0-5.0-1.18,5c492c7167b61b000190bfe8,C3,batch3,,1273.4000000357600,pattern_response,stim/yes_15_dia_b1u_b.png,f,TRUE,,,,,,,,,,,,,,,,f,pattern_44,1273.4000000357600,TRUE,16,,,,
,,,,,html-keyboard-response,485,810913,0.0-3.0-5.0-0.19,5c492c7167b61b000190bfe8,C3,batch3,,null,pattern_show_trial_num,<p class=block-text>Trial 20 out of 78</p>,null,,,,,,,,,,,,,,,,,,,,,,,,,
,,,,,image-keyboard-response,486,812033,0.0-3.0-5.0-1.19,5c492c7167b61b000190bfe8,C3,batch3,,1116.800000011920,pattern_response,stim/yes_33_dia_w1_w.png,j,FALSE,,,,,,,,,,,,,,,,f,pattern_56,1116.800000011920,FALSE,16,,,,
,,,,,html-keyboard-response,487,813347,0.0-3.0-5.0-0.20,5c492c7167b61b000190bfe8,C3,batch3,,null,pattern_show_trial_num,<p class=block-text>Trial 21 out of 78</p>,null,,,,,,,,,,,,,,,,,,,,,,,,,
,,,,,image-keyboard-response,488,815658,0.0-3.0-5.0-1.20,5c492c7167b61b000190bfe8,C3,batch3,,2307.600000023840,pattern_response,stim/yes_51_dia_b1.png,j,FALSE,,,,,,,,,,,,,,,,f,pattern_72,2307.600000023840,FALSE,16,,,,
,,,,,html-keyboard-response,489,816969,0.0-3.0-5.0-0.21,5c492c7167b61b000190bfe8,C3,batch3,,null,pattern_show_trial_num,<p class=block-text>Trial 22 out of 78</p>,null,,,,,,,,,,,,,,,,,,,,,,,,,
,,,,,image-keyboard-response,490,818345,0.0-3.0-5.0-1.21,5c492c7167b61b000190bfe8,C3,batch3,,1371.9000000357600,pattern_response,stim/no_33_1_b.png,j,TRUE,,,,,,,,,,,,,,,,j,pattern_15,1371.9000000357600,TRUE,17,,,,
,,,,,html-keyboard-response,491,819662,0.0-3.0-5.0-0.22,5c492c7167b61b000190bfe8,C3,batch3,,null,pattern_show_trial_num,<p class=block-text>Trial 23 out of 78</p>,null,,,,,,,,,,,,,,,,,,,,,,,,,
,,,,,image-keyboard-response,492,820305,0.0-3.0-5.0-1.22,5c492c7167b61b000190bfe8,C3,batch3,,640,pattern_response,stim/no_15_1_w.png,j,TRUE,,,,,,,,,,,,,,,,j,pattern_03,640,TRUE,18,,,,
,,,,,html-keyboard-response,493,821631,0.0-3.0-5.0-0.23,5c492c7167b61b000190bfe8,C3,batch3,,null,pattern_show_trial_num,<p class=block-text>Trial 24 out of 78</p>,null,,,,,,,,,,,,,,,,,,,,,,,,,
,,,,,image-keyboard-response,494,822809,0.0-3.0-5.0-1.23,5c492c7167b61b000190bfe8,C3,batch3,,1174.8999999761600,pattern_response,stim/yes_37_hor_w1_w.png,f,TRUE,,,,,,,,,,,,,,,,f,pattern_60,1174.8999999761600,TRUE,19,,,,
,,,,,html-keyboard-response,495,824132,0.0-3.0-5.0-0.24,5c492c7167b61b000190bfe8,C3,batch3,,null,pattern_show_trial_num,<p class=block-text>Trial 25 out of 78</p>,null,,,,,,,,,,,,,,,,,,,,,,,,,
