"success","timeout","failed_images","failed_audio","failed_video","trial_type","trial_index","time_elapsed","internal_node_id","subject_id","study_id","session_id","view_history","rt","task","stimulus","response","correct","mouse_click","stim_duration","block_duration","timing_post_trial","current_position","tol_num_moves_made","tol_target","tol_problem_id","tol_rt","key_press","possible_responses","tol_correct","preplanning","tol_rt_per_trial","tol_min_moves","item","answer","spm_correct","spm_rt","fiar_detect_rt","fiar_detect_correct","total_correct_fiar_detect","post_trial_gap","choices"
"true","false","[]","[]","[]","preload","0","4846","0.0-0.0","5c4d1a6c9ce35100019dbc88","D2","batch4","","","","","","","","","","","","","","","","","","","","","","","","","","","","","",""
"true","","","","","fullscreen","1","7861","0.0-1.0-0.0","5c4d1a6c9ce35100019dbc88","D2","batch4","","","","","","","","","","","","","","","","","","","","","","","","","","","","","",""
"true","","","","","fullscreen","2","10644","0.0-2.0-0.0","5c4d1a6c9ce35100019dbc88","D2","batch4","","","","","","","","","","","","","","","","","","","","","","","","","","","","","",""
"","","","","","instructions","3","33450","0.0-2.0-1.0-0.0-0.0","5c4d1a6c9ce35100019dbc88","D2","batch4","[{""page_index"":0,""viewing_time"":5032.5},{""page_index"":1,""viewing_time"":1996.6000000000931},{""page_index"":2,""viewing_time"":1212.8000000000466},{""page_index"":3,""viewing_time"":4688.09999999986},{""page_index"":4,""viewing_time"":1973},{""page_index"":5,""viewing_time"":6904},{""page_index"":6,""viewing_time"":995.8000000000466}]","22803.700000000186","tol-instructions","","","","","","","","","","","","","","","","","","","","","","","","","","",""
"","","","","","html-button-response","4","34273","0.0-2.0-1.0-1.0-0.0","5c4d1a6c9ce35100019dbc88","D2","batch4","","819.8000000000466","tol_enter_quiz","<p class=block-text> Let's answer a few questions <br>","0","","","","","","","","","","","","","","","","","","","","","","","","",""
"","","","","","html-button-response","5","37872","0.0-2.0-1.0-1.0-1.0","5c4d1a6c9ce35100019dbc88","D2","batch4","","3596","tol_quiz","<p class = block-text>True or False: You can only move the ball on top of a peg. <br></p>","0","true","","","","","","","","","","","","","","","","","","","","","","","",""
"","","","","","html-button-response","6","39748","0.0-2.0-1.0-1.0-2.0","5c4d1a6c9ce35100019dbc88","D2","batch4","","1869.5","tol_quiz_feedback","<p class = block-text>Correct! You can only move the ball on top of a peg.</p>","0","","","","","","","","","","","","","","","","","","","","","","","","",""
"","","","","","html-button-response","7","41768","0.0-2.0-1.0-1.0-3.0","5c4d1a6c9ce35100019dbc88","D2","batch4","","2016.6999999999534","tol_quiz","<p class = block-text>True or False: You should try to match your board with the target board with fewest moves possible. <br></p>","0","true","","","","","","","","","","","","","","","","","","","","","","","",""
"","","","","","html-button-response","8","42210","0.0-2.0-1.0-1.0-4.0","5c4d1a6c9ce35100019dbc88","D2","batch4","","439.19999999995343","tol_quiz_feedback","<p class = block-text>Correct! </p>","0","","","","","","","","","","","","","","","","","","","","","","","","",""
"","","","","","html-button-response","9","43595","0.0-2.0-2.0","5c4d1a6c9ce35100019dbc88","D2","batch4","","1381.8000000000466","","<p class=block-text> Now that you've understood the game, let's practice a few easier examples before we start!<br> <br>","0","","","","","","","","","","","","","","","","","","","","","","","","",""
"","","","","","single-stim-button","10","45572","0.0-2.0-3.0-0.0","5c4d1a6c9ce35100019dbc88","D2","batch4","","1972","tol_practice","","","","tol_peg_2","1972","1972","0","[[1,2,0],[0,0],[0]]","1","[[1,2,0],[0,0],[3]]","practice","1972","","","","","","","","","","","","","","",""
"","","","","","single-stim-button","11","46356","0.0-2.0-3.0-1.0","5c4d1a6c9ce35100019dbc88","D2","batch4","","780","tol_practice","","","","tol_peg_3","780","780","0","[[1,2,0],[0,0],[3]]","1","[[1,2,0],[0,0],[3]]","practice","780","","","","","","","","","","","","","","",""
"","","","","","poldrack-single-stim","12","47366","0.0-2.0-4.0","5c4d1a6c9ce35100019dbc88","D2","batch4","","-1","tol_feedback","","","true","","1000","1000","500","","","","","","-1","none","true","","0","","","","","","","","","",""
"","","","","","single-stim-button","13","50031","0.0-2.0-5.0-0.0","5c4d1a6c9ce35100019dbc88","D2","batch4","","2663","tol_practice","","","","tol_peg_1","2663","2663","0","[[1,0,0],[3,0],[0]]","2","[[0,0,0],[3,1],[2]]","practice","2663","","","","","","","","","","","","","","",""
"","","","","","single-stim-button","14","50731","0.0-2.0-5.0-1.0","5c4d1a6c9ce35100019dbc88","D2","batch4","","699","tol_practice","","","","tol_peg_3","699","699","0","[[1,0,0],[3,0],[2]]","2","[[0,0,0],[3,1],[2]]","practice","699","","","","","","","","","","","","","","",""
"","","","","","single-stim-button","15","51407","0.0-2.0-5.1-0.1","5c4d1a6c9ce35100019dbc88","D2","batch4","","674","tol_practice","","","","tol_peg_1","674","674","0","[[0,0,0],[3,0],[2]]","3","[[0,0,0],[3,1],[2]]","practice","674","","","","","","","","","","","","","","",""
"","","","","","single-stim-button","16","52146","0.0-2.0-5.1-1.1","5c4d1a6c9ce35100019dbc88","D2","batch4","","737","tol_practice","","","","tol_peg_2","737","737","0","[[0,0,0],[3,1],[2]]","3","[[0,0,0],[3,1],[2]]","practice","737","","","","","","","","","","","","","","",""
"","","","","","poldrack-single-stim","17","53149","0.0-2.0-6.0","5c4d1a6c9ce35100019dbc88","D2","batch4","","-1","tol_feedback","","","true","","1000","1000","500","","","","","","-1","none","true","","0","","","","","","","","","",""
"","","","","","single-stim-button","18","55358","0.0-2.0-7.0-0.0","5c4d1a6c9ce35100019dbc88","D2","batch4","","2207","tol_practice","","","","tol_peg_2","2207","2207","0","[[1,2,0],[0,0],[0]]","4","[[1,0,0],[2,0],[3]]","practice","2207","","","","","","","","","","","","","","",""
"","","","","","single-stim-button","19","55964","0.0-2.0-7.0-1.0","5c4d1a6c9ce35100019dbc88","D2","batch4","","603","tol_practice","","","","tol_peg_3","603","603","0","[[1,2,0],[0,0],[3]]","4","[[1,0,0],[2,0],[3]]","practice","603","","","","","","","","","","","","","","",""
"","","","","","single-stim-button","20","56720","0.0-2.0-7.1-0.1","5c4d1a6c9ce35100019dbc88","D2","batch4","","754","tol_practice","","","","tol_peg_1","754","754","0","[[1,0,0],[0,0],[3]]","5","[[1,0,0],[2,0],[3]]","practice","754","","","","","","","","","","","","","","",""
"","","","","","single-stim-button","21","57107","0.0-2.0-7.1-1.1","5c4d1a6c9ce35100019dbc88","D2","batch4","","385","tol_practice","","","","tol_peg_2","385","385","0","[[1,0,0],[2,0],[3]]","5","[[1,0,0],[2,0],[3]]","practice","385","","","","","","","","","","","","","","",""
"","","","","","poldrack-single-stim","22","58117","0.0-2.0-8.0","5c4d1a6c9ce35100019dbc88","D2","batch4","","-1","tol_feedback","","","true","","1000","1000","500","","","","","","-1","none","true","","0","","","","","","","","","",""
"","","","","","html-button-response","23","59765","0.0-2.0-9.0","5c4d1a6c9ce35100019dbc88","D2","batch4","","1643.2999999998137","tol_instruction","<div class = centerbox><p class = center-block-text>Great job! You are done with practice trials<br>You are about to start official trials.<br> <br> Problem <strong>1</strong> out of 25 problems</p></div>","0","","","","","","","","","","","","","","","","","","","","","","","","",""
"","","","","","single-stim-button","24","65968","0.0-2.0-10.0-0.0","5c4d1a6c9ce35100019dbc88","D2","batch4","","5193","tol_tohand","","","","tol_peg_2","5193","5193","0","[[1,2,0],[0,0],[0]]","1","[[1,3,0],[2,0],[0]]","0","0","","","","","","3","","","","","","","","",""
"","","","","","single-stim-button","25","66481","0.0-2.0-10.0-1.0","5c4d1a6c9ce35100019dbc88","D2","batch4","","510","tol_toboard","","","","tol_peg_3","510","510","0","[[1,2,0],[0,0],[3]]","1","[[1,3,0],[2,0],[0]]","0","0","","","","","","3","","","","","","","","",""
"","","","","","single-stim-button","26","67515","0.0-2.0-10.1-0.1","5c4d1a6c9ce35100019dbc88","D2","batch4","","1032","tol_tohand","","","","tol_peg_1","1032","1032","0","[[1,0,0],[0,0],[3]]","2","[[1,3,0],[2,0],[0]]","0","0","","","","","","3","","","","","","","","",""
"","","","","","single-stim-button","27","68231","0.0-2.0-10.1-1.1","5c4d1a6c9ce35100019dbc88","D2","batch4","","716","tol_toboard","","","","tol_peg_2","716","716","0","[[1,0,0],[2,0],[3]]","2","[[1,3,0],[2,0],[0]]","0","0","","","","","","3","","","","","","","","",""
"","","","","","single-stim-button","28","68962","0.0-2.0-10.2-0.2","5c4d1a6c9ce35100019dbc88","D2","batch4","","729","tol_tohand","","","","tol_peg_3","729","729","0","[[1,0,0],[2,0],[0]]","3","[[1,3,0],[2,0],[0]]","0","0","","","","","","3","","","","","","","","",""
"","","","","","single-stim-button","29","69521","0.0-2.0-10.2-1.2","5c4d1a6c9ce35100019dbc88","D2","batch4","","557","tol_toboard","","","","tol_peg_1","557","557","0","[[1,3,0],[2,0],[0]]","3","[[1,3,0],[2,0],[0]]","0","0","","","","","","3","","","","","","","","",""
"","","","","","poldrack-single-stim","30","70525","0.0-2.0-11.0","5c4d1a6c9ce35100019dbc88","D2","batch4","","-1","tol_feedback","","","true","","1000","1000","500","","","","","","-1","none","true","5193","6954","","","","","","","","","",""
"","","","","","html-button-response","31","71465","0.0-2.0-12.0","5c4d1a6c9ce35100019dbc88","D2","batch4","","938","tol_trial_num","<div class = centerbox><p class = center-block-text>problem <strong>2</strong> out of 25 problems</p></div>","0","","","","","","","","","","","","","","","","","","","","","","","","",""
"","","","","","single-stim-button","32","79369","0.0-2.0-13.0-0.0","5c4d1a6c9ce35100019dbc88","D2","batch4","","7902","tol_tohand","","","","tol_peg_1","7902","7902","0","[[1,0,0],[3,0],[0]]","1","[[2,1,3],[0,0],[0]]","1","0","","","","","","5","","","","","","","","",""
"","","","","","single-stim-button","33","80629","0.0-2.0-13.0-1.0","5c4d1a6c9ce35100019dbc88","D2","batch4","","1259","tol_toboard","","","","tol_peg_2","1259","1259","0","[[1,0,0],[3,2],[0]]","1","[[2,1,3],[0,0],[0]]","1","0","","","","","","5","","","","","","","","",""
"","","","","","single-stim-button","34","83551","0.0-2.0-13.1-0.1","5c4d1a6c9ce35100019dbc88","D2","batch4","","2920","tol_tohand","","","","tol_peg_1","2920","2920","0","[[0,0,0],[3,2],[0]]","2","[[2,1,3],[0,0],[0]]","1","0","","","","","","5","","","","","","","","",""
"","","","","","single-stim-button","35","84267","0.0-2.0-13.1-1.1","5c4d1a6c9ce35100019dbc88","D2","batch4","","715","tol_toboard","","","","tol_peg_3","715","715","0","[[0,0,0],[3,2],[1]]","2","[[2,1,3],[0,0],[0]]","1","0","","","","","","5","","","","","","","","",""
"","","","","","single-stim-button","36","84841","0.0-2.0-13.2-0.2","5c4d1a6c9ce35100019dbc88","D2","batch4","","573","tol_tohand","","","","tol_peg_2","573","573","0","[[0,0,0],[3,0],[1]]","3","[[2,1,3],[0,0],[0]]","1","0","","","","","","5","","","","","","","","",""
"","","","","","single-stim-button","37","85370","0.0-2.0-13.2-1.2","5c4d1a6c9ce35100019dbc88","D2","batch4","","527","tol_toboard","","","","tol_peg_1","527","527","0","[[2,0,0],[3,0],[1]]","3","[[2,1,3],[0,0],[0]]","1","0","","","","","","5","","","","","","","","",""
"","","","","","single-stim-button","38","85814","0.0-2.0-13.3-0.3","5c4d1a6c9ce35100019dbc88","D2","batch4","","442","tol_tohand","","","","tol_peg_3","442","442","0","[[2,0,0],[3,0],[0]]","4","[[2,1,3],[0,0],[0]]","1","0","","","","","","5","","","","","","","","",""
"","","","","","single-stim-button","39","86420","0.0-2.0-13.3-1.3","5c4d1a6c9ce35100019dbc88","D2","batch4","","604","tol_toboard","","","","tol_peg_1","604","604","0","[[2,1,0],[3,0],[0]]","4","[[2,1,3],[0,0],[0]]","1","0","","","","","","5","","","","","","","","",""
"","","","","","single-stim-button","40","86824","0.0-2.0-13.4-0.4","5c4d1a6c9ce35100019dbc88","D2","batch4","","403","tol_tohand","","","","tol_peg_2","403","403","0","[[2,1,0],[0,0],[0]]","5","[[2,1,3],[0,0],[0]]","1","0","","","","","","5","","","","","","","","",""
"","","","","","single-stim-button","41","87197","0.0-2.0-13.4-1.4","5c4d1a6c9ce35100019dbc88","D2","batch4","","371","tol_toboard","","","","tol_peg_1","371","371","0","[[2,1,3],[0,0],[0]]","5","[[2,1,3],[0,0],[0]]","1","0","","","","","","5","","","","","","","","",""
"","","","","","poldrack-single-stim","42","88199","0.0-2.0-14.0","5c4d1a6c9ce35100019dbc88","D2","batch4","","-1","tol_feedback","","","true","","1000","1000","500","","","","","","-1","none","true","7902","12240","","","","","","","","","",""
"","","","","","html-button-response","43","89382","0.0-2.0-15.0","5c4d1a6c9ce35100019dbc88","D2","batch4","","1181","tol_trial_num","<div class = centerbox><p class = center-block-text>problem <strong>3</strong> out of 25 problems</p></div>","0","","","","","","","","","","","","","","","","","","","","","","","","",""
"","","","","","single-stim-button","44","91767","0.0-2.0-16.0-0.0","5c4d1a6c9ce35100019dbc88","D2","batch4","","2383","tol_tohand","","","","tol_peg_1","2383","2383","0","[[2,0,0],[0,0],[1]]","1","[[1,2,0],[3,0],[0]]","2","0","","","","","","4","","","","","","","","",""
"","","","","","single-stim-button","45","92880","0.0-2.0-16.0-1.0","5c4d1a6c9ce35100019dbc88","D2","batch4","","1111","tol_toboard","","","","tol_peg_2","1111","1111","0","[[2,0,0],[3,0],[1]]","1","[[1,2,0],[3,0],[0]]","2","0","","","","","","4","","","","","","","","",""
"","","","","","single-stim-button","46","94521","0.0-2.0-16.1-0.1","5c4d1a6c9ce35100019dbc88","D2","batch4","","1639","tol_tohand","","","","tol_peg_1","1639","1639","0","[[0,0,0],[3,0],[1]]","2","[[1,2,0],[3,0],[0]]","2","0","","","","","","4","","","","","","","","",""
"","","","","","single-stim-button","47","94971","0.0-2.0-16.1-1.1","5c4d1a6c9ce35100019dbc88","D2","batch4","","449","tol_toboard","","","","tol_peg_2","449","449","0","[[0,0,0],[3,2],[1]]","2","[[1,2,0],[3,0],[0]]","2","0","","","","","","4","","","","","","","","",""
"","","","","","single-stim-button","48","95305","0.0-2.0-16.2-0.2","5c4d1a6c9ce35100019dbc88","D2","batch4","","332","tol_tohand","","","","tol_peg_3","332","332","0","[[0,0,0],[3,2],[0]]","3","[[1,2,0],[3,0],[0]]","2","0","","","","","","4","","","","","","","","",""
"","","","","","single-stim-button","49","95997","0.0-2.0-16.2-1.2","5c4d1a6c9ce35100019dbc88","D2","batch4","","690","tol_toboard","","","","tol_peg_1","690","690","0","[[1,0,0],[3,2],[0]]","3","[[1,2,0],[3,0],[0]]","2","0","","","","","","4","","","","","","","","",""
"","","","","","single-stim-button","50","96377","0.0-2.0-16.3-0.3","5c4d1a6c9ce35100019dbc88","D2","batch4","","378","tol_tohand","","","","tol_peg_2","378","378","0","[[1,0,0],[3,0],[0]]","4","[[1,2,0],[3,0],[0]]","2","0","","","","","","4","","","","","","","","",""
"","","","","","single-stim-button","51","96736","0.0-2.0-16.3-1.3","5c4d1a6c9ce35100019dbc88","D2","batch4","","357","tol_toboard","","","","tol_peg_1","357","357","0","[[1,2,0],[3,0],[0]]","4","[[1,2,0],[3,0],[0]]","2","0","","","","","","4","","","","","","","","",""
"","","","","","poldrack-single-stim","52","97741","0.0-2.0-17.0","5c4d1a6c9ce35100019dbc88","D2","batch4","","-1","tol_feedback","","","true","","1000","1000","500","","","","","","-1","none","true","2383","4732","","","","","","","","","",""
"","","","","","html-button-response","53","98608","0.0-2.0-18.0","5c4d1a6c9ce35100019dbc88","D2","batch4","","865.3999999999069","tol_trial_num","<div class = centerbox><p class = center-block-text>problem <strong>4</strong> out of 25 problems</p></div>","0","","","","","","","","","","","","","","","","","","","","","","","","",""
"","","","","","single-stim-button","54","103314","0.0-2.0-19.0-0.0","5c4d1a6c9ce35100019dbc88","D2","batch4","","4703","tol_tohand","","","","tol_peg_2","4703","4703","0","[[3,0,0],[2,0],[0]]","1","[[3,0,0],[1,0],[2]]","3","0","","","","","","3","","","","","","","","",""
"","","","","","single-stim-button","55","103873","0.0-2.0-19.0-1.0","5c4d1a6c9ce35100019dbc88","D2","batch4","","557","tol_toboard","","","","tol_peg_1","557","557","0","[[3,1,0],[2,0],[0]]","1","[[3,0,0],[1,0],[2]]","3","0","","","","","","3","","","","","","","","",""
"","","","","","single-stim-button","56","104378","0.0-2.0-19.1-0.1","5c4d1a6c9ce35100019dbc88","D2","batch4","","503","tol_tohand","","","","tol_peg_2","503","503","0","[[3,1,0],[0,0],[0]]","2","[[3,0,0],[1,0],[2]]","3","0","","","","","","3","","","","","","","","",""
"","","","","","single-stim-button","57","104822","0.0-2.0-19.1-1.1","5c4d1a6c9ce35100019dbc88","D2","batch4","","434","tol_toboard","","","","tol_peg_3","434","434","0","[[3,1,0],[0,0],[2]]","2","[[3,0,0],[1,0],[2]]","3","0","","","","","","3","","","","","","","","",""
"","","","","","single-stim-button","58","105312","0.0-2.0-19.2-0.2","5c4d1a6c9ce35100019dbc88","D2","batch4","","489","tol_tohand","","","","tol_peg_1","489","489","0","[[3,0,0],[0,0],[2]]","3","[[3,0,0],[1,0],[2]]","3","0","","","","","","3","","","","","","","","",""
"","","","","","single-stim-button","59","105738","0.0-2.0-19.2-1.2","5c4d1a6c9ce35100019dbc88","D2","batch4","","424","tol_toboard","","","","tol_peg_2","424","424","0","[[3,0,0],[1,0],[2]]","3","[[3,0,0],[1,0],[2]]","3","0","","","","","","3","","","","","","","","",""
"","","","","","poldrack-single-stim","60","106741","0.0-2.0-20.0","5c4d1a6c9ce35100019dbc88","D2","batch4","","-1","tol_feedback","","","true","","1000","1000","500","","","","","","-1","none","true","4703","5695","","","","","","","","","",""
"","","","","","html-button-response","61","107831","0.0-2.0-21.0","5c4d1a6c9ce35100019dbc88","D2","batch4","","1087.8000000000466","tol_trial_num","<div class = centerbox><p class = center-block-text>problem <strong>5</strong> out of 25 problems</p></div>","0","","","","","","","","","","","","","","","","","","","","","","","","",""
"","","","","","single-stim-button","62","111337","0.0-2.0-22.0-0.0","5c4d1a6c9ce35100019dbc88","D2","batch4","","3504","tol_tohand","","","","tol_peg_2","3504","3504","0","[[1,0,0],[0,0],[3]]","1","[[0,0,0],[1,2],[3]]","4","0","","","","","","7","","","","","","","","",""
"","","","","","single-stim-button","63","116608","0.0-2.0-22.0-1.0","5c4d1a6c9ce35100019dbc88","D2","batch4","","5269","tol_toboard","","","","tol_peg_2","5269","5269","0","[[1,0,0],[2,0],[3]]","1","[[0,0,0],[1,2],[3]]","4","0","","","","","","7","","","","","","","","",""
"","","","","","single-stim-button","64","124165","0.0-2.0-22.1-0.1","5c4d1a6c9ce35100019dbc88","D2","batch4","","7555","tol_tohand","","","","tol_peg_3","7555","7555","0","[[1,0,0],[2,0],[0]]","2","[[0,0,0],[1,2],[3]]","4","0","","","","","","7","","","","","","","","",""
"","","","","","single-stim-button","65","133846","0.0-2.0-22.1-1.1","5c4d1a6c9ce35100019dbc88","D2","batch4","","9679","tol_toboard","","","","tol_peg_3","9679","9679","0","[[1,0,0],[2,0],[3]]","2","[[0,0,0],[1,2],[3]]","4","0","","","","","","7","","","","","","","","",""
"","","","","","single-stim-button","66","137774","0.0-2.0-22.2-0.2","5c4d1a6c9ce35100019dbc88","D2","batch4","","3926","tol_tohand","","","","tol_peg_1","3926","3926","0","[[0,0,0],[2,0],[3]]","3","[[0,0,0],[1,2],[3]]","4","0","","","","","","7","","","","","","","","",""
"","","","","","single-stim-button","67","138224","0.0-2.0-22.2-1.2","5c4d1a6c9ce35100019dbc88","D2","batch4","","449","tol_toboard","","","","tol_peg_2","449","449","0","[[0,0,0],[2,1],[3]]","3","[[0,0,0],[1,2],[3]]","4","0","","","","","","7","","","","","","","","",""
"","","","","","single-stim-button","68","138598","0.0-2.0-22.3-0.3","5c4d1a6c9ce35100019dbc88","D2","batch4","","373","tol_tohand","","","","tol_peg_3","373","373","0","[[0,0,0],[2,1],[0]]","4","[[0,0,0],[1,2],[3]]","4","0","","","","","","7","","","","","","","","",""
"","","","","","single-stim-button","69","139156","0.0-2.0-22.3-1.3","5c4d1a6c9ce35100019dbc88","D2","batch4","","557","tol_toboard","","","","tol_peg_1","557","557","0","[[3,0,0],[2,1],[0]]","4","[[0,0,0],[1,2],[3]]","4","0","","","","","","7","","","","","","","","",""
"","","","","","single-stim-button","70","139554","0.0-2.0-22.4-0.4","5c4d1a6c9ce35100019dbc88","D2","batch4","","397","tol_tohand","","","","tol_peg_2","397","397","0","[[3,0,0],[2,0],[0]]","5","[[0,0,0],[1,2],[3]]","4","0","","","","","","7","","","","","","","","",""
"","","","","","single-stim-button","71","140169","0.0-2.0-22.4-1.4","5c4d1a6c9ce35100019dbc88","D2","batch4","","613","tol_toboard","","","","tol_peg_3","613","613","0","[[3,0,0],[2,0],[1]]","5","[[0,0,0],[1,2],[3]]","4","0","","","","","","7","","","","","","","","",""
"","","","","","single-stim-button","72","141404","0.0-2.0-22.5-0.5","5c4d1a6c9ce35100019dbc88","D2","batch4","","1233","tol_tohand","","","","tol_peg_2","1233","1233","0","[[3,0,0],[0,0],[1]]","6","[[0,0,0],[1,2],[3]]","4","0","","","","","","7","","","","","","","","",""
"","","","","","single-stim-button","73","141770","0.0-2.0-22.5-1.5","5c4d1a6c9ce35100019dbc88","D2","batch4","","365","tol_toboard","","","","tol_peg_1","365","365","0","[[3,2,0],[0,0],[1]]","6","[[0,0,0],[1,2],[3]]","4","0","","","","","","7","","","","","","","","",""
"","","","","","single-stim-button","74","142228","0.0-2.0-22.6-0.6","5c4d1a6c9ce35100019dbc88","D2","batch4","","456","tol_tohand","","","","tol_peg_3","456","456","0","[[3,2,0],[0,0],[0]]","7","[[0,0,0],[1,2],[3]]","4","0","","","","","","7","","","","","","","","",""
"","","","","","single-stim-button","75","142563","0.0-2.0-22.6-1.6","5c4d1a6c9ce35100019dbc88","D2","batch4","","334","tol_toboard","","","","tol_peg_2","334","334","0","[[3,2,0],[1,0],[0]]","7","[[0,0,0],[1,2],[3]]","4","0","","","","","","7","","","","","","","","",""
"","","","","","single-stim-button","76","142958","0.0-2.0-22.7-0.7","5c4d1a6c9ce35100019dbc88","D2","batch4","","394","tol_tohand","","","","tol_peg_1","394","394","0","[[3,0,0],[1,0],[0]]","8","[[0,0,0],[1,2],[3]]","4","0","","","","","","7","","","","","","","","",""
"","","","","","single-stim-button","77","143395","0.0-2.0-22.7-1.7","5c4d1a6c9ce35100019dbc88","D2","batch4","","436","tol_toboard","","","","tol_peg_2","436","436","0","[[3,0,0],[1,2],[0]]","8","[[0,0,0],[1,2],[3]]","4","0","","","","","","7","","","","","","","","",""
"","","","","","single-stim-button","78","143775","0.0-2.0-22.8-0.8","5c4d1a6c9ce35100019dbc88","D2","batch4","","378","tol_tohand","","","","tol_peg_1","378","378","0","[[0,0,0],[1,2],[0]]","9","[[0,0,0],[1,2],[3]]","4","0","","","","","","7","","","","","","","","",""
"","","","","","single-stim-button","79","144141","0.0-2.0-22.8-1.8","5c4d1a6c9ce35100019dbc88","D2","batch4","","364","tol_toboard","","","","tol_peg_3","364","364","0","[[0,0,0],[1,2],[3]]","9","[[0,0,0],[1,2],[3]]","4","0","","","","","","7","","","","","","","","",""
"","","","","","poldrack-single-stim","80","145149","0.0-2.0-23.0","5c4d1a6c9ce35100019dbc88","D2","batch4","","-1","tol_feedback","","","true","","1000","1000","500","","","","","","-1","none","true","3504","18216","","","","","","","","","",""
"","","","","","html-button-response","81","145844","0.0-2.0-24.0","5c4d1a6c9ce35100019dbc88","D2","batch4","","693.1999999999534","tol_trial_num","<div class = centerbox><p class = center-block-text>problem <strong>6</strong> out of 25 problems</p></div>","0","","","","","","","","","","","","","","","","","","","","","","","","",""
"","","","","","single-stim-button","82","155891","0.0-2.0-25.0-0.0","5c4d1a6c9ce35100019dbc88","D2","batch4","","10044","tol_tohand","","","","tol_peg_3","10044","10044","0","[[0,0,0],[1,2],[0]]","1","[[1,0,0],[2,3],[0]]","5","0","","","","","","6","","","","","","","","",""
"","","","","","single-stim-button","83","157135","0.0-2.0-25.0-1.0","5c4d1a6c9ce35100019dbc88","D2","batch4","","1243","tol_toboard","","","","tol_peg_1","1243","1243","0","[[3,0,0],[1,2],[0]]","1","[[1,0,0],[2,3],[0]]","5","0","","","","","","6","","","","","","","","",""
"","","","","","single-stim-button","84","157524","0.0-2.0-25.1-0.1","5c4d1a6c9ce35100019dbc88","D2","batch4","","388","tol_tohand","","","","tol_peg_2","388","388","0","[[3,0,0],[1,0],[0]]","2","[[1,0,0],[2,3],[0]]","5","0","","","","","","6","","","","","","","","",""
"","","","","","single-stim-button","85","158130","0.0-2.0-25.1-1.1","5c4d1a6c9ce35100019dbc88","D2","batch4","","604","tol_toboard","","","","tol_peg_3","604","604","0","[[3,0,0],[1,0],[2]]","2","[[1,0,0],[2,3],[0]]","5","0","","","","","","6","","","","","","","","",""
"","","","","","single-stim-button","86","158854","0.0-2.0-25.2-0.2","5c4d1a6c9ce35100019dbc88","D2","batch4","","723","tol_tohand","","","","tol_peg_2","723","723","0","[[3,0,0],[0,0],[2]]","3","[[1,0,0],[2,3],[0]]","5","0","","","","","","6","","","","","","","","",""
"","","","","","single-stim-button","87","161997","0.0-2.0-25.2-1.2","5c4d1a6c9ce35100019dbc88","D2","batch4","","3141","tol_toboard","","","","tol_peg_1","3141","3141","0","[[3,1,0],[0,0],[2]]","3","[[1,0,0],[2,3],[0]]","5","0","","","","","","6","","","","","","","","",""
"","","","","","single-stim-button","88","162665","0.0-2.0-25.3-0.3","5c4d1a6c9ce35100019dbc88","D2","batch4","","666","tol_tohand","","","","tol_peg_3","666","666","0","[[3,1,0],[0,0],[0]]","4","[[1,0,0],[2,3],[0]]","5","0","","","","","","6","","","","","","","","",""
"","","","","","single-stim-button","89","163201","0.0-2.0-25.3-1.3","5c4d1a6c9ce35100019dbc88","D2","batch4","","535","tol_toboard","","","","tol_peg_2","535","535","0","[[3,1,0],[2,0],[0]]","4","[[1,0,0],[2,3],[0]]","5","0","","","","","","6","","","","","","","","",""
"","","","","","single-stim-button","90","163559","0.0-2.0-25.4-0.4","5c4d1a6c9ce35100019dbc88","D2","batch4","","356","tol_tohand","","","","tol_peg_1","356","356","0","[[3,0,0],[2,0],[0]]","5","[[1,0,0],[2,3],[0]]","5","0","","","","","","6","","","","","","","","",""
"","","","","","single-stim-button","91","164041","0.0-2.0-25.4-1.4","5c4d1a6c9ce35100019dbc88","D2","batch4","","480","tol_toboard","","","","tol_peg_2","480","480","0","[[3,0,0],[2,1],[0]]","5","[[1,0,0],[2,3],[0]]","5","0","","","","","","6","","","","","","","","",""
"","","","","","single-stim-button","92","164430","0.0-2.0-25.5-0.5","5c4d1a6c9ce35100019dbc88","D2","batch4","","387","tol_tohand","","","","tol_peg_1","387","387","0","[[0,0,0],[2,1],[0]]","6","[[1,0,0],[2,3],[0]]","5","0","","","","","","6","","","","","","","","",""
"","","","","","single-stim-button","93","165121","0.0-2.0-25.5-1.5","5c4d1a6c9ce35100019dbc88","D2","batch4","","691","tol_toboard","","","","tol_peg_3","691","691","0","[[0,0,0],[2,1],[3]]","6","[[1,0,0],[2,3],[0]]","5","0","","","","","","6","","","","","","","","",""
"","","","","","single-stim-button","94","165728","0.0-2.0-25.6-0.6","5c4d1a6c9ce35100019dbc88","D2","batch4","","606","tol_tohand","","","","tol_peg_2","606","606","0","[[0,0,0],[2,0],[3]]","7","[[1,0,0],[2,3],[0]]","5","0","","","","","","6","","","","","","","","",""
"","","","","","single-stim-button","95","166364","0.0-2.0-25.6-1.6","5c4d1a6c9ce35100019dbc88","D2","batch4","","634","tol_toboard","","","","tol_peg_1","634","634","0","[[1,0,0],[2,0],[3]]","7","[[1,0,0],[2,3],[0]]","5","0","","","","","","6","","","","","","","","",""
"","","","","","single-stim-button","96","166895","0.0-2.0-25.7-0.7","5c4d1a6c9ce35100019dbc88","D2","batch4","","529","tol_tohand","","","","tol_peg_3","529","529","0","[[1,0,0],[2,0],[0]]","8","[[1,0,0],[2,3],[0]]","5","0","","","","","","6","","","","","","","","",""
"","","","","","single-stim-button","97","167299","0.0-2.0-25.7-1.7","5c4d1a6c9ce35100019dbc88","D2","batch4","","403","tol_toboard","","","","tol_peg_2","403","403","0","[[1,0,0],[2,3],[0]]","8","[[1,0,0],[2,3],[0]]","5","0","","","","","","6","","","","","","","","",""
"","","","","","poldrack-single-stim","98","168309","0.0-2.0-26.0","5c4d1a6c9ce35100019dbc88","D2","batch4","","-1","tol_feedback","","","true","","1000","1000","500","","","","","","-1","none","true","10044","13699","","","","","","","","","",""
"","","","","","html-button-response","99","169017","0.0-2.0-27.0","5c4d1a6c9ce35100019dbc88","D2","batch4","","706.5","tol_trial_num","<div class = centerbox><p class = center-block-text>problem <strong>7</strong> out of 25 problems</p></div>","0","","","","","","","","","","","","","","","","","","","","","","","","",""
"","","","","","single-stim-button","100","174266","0.0-2.0-28.0-0.0","5c4d1a6c9ce35100019dbc88","D2","batch4","","5246","tol_tohand","","","","tol_peg_3","5246","5246","0","[[2,1,0],[0,0],[0]]","1","[[1,2,0],[3,0],[0]]","6","0","","","","","","5","","","","","","","","",""
"","","","","","single-stim-button","101","174827","0.0-2.0-28.0-1.0","5c4d1a6c9ce35100019dbc88","D2","batch4","","559","tol_toboard","","","","tol_peg_2","559","559","0","[[2,1,0],[3,0],[0]]","1","[[1,2,0],[3,0],[0]]","6","0","","","","","","5","","","","","","","","",""
"","","","","","single-stim-button","102","175363","0.0-2.0-28.1-0.1","5c4d1a6c9ce35100019dbc88","D2","batch4","","534","tol_tohand","","","","tol_peg_1","534","534","0","[[2,0,0],[3,0],[0]]","2","[[1,2,0],[3,0],[0]]","6","0","","","","","","5","","","","","","","","",""
"","","","","","single-stim-button","103","176201","0.0-2.0-28.1-1.1","5c4d1a6c9ce35100019dbc88","D2","batch4","","836","tol_toboard","","","","tol_peg_2","836","836","0","[[2,0,0],[3,1],[0]]","2","[[1,2,0],[3,0],[0]]","6","0","","","","","","5","","","","","","","","",""
"","","","","","single-stim-button","104","176613","0.0-2.0-28.2-0.2","5c4d1a6c9ce35100019dbc88","D2","batch4","","411","tol_tohand","","","","tol_peg_1","411","411","0","[[0,0,0],[3,1],[0]]","3","[[1,2,0],[3,0],[0]]","6","0","","","","","","5","","","","","","","","",""
"","","","","","single-stim-button","105","177211","0.0-2.0-28.2-1.2","5c4d1a6c9ce35100019dbc88","D2","batch4","","597","tol_toboard","","","","tol_peg_3","597","597","0","[[0,0,0],[3,1],[2]]","3","[[1,2,0],[3,0],[0]]","6","0","","","","","","5","","","","","","","","",""
"","","","","","single-stim-button","106","177665","0.0-2.0-28.3-0.3","5c4d1a6c9ce35100019dbc88","D2","batch4","","452","tol_tohand","","","","tol_peg_2","452","452","0","[[0,0,0],[3,0],[2]]","4","[[1,2,0],[3,0],[0]]","6","0","","","","","","5","","","","","","","","",""
"","","","","","single-stim-button","107","177960","0.0-2.0-28.3-1.3","5c4d1a6c9ce35100019dbc88","D2","batch4","","294","tol_toboard","","","","tol_peg_1","294","294","0","[[1,0,0],[3,0],[2]]","4","[[1,2,0],[3,0],[0]]","6","0","","","","","","5","","","","","","","","",""
"","","","","","single-stim-button","108","178394","0.0-2.0-28.4-0.4","5c4d1a6c9ce35100019dbc88","D2","batch4","","433","tol_tohand","","","","tol_peg_3","433","433","0","[[1,0,0],[3,0],[0]]","5","[[1,2,0],[3,0],[0]]","6","0","","","","","","5","","","","","","","","",""
"","","","","","single-stim-button","109","178844","0.0-2.0-28.4-1.4","5c4d1a6c9ce35100019dbc88","D2","batch4","","449","tol_toboard","","","","tol_peg_1","449","449","0","[[1,2,0],[3,0],[0]]","5","[[1,2,0],[3,0],[0]]","6","0","","","","","","5","","","","","","","","",""
"","","","","","poldrack-single-stim","110","179853","0.0-2.0-29.0","5c4d1a6c9ce35100019dbc88","D2","batch4","","-1","tol_feedback","","","true","","1000","1000","500","","","","","","-1","none","true","5246","7076","","","","","","","","","",""
"","","","","","html-button-response","111","180409","0.0-2.0-30.0","5c4d1a6c9ce35100019dbc88","D2","batch4","","554.5","tol_trial_num","<div class = centerbox><p class = center-block-text>problem <strong>8</strong> out of 25 problems</p></div>","0","","","","","","","","","","","","","","","","","","","","","","","","",""
"","","","","","single-stim-button","112","184499","0.0-2.0-31.0-0.0","5c4d1a6c9ce35100019dbc88","D2","batch4","","4089","tol_tohand","","","","tol_peg_3","4089","4089","0","[[0,0,0],[2,3],[0]]","1","[[1,2,0],[3,0],[0]]","7","0","","","","","","4","","","","","","","","",""
"","","","","","single-stim-button","113","185634","0.0-2.0-31.0-1.0","5c4d1a6c9ce35100019dbc88","D2","batch4","","1133","tol_toboard","","","","tol_peg_1","1133","1133","0","[[1,0,0],[2,3],[0]]","1","[[1,2,0],[3,0],[0]]","7","0","","","","","","4","","","","","","","","",""
"","","","","","single-stim-button","114","186170","0.0-2.0-31.1-0.1","5c4d1a6c9ce35100019dbc88","D2","batch4","","535","tol_tohand","","","","tol_peg_2","535","535","0","[[1,0,0],[2,0],[0]]","2","[[1,2,0],[3,0],[0]]","7","0","","","","","","4","","","","","","","","",""
"","","","","","single-stim-button","115","188075","0.0-2.0-31.1-1.1","5c4d1a6c9ce35100019dbc88","D2","batch4","","1904","tol_toboard","","","","tol_peg_3","1904","1904","0","[[1,0,0],[2,0],[3]]","2","[[1,2,0],[3,0],[0]]","7","0","","","","","","4","","","","","","","","",""
"","","","","","single-stim-button","116","188468","0.0-2.0-31.2-0.2","5c4d1a6c9ce35100019dbc88","D2","batch4","","391","tol_tohand","","","","tol_peg_2","391","391","0","[[1,0,0],[0,0],[3]]","3","[[1,2,0],[3,0],[0]]","7","0","","","","","","4","","","","","","","","",""
"","","","","","single-stim-button","117","188822","0.0-2.0-31.2-1.2","5c4d1a6c9ce35100019dbc88","D2","batch4","","353","tol_toboard","","","","tol_peg_1","353","353","0","[[1,2,0],[0,0],[3]]","3","[[1,2,0],[3,0],[0]]","7","0","","","","","","4","","","","","","","","",""
"","","","","","single-stim-button","118","189352","0.0-2.0-31.3-0.3","5c4d1a6c9ce35100019dbc88","D2","batch4","","528","tol_tohand","","","","tol_peg_3","528","528","0","[[1,2,0],[0,0],[0]]","4","[[1,2,0],[3,0],[0]]","7","0","","","","","","4","","","","","","","","",""
"","","","","","single-stim-button","119","189732","0.0-2.0-31.3-1.3","5c4d1a6c9ce35100019dbc88","D2","batch4","","378","tol_toboard","","","","tol_peg_2","378","378","0","[[1,2,0],[3,0],[0]]","4","[[1,2,0],[3,0],[0]]","7","0","","","","","","4","","","","","","","","",""
"","","","","","poldrack-single-stim","120","190742","0.0-2.0-32.0","5c4d1a6c9ce35100019dbc88","D2","batch4","","-1","tol_feedback","","","true","","1000","1000","500","","","","","","-1","none","true","4089","5543","","","","","","","","","",""
"","","","","","html-button-response","121","191288","0.0-2.0-33.0","5c4d1a6c9ce35100019dbc88","D2","batch4","","543.6000000000931","tol_trial_num","<div class = centerbox><p class = center-block-text>problem <strong>9</strong> out of 25 problems</p></div>","0","","","","","","","","","","","","","","","","","","","","","","","","",""
"","","","","","single-stim-button","122","211788","0.0-2.0-34.0-0.0","5c4d1a6c9ce35100019dbc88","D2","batch4","","20497","tol_tohand","","","","tol_peg_1","20497","20497","0","[[3,0,0],[0,0],[1]]","1","[[2,1,0],[3,0],[0]]","8","0","","","","","","6","","","","","","","","",""
"","","","","","single-stim-button","123","213764","0.0-2.0-34.0-1.0","5c4d1a6c9ce35100019dbc88","D2","batch4","","1974","tol_toboard","","","","tol_peg_1","1974","1974","0","[[3,2,0],[0,0],[1]]","1","[[2,1,0],[3,0],[0]]","8","0","","","","","","6","","","","","","","","",""
"","","","","","single-stim-button","124","214217","0.0-2.0-34.1-0.1","5c4d1a6c9ce35100019dbc88","D2","batch4","","449","tol_tohand","","","","tol_peg_3","449","449","0","[[3,2,0],[0,0],[0]]","2","[[2,1,0],[3,0],[0]]","8","0","","","","","","6","","","","","","","","",""
"","","","","","single-stim-button","125","214627","0.0-2.0-34.1-1.1","5c4d1a6c9ce35100019dbc88","D2","batch4","","408","tol_toboard","","","","tol_peg_2","408","408","0","[[3,2,0],[1,0],[0]]","2","[[2,1,0],[3,0],[0]]","8","0","","","","","","6","","","","","","","","",""
"","","","","","single-stim-button","126","215271","0.0-2.0-34.2-0.2","5c4d1a6c9ce35100019dbc88","D2","batch4","","643","tol_tohand","","","","tol_peg_1","643","643","0","[[3,0,0],[1,0],[0]]","3","[[2,1,0],[3,0],[0]]","8","0","","","","","","6","","","","","","","","",""
"","","","","","single-stim-button","127","215707","0.0-2.0-34.2-1.2","5c4d1a6c9ce35100019dbc88","D2","batch4","","434","tol_toboard","","","","tol_peg_2","434","434","0","[[3,0,0],[1,2],[0]]","3","[[2,1,0],[3,0],[0]]","8","0","","","","","","6","","","","","","","","",""
"","","","","","single-stim-button","128","216041","0.0-2.0-34.3-0.3","5c4d1a6c9ce35100019dbc88","D2","batch4","","333","tol_tohand","","","","tol_peg_1","333","333","0","[[0,0,0],[1,2],[0]]","4","[[2,1,0],[3,0],[0]]","8","0","","","","","","6","","","","","","","","",""
"","","","","","single-stim-button","129","216679","0.0-2.0-34.3-1.3","5c4d1a6c9ce35100019dbc88","D2","batch4","","637","tol_toboard","","","","tol_peg_3","637","637","0","[[0,0,0],[1,2],[3]]","4","[[2,1,0],[3,0],[0]]","8","0","","","","","","6","","","","","","","","",""
"","","","","","single-stim-button","130","217060","0.0-2.0-34.4-0.4","5c4d1a6c9ce35100019dbc88","D2","batch4","","379","tol_tohand","","","","tol_peg_2","379","379","0","[[0,0,0],[1,0],[3]]","5","[[2,1,0],[3,0],[0]]","8","0","","","","","","6","","","","","","","","",""
"","","","","","single-stim-button","131","217442","0.0-2.0-34.4-1.4","5c4d1a6c9ce35100019dbc88","D2","batch4","","381","tol_toboard","","","","tol_peg_1","381","381","0","[[2,0,0],[1,0],[3]]","5","[[2,1,0],[3,0],[0]]","8","0","","","","","","6","","","","","","","","",""
"","","","","","single-stim-button","132","217828","0.0-2.0-34.5-0.5","5c4d1a6c9ce35100019dbc88","D2","batch4","","385","tol_tohand","","","","tol_peg_2","385","385","0","[[2,0,0],[0,0],[3]]","6","[[2,1,0],[3,0],[0]]","8","0","","","","","","6","","","","","","","","",""
"","","","","","single-stim-button","133","218132","0.0-2.0-34.5-1.5","5c4d1a6c9ce35100019dbc88","D2","batch4","","302","tol_toboard","","","","tol_peg_1","302","302","0","[[2,1,0],[0,0],[3]]","6","[[2,1,0],[3,0],[0]]","8","0","","","","","","6","","","","","","","","",""
"","","","","","single-stim-button","134","218552","0.0-2.0-34.6-0.6","5c4d1a6c9ce35100019dbc88","D2","batch4","","419","tol_tohand","","","","tol_peg_3","419","419","0","[[2,1,0],[0,0],[0]]","7","[[2,1,0],[3,0],[0]]","8","0","","","","","","6","","","","","","","","",""
"","","","","","single-stim-button","135","218849","0.0-2.0-34.6-1.6","5c4d1a6c9ce35100019dbc88","D2","batch4","","295","tol_toboard","","","","tol_peg_2","295","295","0","[[2,1,0],[3,0],[0]]","7","[[2,1,0],[3,0],[0]]","8","0","","","","","","6","","","","","","","","",""
"","","","","","poldrack-single-stim","136","219853","0.0-2.0-35.0","5c4d1a6c9ce35100019dbc88","D2","batch4","","-1","tol_feedback","","","true","","1000","1000","500","","","","","","-1","none","true","20497","23105","","","","","","","","","",""
"","","","","","html-button-response","137","220395","0.0-2.0-36.0","5c4d1a6c9ce35100019dbc88","D2","batch4","","538.6000000000931","tol_trial_num","<div class = centerbox><p class = center-block-text>problem <strong>10</strong> out of 25 problems</p></div>","0","","","","","","","","","","","","","","","","","","","","","","","","",""
"","","","","","single-stim-button","138","222333","0.0-2.0-37.0-0.0","5c4d1a6c9ce35100019dbc88","D2","batch4","","1935","tol_tohand","","","","tol_peg_2","1935","1935","0","[[3,0,0],[0,0],[2]]","1","[[3,0,0],[2,1],[0]]","9","0","","","","","","3","","","","","","","","",""
"","","","","","single-stim-button","139","223446","0.0-2.0-37.0-1.0","5c4d1a6c9ce35100019dbc88","D2","batch4","","1110","tol_toboard","","","","tol_peg_1","1110","1110","0","[[3,1,0],[0,0],[2]]","1","[[3,0,0],[2,1],[0]]","9","0","","","","","","3","","","","","","","","",""
"","","","","","single-stim-button","140","223990","0.0-2.0-37.1-0.1","5c4d1a6c9ce35100019dbc88","D2","batch4","","542","tol_tohand","","","","tol_peg_3","542","542","0","[[3,1,0],[0,0],[0]]","2","[[3,0,0],[2,1],[0]]","9","0","","","","","","3","","","","","","","","",""
"","","","","","single-stim-button","141","224316","0.0-2.0-37.1-1.1","5c4d1a6c9ce35100019dbc88","D2","batch4","","324","tol_toboard","","","","tol_peg_2","324","324","0","[[3,1,0],[2,0],[0]]","2","[[3,0,0],[2,1],[0]]","9","0","","","","","","3","","","","","","","","",""
"","","","","","single-stim-button","142","224691","0.0-2.0-37.2-0.2","5c4d1a6c9ce35100019dbc88","D2","batch4","","373","tol_tohand","","","","tol_peg_1","373","373","0","[[3,0,0],[2,0],[0]]","3","[[3,0,0],[2,1],[0]]","9","0","","","","","","3","","","","","","","","",""
"","","","","","single-stim-button","143","224962","0.0-2.0-37.2-1.2","5c4d1a6c9ce35100019dbc88","D2","batch4","","268","tol_toboard","","","","tol_peg_2","268","268","0","[[3,0,0],[2,1],[0]]","3","[[3,0,0],[2,1],[0]]","9","0","","","","","","3","","","","","","","","",""
"","","","","","poldrack-single-stim","144","225965","0.0-2.0-38.0","5c4d1a6c9ce35100019dbc88","D2","batch4","","-1","tol_feedback","","","true","","1000","1000","500","","","","","","-1","none","true","1935","2850","","","","","","","","","",""
"","","","","","html-button-response","145","226556","0.0-2.0-39.0","5c4d1a6c9ce35100019dbc88","D2","batch4","","589","tol_trial_num","<div class = centerbox><p class = center-block-text>problem <strong>11</strong> out of 25 problems</p></div>","0","","","","","","","","","","","","","","","","","","","","","","","","",""
"","","","","","single-stim-button","146","251313","0.0-2.0-40.0-0.0","5c4d1a6c9ce35100019dbc88","D2","batch4","","24754","tol_tohand","","","","tol_peg_1","24754","24754","0","[[1,0,0],[3,0],[0]]","1","[[2,0,0],[1,3],[0]]","10","0","","","","","","6","","","","","","","","",""
"","","","","","single-stim-button","147","251857","0.0-2.0-40.0-1.0","5c4d1a6c9ce35100019dbc88","D2","batch4","","541","tol_toboard","","","","tol_peg_2","541","541","0","[[1,0,0],[3,2],[0]]","1","[[2,0,0],[1,3],[0]]","10","0","","","","","","6","","","","","","","","",""
"","","","","","single-stim-button","148","252311","0.0-2.0-40.1-0.1","5c4d1a6c9ce35100019dbc88","D2","batch4","","451","tol_tohand","","","","tol_peg_1","451","451","0","[[0,0,0],[3,2],[0]]","2","[[2,0,0],[1,3],[0]]","10","0","","","","","","6","","","","","","","","",""
"","","","","","single-stim-button","149","252885","0.0-2.0-40.1-1.1","5c4d1a6c9ce35100019dbc88","D2","batch4","","570","tol_toboard","","","","tol_peg_3","570","570","0","[[0,0,0],[3,2],[1]]","2","[[2,0,0],[1,3],[0]]","10","0","","","","","","6","","","","","","","","",""
"","","","","","single-stim-button","150","253280","0.0-2.0-40.2-0.2","5c4d1a6c9ce35100019dbc88","D2","batch4","","393","tol_tohand","","","","tol_peg_2","393","393","0","[[0,0,0],[3,0],[1]]","3","[[2,0,0],[1,3],[0]]","10","0","","","","","","6","","","","","","","","",""
"","","","","","single-stim-button","151","253468","0.0-2.0-40.2-1.2","5c4d1a6c9ce35100019dbc88","D2","batch4","","186","tol_toboard","","","","tol_peg_2","186","186","0","[[0,0,0],[3,2],[1]]","3","[[2,0,0],[1,3],[0]]","10","0","","","","","","6","","","","","","","","",""
"","","","","","single-stim-button","152","254160","0.0-2.0-40.3-0.3","5c4d1a6c9ce35100019dbc88","D2","batch4","","690","tol_tohand","","","","tol_peg_2","690","690","0","[[0,0,0],[3,0],[1]]","4","[[2,0,0],[1,3],[0]]","10","0","","","","","","6","","","","","","","","",""
"","","","","","single-stim-button","153","254752","0.0-2.0-40.3-1.3","5c4d1a6c9ce35100019dbc88","D2","batch4","","590","tol_toboard","","","","tol_peg_1","590","590","0","[[2,0,0],[3,0],[1]]","4","[[2,0,0],[1,3],[0]]","10","0","","","","","","6","","","","","","","","",""
"","","","","","single-stim-button","154","256586","0.0-2.0-40.4-0.4","5c4d1a6c9ce35100019dbc88","D2","batch4","","1831","tol_tohand","","","","tol_peg_2","1831","1831","0","[[2,0,0],[0,0],[1]]","5","[[2,0,0],[1,3],[0]]","10","0","","","","","","6","","","","","","","","",""
"","","","","","single-stim-button","155","256952","0.0-2.0-40.4-1.4","5c4d1a6c9ce35100019dbc88","D2","batch4","","364","tol_toboard","","","","tol_peg_1","364","364","0","[[2,3,0],[0,0],[1]]","5","[[2,0,0],[1,3],[0]]","10","0","","","","","","6","","","","","","","","",""
"","","","","","single-stim-button","156","257443","0.0-2.0-40.5-0.5","5c4d1a6c9ce35100019dbc88","D2","batch4","","488","tol_tohand","","","","tol_peg_3","488","488","0","[[2,3,0],[0,0],[0]]","6","[[2,0,0],[1,3],[0]]","10","0","","","","","","6","","","","","","","","",""
"","","","","","single-stim-button","157","257839","0.0-2.0-40.5-1.5","5c4d1a6c9ce35100019dbc88","D2","batch4","","394","tol_toboard","","","","tol_peg_2","394","394","0","[[2,3,0],[1,0],[0]]","6","[[2,0,0],[1,3],[0]]","10","0","","","","","","6","","","","","","","","",""
"","","","","","single-stim-button","158","258205","0.0-2.0-40.6-0.6","5c4d1a6c9ce35100019dbc88","D2","batch4","","364","tol_tohand","","","","tol_peg_1","364","364","0","[[2,0,0],[1,0],[0]]","7","[[2,0,0],[1,3],[0]]","10","0","","","","","","6","","","","","","","","",""
"","","","","","single-stim-button","159","258523","0.0-2.0-40.6-1.6","5c4d1a6c9ce35100019dbc88","D2","batch4","","316","tol_toboard","","","","tol_peg_2","316","316","0","[[2,0,0],[1,3],[0]]","7","[[2,0,0],[1,3],[0]]","10","0","","","","","","6","","","","","","","","",""
"","","","","","poldrack-single-stim","160","259531","0.0-2.0-41.0","5c4d1a6c9ce35100019dbc88","D2","batch4","","-1","tol_feedback","","","true","","1000","1000","500","","","","","","-1","none","true","24754","28971","","","","","","","","","",""
"","","","","","html-button-response","161","260061","0.0-2.0-42.0","5c4d1a6c9ce35100019dbc88","D2","batch4","","527.9000000001397","tol_trial_num","<div class = centerbox><p class = center-block-text>problem <strong>12</strong> out of 25 problems</p></div>","0","","","","","","","","","","","","","","","","","","","","","","","","",""
"","","","","","single-stim-button","162","265366","0.0-2.0-43.0-0.0","5c4d1a6c9ce35100019dbc88","D2","batch4","","5303","tol_tohand","","","","tol_peg_1","5303","5303","0","[[1,0,0],[3,0],[0]]","1","[[2,3,0],[0,0],[1]]","11","0","","","","","","4","","","","","","","","",""
"","","","","","single-stim-button","163","265812","0.0-2.0-43.0-1.0","5c4d1a6c9ce35100019dbc88","D2","batch4","","443","tol_toboard","","","","tol_peg_2","443","443","0","[[1,0,0],[3,2],[0]]","1","[[2,3,0],[0,0],[1]]","11","0","","","","","","4","","","","","","","","",""
"","","","","","single-stim-button","164","266310","0.0-2.0-43.1-0.1","5c4d1a6c9ce35100019dbc88","D2","batch4","","496","tol_tohand","","","","tol_peg_1","496","496","0","[[0,0,0],[3,2],[0]]","2","[[2,3,0],[0,0],[1]]","11","0","","","","","","4","","","","","","","","",""
"","","","","","single-stim-button","165","267180","0.0-2.0-43.1-1.1","5c4d1a6c9ce35100019dbc88","D2","batch4","","868","tol_toboard","","","","tol_peg_3","868","868","0","[[0,0,0],[3,2],[1]]","2","[[2,3,0],[0,0],[1]]","11","0","","","","","","4","","","","","","","","",""
"","","","","","single-stim-button","166","267725","0.0-2.0-43.2-0.2","5c4d1a6c9ce35100019dbc88","D2","batch4","","543","tol_tohand","","","","tol_peg_2","543","543","0","[[0,0,0],[3,0],[1]]","3","[[2,3,0],[0,0],[1]]","11","0","","","","","","4","","","","","","","","",""
"","","","","","single-stim-button","167","268240","0.0-2.0-43.2-1.2","5c4d1a6c9ce35100019dbc88","D2","batch4","","511","tol_toboard","","","","tol_peg_1","511","511","0","[[2,0,0],[3,0],[1]]","3","[[2,3,0],[0,0],[1]]","11","0","","","","","","4","","","","","","","","",""
"","","","","","single-stim-button","168","268713","0.0-2.0-43.3-0.3","5c4d1a6c9ce35100019dbc88","D2","batch4","","469","tol_tohand","","","","tol_peg_2","469","469","0","[[2,0,0],[0,0],[1]]","4","[[2,3,0],[0,0],[1]]","11","0","","","","","","4","","","","","","","","",""
"","","","","","single-stim-button","169","269139","0.0-2.0-43.3-1.3","5c4d1a6c9ce35100019dbc88","D2","batch4","","423","tol_toboard","","","","tol_peg_1","423","423","0","[[2,3,0],[0,0],[1]]","4","[[2,3,0],[0,0],[1]]","11","0","","","","","","4","","","","","","","","",""
"","","","","","poldrack-single-stim","170","270141","0.0-2.0-44.0","5c4d1a6c9ce35100019dbc88","D2","batch4","","-1","tol_feedback","","","true","","1000","1000","500","","","","","","-1","none","true","5303","6811","","","","","","","","","",""
"","","","","","html-button-response","171","271557","0.0-2.0-45.0","5c4d1a6c9ce35100019dbc88","D2","batch4","","1413.8999999999069","tol_trial_num","<div class = centerbox><p class = center-block-text>problem <strong>13</strong> out of 25 problems</p></div>","0","","","","","","","","","","","","","","","","","","","","","","","","",""
"","","","","","single-stim-button","172","276124","0.0-2.0-46.0-0.0","5c4d1a6c9ce35100019dbc88","D2","batch4","","4564","tol_tohand","","","","tol_peg_2","4564","4564","0","[[1,2,0],[0,0],[0]]","1","[[0,0,0],[2,3],[1]]","12","0","","","","","","4","","","","","","","","",""
"","","","","","single-stim-button","173","276803","0.0-2.0-46.0-1.0","5c4d1a6c9ce35100019dbc88","D2","batch4","","674","tol_toboard","","","","tol_peg_3","674","674","0","[[1,2,0],[0,0],[3]]","1","[[0,0,0],[2,3],[1]]","12","0","","","","","","4","","","","","","","","",""
"","","","","","single-stim-button","174","277375","0.0-2.0-46.1-0.1","5c4d1a6c9ce35100019dbc88","D2","batch4","","569","tol_tohand","","","","tol_peg_1","569","569","0","[[1,0,0],[0,0],[3]]","2","[[0,0,0],[2,3],[1]]","12","0","","","","","","4","","","","","","","","",""
"","","","","","single-stim-button","175","277865","0.0-2.0-46.1-1.1","5c4d1a6c9ce35100019dbc88","D2","batch4","","488","tol_toboard","","","","tol_peg_2","488","488","0","[[1,0,0],[2,0],[3]]","2","[[0,0,0],[2,3],[1]]","12","0","","","","","","4","","","","","","","","",""
"","","","","","single-stim-button","176","278341","0.0-2.0-46.2-0.2","5c4d1a6c9ce35100019dbc88","D2","batch4","","473","tol_tohand","","","","tol_peg_3","473","473","0","[[1,0,0],[2,0],[0]]","3","[[0,0,0],[2,3],[1]]","12","0","","","","","","4","","","","","","","","",""
"","","","","","single-stim-button","177","278956","0.0-2.0-46.2-1.2","5c4d1a6c9ce35100019dbc88","D2","batch4","","613","tol_toboard","","","","tol_peg_2","613","613","0","[[1,0,0],[2,3],[0]]","3","[[0,0,0],[2,3],[1]]","12","0","","","","","","4","","","","","","","","",""
"","","","","","single-stim-button","178","279500","0.0-2.0-46.3-0.3","5c4d1a6c9ce35100019dbc88","D2","batch4","","542","tol_tohand","","","","tol_peg_1","542","542","0","[[0,0,0],[2,3],[0]]","4","[[0,0,0],[2,3],[1]]","12","0","","","","","","4","","","","","","","","",""
"","","","","","single-stim-button","179","280237","0.0-2.0-46.3-1.3","5c4d1a6c9ce35100019dbc88","D2","batch4","","737","tol_toboard","","","","tol_peg_3","737","737","0","[[0,0,0],[2,3],[1]]","4","[[0,0,0],[2,3],[1]]","12","0","","","","","","4","","","","","","","","",""
"","","","","","poldrack-single-stim","180","281245","0.0-2.0-47.0","5c4d1a6c9ce35100019dbc88","D2","batch4","","-1","tol_feedback","","","true","","1000","1000","500","","","","","","-1","none","true","4564","6148","","","","","","","","","",""
"","","","","","html-button-response","181","283986","0.0-2.0-48.0","5c4d1a6c9ce35100019dbc88","D2","batch4","","2737.7000000001863","attention_check","<p class = block-text>How many balls are in your board<br></p>","1","true","","","","","","","","","","","","","","","","","","","","","","","",""
"","","","","","html-button-response","182","284748","0.0-2.0-49.0","5c4d1a6c9ce35100019dbc88","D2","batch4","","758.8000000000466","tol_trial_num","<div class = centerbox><p class = center-block-text>problem <strong>14</strong> out of 25 problems</p></div>","0","","","","","","","","","","","","","","","","","","","","","","","","",""
"","","","","","single-stim-button","183","288086","0.0-2.0-50.0-0.0","5c4d1a6c9ce35100019dbc88","D2","batch4","","3335","tol_tohand","","","","tol_peg_1","3335","3335","0","[[2,0,0],[3,0],[0]]","1","[[1,2,0],[3,0],[0]]","13","0","","","","","","4","","","","","","","","",""
"","","","","","single-stim-button","184","289415","0.0-2.0-50.0-1.0","5c4d1a6c9ce35100019dbc88","D2","batch4","","1327","tol_toboard","","","","tol_peg_2","1327","1327","0","[[2,0,0],[3,1],[0]]","1","[[1,2,0],[3,0],[0]]","13","0","","","","","","4","","","","","","","","",""
"","","","","","single-stim-button","185","290108","0.0-2.0-50.1-0.1","5c4d1a6c9ce35100019dbc88","D2","batch4","","691","tol_tohand","","","","tol_peg_1","691","691","0","[[0,0,0],[3,1],[0]]","2","[[1,2,0],[3,0],[0]]","13","0","","","","","","4","","","","","","","","",""
"","","","","","single-stim-button","186","290941","0.0-2.0-50.1-1.1","5c4d1a6c9ce35100019dbc88","D2","batch4","","830","tol_toboard","","","","tol_peg_3","830","830","0","[[0,0,0],[3,1],[2]]","2","[[1,2,0],[3,0],[0]]","13","0","","","","","","4","","","","","","","","",""
"","","","","","single-stim-button","187","291687","0.0-2.0-50.2-0.2","5c4d1a6c9ce35100019dbc88","D2","batch4","","742","tol_tohand","","","","tol_peg_2","742","742","0","[[0,0,0],[3,0],[2]]","3","[[1,2,0],[3,0],[0]]","13","0","","","","","","4","","","","","","","","",""
"","","","","","single-stim-button","188","292222","0.0-2.0-50.2-1.2","5c4d1a6c9ce35100019dbc88","D2","batch4","","533","tol_toboard","","","","tol_peg_1","533","533","0","[[1,0,0],[3,0],[2]]","3","[[1,2,0],[3,0],[0]]","13","0","","","","","","4","","","","","","","","",""
"","","","","","single-stim-button","189","292728","0.0-2.0-50.3-0.3","5c4d1a6c9ce35100019dbc88","D2","batch4","","503","tol_tohand","","","","tol_peg_3","503","503","0","[[1,0,0],[3,0],[0]]","4","[[1,2,0],[3,0],[0]]","13","0","","","","","","4","","","","","","","","",""
"","","","","","single-stim-button","190","293460","0.0-2.0-50.3-1.3","5c4d1a6c9ce35100019dbc88","D2","batch4","","729","tol_toboard","","","","tol_peg_1","729","729","0","[[1,2,0],[3,0],[0]]","4","[[1,2,0],[3,0],[0]]","13","0","","","","","","4","","","","","","","","",""
"","","","","","poldrack-single-stim","191","294469","0.0-2.0-51.0","5c4d1a6c9ce35100019dbc88","D2","batch4","","-1","tol_feedback","","","true","","1000","1000","500","","","","","","-1","none","true","3335","5271","","","","","","","","","",""
"","","","","","html-button-response","192","295139","0.0-2.0-52.0","5c4d1a6c9ce35100019dbc88","D2","batch4","","667.1999999999534","tol_trial_num","<div class = centerbox><p class = center-block-text>problem <strong>15</strong> out of 25 problems</p></div>","0","","","","","","","","","","","","","","","","","","","","","","","","",""
"","","","","","single-stim-button","193","297074","0.0-2.0-53.0-0.0","5c4d1a6c9ce35100019dbc88","D2","batch4","","1933","tol_tohand","","","","tol_peg_1","1933","1933","0","[[1,0,0],[3,0],[0]]","1","[[2,0,0],[3,0],[1]]","14","0","","","","","","3","","","","","","","","",""
"","","","","","single-stim-button","194","297744","0.0-2.0-53.0-1.0","5c4d1a6c9ce35100019dbc88","D2","batch4","","668","tol_toboard","","","","tol_peg_2","668","668","0","[[1,0,0],[3,2],[0]]","1","[[2,0,0],[3,0],[1]]","14","0","","","","","","3","","","","","","","","",""
"","","","","","single-stim-button","195","298195","0.0-2.0-53.1-0.1","5c4d1a6c9ce35100019dbc88","D2","batch4","","449","tol_tohand","","","","tol_peg_1","449","449","0","[[0,0,0],[3,2],[0]]","2","[[2,0,0],[3,0],[1]]","14","0","","","","","","3","","","","","","","","",""
"","","","","","single-stim-button","196","298825","0.0-2.0-53.1-1.1","5c4d1a6c9ce35100019dbc88","D2","batch4","","628","tol_toboard","","","","tol_peg_3","628","628","0","[[0,0,0],[3,2],[1]]","2","[[2,0,0],[3,0],[1]]","14","0","","","","","","3","","","","","","","","",""
"","","","","","single-stim-button","197","299253","0.0-2.0-53.2-0.2","5c4d1a6c9ce35100019dbc88","D2","batch4","","426","tol_tohand","","","","tol_peg_2","426","426","0","[[0,0,0],[3,0],[1]]","3","[[2,0,0],[3,0],[1]]","14","0","","","","","","3","","","","","","","","",""
"","","","","","single-stim-button","198","299789","0.0-2.0-53.2-1.2","5c4d1a6c9ce35100019dbc88","D2","batch4","","534","tol_toboard","","","","tol_peg_1","534","534","0","[[2,0,0],[3,0],[1]]","3","[[2,0,0],[3,0],[1]]","14","0","","","","","","3","","","","","","","","",""
"","","","","","poldrack-single-stim","199","300797","0.0-2.0-54.0","5c4d1a6c9ce35100019dbc88","D2","batch4","","-1","tol_feedback","","","true","","1000","1000","500","","","","","","-1","none","true","1933","2808","","","","","","","","","",""
"","","","","","html-button-response","200","309410","0.0-2.0-55.0","5c4d1a6c9ce35100019dbc88","D2","batch4","","8611.199999999953","tol_trial_num","<div class = centerbox><p class = center-block-text>problem <strong>16</strong> out of 25 problems</p></div>","0","","","","","","","","","","","","","","","","","","","","","","","","",""
"","","","","","single-stim-button","201","334262","0.0-2.0-56.0-0.0","5c4d1a6c9ce35100019dbc88","D2","batch4","","24850","tol_tohand","","","","tol_peg_2","24850","24850","0","[[0,0,0],[2,0],[1]]","1","[[2,3,0],[1,0],[0]]","15","0","","","","","","7","","","","","","","","",""
"","","","","","single-stim-button","202","334837","0.0-2.0-56.0-1.0","5c4d1a6c9ce35100019dbc88","D2","batch4","","572","tol_toboard","","","","tol_peg_1","572","572","0","[[3,0,0],[2,0],[1]]","1","[[2,3,0],[1,0],[0]]","15","0","","","","","","7","","","","","","","","",""
"","","","","","single-stim-button","203","335413","0.0-2.0-56.1-0.1","5c4d1a6c9ce35100019dbc88","D2","batch4","","574","tol_tohand","","","","tol_peg_2","574","574","0","[[3,0,0],[0,0],[1]]","2","[[2,3,0],[1,0],[0]]","15","0","","","","","","7","","","","","","","","",""
"","","","","","single-stim-button","204","335834","0.0-2.0-56.1-1.1","5c4d1a6c9ce35100019dbc88","D2","batch4","","420","tol_toboard","","","","tol_peg_1","420","420","0","[[3,2,0],[0,0],[1]]","2","[[2,3,0],[1,0],[0]]","15","0","","","","","","7","","","","","","","","",""
"","","","","","single-stim-button","205","336385","0.0-2.0-56.2-0.2","5c4d1a6c9ce35100019dbc88","D2","batch4","","549","tol_tohand","","","","tol_peg_3","549","549","0","[[3,2,0],[0,0],[0]]","3","[[2,3,0],[1,0],[0]]","15","0","","","","","","7","","","","","","","","",""
"","","","","","single-stim-button","206","337318","0.0-2.0-56.2-1.2","5c4d1a6c9ce35100019dbc88","D2","batch4","","931","tol_toboard","","","","tol_peg_2","931","931","0","[[3,2,0],[1,0],[0]]","3","[[2,3,0],[1,0],[0]]","15","0","","","","","","7","","","","","","","","",""
"","","","","","single-stim-button","207","338258","0.0-2.0-56.3-0.3","5c4d1a6c9ce35100019dbc88","D2","batch4","","938","tol_tohand","","","","tol_peg_1","938","938","0","[[3,0,0],[1,0],[0]]","4","[[2,3,0],[1,0],[0]]","15","0","","","","","","7","","","","","","","","",""
"","","","","","single-stim-button","208","339346","0.0-2.0-56.3-1.3","5c4d1a6c9ce35100019dbc88","D2","batch4","","1087","tol_toboard","","","","tol_peg_2","1087","1087","0","[[3,0,0],[1,2],[0]]","4","[[2,3,0],[1,0],[0]]","15","0","","","","","","7","","","","","","","","",""
"","","","","","single-stim-button","209","339816","0.0-2.0-56.4-0.4","5c4d1a6c9ce35100019dbc88","D2","batch4","","467","tol_tohand","","","","tol_peg_1","467","467","0","[[0,0,0],[1,2],[0]]","5","[[2,3,0],[1,0],[0]]","15","0","","","","","","7","","","","","","","","",""
"","","","","","single-stim-button","210","340522","0.0-2.0-56.4-1.4","5c4d1a6c9ce35100019dbc88","D2","batch4","","704","tol_toboard","","","","tol_peg_3","704","704","0","[[0,0,0],[1,2],[3]]","5","[[2,3,0],[1,0],[0]]","15","0","","","","","","7","","","","","","","","",""
"","","","","","single-stim-button","211","340982","0.0-2.0-56.5-0.5","5c4d1a6c9ce35100019dbc88","D2","batch4","","458","tol_tohand","","","","tol_peg_2","458","458","0","[[0,0,0],[1,0],[3]]","6","[[2,3,0],[1,0],[0]]","15","0","","","","","","7","","","","","","","","",""
"","","","","","single-stim-button","212","341387","0.0-2.0-56.5-1.5","5c4d1a6c9ce35100019dbc88","D2","batch4","","403","tol_toboard","","","","tol_peg_1","403","403","0","[[2,0,0],[1,0],[3]]","6","[[2,3,0],[1,0],[0]]","15","0","","","","","","7","","","","","","","","",""
"","","","","","single-stim-button","213","341846","0.0-2.0-56.6-0.6","5c4d1a6c9ce35100019dbc88","D2","batch4","","456","tol_tohand","","","","tol_peg_3","456","456","0","[[2,0,0],[1,0],[0]]","7","[[2,3,0],[1,0],[0]]","15","0","","","","","","7","","","","","","","","",""
"","","","","","single-stim-button","214","342372","0.0-2.0-56.6-1.6","5c4d1a6c9ce35100019dbc88","D2","batch4","","526","tol_toboard","","","","tol_peg_1","526","526","0","[[2,3,0],[1,0],[0]]","7","[[2,3,0],[1,0],[0]]","15","0","","","","","","7","","","","","","","","",""
"","","","","","poldrack-single-stim","215","343381","0.0-2.0-57.0","5c4d1a6c9ce35100019dbc88","D2","batch4","","-1","tol_feedback","","","true","","1000","1000","500","","","","","","-1","none","true","24850","28292","","","","","","","","","",""
"","","","","","html-button-response","216","344083","0.0-2.0-58.0","5c4d1a6c9ce35100019dbc88","D2","batch4","","699.8000000000466","tol_trial_num","<div class = centerbox><p class = center-block-text>problem <strong>17</strong> out of 25 problems</p></div>","0","","","","","","","","","","","","","","","","","","","","","","","","",""
"","","","","","single-stim-button","217","347505","0.0-2.0-59.0-0.0","5c4d1a6c9ce35100019dbc88","D2","batch4","","3419","tol_tohand","","","","tol_peg_2","3419","3419","0","[[1,2,0],[0,0],[0]]","1","[[3,1,0],[2,0],[0]]","16","0","","","","","","5","","","","","","","","",""
"","","","","","single-stim-button","218","348152","0.0-2.0-59.0-1.0","5c4d1a6c9ce35100019dbc88","D2","batch4","","645","tol_toboard","","","","tol_peg_3","645","645","0","[[1,2,0],[0,0],[3]]","1","[[3,1,0],[2,0],[0]]","16","0","","","","","","5","","","","","","","","",""
"","","","","","single-stim-button","219","348898","0.0-2.0-59.1-0.1","5c4d1a6c9ce35100019dbc88","D2","batch4","","744","tol_tohand","","","","tol_peg_1","744","744","0","[[1,0,0],[0,0],[3]]","2","[[3,1,0],[2,0],[0]]","16","0","","","","","","5","","","","","","","","",""
"","","","","","single-stim-button","220","349824","0.0-2.0-59.1-1.1","5c4d1a6c9ce35100019dbc88","D2","batch4","","925","tol_toboard","","","","tol_peg_2","925","925","0","[[1,0,0],[2,0],[3]]","2","[[3,1,0],[2,0],[0]]","16","0","","","","","","5","","","","","","","","",""
"","","","","","single-stim-button","221","350290","0.0-2.0-59.2-0.2","5c4d1a6c9ce35100019dbc88","D2","batch4","","464","tol_tohand","","","","tol_peg_1","464","464","0","[[0,0,0],[2,0],[3]]","3","[[3,1,0],[2,0],[0]]","16","0","","","","","","5","","","","","","","","",""
"","","","","","single-stim-button","222","350648","0.0-2.0-59.2-1.2","5c4d1a6c9ce35100019dbc88","D2","batch4","","357","tol_toboard","","","","tol_peg_2","357","357","0","[[0,0,0],[2,1],[3]]","3","[[3,1,0],[2,0],[0]]","16","0","","","","","","5","","","","","","","","",""
"","","","","","single-stim-button","223","350999","0.0-2.0-59.3-0.3","5c4d1a6c9ce35100019dbc88","D2","batch4","","348","tol_tohand","","","","tol_peg_3","348","348","0","[[0,0,0],[2,1],[0]]","4","[[3,1,0],[2,0],[0]]","16","0","","","","","","5","","","","","","","","",""
"","","","","","single-stim-button","224","351659","0.0-2.0-59.3-1.3","5c4d1a6c9ce35100019dbc88","D2","batch4","","658","tol_toboard","","","","tol_peg_1","658","658","0","[[3,0,0],[2,1],[0]]","4","[[3,1,0],[2,0],[0]]","16","0","","","","","","5","","","","","","","","",""
"","","","","","single-stim-button","225","352157","0.0-2.0-59.4-0.4","5c4d1a6c9ce35100019dbc88","D2","batch4","","496","tol_tohand","","","","tol_peg_2","496","496","0","[[3,0,0],[2,0],[0]]","5","[[3,1,0],[2,0],[0]]","16","0","","","","","","5","","","","","","","","",""
"","","","","","single-stim-button","226","352484","0.0-2.0-59.4-1.4","5c4d1a6c9ce35100019dbc88","D2","batch4","","325","tol_toboard","","","","tol_peg_1","325","325","0","[[3,1,0],[2,0],[0]]","5","[[3,1,0],[2,0],[0]]","16","0","","","","","","5","","","","","","","","",""
"","","","","","poldrack-single-stim","227","353493","0.0-2.0-60.0","5c4d1a6c9ce35100019dbc88","D2","batch4","","-1","tol_feedback","","","true","","1000","1000","500","","","","","","-1","none","true","3419","5471","","","","","","","","","",""
"","","","","","html-button-response","228","353984","0.0-2.0-61.0","5c4d1a6c9ce35100019dbc88","D2","batch4","","489.5","tol_trial_num","<div class = centerbox><p class = center-block-text>problem <strong>18</strong> out of 25 problems</p></div>","0","","","","","","","","","","","","","","","","","","","","","","","","",""
"","","","","","single-stim-button","229","358007","0.0-2.0-62.0-0.0","5c4d1a6c9ce35100019dbc88","D2","batch4","","4020","tol_tohand","","","","tol_peg_1","4020","4020","0","[[1,0,0],[3,0],[0]]","1","[[3,0,0],[2,0],[1]]","17","0","","","","","","5","","","","","","","","",""
"","","","","","single-stim-button","230","358489","0.0-2.0-62.0-1.0","5c4d1a6c9ce35100019dbc88","D2","batch4","","481","tol_toboard","","","","tol_peg_2","481","481","0","[[1,0,0],[3,2],[0]]","1","[[3,0,0],[2,0],[1]]","17","0","","","","","","5","","","","","","","","",""
"","","","","","single-stim-button","231","358917","0.0-2.0-62.1-0.1","5c4d1a6c9ce35100019dbc88","D2","batch4","","426","tol_tohand","","","","tol_peg_1","426","426","0","[[0,0,0],[3,2],[0]]","2","[[3,0,0],[2,0],[1]]","17","0","","","","","","5","","","","","","","","",""
"","","","","","single-stim-button","232","361762","0.0-2.0-62.1-1.1","5c4d1a6c9ce35100019dbc88","D2","batch4","","2843","tol_toboard","","","","tol_peg_3","2843","2843","0","[[0,0,0],[3,2],[1]]","2","[[3,0,0],[2,0],[1]]","17","0","","","","","","5","","","","","","","","",""
"","","","","","single-stim-button","233","371183","0.0-2.0-62.2-0.2","5c4d1a6c9ce35100019dbc88","D2","batch4","","9418","tol_tohand","","","","tol_peg_3","9418","9418","0","[[0,0,0],[3,2],[0]]","3","[[3,0,0],[2,0],[1]]","17","0","","","","","","5","","","","","","","","",""
"","","","","","single-stim-button","234","371752","0.0-2.0-62.2-1.2","5c4d1a6c9ce35100019dbc88","D2","batch4","","566","tol_toboard","","","","tol_peg_1","566","566","0","[[1,0,0],[3,2],[0]]","3","[[3,0,0],[2,0],[1]]","17","0","","","","","","5","","","","","","","","",""
"","","","","","single-stim-button","235","372181","0.0-2.0-62.3-0.3","5c4d1a6c9ce35100019dbc88","D2","batch4","","426","tol_tohand","","","","tol_peg_2","426","426","0","[[1,0,0],[3,0],[0]]","4","[[3,0,0],[2,0],[1]]","17","0","","","","","","5","","","","","","","","",""
"","","","","","single-stim-button","236","372645","0.0-2.0-62.3-1.3","5c4d1a6c9ce35100019dbc88","D2","batch4","","462","tol_toboard","","","","tol_peg_3","462","462","0","[[1,0,0],[3,0],[2]]","4","[[3,0,0],[2,0],[1]]","17","0","","","","","","5","","","","","","","","",""
"","","","","","single-stim-button","237","375111","0.0-2.0-62.4-0.4","5c4d1a6c9ce35100019dbc88","D2","batch4","","2462","tol_tohand","","","","tol_peg_2","2462","2462","0","[[1,0,0],[0,0],[2]]","5","[[3,0,0],[2,0],[1]]","17","0","","","","","","5","","","","","","","","",""
"","","","","","single-stim-button","238","379348","0.0-2.0-62.4-1.4","5c4d1a6c9ce35100019dbc88","D2","batch4","","4235","tol_toboard","","","","tol_peg_2","4235","4235","0","[[1,0,0],[3,0],[2]]","5","[[3,0,0],[2,0],[1]]","17","0","","","","","","5","","","","","","","","",""
"","","","","","single-stim-button","239","379777","0.0-2.0-62.5-0.5","5c4d1a6c9ce35100019dbc88","D2","batch4","","427","tol_tohand","","","","tol_peg_1","427","427","0","[[0,0,0],[3,0],[2]]","6","[[3,0,0],[2,0],[1]]","17","0","","","","","","5","","","","","","","","",""
"","","","","","single-stim-button","240","380615","0.0-2.0-62.5-1.5","5c4d1a6c9ce35100019dbc88","D2","batch4","","837","tol_toboard","","","","tol_peg_2","837","837","0","[[0,0,0],[3,1],[2]]","6","[[3,0,0],[2,0],[1]]","17","0","","","","","","5","","","","","","","","",""
"","","","","","single-stim-button","241","384161","0.0-2.0-62.6-0.6","5c4d1a6c9ce35100019dbc88","D2","batch4","","3543","tol_tohand","","","","tol_peg_2","3543","3543","0","[[0,0,0],[3,0],[2]]","7","[[3,0,0],[2,0],[1]]","17","0","","","","","","5","","","","","","","","",""
"","","","","","single-stim-button","242","384559","0.0-2.0-62.6-1.6","5c4d1a6c9ce35100019dbc88","D2","batch4","","396","tol_toboard","","","","tol_peg_1","396","396","0","[[1,0,0],[3,0],[2]]","7","[[3,0,0],[2,0],[1]]","17","0","","","","","","5","","","","","","","","",""
"","","","","","single-stim-button","243","384915","0.0-2.0-62.7-0.7","5c4d1a6c9ce35100019dbc88","D2","batch4","","355","tol_tohand","","","","tol_peg_2","355","355","0","[[1,0,0],[0,0],[2]]","8","[[3,0,0],[2,0],[1]]","17","0","","","","","","5","","","","","","","","",""
"","","","","","single-stim-button","244","385257","0.0-2.0-62.7-1.7","5c4d1a6c9ce35100019dbc88","D2","batch4","","341","tol_toboard","","","","tol_peg_1","341","341","0","[[1,3,0],[0,0],[2]]","8","[[3,0,0],[2,0],[1]]","17","0","","","","","","5","","","","","","","","",""
"","","","","","single-stim-button","245","385647","0.0-2.0-62.8-0.8","5c4d1a6c9ce35100019dbc88","D2","batch4","","387","tol_tohand","","","","tol_peg_3","387","387","0","[[1,3,0],[0,0],[0]]","9","[[3,0,0],[2,0],[1]]","17","0","","","","","","5","","","","","","","","",""
"","","","","","single-stim-button","246","386044","0.0-2.0-62.8-1.8","5c4d1a6c9ce35100019dbc88","D2","batch4","","395","tol_toboard","","","","tol_peg_2","395","395","0","[[1,3,0],[2,0],[0]]","9","[[3,0,0],[2,0],[1]]","17","0","","","","","","5","","","","","","","","",""
"","","","","","single-stim-button","247","386845","0.0-2.0-62.9-0.9","5c4d1a6c9ce35100019dbc88","D2","batch4","","799","tol_tohand","","","","tol_peg_1","799","799","0","[[1,0,0],[2,0],[0]]","10","[[3,0,0],[2,0],[1]]","17","0","","","","","","5","","","","","","","","",""
"","","","","","single-stim-button","248","387365","0.0-2.0-62.9-1.9","5c4d1a6c9ce35100019dbc88","D2","batch4","","519","tol_toboard","","","","tol_peg_2","519","519","0","[[1,0,0],[2,3],[0]]","10","[[3,0,0],[2,0],[1]]","17","0","","","","","","5","","","","","","","","",""
"","","","","","single-stim-button","249","387887","0.0-2.0-62.10-0.10","5c4d1a6c9ce35100019dbc88","D2","batch4","","521","tol_tohand","","","","tol_peg_1","521","521","0","[[0,0,0],[2,3],[0]]","11","[[3,0,0],[2,0],[1]]","17","0","","","","","","5","","","","","","","","",""
"","","","","","single-stim-button","250","388494","0.0-2.0-62.10-1.10","5c4d1a6c9ce35100019dbc88","D2","batch4","","606","tol_toboard","","","","tol_peg_3","606","606","0","[[0,0,0],[2,3],[1]]","11","[[3,0,0],[2,0],[1]]","17","0","","","","","","5","","","","","","","","",""
"","","","","","single-stim-button","251","388866","0.0-2.0-62.11-0.11","5c4d1a6c9ce35100019dbc88","D2","batch4","","370","tol_tohand","","","","tol_peg_2","370","370","0","[[0,0,0],[2,0],[1]]","12","[[3,0,0],[2,0],[1]]","17","0","","","","","","5","","","","","","","","",""
"","","","","","single-stim-button","252","389153","0.0-2.0-62.11-1.11","5c4d1a6c9ce35100019dbc88","D2","batch4","","286","tol_toboard","","","","tol_peg_1","286","286","0","[[3,0,0],[2,0],[1]]","12","[[3,0,0],[2,0],[1]]","17","0","","","","","","5","","","","","","","","",""
"","","","","","poldrack-single-stim","253","390165","0.0-2.0-63.0","5c4d1a6c9ce35100019dbc88","D2","batch4","","-1","tol_feedback","","","true","","1000","1000","500","","","","","","-1","none","true","4020","23154","","","","","","","","","",""
"","","","","","html-button-response","254","390654","0.0-2.0-64.0","5c4d1a6c9ce35100019dbc88","D2","batch4","","487.5","tol_trial_num","<div class = centerbox><p class = center-block-text>problem <strong>19</strong> out of 25 problems</p></div>","0","","","","","","","","","","","","","","","","","","","","","","","","",""
"","","","","","single-stim-button","255","423891","0.0-2.0-65.0-0.0","5c4d1a6c9ce35100019dbc88","D2","batch4","","33235","tol_tohand","","","","tol_peg_1","33235","33235","0","[[1,0,0],[3,0],[0]]","1","[[0,0,0],[1,2],[3]]","18","0","","","","","","7","","","","","","","","",""
"","","","","","single-stim-button","256","424309","0.0-2.0-65.0-1.0","5c4d1a6c9ce35100019dbc88","D2","batch4","","415","tol_toboard","","","","tol_peg_2","415","415","0","[[1,0,0],[3,2],[0]]","1","[[0,0,0],[1,2],[3]]","18","0","","","","","","7","","","","","","","","",""
"","","","","","single-stim-button","257","424740","0.0-2.0-65.1-0.1","5c4d1a6c9ce35100019dbc88","D2","batch4","","427","tol_tohand","","","","tol_peg_1","427","427","0","[[0,0,0],[3,2],[0]]","2","[[0,0,0],[1,2],[3]]","18","0","","","","","","7","","","","","","","","",""
"","","","","","single-stim-button","258","425359","0.0-2.0-65.1-1.1","5c4d1a6c9ce35100019dbc88","D2","batch4","","616","tol_toboard","","","","tol_peg_3","616","616","0","[[0,0,0],[3,2],[1]]","2","[[0,0,0],[1,2],[3]]","18","0","","","","","","7","","","","","","","","",""
"","","","","","single-stim-button","259","425788","0.0-2.0-65.2-0.2","5c4d1a6c9ce35100019dbc88","D2","batch4","","425","tol_tohand","","","","tol_peg_2","425","425","0","[[0,0,0],[3,0],[1]]","3","[[0,0,0],[1,2],[3]]","18","0","","","","","","7","","","","","","","","",""
"","","","","","single-stim-button","260","426255","0.0-2.0-65.2-1.2","5c4d1a6c9ce35100019dbc88","D2","batch4","","464","tol_toboard","","","","tol_peg_1","464","464","0","[[2,0,0],[3,0],[1]]","3","[[0,0,0],[1,2],[3]]","18","0","","","","","","7","","","","","","","","",""
"","","","","","single-stim-button","261","426713","0.0-2.0-65.3-0.3","5c4d1a6c9ce35100019dbc88","D2","batch4","","454","tol_tohand","","","","tol_peg_2","454","454","0","[[2,0,0],[0,0],[1]]","4","[[0,0,0],[1,2],[3]]","18","0","","","","","","7","","","","","","","","",""
"","","","","","single-stim-button","262","427103","0.0-2.0-65.3-1.3","5c4d1a6c9ce35100019dbc88","D2","batch4","","385","tol_toboard","","","","tol_peg_1","385","385","0","[[2,3,0],[0,0],[1]]","4","[[0,0,0],[1,2],[3]]","18","0","","","","","","7","","","","","","","","",""
"","","","","","single-stim-button","263","427605","0.0-2.0-65.4-0.4","5c4d1a6c9ce35100019dbc88","D2","batch4","","499","tol_tohand","","","","tol_peg_3","499","499","0","[[2,3,0],[0,0],[0]]","5","[[0,0,0],[1,2],[3]]","18","0","","","","","","7","","","","","","","","",""
"","","","","","single-stim-button","264","428089","0.0-2.0-65.4-1.4","5c4d1a6c9ce35100019dbc88","D2","batch4","","482","tol_toboard","","","","tol_peg_2","482","482","0","[[2,3,0],[1,0],[0]]","5","[[0,0,0],[1,2],[3]]","18","0","","","","","","7","","","","","","","","",""
"","","","","","single-stim-button","265","428541","0.0-2.0-65.5-0.5","5c4d1a6c9ce35100019dbc88","D2","batch4","","448","tol_tohand","","","","tol_peg_1","448","448","0","[[2,0,0],[1,0],[0]]","6","[[0,0,0],[1,2],[3]]","18","0","","","","","","7","","","","","","","","",""
"","","","","","single-stim-button","266","429054","0.0-2.0-65.5-1.5","5c4d1a6c9ce35100019dbc88","D2","batch4","","509","tol_toboard","","","","tol_peg_3","509","509","0","[[2,0,0],[1,0],[3]]","6","[[0,0,0],[1,2],[3]]","18","0","","","","","","7","","","","","","","","",""
"","","","","","single-stim-button","267","429590","0.0-2.0-65.6-0.6","5c4d1a6c9ce35100019dbc88","D2","batch4","","532","tol_tohand","","","","tol_peg_1","532","532","0","[[0,0,0],[1,0],[3]]","7","[[0,0,0],[1,2],[3]]","18","0","","","","","","7","","","","","","","","",""
"","","","","","single-stim-button","268","429890","0.0-2.0-65.6-1.6","5c4d1a6c9ce35100019dbc88","D2","batch4","","296","tol_toboard","","","","tol_peg_2","296","296","0","[[0,0,0],[1,2],[3]]","7","[[0,0,0],[1,2],[3]]","18","0","","","","","","7","","","","","","","","",""
"","","","","","poldrack-single-stim","269","430899","0.0-2.0-66.0","5c4d1a6c9ce35100019dbc88","D2","batch4","","-1","tol_feedback","","","true","","1000","1000","500","","","","","","-1","none","true","33235","36020","","","","","","","","","",""
"","","","","","html-button-response","270","431496","0.0-2.0-67.0","5c4d1a6c9ce35100019dbc88","D2","batch4","","594","tol_trial_num","<div class = centerbox><p class = center-block-text>problem <strong>20</strong> out of 25 problems</p></div>","0","","","","","","","","","","","","","","","","","","","","","","","","",""
"","","","","","single-stim-button","271","442144","0.0-2.0-68.0-0.0","5c4d1a6c9ce35100019dbc88","D2","batch4","","10644","tol_tohand","","","","tol_peg_1","10644","10644","0","[[1,0,0],[3,0],[0]]","1","[[2,1,0],[0,0],[3]]","19","0","","","","","","5","","","","","","","","",""
"","","","","","single-stim-button","272","442908","0.0-2.0-68.0-1.0","5c4d1a6c9ce35100019dbc88","D2","batch4","","759","tol_toboard","","","","tol_peg_3","759","759","0","[[1,0,0],[3,0],[2]]","1","[[2,1,0],[0,0],[3]]","19","0","","","","","","5","","","","","","","","",""
"","","","","","single-stim-button","273","443591","0.0-2.0-68.1-0.1","5c4d1a6c9ce35100019dbc88","D2","batch4","","680","tol_tohand","","","","tol_peg_1","680","680","0","[[0,0,0],[3,0],[2]]","2","[[2,1,0],[0,0],[3]]","19","0","","","","","","5","","","","","","","","",""
"","","","","","single-stim-button","274","444072","0.0-2.0-68.1-1.1","5c4d1a6c9ce35100019dbc88","D2","batch4","","478","tol_toboard","","","","tol_peg_2","478","478","0","[[0,0,0],[3,1],[2]]","2","[[2,1,0],[0,0],[3]]","19","0","","","","","","5","","","","","","","","",""
"","","","","","single-stim-button","275","444563","0.0-2.0-68.2-0.2","5c4d1a6c9ce35100019dbc88","D2","batch4","","488","tol_tohand","","","","tol_peg_3","488","488","0","[[0,0,0],[3,1],[0]]","3","[[2,1,0],[0,0],[3]]","19","0","","","","","","5","","","","","","","","",""
"","","","","","single-stim-button","276","445076","0.0-2.0-68.2-1.2","5c4d1a6c9ce35100019dbc88","D2","batch4","","509","tol_toboard","","","","tol_peg_1","509","509","0","[[2,0,0],[3,1],[0]]","3","[[2,1,0],[0,0],[3]]","19","0","","","","","","5","","","","","","","","",""
"","","","","","single-stim-button","277","445465","0.0-2.0-68.3-0.3","5c4d1a6c9ce35100019dbc88","D2","batch4","","386","tol_tohand","","","","tol_peg_2","386","386","0","[[2,0,0],[3,0],[0]]","4","[[2,1,0],[0,0],[3]]","19","0","","","","","","5","","","","","","","","",""
"","","","","","single-stim-button","278","445862","0.0-2.0-68.3-1.3","5c4d1a6c9ce35100019dbc88","D2","batch4","","394","tol_toboard","","","","tol_peg_1","394","394","0","[[2,1,0],[3,0],[0]]","4","[[2,1,0],[0,0],[3]]","19","0","","","","","","5","","","","","","","","",""
"","","","","","single-stim-button","279","446258","0.0-2.0-68.4-0.4","5c4d1a6c9ce35100019dbc88","D2","batch4","","393","tol_tohand","","","","tol_peg_2","393","393","0","[[2,1,0],[0,0],[0]]","5","[[2,1,0],[0,0],[3]]","19","0","","","","","","5","","","","","","","","",""
"","","","","","single-stim-button","280","446671","0.0-2.0-68.4-1.4","5c4d1a6c9ce35100019dbc88","D2","batch4","","409","tol_toboard","","","","tol_peg_3","409","409","0","[[2,1,0],[0,0],[3]]","5","[[2,1,0],[0,0],[3]]","19","0","","","","","","5","","","","","","","","",""
"","","","","","poldrack-single-stim","281","447678","0.0-2.0-69.0","5c4d1a6c9ce35100019dbc88","D2","batch4","","-1","tol_feedback","","","true","","1000","1000","500","","","","","","-1","none","true","10644","12591","","","","","","","","","",""
"","","","","","html-button-response","282","448279","0.0-2.0-70.0","5c4d1a6c9ce35100019dbc88","D2","batch4","","598.2000000001863","tol_trial_num","<div class = centerbox><p class = center-block-text>problem <strong>21</strong> out of 25 problems</p></div>","0","","","","","","","","","","","","","","","","","","","","","","","","",""
"","","","","","single-stim-button","283","463676","0.0-2.0-71.0-0.0","5c4d1a6c9ce35100019dbc88","D2","batch4","","15394","tol_tohand","","","","tol_peg_2","15394","15394","0","[[1,2,0],[0,0],[0]]","1","[[3,2,0],[0,0],[1]]","20","0","","","","","","6","","","","","","","","",""
"","","","","","single-stim-button","284","464189","0.0-2.0-71.0-1.0","5c4d1a6c9ce35100019dbc88","D2","batch4","","510","tol_toboard","","","","tol_peg_3","510","510","0","[[1,2,0],[0,0],[3]]","1","[[3,2,0],[0,0],[1]]","20","0","","","","","","6","","","","","","","","",""
"","","","","","single-stim-button","285","464695","0.0-2.0-71.1-0.1","5c4d1a6c9ce35100019dbc88","D2","batch4","","503","tol_tohand","","","","tol_peg_1","503","503","0","[[1,0,0],[0,0],[3]]","2","[[3,2,0],[0,0],[1]]","20","0","","","","","","6","","","","","","","","",""
"","","","","","single-stim-button","286","465252","0.0-2.0-71.1-1.1","5c4d1a6c9ce35100019dbc88","D2","batch4","","555","tol_toboard","","","","tol_peg_2","555","555","0","[[1,0,0],[2,0],[3]]","2","[[3,2,0],[0,0],[1]]","20","0","","","","","","6","","","","","","","","",""
"","","","","","single-stim-button","287","465644","0.0-2.0-71.2-0.2","5c4d1a6c9ce35100019dbc88","D2","batch4","","389","tol_tohand","","","","tol_peg_1","389","389","0","[[0,0,0],[2,0],[3]]","3","[[3,2,0],[0,0],[1]]","20","0","","","","","","6","","","","","","","","",""
"","","","","","single-stim-button","288","466126","0.0-2.0-71.2-1.2","5c4d1a6c9ce35100019dbc88","D2","batch4","","479","tol_toboard","","","","tol_peg_2","479","479","0","[[0,0,0],[2,1],[3]]","3","[[3,2,0],[0,0],[1]]","20","0","","","","","","6","","","","","","","","",""
"","","","","","single-stim-button","289","466515","0.0-2.0-71.3-0.3","5c4d1a6c9ce35100019dbc88","D2","batch4","","385","tol_tohand","","","","tol_peg_3","385","385","0","[[0,0,0],[2,1],[0]]","4","[[3,2,0],[0,0],[1]]","20","0","","","","","","6","","","","","","","","",""
"","","","","","single-stim-button","290","467051","0.0-2.0-71.3-1.3","5c4d1a6c9ce35100019dbc88","D2","batch4","","533","tol_toboard","","","","tol_peg_1","533","533","0","[[3,0,0],[2,1],[0]]","4","[[3,2,0],[0,0],[1]]","20","0","","","","","","6","","","","","","","","",""
"","","","","","single-stim-button","291","467447","0.0-2.0-71.4-0.4","5c4d1a6c9ce35100019dbc88","D2","batch4","","392","tol_tohand","","","","tol_peg_2","392","392","0","[[3,0,0],[2,0],[0]]","5","[[3,2,0],[0,0],[1]]","20","0","","","","","","6","","","","","","","","",""
"","","","","","single-stim-button","292","467985","0.0-2.0-71.4-1.4","5c4d1a6c9ce35100019dbc88","D2","batch4","","534","tol_toboard","","","","tol_peg_3","534","534","0","[[3,0,0],[2,0],[1]]","5","[[3,2,0],[0,0],[1]]","20","0","","","","","","6","","","","","","","","",""
"","","","","","single-stim-button","293","468350","0.0-2.0-71.5-0.5","5c4d1a6c9ce35100019dbc88","D2","batch4","","361","tol_tohand","","","","tol_peg_2","361","361","0","[[3,0,0],[0,0],[1]]","6","[[3,2,0],[0,0],[1]]","20","0","","","","","","6","","","","","","","","",""
"","","","","","single-stim-button","294","468670","0.0-2.0-71.5-1.5","5c4d1a6c9ce35100019dbc88","D2","batch4","","316","tol_toboard","","","","tol_peg_1","316","316","0","[[3,2,0],[0,0],[1]]","6","[[3,2,0],[0,0],[1]]","20","0","","","","","","6","","","","","","","","",""
"","","","","","poldrack-single-stim","295","469678","0.0-2.0-72.0","5c4d1a6c9ce35100019dbc88","D2","batch4","","-1","tol_feedback","","","true","","1000","1000","500","","","","","","-1","none","true","15394","17424","","","","","","","","","",""
"","","","","","html-button-response","296","470162","0.0-2.0-73.0","5c4d1a6c9ce35100019dbc88","D2","batch4","","480.30000000004657","tol_trial_num","<div class = centerbox><p class = center-block-text>problem <strong>22</strong> out of 25 problems</p></div>","0","","","","","","","","","","","","","","","","","","","","","","","","",""
"","","","","","single-stim-button","297","483557","0.0-2.0-74.0-0.0","5c4d1a6c9ce35100019dbc88","D2","batch4","","13392","tol_tohand","","","","tol_peg_1","13392","13392","0","[[0,0,0],[2,3],[0]]","1","[[0,0,0],[1,2],[3]]","21","0","","","","","","6","","","","","","","","",""
"","","","","","single-stim-button","298","484203","0.0-2.0-74.0-1.0","5c4d1a6c9ce35100019dbc88","D2","batch4","","642","tol_toboard","","","","tol_peg_3","642","642","0","[[0,0,0],[2,3],[1]]","1","[[0,0,0],[1,2],[3]]","21","0","","","","","","6","","","","","","","","",""
"","","","","","single-stim-button","299","484603","0.0-2.0-74.1-0.1","5c4d1a6c9ce35100019dbc88","D2","batch4","","395","tol_tohand","","","","tol_peg_2","395","395","0","[[0,0,0],[2,0],[1]]","2","[[0,0,0],[1,2],[3]]","21","0","","","","","","6","","","","","","","","",""
"","","","","","single-stim-button","300","485128","0.0-2.0-74.1-1.1","5c4d1a6c9ce35100019dbc88","D2","batch4","","521","tol_toboard","","","","tol_peg_1","521","521","0","[[3,0,0],[2,0],[1]]","2","[[0,0,0],[1,2],[3]]","21","0","","","","","","6","","","","","","","","",""
"","","","","","single-stim-button","301","485524","0.0-2.0-74.2-0.2","5c4d1a6c9ce35100019dbc88","D2","batch4","","393","tol_tohand","","","","tol_peg_2","393","393","0","[[3,0,0],[0,0],[1]]","3","[[0,0,0],[1,2],[3]]","21","0","","","","","","6","","","","","","","","",""
"","","","","","single-stim-button","302","486309","0.0-2.0-74.2-1.2","5c4d1a6c9ce35100019dbc88","D2","batch4","","782","tol_toboard","","","","tol_peg_1","782","782","0","[[3,2,0],[0,0],[1]]","3","[[0,0,0],[1,2],[3]]","21","0","","","","","","6","","","","","","","","",""
"","","","","","single-stim-button","303","486864","0.0-2.0-74.3-0.3","5c4d1a6c9ce35100019dbc88","D2","batch4","","552","tol_tohand","","","","tol_peg_3","552","552","0","[[3,2,0],[0,0],[0]]","4","[[0,0,0],[1,2],[3]]","21","0","","","","","","6","","","","","","","","",""
"","","","","","single-stim-button","304","487422","0.0-2.0-74.3-1.3","5c4d1a6c9ce35100019dbc88","D2","batch4","","555","tol_toboard","","","","tol_peg_2","555","555","0","[[3,2,0],[1,0],[0]]","4","[[0,0,0],[1,2],[3]]","21","0","","","","","","6","","","","","","","","",""
"","","","","","single-stim-button","305","487890","0.0-2.0-74.4-0.4","5c4d1a6c9ce35100019dbc88","D2","batch4","","465","tol_tohand","","","","tol_peg_1","465","465","0","[[3,0,0],[1,0],[0]]","5","[[0,0,0],[1,2],[3]]","21","0","","","","","","6","","","","","","","","",""
"","","","","","single-stim-button","306","488396","0.0-2.0-74.4-1.4","5c4d1a6c9ce35100019dbc88","D2","batch4","","503","tol_toboard","","","","tol_peg_2","503","503","0","[[3,0,0],[1,2],[0]]","5","[[0,0,0],[1,2],[3]]","21","0","","","","","","6","","","","","","","","",""
"","","","","","single-stim-button","307","488800","0.0-2.0-74.5-0.5","5c4d1a6c9ce35100019dbc88","D2","batch4","","401","tol_tohand","","","","tol_peg_1","401","401","0","[[0,0,0],[1,2],[0]]","6","[[0,0,0],[1,2],[3]]","21","0","","","","","","6","","","","","","","","",""
"","","","","","single-stim-button","308","489303","0.0-2.0-74.5-1.5","5c4d1a6c9ce35100019dbc88","D2","batch4","","500","tol_toboard","","","","tol_peg_3","500","500","0","[[0,0,0],[1,2],[3]]","6","[[0,0,0],[1,2],[3]]","21","0","","","","","","6","","","","","","","","",""
"","","","","","poldrack-single-stim","309","490309","0.0-2.0-75.0","5c4d1a6c9ce35100019dbc88","D2","batch4","","-1","tol_feedback","","","true","","1000","1000","500","","","","","","-1","none","true","13392","15598","","","","","","","","","",""
"","","","","","html-button-response","310","490836","0.0-2.0-76.0","5c4d1a6c9ce35100019dbc88","D2","batch4","","523.3999999999069","tol_trial_num","<div class = centerbox><p class = center-block-text>problem <strong>23</strong> out of 25 problems</p></div>","0","","","","","","","","","","","","","","","","","","","","","","","","",""
"","","","","","single-stim-button","311","493708","0.0-2.0-77.0-0.0","5c4d1a6c9ce35100019dbc88","D2","batch4","","2868","tol_tohand","","","","tol_peg_1","2868","2868","0","[[1,0,0],[3,0],[0]]","1","[[1,3,2],[0,0],[0]]","22","0","","","","","","3","","","","","","","","",""
"","","","","","single-stim-button","312","494399","0.0-2.0-77.0-1.0","5c4d1a6c9ce35100019dbc88","D2","batch4","","687","tol_toboard","","","","tol_peg_3","687","687","0","[[1,0,0],[3,0],[2]]","1","[[1,3,2],[0,0],[0]]","22","0","","","","","","3","","","","","","","","",""
"","","","","","single-stim-button","313","494923","0.0-2.0-77.1-0.1","5c4d1a6c9ce35100019dbc88","D2","batch4","","521","tol_tohand","","","","tol_peg_2","521","521","0","[[1,0,0],[0,0],[2]]","2","[[1,3,2],[0,0],[0]]","22","0","","","","","","3","","","","","","","","",""
"","","","","","single-stim-button","314","495248","0.0-2.0-77.1-1.1","5c4d1a6c9ce35100019dbc88","D2","batch4","","322","tol_toboard","","","","tol_peg_1","322","322","0","[[1,3,0],[0,0],[2]]","2","[[1,3,2],[0,0],[0]]","22","0","","","","","","3","","","","","","","","",""
"","","","","","single-stim-button","315","495729","0.0-2.0-77.2-0.2","5c4d1a6c9ce35100019dbc88","D2","batch4","","477","tol_tohand","","","","tol_peg_3","477","477","0","[[1,3,0],[0,0],[0]]","3","[[1,3,2],[0,0],[0]]","22","0","","","","","","3","","","","","","","","",""
"","","","","","single-stim-button","316","496212","0.0-2.0-77.2-1.2","5c4d1a6c9ce35100019dbc88","D2","batch4","","480","tol_toboard","","","","tol_peg_1","480","480","0","[[1,3,2],[0,0],[0]]","3","[[1,3,2],[0,0],[0]]","22","0","","","","","","3","","","","","","","","",""
"","","","","","poldrack-single-stim","317","497222","0.0-2.0-78.0","5c4d1a6c9ce35100019dbc88","D2","batch4","","-1","tol_feedback","","","true","","1000","1000","500","","","","","","-1","none","true","2868","3866","","","","","","","","","",""
"","","","","","html-button-response","318","497789","0.0-2.0-79.0","5c4d1a6c9ce35100019dbc88","D2","batch4","","564.3999999999069","tol_trial_num","<div class = centerbox><p class = center-block-text>problem <strong>24</strong> out of 25 problems</p></div>","0","","","","","","","","","","","","","","","","","","","","","","","","",""
"","","","","","single-stim-button","319","535493","0.0-2.0-80.0-0.0","5c4d1a6c9ce35100019dbc88","D2","batch4","","37701","tol_tohand","","","","tol_peg_2","37701","37701","0","[[0,0,0],[2,0],[1]]","1","[[2,0,0],[3,0],[1]]","23","0","","","","","","7","","","","","","","","",""
"","","","","","single-stim-button","320","535981","0.0-2.0-80.0-1.0","5c4d1a6c9ce35100019dbc88","D2","batch4","","485","tol_toboard","","","","tol_peg_1","485","485","0","[[3,0,0],[2,0],[1]]","1","[[2,0,0],[3,0],[1]]","23","0","","","","","","7","","","","","","","","",""
"","","","","","single-stim-button","321","536370","0.0-2.0-80.1-0.1","5c4d1a6c9ce35100019dbc88","D2","batch4","","385","tol_tohand","","","","tol_peg_2","385","385","0","[[3,0,0],[0,0],[1]]","2","[[2,0,0],[3,0],[1]]","23","0","","","","","","7","","","","","","","","",""
"","","","","","single-stim-button","322","536790","0.0-2.0-80.1-1.1","5c4d1a6c9ce35100019dbc88","D2","batch4","","416","tol_toboard","","","","tol_peg_1","416","416","0","[[3,2,0],[0,0],[1]]","2","[[2,0,0],[3,0],[1]]","23","0","","","","","","7","","","","","","","","",""
"","","","","","single-stim-button","323","537980","0.0-2.0-80.2-0.2","5c4d1a6c9ce35100019dbc88","D2","batch4","","1187","tol_tohand","","","","tol_peg_3","1187","1187","0","[[3,2,0],[0,0],[0]]","3","[[2,0,0],[3,0],[1]]","23","0","","","","","","7","","","","","","","","",""
"","","","","","single-stim-button","324","538524","0.0-2.0-80.2-1.2","5c4d1a6c9ce35100019dbc88","D2","batch4","","540","tol_toboard","","","","tol_peg_2","540","540","0","[[3,2,0],[1,0],[0]]","3","[[2,0,0],[3,0],[1]]","23","0","","","","","","7","","","","","","","","",""
"","","","","","single-stim-button","325","539374","0.0-2.0-80.3-0.3","5c4d1a6c9ce35100019dbc88","D2","batch4","","848","tol_tohand","","","","tol_peg_1","848","848","0","[[3,0,0],[1,0],[0]]","4","[[2,0,0],[3,0],[1]]","23","0","","","","","","7","","","","","","","","",""
"","","","","","single-stim-button","326","540001","0.0-2.0-80.3-1.3","5c4d1a6c9ce35100019dbc88","D2","batch4","","624","tol_toboard","","","","tol_peg_3","624","624","0","[[3,0,0],[1,0],[2]]","4","[[2,0,0],[3,0],[1]]","23","0","","","","","","7","","","","","","","","",""
"","","","","","single-stim-button","327","540694","0.0-2.0-80.4-0.4","5c4d1a6c9ce35100019dbc88","D2","batch4","","689","tol_tohand","","","","tol_peg_1","689","689","0","[[0,0,0],[1,0],[2]]","5","[[2,0,0],[3,0],[1]]","23","0","","","","","","7","","","","","","","","",""
"","","","","","single-stim-button","328","541031","0.0-2.0-80.4-1.4","5c4d1a6c9ce35100019dbc88","D2","batch4","","332","tol_toboard","","","","tol_peg_2","332","332","0","[[0,0,0],[1,3],[2]]","5","[[2,0,0],[3,0],[1]]","23","0","","","","","","7","","","","","","","","",""
"","","","","","single-stim-button","329","541455","0.0-2.0-80.5-0.5","5c4d1a6c9ce35100019dbc88","D2","batch4","","422","tol_tohand","","","","tol_peg_3","422","422","0","[[0,0,0],[1,3],[0]]","6","[[2,0,0],[3,0],[1]]","23","0","","","","","","7","","","","","","","","",""
"","","","","","single-stim-button","330","542140","0.0-2.0-80.5-1.5","5c4d1a6c9ce35100019dbc88","D2","batch4","","682","tol_toboard","","","","tol_peg_1","682","682","0","[[2,0,0],[1,3],[0]]","6","[[2,0,0],[3,0],[1]]","23","0","","","","","","7","","","","","","","","",""
"","","","","","single-stim-button","331","542678","0.0-2.0-80.6-0.6","5c4d1a6c9ce35100019dbc88","D2","batch4","","535","tol_tohand","","","","tol_peg_2","535","535","0","[[2,0,0],[1,0],[0]]","7","[[2,0,0],[3,0],[1]]","23","0","","","","","","7","","","","","","","","",""
"","","","","","single-stim-button","332","544271","0.0-2.0-80.6-1.6","5c4d1a6c9ce35100019dbc88","D2","batch4","","1591","tol_toboard","","","","tol_peg_1","1591","1591","0","[[2,3,0],[1,0],[0]]","7","[[2,0,0],[3,0],[1]]","23","0","","","","","","7","","","","","","","","",""
"","","","","","single-stim-button","333","544717","0.0-2.0-80.7-0.7","5c4d1a6c9ce35100019dbc88","D2","batch4","","443","tol_tohand","","","","tol_peg_2","443","443","0","[[2,3,0],[0,0],[0]]","8","[[2,0,0],[3,0],[1]]","23","0","","","","","","7","","","","","","","","",""
"","","","","","single-stim-button","334","545120","0.0-2.0-80.7-1.7","5c4d1a6c9ce35100019dbc88","D2","batch4","","400","tol_toboard","","","","tol_peg_3","400","400","0","[[2,3,0],[0,0],[1]]","8","[[2,0,0],[3,0],[1]]","23","0","","","","","","7","","","","","","","","",""
"","","","","","single-stim-button","335","545813","0.0-2.0-80.8-0.8","5c4d1a6c9ce35100019dbc88","D2","batch4","","690","tol_tohand","","","","tol_peg_1","690","690","0","[[2,0,0],[0,0],[1]]","9","[[2,0,0],[3,0],[1]]","23","0","","","","","","7","","","","","","","","",""
"","","","","","single-stim-button","336","546179","0.0-2.0-80.8-1.8","5c4d1a6c9ce35100019dbc88","D2","batch4","","362","tol_toboard","","","","tol_peg_2","362","362","0","[[2,0,0],[3,0],[1]]","9","[[2,0,0],[3,0],[1]]","23","0","","","","","","7","","","","","","","","",""
"","","","","","poldrack-single-stim","337","547189","0.0-2.0-81.0","5c4d1a6c9ce35100019dbc88","D2","batch4","","-1","tol_feedback","","","true","","1000","1000","500","","","","","","-1","none","true","37701","42900","","","","","","","","","",""
"","","","","","html-button-response","338","547793","0.0-2.0-82.0","5c4d1a6c9ce35100019dbc88","D2","batch4","","601.5","tol_trial_num","<div class = centerbox><p class = center-block-text>problem <strong>25</strong> out of 25 problems</p></div>","0","","","","","","","","","","","","","","","","","","","","","","","","",""
"","","","","","single-stim-button","339","550500","0.0-2.0-83.0-0.0","5c4d1a6c9ce35100019dbc88","D2","batch4","","2705","tol_tohand","","","","tol_peg_1","2705","2705","0","[[1,0,0],[3,0],[0]]","1","[[3,0,0],[1,0],[2]]","24","0","","","","","","7","","","","","","","","",""
"","","","","","single-stim-button","340","552795","0.0-2.0-83.0-1.0","5c4d1a6c9ce35100019dbc88","D2","batch4","","2293","tol_toboard","","","","tol_peg_3","2293","2293","0","[[1,0,0],[3,0],[2]]","1","[[3,0,0],[1,0],[2]]","24","0","","","","","","7","","","","","","","","",""
"","","","","","single-stim-button","341","559148","0.0-2.0-83.1-0.1","5c4d1a6c9ce35100019dbc88","D2","batch4","","6351","tol_tohand","","","","tol_peg_1","6351","6351","0","[[0,0,0],[3,0],[2]]","2","[[3,0,0],[1,0],[2]]","24","0","","","","","","7","","","","","","","","",""
"","","","","","single-stim-button","342","562066","0.0-2.0-83.1-1.1","5c4d1a6c9ce35100019dbc88","D2","batch4","","2916","tol_toboard","","","","tol_peg_2","2916","2916","0","[[0,0,0],[3,1],[2]]","2","[[3,0,0],[1,0],[2]]","24","0","","","","","","7","","","","","","","","",""
"","","","","","single-stim-button","343","562516","0.0-2.0-83.2-0.2","5c4d1a6c9ce35100019dbc88","D2","batch4","","449","tol_tohand","","","","tol_peg_3","449","449","0","[[0,0,0],[3,1],[0]]","3","[[3,0,0],[1,0],[2]]","24","0","","","","","","7","","","","","","","","",""
"","","","","","single-stim-button","344","563030","0.0-2.0-83.2-1.2","5c4d1a6c9ce35100019dbc88","D2","batch4","","513","tol_toboard","","","","tol_peg_1","513","513","0","[[2,0,0],[3,1],[0]]","3","[[3,0,0],[1,0],[2]]","24","0","","","","","","7","","","","","","","","",""
"","","","","","single-stim-button","345","563389","0.0-2.0-83.3-0.3","5c4d1a6c9ce35100019dbc88","D2","batch4","","357","tol_tohand","","","","tol_peg_2","357","357","0","[[2,0,0],[3,0],[0]]","4","[[3,0,0],[1,0],[2]]","24","0","","","","","","7","","","","","","","","",""
"","","","","","single-stim-button","346","563870","0.0-2.0-83.3-1.3","5c4d1a6c9ce35100019dbc88","D2","batch4","","480","tol_toboard","","","","tol_peg_3","480","480","0","[[2,0,0],[3,0],[1]]","4","[[3,0,0],[1,0],[2]]","24","0","","","","","","7","","","","","","","","",""
"","","","","","single-stim-button","347","568163","0.0-2.0-83.4-0.4","5c4d1a6c9ce35100019dbc88","D2","batch4","","4291","tol_tohand","","","","tol_peg_2","4291","4291","0","[[2,0,0],[0,0],[1]]","5","[[3,0,0],[1,0],[2]]","24","0","","","","","","7","","","","","","","","",""
"","","","","","single-stim-button","348","569680","0.0-2.0-83.4-1.4","5c4d1a6c9ce35100019dbc88","D2","batch4","","1515","tol_toboard","","","","tol_peg_2","1515","1515","0","[[2,0,0],[3,0],[1]]","5","[[3,0,0],[1,0],[2]]","24","0","","","","","","7","","","","","","","","",""
"","","","","","single-stim-button","349","570698","0.0-2.0-83.5-0.5","5c4d1a6c9ce35100019dbc88","D2","batch4","","1017","tol_tohand","","","","tol_peg_1","1017","1017","0","[[0,0,0],[3,0],[1]]","6","[[3,0,0],[1,0],[2]]","24","0","","","","","","7","","","","","","","","",""
"","","","","","single-stim-button","350","571214","0.0-2.0-83.5-1.5","5c4d1a6c9ce35100019dbc88","D2","batch4","","514","tol_toboard","","","","tol_peg_2","514","514","0","[[0,0,0],[3,2],[1]]","6","[[3,0,0],[1,0],[2]]","24","0","","","","","","7","","","","","","","","",""
"","","","","","single-stim-button","351","573258","0.0-2.0-83.6-0.6","5c4d1a6c9ce35100019dbc88","D2","batch4","","2042","tol_tohand","","","","tol_peg_2","2042","2042","0","[[0,0,0],[3,0],[1]]","7","[[3,0,0],[1,0],[2]]","24","0","","","","","","7","","","","","","","","",""
"","","","","","single-stim-button","352","573500","0.0-2.0-83.6-1.6","5c4d1a6c9ce35100019dbc88","D2","batch4","","241","tol_toboard","","","","tol_peg_1","241","241","0","[[2,0,0],[3,0],[1]]","7","[[3,0,0],[1,0],[2]]","24","0","","","","","","7","","","","","","","","",""
"","","","","","single-stim-button","353","573988","0.0-2.0-83.7-0.7","5c4d1a6c9ce35100019dbc88","D2","batch4","","486","tol_tohand","","","","tol_peg_2","486","486","0","[[2,0,0],[0,0],[1]]","8","[[3,0,0],[1,0],[2]]","24","0","","","","","","7","","","","","","","","",""
"","","","","","single-stim-button","354","574247","0.0-2.0-83.7-1.7","5c4d1a6c9ce35100019dbc88","D2","batch4","","257","tol_toboard","","","","tol_peg_1","257","257","0","[[2,3,0],[0,0],[1]]","8","[[3,0,0],[1,0],[2]]","24","0","","","","","","7","","","","","","","","",""
"","","","","","single-stim-button","355","574736","0.0-2.0-83.8-0.8","5c4d1a6c9ce35100019dbc88","D2","batch4","","487","tol_tohand","","","","tol_peg_3","487","487","0","[[2,3,0],[0,0],[0]]","9","[[3,0,0],[1,0],[2]]","24","0","","","","","","7","","","","","","","","",""
"","","","","","single-stim-button","356","575521","0.0-2.0-83.8-1.8","5c4d1a6c9ce35100019dbc88","D2","batch4","","783","tol_toboard","","","","tol_peg_2","783","783","0","[[2,3,0],[1,0],[0]]","9","[[3,0,0],[1,0],[2]]","24","0","","","","","","7","","","","","","","","",""
