"success","timeout","failed_images","failed_audio","failed_video","trial_type","trial_index","time_elapsed","internal_node_id","subject_id","study_id","session_id","task","rt","stimulus","response","item","answer","correct","spm_correct","spm_rt","view_history","mouse_click","stim_duration","block_duration","timing_post_trial","current_position","tol_num_moves_made","tol_target","tol_problem_id","tol_rt","key_press","possible_responses","tol_correct","preplanning","tol_rt_per_trial","tol_min_moves","fiar_detect_rt","fiar_detect_correct","total_correct_fiar_detect","post_trial_gap","choices"
"true","false","[]","[]","[]","preload","0","1435","0.0-0.0","5c50ccae2423780001085cb9","C3","batch3","","","","","","","","","","","","","","","","","","","","","","","","","","","","","",""
"true","","","","","fullscreen","1","11608","0.0-1.0-0.0","5c50ccae2423780001085cb9","C3","batch3","","","","","","","","","","","","","","","","","","","","","","","","","","","","","",""
"true","","","","","fullscreen","2","14672","0.0-2.0-0.0","5c50ccae2423780001085cb9","C3","batch3","spm_fullscreen","","","","","","","","","","","","","","","","","","","","","","","","","","","","",""
"","","","","","html-button-response","3","21745","0.0-2.0-1.0","5c50ccae2423780001085cb9","C3","batch3","","7070.29999999702","<p class = block-text><b>Instructions</b> <br>This is a widely used intelligence test in research. <br>In this test, a figure with a missing piece will be presented.<br>Below the figure are alternative pieces to complete the figure, only one of which is correct.<br> Different figures might involve different principles for obtaining the missing piece<br>Your job is to select the most logical piece to complete the figure.</p>","0","","","","","","","","","","","","","","","","","","","","","","","","","",""
"","","","","","html-keyboard-response","4","22552","0.0-2.0-2.0-0.0","5c50ccae2423780001085cb9","C3","batch3","spm_show_trial_num","null","<p class=block-text>Trial 1 out of 60</p>","null","","","","","","","","","","","","","","","","","","","","","","","","","",""
"","","","","","image-button-response","5","33483","0.0-2.0-2.0-1.0","5c50ccae2423780001085cb9","C3","batch3","spm_respsonse","10909.19999999553","img/question_1_1.jpeg","5","mat_01","4","0","0","10909.19999999553","","","","","","","","","","","","","","","","","","","","",""
"","","","","","html-keyboard-response","6","34539","0.0-2.0-2.0-0.1","5c50ccae2423780001085cb9","C3","batch3","spm_show_trial_num","null","<p class=block-text>Trial 2 out of 60</p>","null","","","","","","","","","","","","","","","","","","","","","","","","","",""
"","","","","","image-button-response","7","37941","0.0-2.0-2.0-1.1","5c50ccae2423780001085cb9","C3","batch3","spm_respsonse","3399","img/question_1_2.jpeg","4","mat_02","5","1","1","3399","","","","","","","","","","","","","","","","","","","","",""
"","","","","","html-keyboard-response","8","39000","0.0-2.0-2.0-0.2","5c50ccae2423780001085cb9","C3","batch3","spm_show_trial_num","null","<p class=block-text>Trial 3 out of 60</p>","null","","","","","","","","","","","","","","","","","","","","","","","","","",""
"","","","","","image-button-response","9","41419","0.0-2.0-2.0-1.2","5c50ccae2423780001085cb9","C3","batch3","spm_respsonse","2415.8000000044703","img/question_1_3.jpeg","0","mat_03","1","1","1","2415.8000000044703","","","","","","","","","","","","","","","","","","","","",""
"","","","","","html-keyboard-response","10","42481","0.0-2.0-2.0-0.3","5c50ccae2423780001085cb9","C3","batch3","spm_show_trial_num","null","<p class=block-text>Trial 4 out of 60</p>","null","","","","","","","","","","","","","","","","","","","","","","","","","",""
"","","","","","image-button-response","11","48321","0.0-2.0-2.0-1.3","5c50ccae2423780001085cb9","C3","batch3","spm_respsonse","5838.5999999940395","img/question_1_4.jpeg","1","mat_04","2","1","1","5838.5999999940395","","","","","","","","","","","","","","","","","","","","",""
"","","","","","html-keyboard-response","12","49384","0.0-2.0-2.0-0.4","5c50ccae2423780001085cb9","C3","batch3","spm_show_trial_num","null","<p class=block-text>Trial 5 out of 60</p>","null","","","","","","","","","","","","","","","","","","","","","","","","","",""
"","","","","","image-button-response","13","51869","0.0-2.0-2.0-1.4","5c50ccae2423780001085cb9","C3","batch3","spm_respsonse","2481.7999999970198","img/question_1_5.jpeg","5","mat_05","6","1","1","2481.7999999970198","","","","","","","","","","","","","","","","","","","","",""
"","","","","","html-keyboard-response","14","52928","0.0-2.0-2.0-0.5","5c50ccae2423780001085cb9","C3","batch3","spm_show_trial_num","null","<p class=block-text>Trial 6 out of 60</p>","null","","","","","","","","","","","","","","","","","","","","","","","","","",""
"","","","","","image-button-response","15","55064","0.0-2.0-2.0-1.5","5c50ccae2423780001085cb9","C3","batch3","spm_respsonse","2133","img/question_1_6.jpeg","2","mat_06","3","1","1","2133","","","","","","","","","","","","","","","","","","","","",""
"","","","","","html-keyboard-response","16","56128","0.0-2.0-2.0-0.6","5c50ccae2423780001085cb9","C3","batch3","spm_show_trial_num","null","<p class=block-text>Trial 7 out of 60</p>","null","","","","","","","","","","","","","","","","","","","","","","","","","",""
"","","","","","image-button-response","17","60045","0.0-2.0-2.0-1.6","5c50ccae2423780001085cb9","C3","batch3","spm_respsonse","3914.60000000149","img/question_1_7.jpeg","5","mat_07","6","1","1","3914.60000000149","","","","","","","","","","","","","","","","","","","","",""
"","","","","","html-keyboard-response","18","61104","0.0-2.0-2.0-0.7","5c50ccae2423780001085cb9","C3","batch3","spm_show_trial_num","null","<p class=block-text>Trial 8 out of 60</p>","null","","","","","","","","","","","","","","","","","","","","","","","","","",""
"","","","","","image-button-response","19","66710","0.0-2.0-2.0-1.7","5c50ccae2423780001085cb9","C3","batch3","spm_respsonse","5603.10000000149","img/question_1_8.jpeg","1","mat_08","2","1","1","5603.10000000149","","","","","","","","","","","","","","","","","","","","",""
"","","","","","html-keyboard-response","20","67777","0.0-2.0-2.0-0.8","5c50ccae2423780001085cb9","C3","batch3","spm_show_trial_num","null","<p class=block-text>Trial 9 out of 60</p>","null","","","","","","","","","","","","","","","","","","","","","","","","","",""
"","","","","","image-button-response","21","70118","0.0-2.0-2.0-1.8","5c50ccae2423780001085cb9","C3","batch3","spm_respsonse","2338.60000000149","img/question_1_9.jpeg","0","mat_09","1","1","1","2338.60000000149","","","","","","","","","","","","","","","","","","","","",""
"","","","","","html-keyboard-response","22","71184","0.0-2.0-2.0-0.9","5c50ccae2423780001085cb9","C3","batch3","spm_show_trial_num","null","<p class=block-text>Trial 10 out of 60</p>","null","","","","","","","","","","","","","","","","","","","","","","","","","",""
"","","","","","image-button-response","23","76751","0.0-2.0-2.0-1.9","5c50ccae2423780001085cb9","C3","batch3","spm_respsonse","5563.19999999553","img/question_1_10.jpeg","2","mat_10","3","1","1","5563.19999999553","","","","","","","","","","","","","","","","","","","","",""
"","","","","","html-keyboard-response","24","77816","0.0-2.0-2.0-0.10","5c50ccae2423780001085cb9","C3","batch3","spm_show_trial_num","null","<p class=block-text>Trial 11 out of 60</p>","null","","","","","","","","","","","","","","","","","","","","","","","","","",""
"","","","","","image-button-response","25","84451","0.0-2.0-2.0-1.10","5c50ccae2423780001085cb9","C3","batch3","spm_respsonse","6631.5","img/question_1_11.jpeg","3","mat_11","4","1","1","6631.5","","","","","","","","","","","","","","","","","","","","",""
"","","","","","html-keyboard-response","26","85512","0.0-2.0-2.0-0.11","5c50ccae2423780001085cb9","C3","batch3","spm_show_trial_num","null","<p class=block-text>Trial 12 out of 60</p>","null","","","","","","","","","","","","","","","","","","","","","","","","","",""
"","","","","","image-button-response","27","91608","0.0-2.0-2.0-1.11","5c50ccae2423780001085cb9","C3","batch3","spm_respsonse","6093.70000000298","img/question_1_12.jpeg","1","mat_12","5","0","0","6093.70000000298","","","","","","","","","","","","","","","","","","","","",""
"","","","","","html-keyboard-response","28","92672","0.0-2.0-2.0-0.12","5c50ccae2423780001085cb9","C3","batch3","spm_show_trial_num","null","<p class=block-text>Trial 13 out of 60</p>","null","","","","","","","","","","","","","","","","","","","","","","","","","",""
"","","","","","image-button-response","29","94993","0.0-2.0-2.0-1.12","5c50ccae2423780001085cb9","C3","batch3","spm_respsonse","2317.7999999970198","img/question_2_1.jpeg","1","mat_13","2","1","1","2317.7999999970198","","","","","","","","","","","","","","","","","","","","",""
"","","","","","html-keyboard-response","30","96056","0.0-2.0-2.0-0.13","5c50ccae2423780001085cb9","C3","batch3","spm_show_trial_num","null","<p class=block-text>Trial 14 out of 60</p>","null","","","","","","","","","","","","","","","","","","","","","","","","","",""
"","","","","","image-button-response","31","100475","0.0-2.0-2.0-1.13","5c50ccae2423780001085cb9","C3","batch3","spm_respsonse","4416.70000000298","img/question_2_2.jpeg","5","mat_14","6","1","1","4416.70000000298","","","","","","","","","","","","","","","","","","","","",""
"","","","","","html-keyboard-response","32","101536","0.0-2.0-2.0-0.14","5c50ccae2423780001085cb9","C3","batch3","spm_show_trial_num","null","<p class=block-text>Trial 15 out of 60</p>","null","","","","","","","","","","","","","","","","","","","","","","","","","",""
"","","","","","image-button-response","33","104131","0.0-2.0-2.0-1.14","5c50ccae2423780001085cb9","C3","batch3","spm_respsonse","2592.1999999955297","img/question_2_3.jpeg","0","mat_15","1","1","1","2592.1999999955297","","","","","","","","","","","","","","","","","","","","",""
"","","","","","html-keyboard-response","34","105192","0.0-2.0-2.0-0.15","5c50ccae2423780001085cb9","C3","batch3","spm_show_trial_num","null","<p class=block-text>Trial 16 out of 60</p>","null","","","","","","","","","","","","","","","","","","","","","","","","","",""
"","","","","","image-button-response","35","108058","0.0-2.0-2.0-1.15","5c50ccae2423780001085cb9","C3","batch3","spm_respsonse","2863.2999999970198","img/question_2_4.jpeg","1","mat_16","2","1","1","2863.2999999970198","","","","","","","","","","","","","","","","","","","","",""
"","","","","","html-keyboard-response","36","109120","0.0-2.0-2.0-0.16","5c50ccae2423780001085cb9","C3","batch3","spm_show_trial_num","null","<p class=block-text>Trial 17 out of 60</p>","null","","","","","","","","","","","","","","","","","","","","","","","","","",""
"","","","","","image-button-response","37","112327","0.0-2.0-2.0-1.16","5c50ccae2423780001085cb9","C3","batch3","spm_respsonse","3203.8000000044703","img/question_2_5.jpeg","0","mat_17","1","1","1","3203.8000000044703","","","","","","","","","","","","","","","","","","","","",""
"","","","","","html-keyboard-response","38","113392","0.0-2.0-2.0-0.17","5c50ccae2423780001085cb9","C3","batch3","spm_show_trial_num","null","<p class=block-text>Trial 18 out of 60</p>","null","","","","","","","","","","","","","","","","","","","","","","","","","",""
"","","","","","image-button-response","39","120439","0.0-2.0-2.0-1.17","5c50ccae2423780001085cb9","C3","batch3","spm_respsonse","7044.39999999851","img/question_2_6.jpeg","2","mat_18","3","1","1","7044.39999999851","","","","","","","","","","","","","","","","","","","","",""
"","","","","","html-keyboard-response","40","121504","0.0-2.0-2.0-0.18","5c50ccae2423780001085cb9","C3","batch3","spm_show_trial_num","null","<p class=block-text>Trial 19 out of 60</p>","null","","","","","","","","","","","","","","","","","","","","","","","","","",""
"","","","","","image-button-response","41","128527","0.0-2.0-2.0-1.18","5c50ccae2423780001085cb9","C3","batch3","spm_respsonse","7020.19999999553","img/question_2_7.jpeg","4","mat_19","5","1","1","7020.19999999553","","","","","","","","","","","","","","","","","","","","",""
"","","","","","html-keyboard-response","42","129592","0.0-2.0-2.0-0.19","5c50ccae2423780001085cb9","C3","batch3","spm_show_trial_num","null","<p class=block-text>Trial 20 out of 60</p>","null","","","","","","","","","","","","","","","","","","","","","","","","","",""
"","","","","","image-button-response","43","134922","0.0-2.0-2.0-1.19","5c50ccae2423780001085cb9","C3","batch3","spm_respsonse","5326.60000000149","img/question_2_8.jpeg","5","mat_20","6","1","1","5326.60000000149","","","","","","","","","","","","","","","","","","","","",""
"","","","","","html-keyboard-response","44","135984","0.0-2.0-2.0-0.20","5c50ccae2423780001085cb9","C3","batch3","spm_show_trial_num","null","<p class=block-text>Trial 21 out of 60</p>","null","","","","","","","","","","","","","","","","","","","","","","","","","",""
"","","","","","image-button-response","45","139605","0.0-2.0-2.0-1.20","5c50ccae2423780001085cb9","C3","batch3","spm_respsonse","3617.7000000029802","img/question_2_9.jpeg","3","mat_21","4","1","1","3617.7000000029802","","","","","","","","","","","","","","","","","","","","",""
"","","","","","html-keyboard-response","46","140664","0.0-2.0-2.0-0.21","5c50ccae2423780001085cb9","C3","batch3","spm_show_trial_num","null","<p class=block-text>Trial 22 out of 60</p>","null","","","","","","","","","","","","","","","","","","","","","","","","","",""
"","","","","","image-button-response","47","145718","0.0-2.0-2.0-1.21","5c50ccae2423780001085cb9","C3","batch3","spm_respsonse","5050.10000000149","img/question_2_10.jpeg","2","mat_22","3","1","1","5050.10000000149","","","","","","","","","","","","","","","","","","","","",""
"","","","","","html-keyboard-response","48","146784","0.0-2.0-2.0-0.22","5c50ccae2423780001085cb9","C3","batch3","spm_show_trial_num","null","<p class=block-text>Trial 23 out of 60</p>","null","","","","","","","","","","","","","","","","","","","","","","","","","",""
"","","","","","image-button-response","49","154223","0.0-2.0-2.0-1.22","5c50ccae2423780001085cb9","C3","batch3","spm_respsonse","7435.60000000149","img/question_2_11.jpeg","3","mat_23","4","1","1","7435.60000000149","","","","","","","","","","","","","","","","","","","","",""
"","","","","","html-keyboard-response","50","155288","0.0-2.0-2.0-0.23","5c50ccae2423780001085cb9","C3","batch3","spm_show_trial_num","null","<p class=block-text>Trial 24 out of 60</p>","null","","","","","","","","","","","","","","","","","","","","","","","","","",""
"","","","","","image-button-response","51","167690","0.0-2.0-2.0-1.23","5c50ccae2423780001085cb9","C3","batch3","spm_respsonse","12398.20000000298","img/question_2_12.jpeg","4","mat_24","5","1","1","12398.20000000298","","","","","","","","","","","","","","","","","","","","",""
"","","","","","html-button-response","52","169441","0.0-2.0-3.0","5c50ccae2423780001085cb9","C3","batch3","attention_check","1495.3999999985099","<p class = block-text>Attention check: Please choose 1<br></p>","0","","","true","","","","","","","","","","","","","","","","","","","","","","",""
"","","","","","html-keyboard-response","53","170248","0.0-2.0-4.0-0.0","5c50ccae2423780001085cb9","C3","batch3","spm_show_trial_num","null","<p class=block-text>Trial 25 out of 60</p>","null","","","","","","","","","","","","","","","","","","","","","","","","","",""
"","","","","","image-button-response","54","173633","0.0-2.0-4.0-1.0","5c50ccae2423780001085cb9","C3","batch3","spm_respsonse","3381.4000000059605","img/question_3_1.jpeg","7","mat_25","8","1","1","3381.4000000059605","","","","","","","","","","","","","","","","","","","","",""
"","","","","","html-keyboard-response","55","174696","0.0-2.0-4.0-0.1","5c50ccae2423780001085cb9","C3","batch3","spm_show_trial_num","null","<p class=block-text>Trial 26 out of 60</p>","null","","","","","","","","","","","","","","","","","","","","","","","","","",""
"","","","","","image-button-response","56","179642","0.0-2.0-4.0-1.1","5c50ccae2423780001085cb9","C3","batch3","spm_respsonse","4943.5","img/question_3_2.jpeg","1","mat_26","2","1","1","4943.5","","","","","","","","","","","","","","","","","","","","",""
"","","","","","html-keyboard-response","57","180704","0.0-2.0-4.0-0.2","5c50ccae2423780001085cb9","C3","batch3","spm_show_trial_num","null","<p class=block-text>Trial 27 out of 60</p>","null","","","","","","","","","","","","","","","","","","","","","","","","","",""
"","","","","","image-button-response","58","188305","0.0-2.0-4.0-1.2","5c50ccae2423780001085cb9","C3","batch3","spm_respsonse","7597.89999999851","img/question_3_3.jpeg","2","mat_27","3","1","1","7597.89999999851","","","","","","","","","","","","","","","","","","","","",""
"","","","","","html-keyboard-response","59","189368","0.0-2.0-4.0-0.3","5c50ccae2423780001085cb9","C3","batch3","spm_show_trial_num","null","<p class=block-text>Trial 28 out of 60</p>","null","","","","","","","","","","","","","","","","","","","","","","","","","",""
"","","","","","image-button-response","60","202115","0.0-2.0-4.0-1.3","5c50ccae2423780001085cb9","C3","batch3","spm_respsonse","12743.69999999553","img/question_3_4.jpeg","7","mat_28","8","1","1","12743.69999999553","","","","","","","","","","","","","","","","","","","","",""
"","","","","","html-keyboard-response","61","203176","0.0-2.0-4.0-0.4","5c50ccae2423780001085cb9","C3","batch3","spm_show_trial_num","null","<p class=block-text>Trial 29 out of 60</p>","null","","","","","","","","","","","","","","","","","","","","","","","","","",""
"","","","","","image-button-response","62","212382","0.0-2.0-4.0-1.4","5c50ccae2423780001085cb9","C3","batch3","spm_respsonse","9202.60000000149","img/question_3_5.jpeg","6","mat_29","7","1","1","9202.60000000149","","","","","","","","","","","","","","","","","","","","",""
"","","","","","html-keyboard-response","63","213448","0.0-2.0-4.0-0.5","5c50ccae2423780001085cb9","C3","batch3","spm_show_trial_num","null","<p class=block-text>Trial 30 out of 60</p>","null","","","","","","","","","","","","","","","","","","","","","","","","","",""
"","","","","","image-button-response","64","221976","0.0-2.0-4.0-1.5","5c50ccae2423780001085cb9","C3","batch3","spm_respsonse","8524.69999999553","img/question_3_6.jpeg","3","mat_30","4","1","1","8524.69999999553","","","","","","","","","","","","","","","","","","","","",""
"","","","","","html-keyboard-response","65","223040","0.0-2.0-4.0-0.6","5c50ccae2423780001085cb9","C3","batch3","spm_show_trial_num","null","<p class=block-text>Trial 31 out of 60</p>","null","","","","","","","","","","","","","","","","","","","","","","","","","",""
"","","","","","image-button-response","66","231663","0.0-2.0-4.0-1.6","5c50ccae2423780001085cb9","C3","batch3","spm_respsonse","8619.70000000298","img/question_3_7.jpeg","4","mat_31","5","1","1","8619.70000000298","","","","","","","","","","","","","","","","","","","","",""
"","","","","","html-keyboard-response","67","232728","0.0-2.0-4.0-0.7","5c50ccae2423780001085cb9","C3","batch3","spm_show_trial_num","null","<p class=block-text>Trial 32 out of 60</p>","null","","","","","","","","","","","","","","","","","","","","","","","","","",""
"","","","","","image-button-response","68","254249","0.0-2.0-4.0-1.7","5c50ccae2423780001085cb9","C3","batch3","spm_respsonse","21518.40000000596","img/question_3_8.jpeg","3","mat_32","1","0","0","21518.40000000596","","","","","","","","","","","","","","","","","","","","",""
"","","","","","html-keyboard-response","69","255312","0.0-2.0-4.0-0.8","5c50ccae2423780001085cb9","C3","batch3","spm_show_trial_num","null","<p class=block-text>Trial 33 out of 60</p>","null","","","","","","","","","","","","","","","","","","","","","","","","","",""
"","","","","","image-button-response","70","269386","0.0-2.0-4.0-1.8","5c50ccae2423780001085cb9","C3","batch3","spm_respsonse","14070","img/question_3_9.jpeg","6","mat_33","7","1","1","14070","","","","","","","","","","","","","","","","","","","","",""
"","","","","","html-keyboard-response","71","270448","0.0-2.0-4.0-0.9","5c50ccae2423780001085cb9","C3","batch3","spm_show_trial_num","null","<p class=block-text>Trial 34 out of 60</p>","null","","","","","","","","","","","","","","","","","","","","","","","","","",""
"","","","","","image-button-response","72","282351","0.0-2.0-4.0-1.9","5c50ccae2423780001085cb9","C3","batch3","spm_respsonse","11897","img/question_3_10.jpeg","5","mat_34","6","1","1","11897","","","","","","","","","","","","","","","","","","","","",""
"","","","","","html-keyboard-response","73","283416","0.0-2.0-4.0-0.10","5c50ccae2423780001085cb9","C3","batch3","spm_show_trial_num","null","<p class=block-text>Trial 35 out of 60</p>","null","","","","","","","","","","","","","","","","","","","","","","","","","",""
"","","","","","image-button-response","74","302234","0.0-2.0-4.0-1.10","5c50ccae2423780001085cb9","C3","batch3","spm_respsonse","18814.39999999851","img/question_3_11.jpeg","0","mat_35","1","1","1","18814.39999999851","","","","","","","","","","","","","","","","","","","","",""
"","","","","","html-keyboard-response","75","303296","0.0-2.0-4.0-0.11","5c50ccae2423780001085cb9","C3","batch3","spm_show_trial_num","null","<p class=block-text>Trial 36 out of 60</p>","null","","","","","","","","","","","","","","","","","","","","","","","","","",""
"","","","","","image-button-response","76","315966","0.0-2.0-4.0-1.11","5c50ccae2423780001085cb9","C3","batch3","spm_respsonse","12667","img/question_3_12.jpeg","1","mat_36","2","1","1","12667","","","","","","","","","","","","","","","","","","","","",""
"","","","","","html-keyboard-response","77","317032","0.0-2.0-4.0-0.12","5c50ccae2423780001085cb9","C3","batch3","spm_show_trial_num","null","<p class=block-text>Trial 37 out of 60</p>","null","","","","","","","","","","","","","","","","","","","","","","","","","",""
"","","","","","image-button-response","78","319827","0.0-2.0-4.0-1.12","5c50ccae2423780001085cb9","C3","batch3","spm_respsonse","2791.5","img/question_4_1.jpeg","2","mat_37","3","1","1","2791.5","","","","","","","","","","","","","","","","","","","","",""
"","","","","","html-keyboard-response","79","320888","0.0-2.0-4.0-0.13","5c50ccae2423780001085cb9","C3","batch3","spm_show_trial_num","null","<p class=block-text>Trial 38 out of 60</p>","null","","","","","","","","","","","","","","","","","","","","","","","","","",""
"","","","","","image-button-response","80","325649","0.0-2.0-4.0-1.13","5c50ccae2423780001085cb9","C3","batch3","spm_respsonse","4758.39999999851","img/question_4_2.jpeg","3","mat_38","4","1","1","4758.39999999851","","","","","","","","","","","","","","","","","","","","",""
"","","","","","html-keyboard-response","81","326712","0.0-2.0-4.0-0.14","5c50ccae2423780001085cb9","C3","batch3","spm_show_trial_num","null","<p class=block-text>Trial 39 out of 60</p>","null","","","","","","","","","","","","","","","","","","","","","","","","","",""
"","","","","","image-button-response","82","332238","0.0-2.0-4.0-1.14","5c50ccae2423780001085cb9","C3","batch3","spm_respsonse","5522.5","img/question_4_3.jpeg","2","mat_39","3","1","1","5522.5","","","","","","","","","","","","","","","","","","","","",""
"","","","","","html-keyboard-response","83","333304","0.0-2.0-4.0-0.15","5c50ccae2423780001085cb9","C3","batch3","spm_show_trial_num","null","<p class=block-text>Trial 40 out of 60</p>","null","","","","","","","","","","","","","","","","","","","","","","","","","",""
"","","","","","image-button-response","84","341143","0.0-2.0-4.0-1.15","5c50ccae2423780001085cb9","C3","batch3","spm_respsonse","7836.29999999702","img/question_4_4.jpeg","6","mat_40","7","1","1","7836.29999999702","","","","","","","","","","","","","","","","","","","","",""
"","","","","","html-keyboard-response","85","342208","0.0-2.0-4.0-0.16","5c50ccae2423780001085cb9","C3","batch3","spm_show_trial_num","null","<p class=block-text>Trial 41 out of 60</p>","null","","","","","","","","","","","","","","","","","","","","","","","","","",""
"","","","","","image-button-response","86","354452","0.0-2.0-4.0-1.16","5c50ccae2423780001085cb9","C3","batch3","spm_respsonse","12239.89999999851","img/question_4_5.jpeg","7","mat_41","8","1","1","12239.89999999851","","","","","","","","","","","","","","","","","","","","",""
"","","","","","html-keyboard-response","87","355512","0.0-2.0-4.0-0.17","5c50ccae2423780001085cb9","C3","batch3","spm_show_trial_num","null","<p class=block-text>Trial 42 out of 60</p>","null","","","","","","","","","","","","","","","","","","","","","","","","","",""
"","","","","","image-button-response","88","364432","0.0-2.0-4.0-1.17","5c50ccae2423780001085cb9","C3","batch3","spm_respsonse","8916.60000000149","img/question_4_6.jpeg","5","mat_42","6","1","1","8916.60000000149","","","","","","","","","","","","","","","","","","","","",""
"","","","","","html-keyboard-response","89","365496","0.0-2.0-4.0-0.18","5c50ccae2423780001085cb9","C3","batch3","spm_show_trial_num","null","<p class=block-text>Trial 43 out of 60</p>","null","","","","","","","","","","","","","","","","","","","","","","","","","",""
"","","","","","image-button-response","90","374256","0.0-2.0-4.0-1.18","5c50ccae2423780001085cb9","C3","batch3","spm_respsonse","8756.29999999702","img/question_4_7.jpeg","4","mat_43","5","1","1","8756.29999999702","","","","","","","","","","","","","","","","","","","","",""
"","","","","","html-keyboard-response","91","375320","0.0-2.0-4.0-0.19","5c50ccae2423780001085cb9","C3","batch3","spm_show_trial_num","null","<p class=block-text>Trial 44 out of 60</p>","null","","","","","","","","","","","","","","","","","","","","","","","","","",""
"","","","","","image-button-response","92","386211","0.0-2.0-4.0-1.19","5c50ccae2423780001085cb9","C3","batch3","spm_respsonse","10887.79999999702","img/question_4_8.jpeg","3","mat_44","4","1","1","10887.79999999702","","","","","","","","","","","","","","","","","","","","",""
"","","","","","html-keyboard-response","93","387272","0.0-2.0-4.0-0.20","5c50ccae2423780001085cb9","C3","batch3","spm_show_trial_num","null","<p class=block-text>Trial 45 out of 60</p>","null","","","","","","","","","","","","","","","","","","","","","","","","","",""
"","","","","","image-button-response","94","400913","0.0-2.0-4.0-1.20","5c50ccae2423780001085cb9","C3","batch3","spm_respsonse","13638.60000000149","img/question_4_9.jpeg","0","mat_45","1","1","1","13638.60000000149","","","","","","","","","","","","","","","","","","","","",""
"","","","","","html-keyboard-response","95","401976","0.0-2.0-4.0-0.21","5c50ccae2423780001085cb9","C3","batch3","spm_show_trial_num","null","<p class=block-text>Trial 46 out of 60</p>","null","","","","","","","","","","","","","","","","","","","","","","","","","",""
"","","","","","image-button-response","96","426158","0.0-2.0-4.0-1.21","5c50ccae2423780001085cb9","C3","batch3","spm_respsonse","24176.89999999851","img/question_4_10.jpeg","4","mat_46","2","0","0","24176.89999999851","","","","","","","","","","","","","","","","","","","","",""
"","","","","","html-keyboard-response","97","427224","0.0-2.0-4.0-0.22","5c50ccae2423780001085cb9","C3","batch3","spm_show_trial_num","null","<p class=block-text>Trial 47 out of 60</p>","null","","","","","","","","","","","","","","","","","","","","","","","","","",""
"","","","","","image-button-response","98","452537","0.0-2.0-4.0-1.22","5c50ccae2423780001085cb9","C3","batch3","spm_respsonse","25310.20000000298","img/question_4_11.jpeg","3","mat_47","5","0","0","25310.20000000298","","","","","","","","","","","","","","","","","","","","",""
"","","","","","html-keyboard-response","99","453600","0.0-2.0-4.0-0.23","5c50ccae2423780001085cb9","C3","batch3","spm_show_trial_num","null","<p class=block-text>Trial 48 out of 60</p>","null","","","","","","","","","","","","","","","","","","","","","","","","","",""
"","","","","","image-button-response","100","474034","0.0-2.0-4.0-1.23","5c50ccae2423780001085cb9","C3","batch3","spm_respsonse","20428.30000000447","img/question_4_12.jpeg","3","mat_48","6","0","0","20428.30000000447","","","","","","","","","","","","","","","","","","","","",""
"","","","","","html-keyboard-response","101","475096","0.0-2.0-4.0-0.24","5c50ccae2423780001085cb9","C3","batch3","spm_show_trial_num","null","<p class=block-text>Trial 49 out of 60</p>","null","","","","","","","","","","","","","","","","","","","","","","","","","",""
"","","","","","image-button-response","102","482695","0.0-2.0-4.0-1.24","5c50ccae2423780001085cb9","C3","batch3","spm_respsonse","7594.60000000149","img/question_5_1.jpeg","6","mat_49","7","1","1","7594.60000000149","","","","","","","","","","","","","","","","","","","","",""
"","","","","","html-keyboard-response","103","483760","0.0-2.0-4.0-0.25","5c50ccae2423780001085cb9","C3","batch3","spm_show_trial_num","null","<p class=block-text>Trial 50 out of 60</p>","null","","","","","","","","","","","","","","","","","","","","","","","","","",""
"","","","","","image-button-response","104","495290","0.0-2.0-4.0-1.25","5c50ccae2423780001085cb9","C3","batch3","spm_respsonse","11526.59999999404","img/question_5_2.jpeg","5","mat_50","6","1","1","11526.59999999404","","","","","","","","","","","","","","","","","","","","",""
"","","","","","html-keyboard-response","105","496352","0.0-2.0-4.0-0.26","5c50ccae2423780001085cb9","C3","batch3","spm_show_trial_num","null","<p class=block-text>Trial 51 out of 60</p>","null","","","","","","","","","","","","","","","","","","","","","","","","","",""
"","","","","","image-button-response","106","507067","0.0-2.0-4.0-1.26","5c50ccae2423780001085cb9","C3","batch3","spm_respsonse","10711.20000000298","img/question_5_3.jpeg","7","mat_51","8","1","1","10711.20000000298","","","","","","","","","","","","","","","","","","","","",""
"","","","","","html-keyboard-response","107","508128","0.0-2.0-4.0-0.27","5c50ccae2423780001085cb9","C3","batch3","spm_show_trial_num","null","<p class=block-text>Trial 52 out of 60</p>","null","","","","","","","","","","","","","","","","","","","","","","","","","",""
"","","","","","image-button-response","108","518344","0.0-2.0-4.0-1.27","5c50ccae2423780001085cb9","C3","batch3","spm_respsonse","10211.5","img/question_5_4.jpeg","1","mat_52","2","1","1","10211.5","","","","","","","","","","","","","","","","","","","","",""
"","","","","","html-keyboard-response","109","519408","0.0-2.0-4.0-0.28","5c50ccae2423780001085cb9","C3","batch3","spm_show_trial_num","null","<p class=block-text>Trial 53 out of 60</p>","null","","","","","","","","","","","","","","","","","","","","","","","","","",""
"","","","","","image-button-response","110","540928","0.0-2.0-4.0-1.28","5c50ccae2423780001085cb9","C3","batch3","spm_respsonse","21516.5","img/question_5_5.jpeg","3","mat_53","1","0","0","21516.5","","","","","","","","","","","","","","","","","","","","",""
"","","","","","html-keyboard-response","111","541992","0.0-2.0-4.0-0.29","5c50ccae2423780001085cb9","C3","batch3","spm_show_trial_num","null","<p class=block-text>Trial 54 out of 60</p>","null","","","","","","","","","","","","","","","","","","","","","","","","","",""
"","","","","","image-button-response","112","566975","0.0-2.0-4.0-1.29","5c50ccae2423780001085cb9","C3","batch3","spm_respsonse","24979.89999999851","img/question_5_6.jpeg","3","mat_54","5","0","0","24979.89999999851","","","","","","","","","","","","","","","","","","","","",""
"","","","","","html-keyboard-response","113","568040","0.0-2.0-4.0-0.30","5c50ccae2423780001085cb9","C3","batch3","spm_show_trial_num","null","<p class=block-text>Trial 55 out of 60</p>","null","","","","","","","","","","","","","","","","","","","","","","","","","",""
"","","","","","image-button-response","114","576879","0.0-2.0-4.0-1.30","5c50ccae2423780001085cb9","C3","batch3","spm_respsonse","8820.89999999851","img/question_5_7.jpeg","0","mat_55","1","1","1","8820.89999999851","","","","","","","","","","","","","","","","","","","","",""
"","","","","","html-keyboard-response","115","577944","0.0-2.0-4.0-0.31","5c50ccae2423780001085cb9","C3","batch3","spm_show_trial_num","null","<p class=block-text>Trial 56 out of 60</p>","null","","","","","","","","","","","","","","","","","","","","","","","","","",""
"","","","","","image-button-response","116","592643","0.0-2.0-4.0-1.31","5c50ccae2423780001085cb9","C3","batch3","spm_respsonse","14696.10000000149","img/question_5_8.jpeg","0","mat_56","6","0","0","14696.10000000149","","","","","","","","","","","","","","","","","","","","",""
"","","","","","html-keyboard-response","117","593704","0.0-2.0-4.0-0.32","5c50ccae2423780001085cb9","C3","batch3","spm_show_trial_num","null","<p class=block-text>Trial 57 out of 60</p>","null","","","","","","","","","","","","","","","","","","","","","","","","","",""
"","","","","","image-button-response","118","606691","0.0-2.0-4.0-1.32","5c50ccae2423780001085cb9","C3","batch3","spm_respsonse","12984.29999999702","img/question_5_9.jpeg","0","mat_57","3","0","0","12984.29999999702","","","","","","","","","","","","","","","","","","","","",""
"","","","","","html-keyboard-response","119","607752","0.0-2.0-4.0-0.33","5c50ccae2423780001085cb9","C3","batch3","spm_show_trial_num","null","<p class=block-text>Trial 58 out of 60</p>","null","","","","","","","","","","","","","","","","","","","","","","","","","",""
"","","","","","image-button-response","120","617617","0.0-2.0-4.0-1.33","5c50ccae2423780001085cb9","C3","batch3","spm_respsonse","9861.29999999702","img/question_5_10.jpeg","7","mat_58","2","0","0","9861.29999999702","","","","","","","","","","","","","","","","","","","","",""
"","","","","","html-keyboard-response","121","618680","0.0-2.0-4.0-0.34","5c50ccae2423780001085cb9","C3","batch3","spm_show_trial_num","null","<p class=block-text>Trial 59 out of 60</p>","null","","","","","","","","","","","","","","","","","","","","","","","","","",""
"","","","","","image-button-response","122","626578","0.0-2.0-4.0-1.34","5c50ccae2423780001085cb9","C3","batch3","spm_respsonse","7895","img/question_5_11.jpeg","6","mat_59","4","0","0","7895","","","","","","","","","","","","","","","","","","","","",""
"","","","","","html-keyboard-response","123","627640","0.0-2.0-4.0-0.35","5c50ccae2423780001085cb9","C3","batch3","spm_show_trial_num","null","<p class=block-text>Trial 60 out of 60</p>","null","","","","","","","","","","","","","","","","","","","","","","","","","",""
"","","","","","image-button-response","124","637815","0.0-2.0-4.0-1.35","5c50ccae2423780001085cb9","C3","batch3","spm_respsonse","10170","img/question_5_12.jpeg","0","mat_60","5","0","0","10170","","","","","","","","","","","","","","","","","","","","",""
"","","","","","html-button-response","125","640331","0.0-2.0-5.0","5c50ccae2423780001085cb9","C3","batch3","spm_goodbye","2258.5","<p class= block-text>This concludes the Standard Progressive Matrix game. Thank you for your responses!<br> When you are ready, click the button continue</p>","0","","","","","","","","","","","","","","","","","","","","","","","","","",""
"true","","","","","fullscreen","126","642520","0.0-3.0-0.0","5c50ccae2423780001085cb9","C3","batch3","","","","","","","","","","","","","","","","","","","","","","","","","","","","","",""
"","","","","","instructions","127","678347","0.0-3.0-1.0-0.0-0.0","5c50ccae2423780001085cb9","C3","batch3","tol-instructions","35826.09999999404","","","","","","","","[{""page_index"":0,""viewing_time"":6395.69999999553},{""page_index"":1,""viewing_time"":4515},{""page_index"":2,""viewing_time"":2944.89999999851},{""page_index"":3,""viewing_time"":7269.60000000149},{""page_index"":4,""viewing_time"":4019.60000000149},{""page_index"":5,""viewing_time"":8346.60000000149},{""page_index"":6,""viewing_time"":2334}]","","","","","","","","","","","","","","","","","","","",""
"","","","","","html-button-response","128","679529","0.0-3.0-1.0-1.0-0.0","5c50ccae2423780001085cb9","C3","batch3","tol_enter_quiz","1180.1999999955297","<p class=block-text> Let's answer a few questions <br>","0","","","","","","","","","","","","","","","","","","","","","","","","","",""
"","","","","","html-button-response","129","684702","0.0-3.0-1.0-1.0-1.0","5c50ccae2423780001085cb9","C3","batch3","tol_quiz","5172","<p class = block-text>True or False: You can only move the ball on top of a peg. <br></p>","0","","","true","","","","","","","","","","","","","","","","","","","","","","",""
"","","","","","html-button-response","130","686030","0.0-3.0-1.0-1.0-2.0","5c50ccae2423780001085cb9","C3","batch3","tol_quiz_feedback","1325.0999999940395","<p class = block-text>Correct! You can only move the ball on top of a peg.</p>","0","","","","","","","","","","","","","","","","","","","","","","","","","",""
"","","","","","html-button-response","131","688533","0.0-3.0-1.0-1.0-3.0","5c50ccae2423780001085cb9","C3","batch3","tol_quiz","2500.7000000029802","<p class = block-text>True or False: You should try to match your board with the target board with fewest moves possible. <br></p>","0","","","true","","","","","","","","","","","","","","","","","","","","","","",""
"","","","","","html-button-response","132","689525","0.0-3.0-1.0-1.0-4.0","5c50ccae2423780001085cb9","C3","batch3","tol_quiz_feedback","989.8999999985099","<p class = block-text>Correct! </p>","0","","","","","","","","","","","","","","","","","","","","","","","","","",""
"","","","","","html-button-response","133","691560","0.0-3.0-2.0","5c50ccae2423780001085cb9","C3","batch3","","2032.3999999985099","<p class=block-text> Now that you've understood the game, let's practice a few easier examples before we start!<br> <br>","0","","","","","","","","","","","","","","","","","","","","","","","","","",""
"","","","","","single-stim-button","134","694597","0.0-3.0-3.0-0.0","5c50ccae2423780001085cb9","C3","batch3","tol_practice","3033","","","","","","","","","tol_peg_2","3033","3033","0","[[1,2,0],[0,0],[0]]","1","[[1,2,0],[0,0],[3]]","practice","3033","","","","","","","","","","",""
"","","","","","single-stim-button","135","696194","0.0-3.0-3.0-1.0","5c50ccae2423780001085cb9","C3","batch3","tol_practice","1596","","","","","","","","","tol_peg_3","1596","1596","0","[[1,2,0],[0,0],[3]]","1","[[1,2,0],[0,0],[3]]","practice","1596","","","","","","","","","","",""
"","","","","","poldrack-single-stim","136","697200","0.0-3.0-4.0","5c50ccae2423780001085cb9","C3","batch3","tol_feedback","-1","","","","","true","","","","","1000","1000","500","","","","","","-1","none","true","","0","","","","","",""
"","","","","","single-stim-button","137","704069","0.0-3.0-5.0-0.0","5c50ccae2423780001085cb9","C3","batch3","tol_practice","6867","","","","","","","","","tol_peg_1","6867","6867","0","[[1,0,0],[3,0],[0]]","2","[[0,0,0],[3,1],[2]]","practice","6867","","","","","","","","","","",""
"","","","","","single-stim-button","138","705971","0.0-3.0-5.0-1.0","5c50ccae2423780001085cb9","C3","batch3","tol_practice","1900","","","","","","","","","tol_peg_3","1900","1900","0","[[1,0,0],[3,0],[2]]","2","[[0,0,0],[3,1],[2]]","practice","1900","","","","","","","","","","",""
"","","","","","single-stim-button","139","706971","0.0-3.0-5.1-0.1","5c50ccae2423780001085cb9","C3","batch3","tol_practice","998","","","","","","","","","tol_peg_1","998","998","0","[[0,0,0],[3,0],[2]]","3","[[0,0,0],[3,1],[2]]","practice","998","","","","","","","","","","",""
"","","","","","single-stim-button","140","707993","0.0-3.0-5.1-1.1","5c50ccae2423780001085cb9","C3","batch3","tol_practice","1021","","","","","","","","","tol_peg_2","1021","1021","0","[[0,0,0],[3,1],[2]]","3","[[0,0,0],[3,1],[2]]","practice","1021","","","","","","","","","","",""
"","","","","","poldrack-single-stim","141","709001","0.0-3.0-6.0","5c50ccae2423780001085cb9","C3","batch3","tol_feedback","-1","","","","","true","","","","","1000","1000","500","","","","","","-1","none","true","","0","","","","","",""
"","","","","","single-stim-button","142","711780","0.0-3.0-7.0-0.0","5c50ccae2423780001085cb9","C3","batch3","tol_practice","2779","","","","","","","","","tol_peg_2","2779","2779","0","[[1,2,0],[0,0],[0]]","4","[[1,0,0],[2,0],[3]]","practice","2779","","","","","","","","","","",""
"","","","","","single-stim-button","143","712991","0.0-3.0-7.0-1.0","5c50ccae2423780001085cb9","C3","batch3","tol_practice","1209","","","","","","","","","tol_peg_3","1209","1209","0","[[1,2,0],[0,0],[3]]","4","[[1,0,0],[2,0],[3]]","practice","1209","","","","","","","","","","",""
"","","","","","single-stim-button","144","713937","0.0-3.0-7.1-0.1","5c50ccae2423780001085cb9","C3","batch3","tol_practice","944","","","","","","","","","tol_peg_1","944","944","0","[[1,0,0],[0,0],[3]]","5","[[1,0,0],[2,0],[3]]","practice","944","","","","","","","","","","",""
"","","","","","single-stim-button","145","714750","0.0-3.0-7.1-1.1","5c50ccae2423780001085cb9","C3","batch3","tol_practice","812","","","","","","","","","tol_peg_2","812","812","0","[[1,0,0],[2,0],[3]]","5","[[1,0,0],[2,0],[3]]","practice","812","","","","","","","","","","",""
"","","","","","poldrack-single-stim","146","715760","0.0-3.0-8.0","5c50ccae2423780001085cb9","C3","batch3","tol_feedback","-1","","","","","true","","","","","1000","1000","500","","","","","","-1","none","true","","0","","","","","",""
"","","","","","html-button-response","147","717834","0.0-3.0-9.0","5c50ccae2423780001085cb9","C3","batch3","tol_instruction","2073.2999999970198","<div class = centerbox><p class = center-block-text>Great job! You are done with practice trials<br>You are about to start official trials.<br> <br> Problem <strong>1</strong> out of 25 problems</p></div>","0","","","","","","","","","","","","","","","","","","","","","","","","","",""
"","","","","","single-stim-button","148","724545","0.0-3.0-10.0-0.0","5c50ccae2423780001085cb9","C3","batch3","tol_tohand","5703","","","","","","","","","tol_peg_1","5703","5703","0","[[1,0,0],[3,0],[0]]","1","[[1,3,0],[2,0],[0]]","0","0","","","","","","3","","","","",""
"","","","","","single-stim-button","149","725855","0.0-3.0-10.0-1.0","5c50ccae2423780001085cb9","C3","batch3","tol_toboard","1308","","","","","","","","","tol_peg_3","1308","1308","0","[[1,0,0],[3,0],[2]]","1","[[1,3,0],[2,0],[0]]","0","0","","","","","","3","","","","",""
"","","","","","single-stim-button","150","726811","0.0-3.0-10.1-0.1","5c50ccae2423780001085cb9","C3","batch3","tol_tohand","954","","","","","","","","","tol_peg_2","954","954","0","[[1,0,0],[0,0],[2]]","2","[[1,3,0],[2,0],[0]]","0","0","","","","","","3","","","","",""
"","","","","","single-stim-button","151","728371","0.0-3.0-10.1-1.1","5c50ccae2423780001085cb9","C3","batch3","tol_toboard","1559","","","","","","","","","tol_peg_1","1559","1559","0","[[1,3,0],[0,0],[2]]","2","[[1,3,0],[2,0],[0]]","0","0","","","","","","3","","","","",""
"","","","","","single-stim-button","152","730285","0.0-3.0-10.2-0.2","5c50ccae2423780001085cb9","C3","batch3","tol_tohand","1913","","","","","","","","","tol_peg_3","1913","1913","0","[[1,3,0],[0,0],[0]]","3","[[1,3,0],[2,0],[0]]","0","0","","","","","","3","","","","",""
"","","","","","single-stim-button","153","732093","0.0-3.0-10.2-1.2","5c50ccae2423780001085cb9","C3","batch3","tol_toboard","1807","","","","","","","","","tol_peg_2","1807","1807","0","[[1,3,0],[2,0],[0]]","3","[[1,3,0],[2,0],[0]]","0","0","","","","","","3","","","","",""
"","","","","","poldrack-single-stim","154","733096","0.0-3.0-11.0","5c50ccae2423780001085cb9","C3","batch3","tol_feedback","-1","","","","","true","","","","","1000","1000","500","","","","","","-1","none","true","5703","8570","","","","","",""
"","","","","","html-button-response","155","737913","0.0-3.0-12.0","5c50ccae2423780001085cb9","C3","batch3","tol_trial_num","4815.89999999851","<div class = centerbox><p class = center-block-text>problem <strong>2</strong> out of 25 problems</p></div>","0","","","","","","","","","","","","","","","","","","","","","","","","","",""
"","","","","","single-stim-button","156","745673","0.0-3.0-13.0-0.0","5c50ccae2423780001085cb9","C3","batch3","tol_tohand","7758","","","","","","","","","tol_peg_1","7758","7758","0","[[1,0,0],[3,0],[0]]","1","[[2,1,3],[0,0],[0]]","1","0","","","","","","5","","","","",""
"","","","","","single-stim-button","157","748897","0.0-3.0-13.0-1.0","5c50ccae2423780001085cb9","C3","batch3","tol_toboard","3222","","","","","","","","","tol_peg_3","3222","3222","0","[[1,0,0],[3,0],[2]]","1","[[2,1,3],[0,0],[0]]","1","0","","","","","","5","","","","",""
"","","","","","single-stim-button","158","750681","0.0-3.0-13.1-0.1","5c50ccae2423780001085cb9","C3","batch3","tol_tohand","1782","","","","","","","","","tol_peg_1","1782","1782","0","[[0,0,0],[3,0],[2]]","2","[[2,1,3],[0,0],[0]]","1","0","","","","","","5","","","","",""
"","","","","","single-stim-button","159","752109","0.0-3.0-13.1-1.1","5c50ccae2423780001085cb9","C3","batch3","tol_toboard","1427","","","","","","","","","tol_peg_2","1427","1427","0","[[0,0,0],[3,1],[2]]","2","[[2,1,3],[0,0],[0]]","1","0","","","","","","5","","","","",""
"","","","","","single-stim-button","160","754099","0.0-3.0-13.2-0.2","5c50ccae2423780001085cb9","C3","batch3","tol_tohand","1990","","","","","","","","","tol_peg_3","1990","1990","0","[[0,0,0],[3,1],[0]]","3","[[2,1,3],[0,0],[0]]","1","0","","","","","","5","","","","",""
"","","","","","single-stim-button","161","755579","0.0-3.0-13.2-1.2","5c50ccae2423780001085cb9","C3","batch3","tol_toboard","1478","","","","","","","","","tol_peg_1","1478","1478","0","[[2,0,0],[3,1],[0]]","3","[[2,1,3],[0,0],[0]]","1","0","","","","","","5","","","","",""
"","","","","","single-stim-button","162","756431","0.0-3.0-13.3-0.3","5c50ccae2423780001085cb9","C3","batch3","tol_tohand","850","","","","","","","","","tol_peg_2","850","850","0","[[2,0,0],[3,0],[0]]","4","[[2,1,3],[0,0],[0]]","1","0","","","","","","5","","","","",""
"","","","","","single-stim-button","163","757468","0.0-3.0-13.3-1.3","5c50ccae2423780001085cb9","C3","batch3","tol_toboard","1036","","","","","","","","","tol_peg_1","1036","1036","0","[[2,1,0],[3,0],[0]]","4","[[2,1,3],[0,0],[0]]","1","0","","","","","","5","","","","",""
"","","","","","single-stim-button","164","758157","0.0-3.0-13.4-0.4","5c50ccae2423780001085cb9","C3","batch3","tol_tohand","687","","","","","","","","","tol_peg_2","687","687","0","[[2,1,0],[0,0],[0]]","5","[[2,1,3],[0,0],[0]]","1","0","","","","","","5","","","","",""
"","","","","","single-stim-button","165","759671","0.0-3.0-13.4-1.4","5c50ccae2423780001085cb9","C3","batch3","tol_toboard","1512","","","","","","","","","tol_peg_1","1512","1512","0","[[2,1,3],[0,0],[0]]","5","[[2,1,3],[0,0],[0]]","1","0","","","","","","5","","","","",""
"","","","","","poldrack-single-stim","166","760680","0.0-3.0-14.0","5c50ccae2423780001085cb9","C3","batch3","tol_feedback","-1","","","","","true","","","","","1000","1000","500","","","","","","-1","none","true","7758","13067","","","","","",""
"","","","","","html-button-response","167","761784","0.0-3.0-15.0","5c50ccae2423780001085cb9","C3","batch3","tol_trial_num","1102.1999999955297","<div class = centerbox><p class = center-block-text>problem <strong>3</strong> out of 25 problems</p></div>","0","","","","","","","","","","","","","","","","","","","","","","","","","",""
"","","","","","single-stim-button","168","765079","0.0-3.0-16.0-0.0","5c50ccae2423780001085cb9","C3","batch3","tol_tohand","3293","","","","","","","","","tol_peg_1","3293","3293","0","[[2,0,0],[0,0],[1]]","1","[[1,2,0],[3,0],[0]]","2","0","","","","","","4","","","","",""
"","","","","","single-stim-button","169","766223","0.0-3.0-16.0-1.0","5c50ccae2423780001085cb9","C3","batch3","tol_toboard","1142","","","","","","","","","tol_peg_2","1142","1142","0","[[2,0,0],[3,0],[1]]","1","[[1,2,0],[3,0],[0]]","2","0","","","","","","4","","","","",""
"","","","","","single-stim-button","170","767295","0.0-3.0-16.1-0.1","5c50ccae2423780001085cb9","C3","batch3","tol_tohand","1070","","","","","","","","","tol_peg_1","1070","1070","0","[[0,0,0],[3,0],[1]]","2","[[1,2,0],[3,0],[0]]","2","0","","","","","","4","","","","",""
"","","","","","single-stim-button","171","767860","0.0-3.0-16.1-1.1","5c50ccae2423780001085cb9","C3","batch3","tol_toboard","565","","","","","","","","","tol_peg_2","565","565","0","[[0,0,0],[3,2],[1]]","2","[[1,2,0],[3,0],[0]]","2","0","","","","","","4","","","","",""
"","","","","","single-stim-button","172","768549","0.0-3.0-16.2-0.2","5c50ccae2423780001085cb9","C3","batch3","tol_tohand","687","","","","","","","","","tol_peg_3","687","687","0","[[0,0,0],[3,2],[0]]","3","[[1,2,0],[3,0],[0]]","2","0","","","","","","4","","","","",""
"","","","","","single-stim-button","173","769957","0.0-3.0-16.2-1.2","5c50ccae2423780001085cb9","C3","batch3","tol_toboard","1406","","","","","","","","","tol_peg_1","1406","1406","0","[[1,0,0],[3,2],[0]]","3","[[1,2,0],[3,0],[0]]","2","0","","","","","","4","","","","",""
"","","","","","single-stim-button","174","771005","0.0-3.0-16.3-0.3","5c50ccae2423780001085cb9","C3","batch3","tol_tohand","1046","","","","","","","","","tol_peg_2","1046","1046","0","[[1,0,0],[3,0],[0]]","4","[[1,2,0],[3,0],[0]]","2","0","","","","","","4","","","","",""
"","","","","","single-stim-button","175","772125","0.0-3.0-16.3-1.3","5c50ccae2423780001085cb9","C3","batch3","tol_toboard","1119","","","","","","","","","tol_peg_1","1119","1119","0","[[1,2,0],[3,0],[0]]","4","[[1,2,0],[3,0],[0]]","2","0","","","","","","4","","","","",""
"","","","","","poldrack-single-stim","176","773128","0.0-3.0-17.0","5c50ccae2423780001085cb9","C3","batch3","tol_feedback","-1","","","","","true","","","","","1000","1000","500","","","","","","-1","none","true","3293","6096","","","","","",""
"","","","","","html-button-response","177","773854","0.0-3.0-18.0","5c50ccae2423780001085cb9","C3","batch3","tol_trial_num","725.3000000044703","<div class = centerbox><p class = center-block-text>problem <strong>4</strong> out of 25 problems</p></div>","0","","","","","","","","","","","","","","","","","","","","","","","","","",""
"","","","","","single-stim-button","178","779293","0.0-3.0-19.0-0.0","5c50ccae2423780001085cb9","C3","batch3","tol_tohand","5437","","","","","","","","","tol_peg_2","5437","5437","0","[[3,0,0],[2,0],[0]]","1","[[3,0,0],[1,0],[2]]","3","0","","","","","","3","","","","",""
"","","","","","single-stim-button","179","780943","0.0-3.0-19.0-1.0","5c50ccae2423780001085cb9","C3","batch3","tol_toboard","1649","","","","","","","","","tol_peg_1","1649","1649","0","[[3,1,0],[2,0],[0]]","1","[[3,0,0],[1,0],[2]]","3","0","","","","","","3","","","","",""
"","","","","","single-stim-button","180","782035","0.0-3.0-19.1-0.1","5c50ccae2423780001085cb9","C3","batch3","tol_tohand","1090","","","","","","","","","tol_peg_2","1090","1090","0","[[3,1,0],[0,0],[0]]","2","[[3,0,0],[1,0],[2]]","3","0","","","","","","3","","","","",""
"","","","","","single-stim-button","181","783589","0.0-3.0-19.1-1.1","5c50ccae2423780001085cb9","C3","batch3","tol_toboard","1553","","","","","","","","","tol_peg_3","1553","1553","0","[[3,1,0],[0,0],[2]]","2","[[3,0,0],[1,0],[2]]","3","0","","","","","","3","","","","",""
"","","","","","single-stim-button","182","784213","0.0-3.0-19.2-0.2","5c50ccae2423780001085cb9","C3","batch3","tol_tohand","622","","","","","","","","","tol_peg_1","622","622","0","[[3,0,0],[0,0],[2]]","3","[[3,0,0],[1,0],[2]]","3","0","","","","","","3","","","","",""
"","","","","","single-stim-button","183","785365","0.0-3.0-19.2-1.2","5c50ccae2423780001085cb9","C3","batch3","tol_toboard","1151","","","","","","","","","tol_peg_2","1151","1151","0","[[3,0,0],[1,0],[2]]","3","[[3,0,0],[1,0],[2]]","3","0","","","","","","3","","","","",""
"","","","","","poldrack-single-stim","184","786368","0.0-3.0-20.0","5c50ccae2423780001085cb9","C3","batch3","tol_feedback","-1","","","","","true","","","","","1000","1000","500","","","","","","-1","none","true","5437","7149","","","","","",""
"","","","","","html-button-response","185","786927","0.0-3.0-21.0","5c50ccae2423780001085cb9","C3","batch3","tol_trial_num","557.2000000029802","<div class = centerbox><p class = center-block-text>problem <strong>5</strong> out of 25 problems</p></div>","0","","","","","","","","","","","","","","","","","","","","","","","","","",""
"","","","","","single-stim-button","186","796425","0.0-3.0-22.0-0.0","5c50ccae2423780001085cb9","C3","batch3","tol_tohand","9496","","","","","","","","","tol_peg_3","9496","9496","0","[[1,0,0],[2,0],[0]]","1","[[0,0,0],[1,2],[3]]","4","0","","","","","","7","","","","",""
"","","","","","single-stim-button","187","800667","0.0-3.0-22.0-1.0","5c50ccae2423780001085cb9","C3","batch3","tol_toboard","4240","","","","","","","","","tol_peg_1","4240","4240","0","[[1,3,0],[2,0],[0]]","1","[[0,0,0],[1,2],[3]]","4","0","","","","","","7","","","","",""
"","","","","","single-stim-button","188","806640","0.0-3.0-22.1-0.1","5c50ccae2423780001085cb9","C3","batch3","tol_tohand","5972","","","","","","","","","tol_peg_1","5972","5972","0","[[1,0,0],[2,0],[0]]","2","[[0,0,0],[1,2],[3]]","4","0","","","","","","7","","","","",""
"","","","","","single-stim-button","189","807511","0.0-3.0-22.1-1.1","5c50ccae2423780001085cb9","C3","batch3","tol_toboard","869","","","","","","","","","tol_peg_2","869","869","0","[[1,0,0],[2,3],[0]]","2","[[0,0,0],[1,2],[3]]","4","0","","","","","","7","","","","",""
"","","","","","single-stim-button","190","808645","0.0-3.0-22.2-0.2","5c50ccae2423780001085cb9","C3","batch3","tol_tohand","1132","","","","","","","","","tol_peg_1","1132","1132","0","[[0,0,0],[2,3],[0]]","3","[[0,0,0],[1,2],[3]]","4","0","","","","","","7","","","","",""
"","","","","","single-stim-button","191","810175","0.0-3.0-22.2-1.2","5c50ccae2423780001085cb9","C3","batch3","tol_toboard","1528","","","","","","","","","tol_peg_3","1528","1528","0","[[0,0,0],[2,3],[1]]","3","[[0,0,0],[1,2],[3]]","4","0","","","","","","7","","","","",""
"","","","","","single-stim-button","192","810907","0.0-3.0-22.3-0.3","5c50ccae2423780001085cb9","C3","batch3","tol_tohand","730","","","","","","","","","tol_peg_2","730","730","0","[[0,0,0],[2,0],[1]]","4","[[0,0,0],[1,2],[3]]","4","0","","","","","","7","","","","",""
"","","","","","single-stim-button","193","812129","0.0-3.0-22.3-1.3","5c50ccae2423780001085cb9","C3","batch3","tol_toboard","1221","","","","","","","","","tol_peg_1","1221","1221","0","[[3,0,0],[2,0],[1]]","4","[[0,0,0],[1,2],[3]]","4","0","","","","","","7","","","","",""
"","","","","","single-stim-button","194","813569","0.0-3.0-22.4-0.4","5c50ccae2423780001085cb9","C3","batch3","tol_tohand","1439","","","","","","","","","tol_peg_2","1439","1439","0","[[3,0,0],[0,0],[1]]","5","[[0,0,0],[1,2],[3]]","4","0","","","","","","7","","","","",""
"","","","","","single-stim-button","195","814707","0.0-3.0-22.4-1.4","5c50ccae2423780001085cb9","C3","batch3","tol_toboard","1137","","","","","","","","","tol_peg_1","1137","1137","0","[[3,2,0],[0,0],[1]]","5","[[0,0,0],[1,2],[3]]","4","0","","","","","","7","","","","",""
"","","","","","single-stim-button","196","815813","0.0-3.0-22.5-0.5","5c50ccae2423780001085cb9","C3","batch3","tol_tohand","1104","","","","","","","","","tol_peg_3","1104","1104","0","[[3,2,0],[0,0],[0]]","6","[[0,0,0],[1,2],[3]]","4","0","","","","","","7","","","","",""
"","","","","","single-stim-button","197","816747","0.0-3.0-22.5-1.5","5c50ccae2423780001085cb9","C3","batch3","tol_toboard","933","","","","","","","","","tol_peg_2","933","933","0","[[3,2,0],[1,0],[0]]","6","[[0,0,0],[1,2],[3]]","4","0","","","","","","7","","","","",""
"","","","","","single-stim-button","198","817711","0.0-3.0-22.6-0.6","5c50ccae2423780001085cb9","C3","batch3","tol_tohand","962","","","","","","","","","tol_peg_1","962","962","0","[[3,0,0],[1,0],[0]]","7","[[0,0,0],[1,2],[3]]","4","0","","","","","","7","","","","",""
"","","","","","single-stim-button","199","818624","0.0-3.0-22.6-1.6","5c50ccae2423780001085cb9","C3","batch3","tol_toboard","912","","","","","","","","","tol_peg_2","912","912","0","[[3,0,0],[1,2],[0]]","7","[[0,0,0],[1,2],[3]]","4","0","","","","","","7","","","","",""
"","","","","","single-stim-button","200","819800","0.0-3.0-22.7-0.7","5c50ccae2423780001085cb9","C3","batch3","tol_tohand","1175","","","","","","","","","tol_peg_1","1175","1175","0","[[0,0,0],[1,2],[0]]","8","[[0,0,0],[1,2],[3]]","4","0","","","","","","7","","","","",""
"","","","","","single-stim-button","201","820775","0.0-3.0-22.7-1.7","5c50ccae2423780001085cb9","C3","batch3","tol_toboard","973","","","","","","","","","tol_peg_3","973","973","0","[[0,0,0],[1,2],[3]]","8","[[0,0,0],[1,2],[3]]","4","0","","","","","","7","","","","",""
"","","","","","poldrack-single-stim","202","821786","0.0-3.0-23.0","5c50ccae2423780001085cb9","C3","batch3","tol_feedback","-1","","","","","true","","","","","1000","1000","500","","","","","","-1","none","true","9496","22010","","","","","",""
"","","","","","html-button-response","203","822865","0.0-3.0-24.0","5c50ccae2423780001085cb9","C3","batch3","tol_trial_num","1077.8999999985099","<div class = centerbox><p class = center-block-text>problem <strong>6</strong> out of 25 problems</p></div>","0","","","","","","","","","","","","","","","","","","","","","","","","","",""
"","","","","","single-stim-button","204","828138","0.0-3.0-25.0-0.0","5c50ccae2423780001085cb9","C3","batch3","tol_tohand","5271","","","","","","","","","tol_peg_2","5271","5271","0","[[0,0,0],[1,0],[3]]","1","[[1,0,0],[2,3],[0]]","5","0","","","","","","6","","","","",""
"","","","","","single-stim-button","205","837063","0.0-3.0-25.0-1.0","5c50ccae2423780001085cb9","C3","batch3","tol_toboard","8923","","","","","","","","","tol_peg_2","8923","8923","0","[[0,0,0],[1,2],[3]]","1","[[1,0,0],[2,3],[0]]","5","0","","","","","","6","","","","",""
"","","","","","single-stim-button","206","837965","0.0-3.0-25.1-0.1","5c50ccae2423780001085cb9","C3","batch3","tol_tohand","900","","","","","","","","","tol_peg_3","900","900","0","[[0,0,0],[1,2],[0]]","2","[[1,0,0],[2,3],[0]]","5","0","","","","","","6","","","","",""
"","","","","","single-stim-button","207","839366","0.0-3.0-25.1-1.1","5c50ccae2423780001085cb9","C3","batch3","tol_toboard","1400","","","","","","","","","tol_peg_1","1400","1400","0","[[3,0,0],[1,2],[0]]","2","[[1,0,0],[2,3],[0]]","5","0","","","","","","6","","","","",""
"","","","","","single-stim-button","208","840177","0.0-3.0-25.2-0.2","5c50ccae2423780001085cb9","C3","batch3","tol_tohand","809","","","","","","","","","tol_peg_2","809","809","0","[[3,0,0],[1,0],[0]]","3","[[1,0,0],[2,3],[0]]","5","0","","","","","","6","","","","",""
"","","","","","single-stim-button","209","841633","0.0-3.0-25.2-1.2","5c50ccae2423780001085cb9","C3","batch3","tol_toboard","1455","","","","","","","","","tol_peg_3","1455","1455","0","[[3,0,0],[1,0],[2]]","3","[[1,0,0],[2,3],[0]]","5","0","","","","","","6","","","","",""
"","","","","","single-stim-button","210","848463","0.0-3.0-25.3-0.3","5c50ccae2423780001085cb9","C3","batch3","tol_tohand","6828","","","","","","","","","tol_peg_2","6828","6828","0","[[3,0,0],[0,0],[2]]","4","[[1,0,0],[2,3],[0]]","5","0","","","","","","6","","","","",""
"","","","","","single-stim-button","211","849731","0.0-3.0-25.3-1.3","5c50ccae2423780001085cb9","C3","batch3","tol_toboard","1266","","","","","","","","","tol_peg_1","1266","1266","0","[[3,1,0],[0,0],[2]]","4","[[1,0,0],[2,3],[0]]","5","0","","","","","","6","","","","",""
"","","","","","single-stim-button","212","850851","0.0-3.0-25.4-0.4","5c50ccae2423780001085cb9","C3","batch3","tol_tohand","1118","","","","","","","","","tol_peg_3","1118","1118","0","[[3,1,0],[0,0],[0]]","5","[[1,0,0],[2,3],[0]]","5","0","","","","","","6","","","","",""
"","","","","","single-stim-button","213","851587","0.0-3.0-25.4-1.4","5c50ccae2423780001085cb9","C3","batch3","tol_toboard","734","","","","","","","","","tol_peg_2","734","734","0","[[3,1,0],[2,0],[0]]","5","[[1,0,0],[2,3],[0]]","5","0","","","","","","6","","","","",""
"","","","","","single-stim-button","214","852899","0.0-3.0-25.5-0.5","5c50ccae2423780001085cb9","C3","batch3","tol_tohand","1310","","","","","","","","","tol_peg_1","1310","1310","0","[[3,0,0],[2,0],[0]]","6","[[1,0,0],[2,3],[0]]","5","0","","","","","","6","","","","",""
"","","","","","single-stim-button","215","853861","0.0-3.0-25.5-1.5","5c50ccae2423780001085cb9","C3","batch3","tol_toboard","960","","","","","","","","","tol_peg_3","960","960","0","[[3,0,0],[2,0],[1]]","6","[[1,0,0],[2,3],[0]]","5","0","","","","","","6","","","","",""
"","","","","","single-stim-button","216","854605","0.0-3.0-25.6-0.6","5c50ccae2423780001085cb9","C3","batch3","tol_tohand","742","","","","","","","","","tol_peg_1","742","742","0","[[0,0,0],[2,0],[1]]","7","[[1,0,0],[2,3],[0]]","5","0","","","","","","6","","","","",""
"","","","","","single-stim-button","217","855442","0.0-3.0-25.6-1.6","5c50ccae2423780001085cb9","C3","batch3","tol_toboard","837","","","","","","","","","tol_peg_2","837","837","0","[[0,0,0],[2,3],[1]]","7","[[1,0,0],[2,3],[0]]","5","0","","","","","","6","","","","",""
"","","","","","single-stim-button","218","856183","0.0-3.0-25.7-0.7","5c50ccae2423780001085cb9","C3","batch3","tol_tohand","739","","","","","","","","","tol_peg_3","739","739","0","[[0,0,0],[2,3],[0]]","8","[[1,0,0],[2,3],[0]]","5","0","","","","","","6","","","","",""
"","","","","","single-stim-button","219","856964","0.0-3.0-25.7-1.7","5c50ccae2423780001085cb9","C3","batch3","tol_toboard","779","","","","","","","","","tol_peg_1","779","779","0","[[1,0,0],[2,3],[0]]","8","[[1,0,0],[2,3],[0]]","5","0","","","","","","6","","","","",""
"","","","","","poldrack-single-stim","220","857968","0.0-3.0-26.0","5c50ccae2423780001085cb9","C3","batch3","tol_feedback","-1","","","","","true","","","","","1000","1000","500","","","","","","-1","none","true","5271","17717","","","","","",""
"","","","","","html-button-response","221","858767","0.0-3.0-27.0","5c50ccae2423780001085cb9","C3","batch3","tol_trial_num","796.8999999985099","<div class = centerbox><p class = center-block-text>problem <strong>7</strong> out of 25 problems</p></div>","0","","","","","","","","","","","","","","","","","","","","","","","","","",""
"","","","","","single-stim-button","222","860817","0.0-3.0-28.0-0.0","5c50ccae2423780001085cb9","C3","batch3","tol_tohand","2048","","","","","","","","","tol_peg_1","2048","2048","0","[[2,0,0],[0,0],[3]]","1","[[1,2,0],[3,0],[0]]","6","0","","","","","","5","","","","",""
"","","","","","single-stim-button","223","861957","0.0-3.0-28.0-1.0","5c50ccae2423780001085cb9","C3","batch3","tol_toboard","1139","","","","","","","","","tol_peg_2","1139","1139","0","[[2,0,0],[1,0],[3]]","1","[[1,2,0],[3,0],[0]]","6","0","","","","","","5","","","","",""
"","","","","","single-stim-button","224","867727","0.0-3.0-28.1-0.1","5c50ccae2423780001085cb9","C3","batch3","tol_tohand","5769","","","","","","","","","tol_peg_3","5769","5769","0","[[2,0,0],[1,0],[0]]","2","[[1,2,0],[3,0],[0]]","6","0","","","","","","5","","","","",""
"","","","","","single-stim-button","225","869401","0.0-3.0-28.1-1.1","5c50ccae2423780001085cb9","C3","batch3","tol_toboard","1672","","","","","","","","","tol_peg_2","1672","1672","0","[[2,0,0],[1,3],[0]]","2","[[1,2,0],[3,0],[0]]","6","0","","","","","","5","","","","",""
"","","","","","single-stim-button","226","870435","0.0-3.0-28.2-0.2","5c50ccae2423780001085cb9","C3","batch3","tol_tohand","1033","","","","","","","","","tol_peg_1","1033","1033","0","[[0,0,0],[1,3],[0]]","3","[[1,2,0],[3,0],[0]]","6","0","","","","","","5","","","","",""
"","","","","","single-stim-button","227","871827","0.0-3.0-28.2-1.2","5c50ccae2423780001085cb9","C3","batch3","tol_toboard","1391","","","","","","","","","tol_peg_3","1391","1391","0","[[0,0,0],[1,3],[2]]","3","[[1,2,0],[3,0],[0]]","6","0","","","","","","5","","","","",""
"","","","","","single-stim-button","228","877705","0.0-3.0-28.3-0.3","5c50ccae2423780001085cb9","C3","batch3","tol_tohand","5877","","","","","","","","","tol_peg_2","5877","5877","0","[[0,0,0],[1,0],[2]]","4","[[1,2,0],[3,0],[0]]","6","0","","","","","","5","","","","",""
"","","","","","single-stim-button","229","878911","0.0-3.0-28.3-1.3","5c50ccae2423780001085cb9","C3","batch3","tol_toboard","1204","","","","","","","","","tol_peg_2","1204","1204","0","[[0,0,0],[1,3],[2]]","4","[[1,2,0],[3,0],[0]]","6","0","","","","","","5","","","","",""
"","","","","","single-stim-button","230","883577","0.0-3.0-28.4-0.4","5c50ccae2423780001085cb9","C3","batch3","tol_tohand","4664","","","","","","","","","tol_peg_3","4664","4664","0","[[0,0,0],[1,3],[0]]","5","[[1,2,0],[3,0],[0]]","6","0","","","","","","5","","","","",""
"","","","","","single-stim-button","231","884495","0.0-3.0-28.4-1.4","5c50ccae2423780001085cb9","C3","batch3","tol_toboard","916","","","","","","","","","tol_peg_1","916","916","0","[[2,0,0],[1,3],[0]]","5","[[1,2,0],[3,0],[0]]","6","0","","","","","","5","","","","",""
"","","","","","single-stim-button","232","885855","0.0-3.0-28.5-0.5","5c50ccae2423780001085cb9","C3","batch3","tol_tohand","1358","","","","","","","","","tol_peg_2","1358","1358","0","[[2,0,0],[1,0],[0]]","6","[[1,2,0],[3,0],[0]]","6","0","","","","","","5","","","","",""
"","","","","","single-stim-button","233","887033","0.0-3.0-28.5-1.5","5c50ccae2423780001085cb9","C3","batch3","tol_toboard","1177","","","","","","","","","tol_peg_3","1177","1177","0","[[2,0,0],[1,0],[3]]","6","[[1,2,0],[3,0],[0]]","6","0","","","","","","5","","","","",""
"","","","","","single-stim-button","234","889395","0.0-3.0-28.6-0.6","5c50ccae2423780001085cb9","C3","batch3","tol_tohand","2361","","","","","","","","","tol_peg_2","2361","2361","0","[[2,0,0],[0,0],[3]]","7","[[1,2,0],[3,0],[0]]","6","0","","","","","","5","","","","",""
"","","","","","single-stim-button","235","891709","0.0-3.0-28.6-1.6","5c50ccae2423780001085cb9","C3","batch3","tol_toboard","2313","","","","","","","","","tol_peg_1","2313","2313","0","[[2,1,0],[0,0],[3]]","7","[[1,2,0],[3,0],[0]]","6","0","","","","","","5","","","","",""
"","","","","","single-stim-button","236","893003","0.0-3.0-28.7-0.7","5c50ccae2423780001085cb9","C3","batch3","tol_tohand","1292","","","","","","","","","tol_peg_3","1292","1292","0","[[2,1,0],[0,0],[0]]","8","[[1,2,0],[3,0],[0]]","6","0","","","","","","5","","","","",""
"","","","","","single-stim-button","237","894201","0.0-3.0-28.7-1.7","5c50ccae2423780001085cb9","C3","batch3","tol_toboard","1196","","","","","","","","","tol_peg_2","1196","1196","0","[[2,1,0],[3,0],[0]]","8","[[1,2,0],[3,0],[0]]","6","0","","","","","","5","","","","",""
"","","","","","single-stim-button","238","895399","0.0-3.0-28.8-0.8","5c50ccae2423780001085cb9","C3","batch3","tol_tohand","1197","","","","","","","","","tol_peg_1","1197","1197","0","[[2,0,0],[3,0],[0]]","9","[[1,2,0],[3,0],[0]]","6","0","","","","","","5","","","","",""
"","","","","","single-stim-button","239","896127","0.0-3.0-28.8-1.8","5c50ccae2423780001085cb9","C3","batch3","tol_toboard","726","","","","","","","","","tol_peg_3","726","726","0","[[2,0,0],[3,0],[1]]","9","[[1,2,0],[3,0],[0]]","6","0","","","","","","5","","","","",""
"","","","","","single-stim-button","240","896837","0.0-3.0-28.9-0.9","5c50ccae2423780001085cb9","C3","batch3","tol_tohand","709","","","","","","","","","tol_peg_1","709","709","0","[[0,0,0],[3,0],[1]]","10","[[1,2,0],[3,0],[0]]","6","0","","","","","","5","","","","",""
"","","","","","single-stim-button","241","898033","0.0-3.0-28.9-1.9","5c50ccae2423780001085cb9","C3","batch3","tol_toboard","1194","","","","","","","","","tol_peg_2","1194","1194","0","[[0,0,0],[3,2],[1]]","10","[[1,2,0],[3,0],[0]]","6","0","","","","","","5","","","","",""
"","","","","","single-stim-button","242","899013","0.0-3.0-28.10-0.10","5c50ccae2423780001085cb9","C3","batch3","tol_tohand","979","","","","","","","","","tol_peg_3","979","979","0","[[0,0,0],[3,2],[0]]","11","[[1,2,0],[3,0],[0]]","6","0","","","","","","5","","","","",""
"","","","","","single-stim-button","243","899947","0.0-3.0-28.10-1.10","5c50ccae2423780001085cb9","C3","batch3","tol_toboard","933","","","","","","","","","tol_peg_1","933","933","0","[[1,0,0],[3,2],[0]]","11","[[1,2,0],[3,0],[0]]","6","0","","","","","","5","","","","",""
"","","","","","single-stim-button","244","900875","0.0-3.0-28.11-0.11","5c50ccae2423780001085cb9","C3","batch3","tol_tohand","927","","","","","","","","","tol_peg_2","927","927","0","[[1,0,0],[3,0],[0]]","12","[[1,2,0],[3,0],[0]]","6","0","","","","","","5","","","","",""
"","","","","","single-stim-button","245","901727","0.0-3.0-28.11-1.11","5c50ccae2423780001085cb9","C3","batch3","tol_toboard","851","","","","","","","","","tol_peg_1","851","851","0","[[1,2,0],[3,0],[0]]","12","[[1,2,0],[3,0],[0]]","6","0","","","","","","5","","","","",""
"","","","","","poldrack-single-stim","246","902728","0.0-3.0-29.0","5c50ccae2423780001085cb9","C3","batch3","tol_feedback","-1","","","","","true","","","","","1000","1000","500","","","","","","-1","none","true","2048","28214","","","","","",""
"","","","","","html-button-response","247","903762","0.0-3.0-30.0","5c50ccae2423780001085cb9","C3","batch3","tol_trial_num","1033.0999999940395","<div class = centerbox><p class = center-block-text>problem <strong>8</strong> out of 25 problems</p></div>","0","","","","","","","","","","","","","","","","","","","","","","","","","",""
"","","","","","single-stim-button","248","907393","0.0-3.0-31.0-0.0","5c50ccae2423780001085cb9","C3","batch3","tol_tohand","3629","","","","","","","","","tol_peg_3","3629","3629","0","[[0,0,0],[2,3],[0]]","1","[[1,2,0],[3,0],[0]]","7","0","","","","","","4","","","","",""
"","","","","","single-stim-button","249","908555","0.0-3.0-31.0-1.0","5c50ccae2423780001085cb9","C3","batch3","tol_toboard","1160","","","","","","","","","tol_peg_1","1160","1160","0","[[1,0,0],[2,3],[0]]","1","[[1,2,0],[3,0],[0]]","7","0","","","","","","4","","","","",""
"","","","","","single-stim-button","250","909921","0.0-3.0-31.1-0.1","5c50ccae2423780001085cb9","C3","batch3","tol_tohand","1365","","","","","","","","","tol_peg_2","1365","1365","0","[[1,0,0],[2,0],[0]]","2","[[1,2,0],[3,0],[0]]","7","0","","","","","","4","","","","",""
"","","","","","single-stim-button","251","910892","0.0-3.0-31.1-1.1","5c50ccae2423780001085cb9","C3","batch3","tol_toboard","970","","","","","","","","","tol_peg_3","970","970","0","[[1,0,0],[2,0],[3]]","2","[[1,2,0],[3,0],[0]]","7","0","","","","","","4","","","","",""
"","","","","","single-stim-button","252","911529","0.0-3.0-31.2-0.2","5c50ccae2423780001085cb9","C3","batch3","tol_tohand","635","","","","","","","","","tol_peg_2","635","635","0","[[1,0,0],[0,0],[3]]","3","[[1,2,0],[3,0],[0]]","7","0","","","","","","4","","","","",""
"","","","","","single-stim-button","253","914320","0.0-3.0-31.2-1.2","5c50ccae2423780001085cb9","C3","batch3","tol_toboard","2790","","","","","","","","","tol_peg_1","2790","2790","0","[[1,2,0],[0,0],[3]]","3","[[1,2,0],[3,0],[0]]","7","0","","","","","","4","","","","",""
"","","","","","single-stim-button","254","916827","0.0-3.0-31.3-0.3","5c50ccae2423780001085cb9","C3","batch3","tol_tohand","2505","","","","","","","","","tol_peg_3","2505","2505","0","[[1,2,0],[0,0],[0]]","4","[[1,2,0],[3,0],[0]]","7","0","","","","","","4","","","","",""
"","","","","","single-stim-button","255","917364","0.0-3.0-31.3-1.3","5c50ccae2423780001085cb9","C3","batch3","tol_toboard","536","","","","","","","","","tol_peg_2","536","536","0","[[1,2,0],[3,0],[0]]","4","[[1,2,0],[3,0],[0]]","7","0","","","","","","4","","","","",""
"","","","","","poldrack-single-stim","256","918368","0.0-3.0-32.0","5c50ccae2423780001085cb9","C3","batch3","tol_feedback","-1","","","","","true","","","","","1000","1000","500","","","","","","-1","none","true","3629","8134","","","","","",""
"","","","","","html-button-response","257","919315","0.0-3.0-33.0","5c50ccae2423780001085cb9","C3","batch3","tol_trial_num","945.3999999985099","<div class = centerbox><p class = center-block-text>problem <strong>9</strong> out of 25 problems</p></div>","0","","","","","","","","","","","","","","","","","","","","","","","","","",""
"","","","","","single-stim-button","258","927049","0.0-3.0-34.0-0.0","5c50ccae2423780001085cb9","C3","batch3","tol_tohand","7733","","","","","","","","","tol_peg_1","7733","7733","0","[[3,0,0],[0,0],[1]]","1","[[2,1,0],[3,0],[0]]","8","0","","","","","","6","","","","",""
"","","","","","single-stim-button","259","929927","0.0-3.0-34.0-1.0","5c50ccae2423780001085cb9","C3","batch3","tol_toboard","2876","","","","","","","","","tol_peg_2","2876","2876","0","[[3,0,0],[2,0],[1]]","1","[[2,1,0],[3,0],[0]]","8","0","","","","","","6","","","","",""
"","","","","","single-stim-button","260","930747","0.0-3.0-34.1-0.1","5c50ccae2423780001085cb9","C3","batch3","tol_tohand","818","","","","","","","","","tol_peg_3","818","818","0","[[3,0,0],[2,0],[0]]","2","[[2,1,0],[3,0],[0]]","8","0","","","","","","6","","","","",""
"","","","","","single-stim-button","261","931551","0.0-3.0-34.1-1.1","5c50ccae2423780001085cb9","C3","batch3","tol_toboard","803","","","","","","","","","tol_peg_2","803","803","0","[[3,0,0],[2,1],[0]]","2","[[2,1,0],[3,0],[0]]","8","0","","","","","","6","","","","",""
"","","","","","single-stim-button","262","933069","0.0-3.0-34.2-0.2","5c50ccae2423780001085cb9","C3","batch3","tol_tohand","1516","","","","","","","","","tol_peg_1","1516","1516","0","[[0,0,0],[2,1],[0]]","3","[[2,1,0],[3,0],[0]]","8","0","","","","","","6","","","","",""
"","","","","","single-stim-button","263","935459","0.0-3.0-34.2-1.2","5c50ccae2423780001085cb9","C3","batch3","tol_toboard","2389","","","","","","","","","tol_peg_3","2389","2389","0","[[0,0,0],[2,1],[3]]","3","[[2,1,0],[3,0],[0]]","8","0","","","","","","6","","","","",""
"","","","","","single-stim-button","264","940455","0.0-3.0-34.3-0.3","5c50ccae2423780001085cb9","C3","batch3","tol_tohand","4994","","","","","","","","","tol_peg_2","4994","4994","0","[[0,0,0],[2,0],[3]]","4","[[2,1,0],[3,0],[0]]","8","0","","","","","","6","","","","",""
"","","","","","single-stim-button","265","945461","0.0-3.0-34.3-1.3","5c50ccae2423780001085cb9","C3","batch3","tol_toboard","5005","","","","","","","","","tol_peg_1","5005","5005","0","[[1,0,0],[2,0],[3]]","4","[[2,1,0],[3,0],[0]]","8","0","","","","","","6","","","","",""
"","","","","","single-stim-button","266","946557","0.0-3.0-34.4-0.4","5c50ccae2423780001085cb9","C3","batch3","tol_tohand","1094","","","","","","","","","tol_peg_3","1094","1094","0","[[1,0,0],[2,0],[0]]","5","[[2,1,0],[3,0],[0]]","8","0","","","","","","6","","","","",""
"","","","","","single-stim-button","267","948237","0.0-3.0-34.4-1.4","5c50ccae2423780001085cb9","C3","batch3","tol_toboard","1678","","","","","","","","","tol_peg_2","1678","1678","0","[[1,0,0],[2,3],[0]]","5","[[2,1,0],[3,0],[0]]","8","0","","","","","","6","","","","",""
"","","","","","single-stim-button","268","951373","0.0-3.0-34.5-0.5","5c50ccae2423780001085cb9","C3","batch3","tol_tohand","3134","","","","","","","","","tol_peg_2","3134","3134","0","[[1,0,0],[2,0],[0]]","6","[[2,1,0],[3,0],[0]]","8","0","","","","","","6","","","","",""
"","","","","","single-stim-button","269","954675","0.0-3.0-34.5-1.5","5c50ccae2423780001085cb9","C3","batch3","tol_toboard","3300","","","","","","","","","tol_peg_2","3300","3300","0","[[1,0,0],[2,3],[0]]","6","[[2,1,0],[3,0],[0]]","8","0","","","","","","6","","","","",""
"","","","","","single-stim-button","270","955490","0.0-3.0-34.6-0.6","5c50ccae2423780001085cb9","C3","batch3","tol_tohand","814","","","","","","","","","tol_peg_1","814","814","0","[[0,0,0],[2,3],[0]]","7","[[2,1,0],[3,0],[0]]","8","0","","","","","","6","","","","",""
"","","","","","single-stim-button","271","957123","0.0-3.0-34.6-1.6","5c50ccae2423780001085cb9","C3","batch3","tol_toboard","1631","","","","","","","","","tol_peg_3","1631","1631","0","[[0,0,0],[2,3],[1]]","7","[[2,1,0],[3,0],[0]]","8","0","","","","","","6","","","","",""
"","","","","","single-stim-button","272","961113","0.0-3.0-34.7-0.7","5c50ccae2423780001085cb9","C3","batch3","tol_tohand","3989","","","","","","","","","tol_peg_2","3989","3989","0","[[0,0,0],[2,0],[1]]","8","[[2,1,0],[3,0],[0]]","8","0","","","","","","6","","","","",""
"","","","","","single-stim-button","273","967443","0.0-3.0-34.7-1.7","5c50ccae2423780001085cb9","C3","batch3","tol_toboard","6328","","","","","","","","","tol_peg_2","6328","6328","0","[[0,0,0],[2,3],[1]]","8","[[2,1,0],[3,0],[0]]","8","0","","","","","","6","","","","",""
"","","","","","single-stim-button","274","969445","0.0-3.0-34.8-0.8","5c50ccae2423780001085cb9","C3","batch3","tol_tohand","2000","","","","","","","","","tol_peg_3","2000","2000","0","[[0,0,0],[2,3],[0]]","9","[[2,1,0],[3,0],[0]]","8","0","","","","","","6","","","","",""
"","","","","","single-stim-button","275","970829","0.0-3.0-34.8-1.8","5c50ccae2423780001085cb9","C3","batch3","tol_toboard","1382","","","","","","","","","tol_peg_1","1382","1382","0","[[1,0,0],[2,3],[0]]","9","[[2,1,0],[3,0],[0]]","8","0","","","","","","6","","","","",""
"","","","","","single-stim-button","276","971727","0.0-3.0-34.9-0.9","5c50ccae2423780001085cb9","C3","batch3","tol_tohand","896","","","","","","","","","tol_peg_2","896","896","0","[[1,0,0],[2,0],[0]]","10","[[2,1,0],[3,0],[0]]","8","0","","","","","","6","","","","",""
"","","","","","single-stim-button","277","973401","0.0-3.0-34.9-1.9","5c50ccae2423780001085cb9","C3","batch3","tol_toboard","1673","","","","","","","","","tol_peg_3","1673","1673","0","[[1,0,0],[2,0],[3]]","10","[[2,1,0],[3,0],[0]]","8","0","","","","","","6","","","","",""
"","","","","","single-stim-button","278","979045","0.0-3.0-34.10-0.10","5c50ccae2423780001085cb9","C3","batch3","tol_tohand","5642","","","","","","","","","tol_peg_2","5642","5642","0","[[1,0,0],[0,0],[3]]","11","[[2,1,0],[3,0],[0]]","8","0","","","","","","6","","","","",""
"","","","","","single-stim-button","279","980788","0.0-3.0-34.10-1.10","5c50ccae2423780001085cb9","C3","batch3","tol_toboard","1742","","","","","","","","","tol_peg_1","1742","1742","0","[[1,2,0],[0,0],[3]]","11","[[2,1,0],[3,0],[0]]","8","0","","","","","","6","","","","",""
"","","","","","single-stim-button","280","981967","0.0-3.0-34.11-0.11","5c50ccae2423780001085cb9","C3","batch3","tol_tohand","1177","","","","","","","","","tol_peg_3","1177","1177","0","[[1,2,0],[0,0],[0]]","12","[[2,1,0],[3,0],[0]]","8","0","","","","","","6","","","","",""
"","","","","","single-stim-button","281","982857","0.0-3.0-34.11-1.11","5c50ccae2423780001085cb9","C3","batch3","tol_toboard","888","","","","","","","","","tol_peg_2","888","888","0","[[1,2,0],[3,0],[0]]","12","[[2,1,0],[3,0],[0]]","8","0","","","","","","6","","","","",""
"","","","","","single-stim-button","282","984131","0.0-3.0-34.12-0.12","5c50ccae2423780001085cb9","C3","batch3","tol_tohand","1272","","","","","","","","","tol_peg_1","1272","1272","0","[[1,0,0],[3,0],[0]]","13","[[2,1,0],[3,0],[0]]","8","0","","","","","","6","","","","",""
"","","","","","single-stim-button","283","985247","0.0-3.0-34.12-1.12","5c50ccae2423780001085cb9","C3","batch3","tol_toboard","1115","","","","","","","","","tol_peg_3","1115","1115","0","[[1,0,0],[3,0],[2]]","13","[[2,1,0],[3,0],[0]]","8","0","","","","","","6","","","","",""
"","","","","","single-stim-button","284","986315","0.0-3.0-34.13-0.13","5c50ccae2423780001085cb9","C3","batch3","tol_tohand","1067","","","","","","","","","tol_peg_1","1067","1067","0","[[0,0,0],[3,0],[2]]","14","[[2,1,0],[3,0],[0]]","8","0","","","","","","6","","","","",""
"","","","","","single-stim-button","285","987205","0.0-3.0-34.13-1.13","5c50ccae2423780001085cb9","C3","batch3","tol_toboard","889","","","","","","","","","tol_peg_2","889","889","0","[[0,0,0],[3,1],[2]]","14","[[2,1,0],[3,0],[0]]","8","0","","","","","","6","","","","",""
"","","","","","single-stim-button","286","988119","0.0-3.0-34.14-0.14","5c50ccae2423780001085cb9","C3","batch3","tol_tohand","912","","","","","","","","","tol_peg_3","912","912","0","[[0,0,0],[3,1],[0]]","15","[[2,1,0],[3,0],[0]]","8","0","","","","","","6","","","","",""
"","","","","","single-stim-button","287","989366","0.0-3.0-34.14-1.14","5c50ccae2423780001085cb9","C3","batch3","tol_toboard","1246","","","","","","","","","tol_peg_1","1246","1246","0","[[2,0,0],[3,1],[0]]","15","[[2,1,0],[3,0],[0]]","8","0","","","","","","6","","","","",""
"","","","","","single-stim-button","288","990509","0.0-3.0-34.15-0.15","5c50ccae2423780001085cb9","C3","batch3","tol_tohand","1141","","","","","","","","","tol_peg_2","1141","1141","0","[[2,0,0],[3,0],[0]]","16","[[2,1,0],[3,0],[0]]","8","0","","","","","","6","","","","",""
"","","","","","single-stim-button","289","991170","0.0-3.0-34.15-1.15","5c50ccae2423780001085cb9","C3","batch3","tol_toboard","660","","","","","","","","","tol_peg_1","660","660","0","[[2,1,0],[3,0],[0]]","16","[[2,1,0],[3,0],[0]]","8","0","","","","","","6","","","","",""
"","","","","","poldrack-single-stim","290","992176","0.0-3.0-35.0","5c50ccae2423780001085cb9","C3","batch3","tol_feedback","-1","","","","","true","","","","","1000","1000","500","","","","","","-1","none","true","7733","38199","","","","","",""
"","","","","","html-button-response","291","992891","0.0-3.0-36.0","5c50ccae2423780001085cb9","C3","batch3","tol_trial_num","713","<div class = centerbox><p class = center-block-text>problem <strong>10</strong> out of 25 problems</p></div>","0","","","","","","","","","","","","","","","","","","","","","","","","","",""
"","","","","","single-stim-button","292","996603","0.0-3.0-37.0-0.0","5c50ccae2423780001085cb9","C3","batch3","tol_tohand","3710","","","","","","","","","tol_peg_2","3710","3710","0","[[3,0,0],[0,0],[2]]","1","[[3,0,0],[2,1],[0]]","9","0","","","","","","3","","","","",""
"","","","","","single-stim-button","293","998577","0.0-3.0-37.0-1.0","5c50ccae2423780001085cb9","C3","batch3","tol_toboard","1972","","","","","","","","","tol_peg_1","1972","1972","0","[[3,1,0],[0,0],[2]]","1","[[3,0,0],[2,1],[0]]","9","0","","","","","","3","","","","",""
"","","","","","single-stim-button","294","999435","0.0-3.0-37.1-0.1","5c50ccae2423780001085cb9","C3","batch3","tol_tohand","857","","","","","","","","","tol_peg_3","857","857","0","[[3,1,0],[0,0],[0]]","2","[[3,0,0],[2,1],[0]]","9","0","","","","","","3","","","","",""
"","","","","","single-stim-button","295","1000717","0.0-3.0-37.1-1.1","5c50ccae2423780001085cb9","C3","batch3","tol_toboard","1280","","","","","","","","","tol_peg_2","1280","1280","0","[[3,1,0],[2,0],[0]]","2","[[3,0,0],[2,1],[0]]","9","0","","","","","","3","","","","",""
"","","","","","single-stim-button","296","1001232","0.0-3.0-37.2-0.2","5c50ccae2423780001085cb9","C3","batch3","tol_tohand","515","","","","","","","","","tol_peg_1","515","515","0","[[3,0,0],[2,0],[0]]","3","[[3,0,0],[2,1],[0]]","9","0","","","","","","3","","","","",""
"","","","","","single-stim-button","297","1001844","0.0-3.0-37.2-1.2","5c50ccae2423780001085cb9","C3","batch3","tol_toboard","611","","","","","","","","","tol_peg_2","611","611","0","[[3,0,0],[2,1],[0]]","3","[[3,0,0],[2,1],[0]]","9","0","","","","","","3","","","","",""
"","","","","","poldrack-single-stim","298","1002847","0.0-3.0-38.0","5c50ccae2423780001085cb9","C3","batch3","tol_feedback","-1","","","","","true","","","","","1000","1000","500","","","","","","-1","none","true","3710","5082","","","","","",""
"","","","","","html-button-response","299","1003501","0.0-3.0-39.0","5c50ccae2423780001085cb9","C3","batch3","tol_trial_num","652.8999999985099","<div class = centerbox><p class = center-block-text>problem <strong>11</strong> out of 25 problems</p></div>","0","","","","","","","","","","","","","","","","","","","","","","","","","",""
"","","","","","single-stim-button","300","1008570","0.0-3.0-40.0-0.0","5c50ccae2423780001085cb9","C3","batch3","tol_tohand","5068","","","","","","","","","tol_peg_2","5068","5068","0","[[1,2,0],[0,0],[0]]","1","[[2,0,0],[1,3],[0]]","10","0","","","","","","6","","","","",""
"","","","","","single-stim-button","301","1012697","0.0-3.0-40.0-1.0","5c50ccae2423780001085cb9","C3","batch3","tol_toboard","4125","","","","","","","","","tol_peg_2","4125","4125","0","[[1,2,0],[3,0],[0]]","1","[[2,0,0],[1,3],[0]]","10","0","","","","","","6","","","","",""
"","","","","","single-stim-button","302","1013611","0.0-3.0-40.1-0.1","5c50ccae2423780001085cb9","C3","batch3","tol_tohand","913","","","","","","","","","tol_peg_1","913","913","0","[[1,0,0],[3,0],[0]]","2","[[2,0,0],[1,3],[0]]","10","0","","","","","","6","","","","",""
"","","","","","single-stim-button","303","1014990","0.0-3.0-40.1-1.1","5c50ccae2423780001085cb9","C3","batch3","tol_toboard","1378","","","","","","","","","tol_peg_3","1378","1378","0","[[1,0,0],[3,0],[2]]","2","[[2,0,0],[1,3],[0]]","10","0","","","","","","6","","","","",""
"","","","","","single-stim-button","304","1015861","0.0-3.0-40.2-0.2","5c50ccae2423780001085cb9","C3","batch3","tol_tohand","869","","","","","","","","","tol_peg_1","869","869","0","[[0,0,0],[3,0],[2]]","3","[[2,0,0],[1,3],[0]]","10","0","","","","","","6","","","","",""
"","","","","","single-stim-button","305","1016933","0.0-3.0-40.2-1.2","5c50ccae2423780001085cb9","C3","batch3","tol_toboard","1070","","","","","","","","","tol_peg_2","1070","1070","0","[[0,0,0],[3,1],[2]]","3","[[2,0,0],[1,3],[0]]","10","0","","","","","","6","","","","",""
"","","","","","single-stim-button","306","1017763","0.0-3.0-40.3-0.3","5c50ccae2423780001085cb9","C3","batch3","tol_tohand","828","","","","","","","","","tol_peg_3","828","828","0","[[0,0,0],[3,1],[0]]","4","[[2,0,0],[1,3],[0]]","10","0","","","","","","6","","","","",""
"","","","","","single-stim-button","307","1019057","0.0-3.0-40.3-1.3","5c50ccae2423780001085cb9","C3","batch3","tol_toboard","1293","","","","","","","","","tol_peg_1","1293","1293","0","[[2,0,0],[3,1],[0]]","4","[[2,0,0],[1,3],[0]]","10","0","","","","","","6","","","","",""
"","","","","","single-stim-button","308","1025455","0.0-3.0-40.4-0.4","5c50ccae2423780001085cb9","C3","batch3","tol_tohand","6396","","","","","","","","","tol_peg_2","6396","6396","0","[[2,0,0],[3,0],[0]]","5","[[2,0,0],[1,3],[0]]","10","0","","","","","","6","","","","",""
"","","","","","single-stim-button","309","1026875","0.0-3.0-40.4-1.4","5c50ccae2423780001085cb9","C3","batch3","tol_toboard","1418","","","","","","","","","tol_peg_1","1418","1418","0","[[2,1,0],[3,0],[0]]","5","[[2,0,0],[1,3],[0]]","10","0","","","","","","6","","","","",""
"","","","","","single-stim-button","310","1027673","0.0-3.0-40.5-0.5","5c50ccae2423780001085cb9","C3","batch3","tol_tohand","797","","","","","","","","","tol_peg_2","797","797","0","[[2,1,0],[0,0],[0]]","6","[[2,0,0],[1,3],[0]]","10","0","","","","","","6","","","","",""
"","","","","","single-stim-button","311","1029157","0.0-3.0-40.5-1.5","5c50ccae2423780001085cb9","C3","batch3","tol_toboard","1483","","","","","","","","","tol_peg_3","1483","1483","0","[[2,1,0],[0,0],[3]]","6","[[2,0,0],[1,3],[0]]","10","0","","","","","","6","","","","",""
"","","","","","single-stim-button","312","1029782","0.0-3.0-40.6-0.6","5c50ccae2423780001085cb9","C3","batch3","tol_tohand","624","","","","","","","","","tol_peg_1","624","624","0","[[2,0,0],[0,0],[3]]","7","[[2,0,0],[1,3],[0]]","10","0","","","","","","6","","","","",""
"","","","","","single-stim-button","313","1030561","0.0-3.0-40.6-1.6","5c50ccae2423780001085cb9","C3","batch3","tol_toboard","776","","","","","","","","","tol_peg_2","776","776","0","[[2,0,0],[1,0],[3]]","7","[[2,0,0],[1,3],[0]]","10","0","","","","","","6","","","","",""
"","","","","","single-stim-button","314","1031103","0.0-3.0-40.7-0.7","5c50ccae2423780001085cb9","C3","batch3","tol_tohand","540","","","","","","","","","tol_peg_3","540","540","0","[[2,0,0],[1,0],[0]]","8","[[2,0,0],[1,3],[0]]","10","0","","","","","","6","","","","",""
"","","","","","single-stim-button","315","1031769","0.0-3.0-40.7-1.7","5c50ccae2423780001085cb9","C3","batch3","tol_toboard","664","","","","","","","","","tol_peg_2","664","664","0","[[2,0,0],[1,3],[0]]","8","[[2,0,0],[1,3],[0]]","10","0","","","","","","6","","","","",""
"","","","","","poldrack-single-stim","316","1032777","0.0-3.0-41.0","5c50ccae2423780001085cb9","C3","batch3","tol_feedback","-1","","","","","true","","","","","1000","1000","500","","","","","","-1","none","true","5068","16035","","","","","",""
"","","","","","html-button-response","317","1033567","0.0-3.0-42.0","5c50ccae2423780001085cb9","C3","batch3","tol_trial_num","788.2999999970198","<div class = centerbox><p class = center-block-text>problem <strong>12</strong> out of 25 problems</p></div>","0","","","","","","","","","","","","","","","","","","","","","","","","","",""
"","","","","","single-stim-button","318","1037844","0.0-3.0-43.0-0.0","5c50ccae2423780001085cb9","C3","batch3","tol_tohand","4276","","","","","","","","","tol_peg_1","4276","4276","0","[[1,0,0],[3,0],[0]]","1","[[2,3,0],[0,0],[1]]","11","0","","","","","","4","","","","",""
"","","","","","single-stim-button","319","1039067","0.0-3.0-43.0-1.0","5c50ccae2423780001085cb9","C3","batch3","tol_toboard","1221","","","","","","","","","tol_peg_2","1221","1221","0","[[1,0,0],[3,2],[0]]","1","[[2,3,0],[0,0],[1]]","11","0","","","","","","4","","","","",""
"","","","","","single-stim-button","320","1039971","0.0-3.0-43.1-0.1","5c50ccae2423780001085cb9","C3","batch3","tol_tohand","903","","","","","","","","","tol_peg_1","903","903","0","[[0,0,0],[3,2],[0]]","2","[[2,3,0],[0,0],[1]]","11","0","","","","","","4","","","","",""
"","","","","","single-stim-button","321","1041129","0.0-3.0-43.1-1.1","5c50ccae2423780001085cb9","C3","batch3","tol_toboard","1156","","","","","","","","","tol_peg_3","1156","1156","0","[[0,0,0],[3,2],[1]]","2","[[2,3,0],[0,0],[1]]","11","0","","","","","","4","","","","",""
"","","","","","single-stim-button","322","1041921","0.0-3.0-43.2-0.2","5c50ccae2423780001085cb9","C3","batch3","tol_tohand","790","","","","","","","","","tol_peg_2","790","790","0","[[0,0,0],[3,0],[1]]","3","[[2,3,0],[0,0],[1]]","11","0","","","","","","4","","","","",""
"","","","","","single-stim-button","323","1042561","0.0-3.0-43.2-1.2","5c50ccae2423780001085cb9","C3","batch3","tol_toboard","638","","","","","","","","","tol_peg_1","638","638","0","[[2,0,0],[3,0],[1]]","3","[[2,3,0],[0,0],[1]]","11","0","","","","","","4","","","","",""
"","","","","","single-stim-button","324","1043851","0.0-3.0-43.3-0.3","5c50ccae2423780001085cb9","C3","batch3","tol_tohand","1288","","","","","","","","","tol_peg_2","1288","1288","0","[[2,0,0],[0,0],[1]]","4","[[2,3,0],[0,0],[1]]","11","0","","","","","","4","","","","",""
"","","","","","single-stim-button","325","1045137","0.0-3.0-43.3-1.3","5c50ccae2423780001085cb9","C3","batch3","tol_toboard","1285","","","","","","","","","tol_peg_1","1285","1285","0","[[2,3,0],[0,0],[1]]","4","[[2,3,0],[0,0],[1]]","11","0","","","","","","4","","","","",""
"","","","","","poldrack-single-stim","326","1046145","0.0-3.0-44.0","5c50ccae2423780001085cb9","C3","batch3","tol_feedback","-1","","","","","true","","","","","1000","1000","500","","","","","","-1","none","true","4276","7257","","","","","",""
"","","","","","html-button-response","327","1046953","0.0-3.0-45.0","5c50ccae2423780001085cb9","C3","batch3","tol_trial_num","806.8000000044703","<div class = centerbox><p class = center-block-text>problem <strong>13</strong> out of 25 problems</p></div>","0","","","","","","","","","","","","","","","","","","","","","","","","","",""
"","","","","","single-stim-button","328","1052107","0.0-3.0-46.0-0.0","5c50ccae2423780001085cb9","C3","batch3","tol_tohand","5152","","","","","","","","","tol_peg_2","5152","5152","0","[[1,2,0],[0,0],[0]]","1","[[0,0,0],[2,3],[1]]","12","0","","","","","","4","","","","",""
"","","","","","single-stim-button","329","1053249","0.0-3.0-46.0-1.0","5c50ccae2423780001085cb9","C3","batch3","tol_toboard","1140","","","","","","","","","tol_peg_3","1140","1140","0","[[1,2,0],[0,0],[3]]","1","[[0,0,0],[2,3],[1]]","12","0","","","","","","4","","","","",""
"","","","","","single-stim-button","330","1054455","0.0-3.0-46.1-0.1","5c50ccae2423780001085cb9","C3","batch3","tol_tohand","1206","","","","","","","","","tol_peg_1","1206","1206","0","[[1,0,0],[0,0],[3]]","2","[[0,0,0],[2,3],[1]]","12","0","","","","","","4","","","","",""
"","","","","","single-stim-button","331","1055085","0.0-3.0-46.1-1.1","5c50ccae2423780001085cb9","C3","batch3","tol_toboard","628","","","","","","","","","tol_peg_2","628","628","0","[[1,0,0],[2,0],[3]]","2","[[0,0,0],[2,3],[1]]","12","0","","","","","","4","","","","",""
"","","","","","single-stim-button","332","1055655","0.0-3.0-46.2-0.2","5c50ccae2423780001085cb9","C3","batch3","tol_tohand","570","","","","","","","","","tol_peg_3","570","570","0","[[1,0,0],[2,0],[0]]","3","[[0,0,0],[2,3],[1]]","12","0","","","","","","4","","","","",""
"","","","","","single-stim-button","333","1056191","0.0-3.0-46.2-1.2","5c50ccae2423780001085cb9","C3","batch3","tol_toboard","534","","","","","","","","","tol_peg_2","534","534","0","[[1,0,0],[2,3],[0]]","3","[[0,0,0],[2,3],[1]]","12","0","","","","","","4","","","","",""
"","","","","","single-stim-button","334","1057406","0.0-3.0-46.3-0.3","5c50ccae2423780001085cb9","C3","batch3","tol_tohand","1215","","","","","","","","","tol_peg_1","1215","1215","0","[[0,0,0],[2,3],[0]]","4","[[0,0,0],[2,3],[1]]","12","0","","","","","","4","","","","",""
"","","","","","single-stim-button","335","1057959","0.0-3.0-46.3-1.3","5c50ccae2423780001085cb9","C3","batch3","tol_toboard","552","","","","","","","","","tol_peg_3","552","552","0","[[0,0,0],[2,3],[1]]","4","[[0,0,0],[2,3],[1]]","12","0","","","","","","4","","","","",""
"","","","","","poldrack-single-stim","336","1058968","0.0-3.0-47.0","5c50ccae2423780001085cb9","C3","batch3","tol_feedback","-1","","","","","true","","","","","1000","1000","500","","","","","","-1","none","true","5152","8143","","","","","",""
"","","","","","html-button-response","337","1062785","0.0-3.0-48.0","5c50ccae2423780001085cb9","C3","batch3","attention_check","3815.7000000029802","<p class = block-text>How many balls are in your board<br></p>","1","","","true","","","","","","","","","","","","","","","","","","","","","","",""
"","","","","","html-button-response","338","1064113","0.0-3.0-49.0","5c50ccae2423780001085cb9","C3","batch3","tol_trial_num","1326.2000000029802","<div class = centerbox><p class = center-block-text>problem <strong>14</strong> out of 25 problems</p></div>","0","","","","","","","","","","","","","","","","","","","","","","","","","",""
"","","","","","single-stim-button","339","1067945","0.0-3.0-50.0-0.0","5c50ccae2423780001085cb9","C3","batch3","tol_tohand","3830","","","","","","","","","tol_peg_1","3830","3830","0","[[2,0,0],[3,0],[0]]","1","[[1,2,0],[3,0],[0]]","13","0","","","","","","4","","","","",""
"","","","","","single-stim-button","340","1069487","0.0-3.0-50.0-1.0","5c50ccae2423780001085cb9","C3","batch3","tol_toboard","1541","","","","","","","","","tol_peg_3","1541","1541","0","[[2,0,0],[3,0],[1]]","1","[[1,2,0],[3,0],[0]]","13","0","","","","","","4","","","","",""
"","","","","","single-stim-button","341","1070323","0.0-3.0-50.1-0.1","5c50ccae2423780001085cb9","C3","batch3","tol_tohand","834","","","","","","","","","tol_peg_1","834","834","0","[[0,0,0],[3,0],[1]]","2","[[1,2,0],[3,0],[0]]","13","0","","","","","","4","","","","",""
"","","","","","single-stim-button","342","1070975","0.0-3.0-50.1-1.1","5c50ccae2423780001085cb9","C3","batch3","tol_toboard","651","","","","","","","","","tol_peg_2","651","651","0","[[0,0,0],[3,2],[1]]","2","[[1,2,0],[3,0],[0]]","13","0","","","","","","4","","","","",""
"","","","","","single-stim-button","343","1071739","0.0-3.0-50.2-0.2","5c50ccae2423780001085cb9","C3","batch3","tol_tohand","762","","","","","","","","","tol_peg_3","762","762","0","[[0,0,0],[3,2],[0]]","3","[[1,2,0],[3,0],[0]]","13","0","","","","","","4","","","","",""
"","","","","","single-stim-button","344","1072554","0.0-3.0-50.2-1.2","5c50ccae2423780001085cb9","C3","batch3","tol_toboard","814","","","","","","","","","tol_peg_1","814","814","0","[[1,0,0],[3,2],[0]]","3","[[1,2,0],[3,0],[0]]","13","0","","","","","","4","","","","",""
"","","","","","single-stim-button","345","1073465","0.0-3.0-50.3-0.3","5c50ccae2423780001085cb9","C3","batch3","tol_tohand","909","","","","","","","","","tol_peg_2","909","909","0","[[1,0,0],[3,0],[0]]","4","[[1,2,0],[3,0],[0]]","13","0","","","","","","4","","","","",""
"","","","","","single-stim-button","346","1074137","0.0-3.0-50.3-1.3","5c50ccae2423780001085cb9","C3","batch3","tol_toboard","671","","","","","","","","","tol_peg_1","671","671","0","[[1,2,0],[3,0],[0]]","4","[[1,2,0],[3,0],[0]]","13","0","","","","","","4","","","","",""
"","","","","","poldrack-single-stim","347","1075140","0.0-3.0-51.0","5c50ccae2423780001085cb9","C3","batch3","tol_feedback","-1","","","","","true","","","","","1000","1000","500","","","","","","-1","none","true","3830","6335","","","","","",""
"","","","","","html-button-response","348","1075897","0.0-3.0-52.0","5c50ccae2423780001085cb9","C3","batch3","tol_trial_num","755.1000000014901","<div class = centerbox><p class = center-block-text>problem <strong>15</strong> out of 25 problems</p></div>","0","","","","","","","","","","","","","","","","","","","","","","","","","",""
"","","","","","single-stim-button","349","1080231","0.0-3.0-53.0-0.0","5c50ccae2423780001085cb9","C3","batch3","tol_tohand","4332","","","","","","","","","tol_peg_1","4332","4332","0","[[1,0,0],[3,0],[0]]","1","[[2,0,0],[3,0],[1]]","14","0","","","","","","3","","","","",""
"","","","","","single-stim-button","350","1081129","0.0-3.0-53.0-1.0","5c50ccae2423780001085cb9","C3","batch3","tol_toboard","896","","","","","","","","","tol_peg_2","896","896","0","[[1,0,0],[3,2],[0]]","1","[[2,0,0],[3,0],[1]]","14","0","","","","","","3","","","","",""
"","","","","","single-stim-button","351","1081705","0.0-3.0-53.1-0.1","5c50ccae2423780001085cb9","C3","batch3","tol_tohand","574","","","","","","","","","tol_peg_1","574","574","0","[[0,0,0],[3,2],[0]]","2","[[2,0,0],[3,0],[1]]","14","0","","","","","","3","","","","",""
"","","","","","single-stim-button","352","1082525","0.0-3.0-53.1-1.1","5c50ccae2423780001085cb9","C3","batch3","tol_toboard","818","","","","","","","","","tol_peg_3","818","818","0","[[0,0,0],[3,2],[1]]","2","[[2,0,0],[3,0],[1]]","14","0","","","","","","3","","","","",""
"","","","","","single-stim-button","353","1083229","0.0-3.0-53.2-0.2","5c50ccae2423780001085cb9","C3","batch3","tol_tohand","702","","","","","","","","","tol_peg_2","702","702","0","[[0,0,0],[3,0],[1]]","3","[[2,0,0],[3,0],[1]]","14","0","","","","","","3","","","","",""
"","","","","","single-stim-button","354","1083845","0.0-3.0-53.2-1.2","5c50ccae2423780001085cb9","C3","batch3","tol_toboard","614","","","","","","","","","tol_peg_1","614","614","0","[[2,0,0],[3,0],[1]]","3","[[2,0,0],[3,0],[1]]","14","0","","","","","","3","","","","",""
