"success","timeout","failed_images","failed_audio","failed_video","trial_type","trial_index","time_elapsed","internal_node_id","subject_id","study_id","session_id","view_history","rt","task","stimulus","response","correct","mouse_click","stim_duration","block_duration","timing_post_trial","current_position","tol_num_moves_made","tol_target","tol_problem_id","tol_rt","key_press","possible_responses","tol_correct","preplanning","tol_rt_per_trial","tol_min_moves","item","answer","spm_correct","spm_rt","fiar_detect_rt","fiar_detect_correct","total_correct_fiar_detect","post_trial_gap","choices"
"true","false","[]","[]","[]","preload","0","1004","0.0-0.0","5c55b95b91c0ad0001cf86ab","B2","batch2","","","","","","","","","","","","","","","","","","","","","","","","","","","","","",""
"true","","","","","fullscreen","1","20215","0.0-1.0-0.0","5c55b95b91c0ad0001cf86ab","B2","batch2","","","","","","","","","","","","","","","","","","","","","","","","","","","","","",""
"true","","","","","fullscreen","2","23405","0.0-2.0-0.0","5c55b95b91c0ad0001cf86ab","B2","batch2","","","","","","","","","","","","","","","","","","","","","","","","","","","","","",""
"","","","","","instructions","3","88900","0.0-2.0-1.0-0.0-0.0","5c55b95b91c0ad0001cf86ab","B2","batch2","[{""page_index"":0,""viewing_time"":15228.299999982119},{""page_index"":1,""viewing_time"":5928.200000017881},{""page_index"":2,""viewing_time"":7016},{""page_index"":3,""viewing_time"":11743.699999988079},{""page_index"":4,""viewing_time"":8608.199999988079},{""page_index"":5,""viewing_time"":13184},{""page_index"":6,""viewing_time"":3783.5}]","65492.29999998212","tol-instructions","","","","","","","","","","","","","","","","","","","","","","","","","","",""
"","","","","","html-button-response","4","90477","0.0-2.0-1.0-1.0-0.0","5c55b95b91c0ad0001cf86ab","B2","batch2","","1575.5999999940395","tol_enter_quiz","<p class=block-text> Let's answer a few questions <br>","0","","","","","","","","","","","","","","","","","","","","","","","","",""
"","","","","","html-button-response","5","98149","0.0-2.0-1.0-1.0-1.0","5c55b95b91c0ad0001cf86ab","B2","batch2","","7670","tol_quiz","<p class = block-text>True or False: You can only move the ball on top of a peg. <br></p>","0","true","","","","","","","","","","","","","","","","","","","","","","","",""
"","","","","","html-button-response","6","99917","0.0-2.0-1.0-1.0-2.0","5c55b95b91c0ad0001cf86ab","B2","batch2","","1766.4000000059605","tol_quiz_feedback","<p class = block-text>Correct! You can only move the ball on top of a peg.</p>","0","","","","","","","","","","","","","","","","","","","","","","","","",""
"","","","","","html-button-response","7","103604","0.0-2.0-1.0-1.0-3.0","5c55b95b91c0ad0001cf86ab","B2","batch2","","3686.4000000059605","tol_quiz","<p class = block-text>True or False: You should try to match your board with the target board with fewest moves possible. <br></p>","0","true","","","","","","","","","","","","","","","","","","","","","","","",""
"","","","","","html-button-response","8","104620","0.0-2.0-1.0-1.0-4.0","5c55b95b91c0ad0001cf86ab","B2","batch2","","1015.0999999940395","tol_quiz_feedback","<p class = block-text>Correct! </p>","0","","","","","","","","","","","","","","","","","","","","","","","","",""
"","","","","","html-button-response","9","107804","0.0-2.0-2.0","5c55b95b91c0ad0001cf86ab","B2","batch2","","3182.199999988079","","<p class=block-text> Now that you've understood the game, let's practice a few easier examples before we start!<br> <br>","0","","","","","","","","","","","","","","","","","","","","","","","","",""
"","","","","","single-stim-button","10","111039","0.0-2.0-3.0-0.0","5c55b95b91c0ad0001cf86ab","B2","batch2","","3233","tol_practice","","","","tol_peg_2","3233","3233","0","[[1,2,0],[0,0],[0]]","1","[[1,2,0],[0,0],[3]]","practice","3233","","","","","","","","","","","","","","",""
"","","","","","single-stim-button","11","111908","0.0-2.0-3.0-1.0","5c55b95b91c0ad0001cf86ab","B2","batch2","","868","tol_practice","","","","tol_peg_3","868","868","0","[[1,2,0],[0,0],[3]]","1","[[1,2,0],[0,0],[3]]","practice","868","","","","","","","","","","","","","","",""
"","","","","","poldrack-single-stim","12","112921","0.0-2.0-4.0","5c55b95b91c0ad0001cf86ab","B2","batch2","","-1","tol_feedback","","","true","","1000","1000","500","","","","","","-1","none","true","","0","","","","","","","","","",""
"","","","","","single-stim-button","13","117477","0.0-2.0-5.0-0.0","5c55b95b91c0ad0001cf86ab","B2","batch2","","4554","tol_practice","","","","tol_peg_1","4554","4554","0","[[1,0,0],[3,0],[0]]","2","[[0,0,0],[3,1],[2]]","practice","4554","","","","","","","","","","","","","","",""
"","","","","","single-stim-button","14","119341","0.0-2.0-5.0-1.0","5c55b95b91c0ad0001cf86ab","B2","batch2","","1864","tol_practice","","","","tol_peg_3","1864","1864","0","[[1,0,0],[3,0],[2]]","2","[[0,0,0],[3,1],[2]]","practice","1864","","","","","","","","","","","","","","",""
"","","","","","single-stim-button","15","120253","0.0-2.0-5.1-0.1","5c55b95b91c0ad0001cf86ab","B2","batch2","","910","tol_practice","","","","tol_peg_1","910","910","0","[[0,0,0],[3,0],[2]]","3","[[0,0,0],[3,1],[2]]","practice","910","","","","","","","","","","","","","","",""
"","","","","","single-stim-button","16","120813","0.0-2.0-5.1-1.1","5c55b95b91c0ad0001cf86ab","B2","batch2","","559","tol_practice","","","","tol_peg_2","559","559","0","[[0,0,0],[3,1],[2]]","3","[[0,0,0],[3,1],[2]]","practice","559","","","","","","","","","","","","","","",""
"","","","","","poldrack-single-stim","17","121823","0.0-2.0-6.0","5c55b95b91c0ad0001cf86ab","B2","batch2","","-1","tol_feedback","","","true","","1000","1000","500","","","","","","-1","none","true","","0","","","","","","","","","",""
"","","","","","single-stim-button","18","125284","0.0-2.0-7.0-0.0","5c55b95b91c0ad0001cf86ab","B2","batch2","","3459","tol_practice","","","","tol_peg_2","3459","3459","0","[[1,2,0],[0,0],[0]]","4","[[1,0,0],[2,0],[3]]","practice","3459","","","","","","","","","","","","","","",""
"","","","","","single-stim-button","19","126284","0.0-2.0-7.0-1.0","5c55b95b91c0ad0001cf86ab","B2","batch2","","1000","tol_practice","","","","tol_peg_3","1000","1000","0","[[1,2,0],[0,0],[3]]","4","[[1,0,0],[2,0],[3]]","practice","1000","","","","","","","","","","","","","","",""
"","","","","","single-stim-button","20","127196","0.0-2.0-7.1-0.1","5c55b95b91c0ad0001cf86ab","B2","batch2","","910","tol_practice","","","","tol_peg_1","910","910","0","[[1,0,0],[0,0],[3]]","5","[[1,0,0],[2,0],[3]]","practice","910","","","","","","","","","","","","","","",""
"","","","","","single-stim-button","21","128132","0.0-2.0-7.1-1.1","5c55b95b91c0ad0001cf86ab","B2","batch2","","936","tol_practice","","","","tol_peg_2","936","936","0","[[1,0,0],[2,0],[3]]","5","[[1,0,0],[2,0],[3]]","practice","936","","","","","","","","","","","","","","",""
"","","","","","poldrack-single-stim","22","129134","0.0-2.0-8.0","5c55b95b91c0ad0001cf86ab","B2","batch2","","-1","tol_feedback","","","true","","1000","1000","500","","","","","","-1","none","true","","0","","","","","","","","","",""
"","","","","","html-button-response","23","134756","0.0-2.0-9.0","5c55b95b91c0ad0001cf86ab","B2","batch2","","5621.299999982119","tol_instruction","<div class = centerbox><p class = center-block-text>Great job! You are done with practice trials<br>You are about to start official trials.<br> <br> Problem <strong>1</strong> out of 25 problems</p></div>","0","","","","","","","","","","","","","","","","","","","","","","","","",""
"","","","","","single-stim-button","24","145148","0.0-2.0-10.0-0.0","5c55b95b91c0ad0001cf86ab","B2","batch2","","9389","tol_tohand","","","","tol_peg_1","9389","9389","0","[[1,0,0],[3,0],[0]]","1","[[1,3,0],[2,0],[0]]","0","0","","","","","","3","","","","","","","","",""
"","","","","","single-stim-button","25","146804","0.0-2.0-10.0-1.0","5c55b95b91c0ad0001cf86ab","B2","batch2","","1655","tol_toboard","","","","tol_peg_3","1655","1655","0","[[1,0,0],[3,0],[2]]","1","[[1,3,0],[2,0],[0]]","0","0","","","","","","3","","","","","","","","",""
"","","","","","single-stim-button","26","147612","0.0-2.0-10.1-0.1","5c55b95b91c0ad0001cf86ab","B2","batch2","","807","tol_tohand","","","","tol_peg_2","807","807","0","[[1,0,0],[0,0],[2]]","2","[[1,3,0],[2,0],[0]]","0","0","","","","","","3","","","","","","","","",""
"","","","","","single-stim-button","27","148636","0.0-2.0-10.1-1.1","5c55b95b91c0ad0001cf86ab","B2","batch2","","1023","tol_toboard","","","","tol_peg_1","1023","1023","0","[[1,3,0],[0,0],[2]]","2","[[1,3,0],[2,0],[0]]","0","0","","","","","","3","","","","","","","","",""
"","","","","","single-stim-button","28","149492","0.0-2.0-10.2-0.2","5c55b95b91c0ad0001cf86ab","B2","batch2","","855","tol_tohand","","","","tol_peg_3","855","855","0","[[1,3,0],[0,0],[0]]","3","[[1,3,0],[2,0],[0]]","0","0","","","","","","3","","","","","","","","",""
"","","","","","single-stim-button","29","150356","0.0-2.0-10.2-1.2","5c55b95b91c0ad0001cf86ab","B2","batch2","","864","tol_toboard","","","","tol_peg_2","864","864","0","[[1,3,0],[2,0],[0]]","3","[[1,3,0],[2,0],[0]]","0","0","","","","","","3","","","","","","","","",""
"","","","","","poldrack-single-stim","30","151367","0.0-2.0-11.0","5c55b95b91c0ad0001cf86ab","B2","batch2","","-1","tol_feedback","","","true","","1000","1000","500","","","","","","-1","none","true","9389","11051","","","","","","","","","",""
"","","","","","html-button-response","31","152596","0.0-2.0-12.0","5c55b95b91c0ad0001cf86ab","B2","batch2","","1226.7999999821186","tol_trial_num","<div class = centerbox><p class = center-block-text>problem <strong>2</strong> out of 25 problems</p></div>","0","","","","","","","","","","","","","","","","","","","","","","","","",""
"","","","","","single-stim-button","32","160196","0.0-2.0-13.0-0.0","5c55b95b91c0ad0001cf86ab","B2","batch2","","7599","tol_tohand","","","","tol_peg_1","7599","7599","0","[[1,0,0],[3,0],[0]]","1","[[2,1,3],[0,0],[0]]","1","0","","","","","","5","","","","","","","","",""
"","","","","","single-stim-button","33","162252","0.0-2.0-13.0-1.0","5c55b95b91c0ad0001cf86ab","B2","batch2","","2055","tol_toboard","","","","tol_peg_3","2055","2055","0","[[1,0,0],[3,0],[2]]","1","[[2,1,3],[0,0],[0]]","1","0","","","","","","5","","","","","","","","",""
"","","","","","single-stim-button","34","163092","0.0-2.0-13.1-0.1","5c55b95b91c0ad0001cf86ab","B2","batch2","","838","tol_tohand","","","","tol_peg_1","838","838","0","[[0,0,0],[3,0],[2]]","2","[[2,1,3],[0,0],[0]]","1","0","","","","","","5","","","","","","","","",""
"","","","","","single-stim-button","35","163614","0.0-2.0-13.1-1.1","5c55b95b91c0ad0001cf86ab","B2","batch2","","521","tol_toboard","","","","tol_peg_2","521","521","0","[[0,0,0],[3,1],[2]]","2","[[2,1,3],[0,0],[0]]","1","0","","","","","","5","","","","","","","","",""
"","","","","","single-stim-button","36","164476","0.0-2.0-13.2-0.2","5c55b95b91c0ad0001cf86ab","B2","batch2","","862","tol_tohand","","","","tol_peg_3","862","862","0","[[0,0,0],[3,1],[0]]","3","[[2,1,3],[0,0],[0]]","1","0","","","","","","5","","","","","","","","",""
"","","","","","single-stim-button","37","165404","0.0-2.0-13.2-1.2","5c55b95b91c0ad0001cf86ab","B2","batch2","","927","tol_toboard","","","","tol_peg_1","927","927","0","[[2,0,0],[3,1],[0]]","3","[[2,1,3],[0,0],[0]]","1","0","","","","","","5","","","","","","","","",""
"","","","","","single-stim-button","38","166332","0.0-2.0-13.3-0.3","5c55b95b91c0ad0001cf86ab","B2","batch2","","926","tol_tohand","","","","tol_peg_2","926","926","0","[[2,0,0],[3,0],[0]]","4","[[2,1,3],[0,0],[0]]","1","0","","","","","","5","","","","","","","","",""
"","","","","","single-stim-button","39","166891","0.0-2.0-13.3-1.3","5c55b95b91c0ad0001cf86ab","B2","batch2","","559","tol_toboard","","","","tol_peg_1","559","559","0","[[2,1,0],[3,0],[0]]","4","[[2,1,3],[0,0],[0]]","1","0","","","","","","5","","","","","","","","",""
"","","","","","single-stim-button","40","167526","0.0-2.0-13.4-0.4","5c55b95b91c0ad0001cf86ab","B2","batch2","","633","tol_tohand","","","","tol_peg_2","633","633","0","[[2,1,0],[0,0],[0]]","5","[[2,1,3],[0,0],[0]]","1","0","","","","","","5","","","","","","","","",""
"","","","","","single-stim-button","41","167956","0.0-2.0-13.4-1.4","5c55b95b91c0ad0001cf86ab","B2","batch2","","430","tol_toboard","","","","tol_peg_1","430","430","0","[[2,1,3],[0,0],[0]]","5","[[2,1,3],[0,0],[0]]","1","0","","","","","","5","","","","","","","","",""
"","","","","","poldrack-single-stim","42","168969","0.0-2.0-14.0","5c55b95b91c0ad0001cf86ab","B2","batch2","","-1","tol_feedback","","","true","","1000","1000","500","","","","","","-1","none","true","7599","10858","","","","","","","","","",""
"","","","","","html-button-response","43","170820","0.0-2.0-15.0","5c55b95b91c0ad0001cf86ab","B2","batch2","","1849.4000000059605","tol_trial_num","<div class = centerbox><p class = center-block-text>problem <strong>3</strong> out of 25 problems</p></div>","0","","","","","","","","","","","","","","","","","","","","","","","","",""
"","","","","","single-stim-button","44","177644","0.0-2.0-16.0-0.0","5c55b95b91c0ad0001cf86ab","B2","batch2","","6824","tol_tohand","","","","tol_peg_1","6824","6824","0","[[2,0,0],[0,0],[1]]","1","[[1,2,0],[3,0],[0]]","2","0","","","","","","4","","","","","","","","",""
"","","","","","single-stim-button","45","179172","0.0-2.0-16.0-1.0","5c55b95b91c0ad0001cf86ab","B2","batch2","","1526","tol_toboard","","","","tol_peg_2","1526","1526","0","[[2,0,0],[3,0],[1]]","1","[[1,2,0],[3,0],[0]]","2","0","","","","","","4","","","","","","","","",""
"","","","","","single-stim-button","46","180014","0.0-2.0-16.1-0.1","5c55b95b91c0ad0001cf86ab","B2","batch2","","841","tol_tohand","","","","tol_peg_1","841","841","0","[[0,0,0],[3,0],[1]]","2","[[1,2,0],[3,0],[0]]","2","0","","","","","","4","","","","","","","","",""
"","","","","","single-stim-button","47","180500","0.0-2.0-16.1-1.1","5c55b95b91c0ad0001cf86ab","B2","batch2","","486","tol_toboard","","","","tol_peg_2","486","486","0","[[0,0,0],[3,2],[1]]","2","[[1,2,0],[3,0],[0]]","2","0","","","","","","4","","","","","","","","",""
"","","","","","single-stim-button","48","181140","0.0-2.0-16.2-0.2","5c55b95b91c0ad0001cf86ab","B2","batch2","","639","tol_tohand","","","","tol_peg_3","639","639","0","[[0,0,0],[3,2],[0]]","3","[[1,2,0],[3,0],[0]]","2","0","","","","","","4","","","","","","","","",""
"","","","","","single-stim-button","49","182036","0.0-2.0-16.2-1.2","5c55b95b91c0ad0001cf86ab","B2","batch2","","895","tol_toboard","","","","tol_peg_1","895","895","0","[[1,0,0],[3,2],[0]]","3","[[1,2,0],[3,0],[0]]","2","0","","","","","","4","","","","","","","","",""
"","","","","","single-stim-button","50","182789","0.0-2.0-16.3-0.3","5c55b95b91c0ad0001cf86ab","B2","batch2","","753","tol_tohand","","","","tol_peg_2","753","753","0","[[1,0,0],[3,0],[0]]","4","[[1,2,0],[3,0],[0]]","2","0","","","","","","4","","","","","","","","",""
"","","","","","single-stim-button","51","183437","0.0-2.0-16.3-1.3","5c55b95b91c0ad0001cf86ab","B2","batch2","","646","tol_toboard","","","","tol_peg_1","646","646","0","[[1,2,0],[3,0],[0]]","4","[[1,2,0],[3,0],[0]]","2","0","","","","","","4","","","","","","","","",""
"","","","","","poldrack-single-stim","52","184451","0.0-2.0-17.0","5c55b95b91c0ad0001cf86ab","B2","batch2","","-1","tol_feedback","","","true","","1000","1000","500","","","","","","-1","none","true","6824","9057","","","","","","","","","",""
"","","","","","html-button-response","53","185708","0.0-2.0-18.0","5c55b95b91c0ad0001cf86ab","B2","batch2","","1255.8999999761581","tol_trial_num","<div class = centerbox><p class = center-block-text>problem <strong>4</strong> out of 25 problems</p></div>","0","","","","","","","","","","","","","","","","","","","","","","","","",""
"","","","","","single-stim-button","54","193268","0.0-2.0-19.0-0.0","5c55b95b91c0ad0001cf86ab","B2","batch2","","7559","tol_tohand","","","","tol_peg_2","7559","7559","0","[[3,0,0],[2,0],[0]]","1","[[3,0,0],[1,0],[2]]","3","0","","","","","","3","","","","","","","","",""
"","","","","","single-stim-button","55","194172","0.0-2.0-19.0-1.0","5c55b95b91c0ad0001cf86ab","B2","batch2","","903","tol_toboard","","","","tol_peg_1","903","903","0","[[3,1,0],[2,0],[0]]","1","[[3,0,0],[1,0],[2]]","3","0","","","","","","3","","","","","","","","",""
"","","","","","single-stim-button","56","195052","0.0-2.0-19.1-0.1","5c55b95b91c0ad0001cf86ab","B2","batch2","","879","tol_tohand","","","","tol_peg_2","879","879","0","[[3,1,0],[0,0],[0]]","2","[[3,0,0],[1,0],[2]]","3","0","","","","","","3","","","","","","","","",""
"","","","","","single-stim-button","57","195988","0.0-2.0-19.1-1.1","5c55b95b91c0ad0001cf86ab","B2","batch2","","935","tol_toboard","","","","tol_peg_3","935","935","0","[[3,1,0],[0,0],[2]]","2","[[3,0,0],[1,0],[2]]","3","0","","","","","","3","","","","","","","","",""
"","","","","","single-stim-button","58","196948","0.0-2.0-19.2-0.2","5c55b95b91c0ad0001cf86ab","B2","batch2","","959","tol_tohand","","","","tol_peg_1","959","959","0","[[3,0,0],[0,0],[2]]","3","[[3,0,0],[1,0],[2]]","3","0","","","","","","3","","","","","","","","",""
"","","","","","single-stim-button","59","197605","0.0-2.0-19.2-1.2","5c55b95b91c0ad0001cf86ab","B2","batch2","","656","tol_toboard","","","","tol_peg_2","656","656","0","[[3,0,0],[1,0],[2]]","3","[[3,0,0],[1,0],[2]]","3","0","","","","","","3","","","","","","","","",""
"","","","","","poldrack-single-stim","60","198606","0.0-2.0-20.0","5c55b95b91c0ad0001cf86ab","B2","batch2","","-1","tol_feedback","","","true","","1000","1000","500","","","","","","-1","none","true","7559","9397","","","","","","","","","",""
"","","","","","html-button-response","61","199829","0.0-2.0-21.0","5c55b95b91c0ad0001cf86ab","B2","batch2","","1221","tol_trial_num","<div class = centerbox><p class = center-block-text>problem <strong>5</strong> out of 25 problems</p></div>","0","","","","","","","","","","","","","","","","","","","","","","","","",""
"","","","","","single-stim-button","62","296517","0.0-2.0-22.0-0.0","5c55b95b91c0ad0001cf86ab","B2","batch2","","96687","tol_tohand","","","","tol_peg_3","96687","96687","0","[[1,0,0],[2,0],[0]]","1","[[0,0,0],[1,2],[3]]","4","0","","","","","","7","","","","","","","","",""
"","","","","","single-stim-button","63","298621","0.0-2.0-22.0-1.0","5c55b95b91c0ad0001cf86ab","B2","batch2","","2103","tol_toboard","","","","tol_peg_1","2103","2103","0","[[1,3,0],[2,0],[0]]","1","[[0,0,0],[1,2],[3]]","4","0","","","","","","7","","","","","","","","",""
"","","","","","single-stim-button","64","309637","0.0-2.0-22.1-0.1","5c55b95b91c0ad0001cf86ab","B2","batch2","","11015","tol_tohand","","","","tol_peg_1","11015","11015","0","[[1,0,0],[2,0],[0]]","2","[[0,0,0],[1,2],[3]]","4","0","","","","","","7","","","","","","","","",""
"","","","","","single-stim-button","65","314092","0.0-2.0-22.1-1.1","5c55b95b91c0ad0001cf86ab","B2","batch2","","4455","tol_toboard","","","","tol_peg_2","4455","4455","0","[[1,0,0],[2,3],[0]]","2","[[0,0,0],[1,2],[3]]","4","0","","","","","","7","","","","","","","","",""
"","","","","","single-stim-button","66","314972","0.0-2.0-22.2-0.2","5c55b95b91c0ad0001cf86ab","B2","batch2","","879","tol_tohand","","","","tol_peg_1","879","879","0","[[0,0,0],[2,3],[0]]","3","[[0,0,0],[1,2],[3]]","4","0","","","","","","7","","","","","","","","",""
"","","","","","single-stim-button","67","315621","0.0-2.0-22.2-1.2","5c55b95b91c0ad0001cf86ab","B2","batch2","","647","tol_toboard","","","","tol_peg_3","647","647","0","[[0,0,0],[2,3],[1]]","3","[[0,0,0],[1,2],[3]]","4","0","","","","","","7","","","","","","","","",""
"","","","","","single-stim-button","68","316693","0.0-2.0-22.3-0.3","5c55b95b91c0ad0001cf86ab","B2","batch2","","1071","tol_tohand","","","","tol_peg_2","1071","1071","0","[[0,0,0],[2,0],[1]]","4","[[0,0,0],[1,2],[3]]","4","0","","","","","","7","","","","","","","","",""
"","","","","","single-stim-button","69","317382","0.0-2.0-22.3-1.3","5c55b95b91c0ad0001cf86ab","B2","batch2","","688","tol_toboard","","","","tol_peg_1","688","688","0","[[3,0,0],[2,0],[1]]","4","[[0,0,0],[1,2],[3]]","4","0","","","","","","7","","","","","","","","",""
"","","","","","single-stim-button","70","318084","0.0-2.0-22.4-0.4","5c55b95b91c0ad0001cf86ab","B2","batch2","","702","tol_tohand","","","","tol_peg_2","702","702","0","[[3,0,0],[0,0],[1]]","5","[[0,0,0],[1,2],[3]]","4","0","","","","","","7","","","","","","","","",""
"","","","","","single-stim-button","71","318716","0.0-2.0-22.4-1.4","5c55b95b91c0ad0001cf86ab","B2","batch2","","632","tol_toboard","","","","tol_peg_1","632","632","0","[[3,2,0],[0,0],[1]]","5","[[0,0,0],[1,2],[3]]","4","0","","","","","","7","","","","","","","","",""
"","","","","","single-stim-button","72","319356","0.0-2.0-22.5-0.5","5c55b95b91c0ad0001cf86ab","B2","batch2","","639","tol_tohand","","","","tol_peg_3","639","639","0","[[3,2,0],[0,0],[0]]","6","[[0,0,0],[1,2],[3]]","4","0","","","","","","7","","","","","","","","",""
"","","","","","single-stim-button","73","319885","0.0-2.0-22.5-1.5","5c55b95b91c0ad0001cf86ab","B2","batch2","","527","tol_toboard","","","","tol_peg_2","527","527","0","[[3,2,0],[1,0],[0]]","6","[[0,0,0],[1,2],[3]]","4","0","","","","","","7","","","","","","","","",""
"","","","","","single-stim-button","74","320580","0.0-2.0-22.6-0.6","5c55b95b91c0ad0001cf86ab","B2","batch2","","695","tol_tohand","","","","tol_peg_1","695","695","0","[[3,0,0],[1,0],[0]]","7","[[0,0,0],[1,2],[3]]","4","0","","","","","","7","","","","","","","","",""
"","","","","","single-stim-button","75","321180","0.0-2.0-22.6-1.6","5c55b95b91c0ad0001cf86ab","B2","batch2","","600","tol_toboard","","","","tol_peg_2","600","600","0","[[3,0,0],[1,2],[0]]","7","[[0,0,0],[1,2],[3]]","4","0","","","","","","7","","","","","","","","",""
"","","","","","single-stim-button","76","321796","0.0-2.0-22.7-0.7","5c55b95b91c0ad0001cf86ab","B2","batch2","","616","tol_tohand","","","","tol_peg_1","616","616","0","[[0,0,0],[1,2],[0]]","8","[[0,0,0],[1,2],[3]]","4","0","","","","","","7","","","","","","","","",""
"","","","","","single-stim-button","77","322245","0.0-2.0-22.7-1.7","5c55b95b91c0ad0001cf86ab","B2","batch2","","447","tol_toboard","","","","tol_peg_3","447","447","0","[[0,0,0],[1,2],[3]]","8","[[0,0,0],[1,2],[3]]","4","0","","","","","","7","","","","","","","","",""
"","","","","","poldrack-single-stim","78","323259","0.0-2.0-23.0","5c55b95b91c0ad0001cf86ab","B2","batch2","","-1","tol_feedback","","","true","","1000","1000","500","","","","","","-1","none","true","96687","112304","","","","","","","","","",""
"","","","","","html-button-response","79","324964","0.0-2.0-24.0","5c55b95b91c0ad0001cf86ab","B2","batch2","","1703.5999999940395","tol_trial_num","<div class = centerbox><p class = center-block-text>problem <strong>6</strong> out of 25 problems</p></div>","0","","","","","","","","","","","","","","","","","","","","","","","","",""
"","","","","","single-stim-button","80","353740","0.0-2.0-25.0-0.0","5c55b95b91c0ad0001cf86ab","B2","batch2","","28775","tol_tohand","","","","tol_peg_3","28775","28775","0","[[0,0,0],[1,2],[0]]","1","[[1,0,0],[2,3],[0]]","5","0","","","","","","6","","","","","","","","",""
"","","","","","single-stim-button","81","355189","0.0-2.0-25.0-1.0","5c55b95b91c0ad0001cf86ab","B2","batch2","","1447","tol_toboard","","","","tol_peg_1","1447","1447","0","[[3,0,0],[1,2],[0]]","1","[[1,0,0],[2,3],[0]]","5","0","","","","","","6","","","","","","","","",""
"","","","","","single-stim-button","82","356084","0.0-2.0-25.1-0.1","5c55b95b91c0ad0001cf86ab","B2","batch2","","894","tol_tohand","","","","tol_peg_2","894","894","0","[[3,0,0],[1,0],[0]]","2","[[1,0,0],[2,3],[0]]","5","0","","","","","","6","","","","","","","","",""
"","","","","","single-stim-button","83","361445","0.0-2.0-25.1-1.1","5c55b95b91c0ad0001cf86ab","B2","batch2","","5359","tol_toboard","","","","tol_peg_1","5359","5359","0","[[3,2,0],[1,0],[0]]","2","[[1,0,0],[2,3],[0]]","5","0","","","","","","6","","","","","","","","",""
"","","","","","single-stim-button","84","362869","0.0-2.0-25.2-0.2","5c55b95b91c0ad0001cf86ab","B2","batch2","","1424","tol_tohand","","","","tol_peg_2","1424","1424","0","[[3,2,0],[0,0],[0]]","3","[[1,0,0],[2,3],[0]]","5","0","","","","","","6","","","","","","","","",""
"","","","","","single-stim-button","85","363876","0.0-2.0-25.2-1.2","5c55b95b91c0ad0001cf86ab","B2","batch2","","1007","tol_toboard","","","","tol_peg_3","1007","1007","0","[[3,2,0],[0,0],[1]]","3","[[1,0,0],[2,3],[0]]","5","0","","","","","","6","","","","","","","","",""
"","","","","","single-stim-button","86","365189","0.0-2.0-25.3-0.3","5c55b95b91c0ad0001cf86ab","B2","batch2","","1312","tol_tohand","","","","tol_peg_1","1312","1312","0","[[3,0,0],[0,0],[1]]","4","[[1,0,0],[2,3],[0]]","5","0","","","","","","6","","","","","","","","",""
"","","","","","single-stim-button","87","365845","0.0-2.0-25.3-1.3","5c55b95b91c0ad0001cf86ab","B2","batch2","","654","tol_toboard","","","","tol_peg_2","654","654","0","[[3,0,0],[2,0],[1]]","4","[[1,0,0],[2,3],[0]]","5","0","","","","","","6","","","","","","","","",""
"","","","","","single-stim-button","88","366420","0.0-2.0-25.4-0.4","5c55b95b91c0ad0001cf86ab","B2","batch2","","575","tol_tohand","","","","tol_peg_1","575","575","0","[[0,0,0],[2,0],[1]]","5","[[1,0,0],[2,3],[0]]","5","0","","","","","","6","","","","","","","","",""
"","","","","","single-stim-button","89","367148","0.0-2.0-25.4-1.4","5c55b95b91c0ad0001cf86ab","B2","batch2","","727","tol_toboard","","","","tol_peg_2","727","727","0","[[0,0,0],[2,3],[1]]","5","[[1,0,0],[2,3],[0]]","5","0","","","","","","6","","","","","","","","",""
"","","","","","single-stim-button","90","367925","0.0-2.0-25.5-0.5","5c55b95b91c0ad0001cf86ab","B2","batch2","","777","tol_tohand","","","","tol_peg_3","777","777","0","[[0,0,0],[2,3],[0]]","6","[[1,0,0],[2,3],[0]]","5","0","","","","","","6","","","","","","","","",""
"","","","","","single-stim-button","91","368597","0.0-2.0-25.5-1.5","5c55b95b91c0ad0001cf86ab","B2","batch2","","670","tol_toboard","","","","tol_peg_1","670","670","0","[[1,0,0],[2,3],[0]]","6","[[1,0,0],[2,3],[0]]","5","0","","","","","","6","","","","","","","","",""
"","","","","","poldrack-single-stim","92","369610","0.0-2.0-26.0","5c55b95b91c0ad0001cf86ab","B2","batch2","","-1","tol_feedback","","","true","","1000","1000","500","","","","","","-1","none","true","28775","33757","","","","","","","","","",""
"","","","","","html-button-response","93","370941","0.0-2.0-27.0","5c55b95b91c0ad0001cf86ab","B2","batch2","","1329.5","tol_trial_num","<div class = centerbox><p class = center-block-text>problem <strong>7</strong> out of 25 problems</p></div>","0","","","","","","","","","","","","","","","","","","","","","","","","",""
"","","","","","single-stim-button","94","381156","0.0-2.0-28.0-0.0","5c55b95b91c0ad0001cf86ab","B2","batch2","","10215","tol_tohand","","","","tol_peg_3","10215","10215","0","[[2,1,0],[0,0],[0]]","1","[[1,2,0],[3,0],[0]]","6","0","","","","","","5","","","","","","","","",""
"","","","","","single-stim-button","95","382245","0.0-2.0-28.0-1.0","5c55b95b91c0ad0001cf86ab","B2","batch2","","1088","tol_toboard","","","","tol_peg_2","1088","1088","0","[[2,1,0],[3,0],[0]]","1","[[1,2,0],[3,0],[0]]","6","0","","","","","","5","","","","","","","","",""
"","","","","","single-stim-button","96","383812","0.0-2.0-28.1-0.1","5c55b95b91c0ad0001cf86ab","B2","batch2","","1566","tol_tohand","","","","tol_peg_1","1566","1566","0","[[2,0,0],[3,0],[0]]","2","[[1,2,0],[3,0],[0]]","6","0","","","","","","5","","","","","","","","",""
"","","","","","single-stim-button","97","384949","0.0-2.0-28.1-1.1","5c55b95b91c0ad0001cf86ab","B2","batch2","","1135","tol_toboard","","","","tol_peg_3","1135","1135","0","[[2,0,0],[3,0],[1]]","2","[[1,2,0],[3,0],[0]]","6","0","","","","","","5","","","","","","","","",""
"","","","","","single-stim-button","98","385773","0.0-2.0-28.2-0.2","5c55b95b91c0ad0001cf86ab","B2","batch2","","824","tol_tohand","","","","tol_peg_1","824","824","0","[[0,0,0],[3,0],[1]]","3","[[1,2,0],[3,0],[0]]","6","0","","","","","","5","","","","","","","","",""
"","","","","","single-stim-button","99","386452","0.0-2.0-28.2-1.2","5c55b95b91c0ad0001cf86ab","B2","batch2","","678","tol_toboard","","","","tol_peg_2","678","678","0","[[0,0,0],[3,2],[1]]","3","[[1,2,0],[3,0],[0]]","6","0","","","","","","5","","","","","","","","",""
"","","","","","single-stim-button","100","387326","0.0-2.0-28.3-0.3","5c55b95b91c0ad0001cf86ab","B2","batch2","","872","tol_tohand","","","","tol_peg_3","872","872","0","[[0,0,0],[3,2],[0]]","4","[[1,2,0],[3,0],[0]]","6","0","","","","","","5","","","","","","","","",""
"","","","","","single-stim-button","101","388180","0.0-2.0-28.3-1.3","5c55b95b91c0ad0001cf86ab","B2","batch2","","854","tol_toboard","","","","tol_peg_1","854","854","0","[[1,0,0],[3,2],[0]]","4","[[1,2,0],[3,0],[0]]","6","0","","","","","","5","","","","","","","","",""
"","","","","","single-stim-button","102","389165","0.0-2.0-28.4-0.4","5c55b95b91c0ad0001cf86ab","B2","batch2","","984","tol_tohand","","","","tol_peg_2","984","984","0","[[1,0,0],[3,0],[0]]","5","[[1,2,0],[3,0],[0]]","6","0","","","","","","5","","","","","","","","",""
"","","","","","single-stim-button","103","389709","0.0-2.0-28.4-1.4","5c55b95b91c0ad0001cf86ab","B2","batch2","","543","tol_toboard","","","","tol_peg_1","543","543","0","[[1,2,0],[3,0],[0]]","5","[[1,2,0],[3,0],[0]]","6","0","","","","","","5","","","","","","","","",""
"","","","","","poldrack-single-stim","104","390715","0.0-2.0-29.0","5c55b95b91c0ad0001cf86ab","B2","batch2","","-1","tol_feedback","","","true","","1000","1000","500","","","","","","-1","none","true","10215","14461","","","","","","","","","",""
"","","","","","html-button-response","105","392084","0.0-2.0-30.0","5c55b95b91c0ad0001cf86ab","B2","batch2","","1367.5","tol_trial_num","<div class = centerbox><p class = center-block-text>problem <strong>8</strong> out of 25 problems</p></div>","0","","","","","","","","","","","","","","","","","","","","","","","","",""
"","","","","","single-stim-button","106","397652","0.0-2.0-31.0-0.0","5c55b95b91c0ad0001cf86ab","B2","batch2","","5567","tol_tohand","","","","tol_peg_3","5567","5567","0","[[0,0,0],[2,3],[0]]","1","[[1,2,0],[3,0],[0]]","7","0","","","","","","4","","","","","","","","",""
"","","","","","single-stim-button","107","398628","0.0-2.0-31.0-1.0","5c55b95b91c0ad0001cf86ab","B2","batch2","","975","tol_toboard","","","","tol_peg_1","975","975","0","[[1,0,0],[2,3],[0]]","1","[[1,2,0],[3,0],[0]]","7","0","","","","","","4","","","","","","","","",""
"","","","","","single-stim-button","108","399260","0.0-2.0-31.1-0.1","5c55b95b91c0ad0001cf86ab","B2","batch2","","632","tol_tohand","","","","tol_peg_2","632","632","0","[[1,0,0],[2,0],[0]]","2","[[1,2,0],[3,0],[0]]","7","0","","","","","","4","","","","","","","","",""
"","","","","","single-stim-button","109","399924","0.0-2.0-31.1-1.1","5c55b95b91c0ad0001cf86ab","B2","batch2","","663","tol_toboard","","","","tol_peg_3","663","663","0","[[1,0,0],[2,0],[3]]","2","[[1,2,0],[3,0],[0]]","7","0","","","","","","4","","","","","","","","",""
"","","","","","single-stim-button","110","400581","0.0-2.0-31.2-0.2","5c55b95b91c0ad0001cf86ab","B2","batch2","","655","tol_tohand","","","","tol_peg_2","655","655","0","[[1,0,0],[0,0],[3]]","3","[[1,2,0],[3,0],[0]]","7","0","","","","","","4","","","","","","","","",""
"","","","","","single-stim-button","111","401397","0.0-2.0-31.2-1.2","5c55b95b91c0ad0001cf86ab","B2","batch2","","815","tol_toboard","","","","tol_peg_1","815","815","0","[[1,2,0],[0,0],[3]]","3","[[1,2,0],[3,0],[0]]","7","0","","","","","","4","","","","","","","","",""
"","","","","","single-stim-button","112","402021","0.0-2.0-31.3-0.3","5c55b95b91c0ad0001cf86ab","B2","batch2","","623","tol_tohand","","","","tol_peg_3","623","623","0","[[1,2,0],[0,0],[0]]","4","[[1,2,0],[3,0],[0]]","7","0","","","","","","4","","","","","","","","",""
"","","","","","single-stim-button","113","402525","0.0-2.0-31.3-1.3","5c55b95b91c0ad0001cf86ab","B2","batch2","","503","tol_toboard","","","","tol_peg_2","503","503","0","[[1,2,0],[3,0],[0]]","4","[[1,2,0],[3,0],[0]]","7","0","","","","","","4","","","","","","","","",""
"","","","","","poldrack-single-stim","114","403526","0.0-2.0-32.0","5c55b95b91c0ad0001cf86ab","B2","batch2","","-1","tol_feedback","","","true","","1000","1000","500","","","","","","-1","none","true","5567","7477","","","","","","","","","",""
"","","","","","html-button-response","115","404828","0.0-2.0-33.0","5c55b95b91c0ad0001cf86ab","B2","batch2","","1300.5","tol_trial_num","<div class = centerbox><p class = center-block-text>problem <strong>9</strong> out of 25 problems</p></div>","0","","","","","","","","","","","","","","","","","","","","","","","","",""
"","","","","","single-stim-button","116","421717","0.0-2.0-34.0-0.0","5c55b95b91c0ad0001cf86ab","B2","batch2","","16887","tol_tohand","","","","tol_peg_3","16887","16887","0","[[3,2,0],[0,0],[0]]","1","[[2,1,0],[3,0],[0]]","8","0","","","","","","6","","","","","","","","",""
"","","","","","single-stim-button","117","422532","0.0-2.0-34.0-1.0","5c55b95b91c0ad0001cf86ab","B2","batch2","","815","tol_toboard","","","","tol_peg_2","815","815","0","[[3,2,0],[1,0],[0]]","1","[[2,1,0],[3,0],[0]]","8","0","","","","","","6","","","","","","","","",""
"","","","","","single-stim-button","118","423411","0.0-2.0-34.1-0.1","5c55b95b91c0ad0001cf86ab","B2","batch2","","878","tol_tohand","","","","tol_peg_1","878","878","0","[[3,0,0],[1,0],[0]]","2","[[2,1,0],[3,0],[0]]","8","0","","","","","","6","","","","","","","","",""
"","","","","","single-stim-button","119","424108","0.0-2.0-34.1-1.1","5c55b95b91c0ad0001cf86ab","B2","batch2","","697","tol_toboard","","","","tol_peg_2","697","697","0","[[3,0,0],[1,2],[0]]","2","[[2,1,0],[3,0],[0]]","8","0","","","","","","6","","","","","","","","",""
"","","","","","single-stim-button","120","424734","0.0-2.0-34.2-0.2","5c55b95b91c0ad0001cf86ab","B2","batch2","","624","tol_tohand","","","","tol_peg_1","624","624","0","[[0,0,0],[1,2],[0]]","3","[[2,1,0],[3,0],[0]]","8","0","","","","","","6","","","","","","","","",""
"","","","","","single-stim-button","121","425980","0.0-2.0-34.2-1.2","5c55b95b91c0ad0001cf86ab","B2","batch2","","1246","tol_toboard","","","","tol_peg_3","1246","1246","0","[[0,0,0],[1,2],[3]]","3","[[2,1,0],[3,0],[0]]","8","0","","","","","","6","","","","","","","","",""
"","","","","","single-stim-button","122","426541","0.0-2.0-34.3-0.3","5c55b95b91c0ad0001cf86ab","B2","batch2","","559","tol_tohand","","","","tol_peg_2","559","559","0","[[0,0,0],[1,0],[3]]","4","[[2,1,0],[3,0],[0]]","8","0","","","","","","6","","","","","","","","",""
"","","","","","single-stim-button","123","427180","0.0-2.0-34.3-1.3","5c55b95b91c0ad0001cf86ab","B2","batch2","","639","tol_toboard","","","","tol_peg_1","639","639","0","[[2,0,0],[1,0],[3]]","4","[[2,1,0],[3,0],[0]]","8","0","","","","","","6","","","","","","","","",""
"","","","","","single-stim-button","124","427814","0.0-2.0-34.4-0.4","5c55b95b91c0ad0001cf86ab","B2","batch2","","633","tol_tohand","","","","tol_peg_2","633","633","0","[[2,0,0],[0,0],[3]]","5","[[2,1,0],[3,0],[0]]","8","0","","","","","","6","","","","","","","","",""
"","","","","","single-stim-button","125","428516","0.0-2.0-34.4-1.4","5c55b95b91c0ad0001cf86ab","B2","batch2","","702","tol_toboard","","","","tol_peg_1","702","702","0","[[2,1,0],[0,0],[3]]","5","[[2,1,0],[3,0],[0]]","8","0","","","","","","6","","","","","","","","",""
"","","","","","single-stim-button","126","429212","0.0-2.0-34.5-0.5","5c55b95b91c0ad0001cf86ab","B2","batch2","","695","tol_tohand","","","","tol_peg_3","695","695","0","[[2,1,0],[0,0],[0]]","6","[[2,1,0],[3,0],[0]]","8","0","","","","","","6","","","","","","","","",""
"","","","","","single-stim-button","127","429764","0.0-2.0-34.5-1.5","5c55b95b91c0ad0001cf86ab","B2","batch2","","550","tol_toboard","","","","tol_peg_2","550","550","0","[[2,1,0],[3,0],[0]]","6","[[2,1,0],[3,0],[0]]","8","0","","","","","","6","","","","","","","","",""
"","","","","","poldrack-single-stim","128","430775","0.0-2.0-35.0","5c55b95b91c0ad0001cf86ab","B2","batch2","","-1","tol_feedback","","","true","","1000","1000","500","","","","","","-1","none","true","16887","20276","","","","","","","","","",""
"","","","","","html-button-response","129","431885","0.0-2.0-36.0","5c55b95b91c0ad0001cf86ab","B2","batch2","","1108.0999999940395","tol_trial_num","<div class = centerbox><p class = center-block-text>problem <strong>10</strong> out of 25 problems</p></div>","0","","","","","","","","","","","","","","","","","","","","","","","","",""
"","","","","","single-stim-button","130","437838","0.0-2.0-37.0-0.0","5c55b95b91c0ad0001cf86ab","B2","batch2","","5952","tol_tohand","","","","tol_peg_2","5952","5952","0","[[3,0,0],[0,0],[2]]","1","[[3,0,0],[2,1],[0]]","9","0","","","","","","3","","","","","","","","",""
"","","","","","single-stim-button","131","439820","0.0-2.0-37.0-1.0","5c55b95b91c0ad0001cf86ab","B2","batch2","","1982","tol_toboard","","","","tol_peg_1","1982","1982","0","[[3,1,0],[0,0],[2]]","1","[[3,0,0],[2,1],[0]]","9","0","","","","","","3","","","","","","","","",""
"","","","","","single-stim-button","132","440958","0.0-2.0-37.1-0.1","5c55b95b91c0ad0001cf86ab","B2","batch2","","1137","tol_tohand","","","","tol_peg_3","1137","1137","0","[[3,1,0],[0,0],[0]]","2","[[3,0,0],[2,1],[0]]","9","0","","","","","","3","","","","","","","","",""
"","","","","","single-stim-button","133","441644","0.0-2.0-37.1-1.1","5c55b95b91c0ad0001cf86ab","B2","batch2","","686","tol_toboard","","","","tol_peg_2","686","686","0","[[3,1,0],[2,0],[0]]","2","[[3,0,0],[2,1],[0]]","9","0","","","","","","3","","","","","","","","",""
"","","","","","single-stim-button","134","442876","0.0-2.0-37.2-0.2","5c55b95b91c0ad0001cf86ab","B2","batch2","","1230","tol_tohand","","","","tol_peg_1","1230","1230","0","[[3,0,0],[2,0],[0]]","3","[[3,0,0],[2,1],[0]]","9","0","","","","","","3","","","","","","","","",""
"","","","","","single-stim-button","135","443428","0.0-2.0-37.2-1.2","5c55b95b91c0ad0001cf86ab","B2","batch2","","552","tol_toboard","","","","tol_peg_2","552","552","0","[[3,0,0],[2,1],[0]]","3","[[3,0,0],[2,1],[0]]","9","0","","","","","","3","","","","","","","","",""
"","","","","","poldrack-single-stim","136","444429","0.0-2.0-38.0","5c55b95b91c0ad0001cf86ab","B2","batch2","","-1","tol_feedback","","","true","","1000","1000","500","","","","","","-1","none","true","5952","8319","","","","","","","","","",""
"","","","","","html-button-response","137","445524","0.0-2.0-39.0","5c55b95b91c0ad0001cf86ab","B2","batch2","","1093.5","tol_trial_num","<div class = centerbox><p class = center-block-text>problem <strong>11</strong> out of 25 problems</p></div>","0","","","","","","","","","","","","","","","","","","","","","","","","",""
"","","","","","single-stim-button","138","449604","0.0-2.0-40.0-0.0","5c55b95b91c0ad0001cf86ab","B2","batch2","","4080","tol_tohand","","","","tol_peg_1","4080","4080","0","[[1,0,0],[3,0],[0]]","1","[[2,0,0],[1,3],[0]]","10","0","","","","","","6","","","","","","","","",""
"","","","","","single-stim-button","139","450460","0.0-2.0-40.0-1.0","5c55b95b91c0ad0001cf86ab","B2","batch2","","855","tol_toboard","","","","tol_peg_3","855","855","0","[[1,0,0],[3,0],[2]]","1","[[2,0,0],[1,3],[0]]","10","0","","","","","","6","","","","","","","","",""
"","","","","","single-stim-button","140","457828","0.0-2.0-40.1-0.1","5c55b95b91c0ad0001cf86ab","B2","batch2","","7367","tol_tohand","","","","tol_peg_3","7367","7367","0","[[1,0,0],[3,0],[0]]","2","[[2,0,0],[1,3],[0]]","10","0","","","","","","6","","","","","","","","",""
"","","","","","single-stim-button","141","461708","0.0-2.0-40.1-1.1","5c55b95b91c0ad0001cf86ab","B2","batch2","","3879","tol_toboard","","","","tol_peg_2","3879","3879","0","[[1,0,0],[3,2],[0]]","2","[[2,0,0],[1,3],[0]]","10","0","","","","","","6","","","","","","","","",""
"","","","","","single-stim-button","142","462420","0.0-2.0-40.2-0.2","5c55b95b91c0ad0001cf86ab","B2","batch2","","712","tol_tohand","","","","tol_peg_1","712","712","0","[[0,0,0],[3,2],[0]]","3","[[2,0,0],[1,3],[0]]","10","0","","","","","","6","","","","","","","","",""
"","","","","","single-stim-button","143","463765","0.0-2.0-40.2-1.2","5c55b95b91c0ad0001cf86ab","B2","batch2","","1344","tol_toboard","","","","tol_peg_3","1344","1344","0","[[0,0,0],[3,2],[1]]","3","[[2,0,0],[1,3],[0]]","10","0","","","","","","6","","","","","","","","",""
"","","","","","single-stim-button","144","464628","0.0-2.0-40.3-0.3","5c55b95b91c0ad0001cf86ab","B2","batch2","","862","tol_tohand","","","","tol_peg_2","862","862","0","[[0,0,0],[3,0],[1]]","4","[[2,0,0],[1,3],[0]]","10","0","","","","","","6","","","","","","","","",""
"","","","","","single-stim-button","145","465292","0.0-2.0-40.3-1.3","5c55b95b91c0ad0001cf86ab","B2","batch2","","663","tol_toboard","","","","tol_peg_1","663","663","0","[[2,0,0],[3,0],[1]]","4","[[2,0,0],[1,3],[0]]","10","0","","","","","","6","","","","","","","","",""
"","","","","","single-stim-button","146","465940","0.0-2.0-40.4-0.4","5c55b95b91c0ad0001cf86ab","B2","batch2","","647","tol_tohand","","","","tol_peg_2","647","647","0","[[2,0,0],[0,0],[1]]","5","[[2,0,0],[1,3],[0]]","10","0","","","","","","6","","","","","","","","",""
"","","","","","single-stim-button","147","467028","0.0-2.0-40.4-1.4","5c55b95b91c0ad0001cf86ab","B2","batch2","","1087","tol_toboard","","","","tol_peg_1","1087","1087","0","[[2,3,0],[0,0],[1]]","5","[[2,0,0],[1,3],[0]]","10","0","","","","","","6","","","","","","","","",""
"","","","","","single-stim-button","148","467694","0.0-2.0-40.5-0.5","5c55b95b91c0ad0001cf86ab","B2","batch2","","664","tol_tohand","","","","tol_peg_3","664","664","0","[[2,3,0],[0,0],[0]]","6","[[2,0,0],[1,3],[0]]","10","0","","","","","","6","","","","","","","","",""
"","","","","","single-stim-button","149","468196","0.0-2.0-40.5-1.5","5c55b95b91c0ad0001cf86ab","B2","batch2","","502","tol_toboard","","","","tol_peg_2","502","502","0","[[2,3,0],[1,0],[0]]","6","[[2,0,0],[1,3],[0]]","10","0","","","","","","6","","","","","","","","",""
"","","","","","single-stim-button","150","469252","0.0-2.0-40.6-0.6","5c55b95b91c0ad0001cf86ab","B2","batch2","","1054","tol_tohand","","","","tol_peg_1","1054","1054","0","[[2,0,0],[1,0],[0]]","7","[[2,0,0],[1,3],[0]]","10","0","","","","","","6","","","","","","","","",""
"","","","","","single-stim-button","151","469764","0.0-2.0-40.6-1.6","5c55b95b91c0ad0001cf86ab","B2","batch2","","511","tol_toboard","","","","tol_peg_2","511","511","0","[[2,0,0],[1,3],[0]]","7","[[2,0,0],[1,3],[0]]","10","0","","","","","","6","","","","","","","","",""
"","","","","","poldrack-single-stim","152","470779","0.0-2.0-41.0","5c55b95b91c0ad0001cf86ab","B2","batch2","","-1","tol_feedback","","","true","","1000","1000","500","","","","","","-1","none","true","4080","15386","","","","","","","","","",""
"","","","","","html-button-response","153","472076","0.0-2.0-42.0","5c55b95b91c0ad0001cf86ab","B2","batch2","","1295.5","tol_trial_num","<div class = centerbox><p class = center-block-text>problem <strong>12</strong> out of 25 problems</p></div>","0","","","","","","","","","","","","","","","","","","","","","","","","",""
"","","","","","single-stim-button","154","479724","0.0-2.0-43.0-0.0","5c55b95b91c0ad0001cf86ab","B2","batch2","","7647","tol_tohand","","","","tol_peg_1","7647","7647","0","[[1,0,0],[3,0],[0]]","1","[[2,3,0],[0,0],[1]]","11","0","","","","","","4","","","","","","","","",""
"","","","","","single-stim-button","155","480188","0.0-2.0-43.0-1.0","5c55b95b91c0ad0001cf86ab","B2","batch2","","463","tol_toboard","","","","tol_peg_2","463","463","0","[[1,0,0],[3,2],[0]]","1","[[2,3,0],[0,0],[1]]","11","0","","","","","","4","","","","","","","","",""
"","","","","","single-stim-button","156","480804","0.0-2.0-43.1-0.1","5c55b95b91c0ad0001cf86ab","B2","batch2","","616","tol_tohand","","","","tol_peg_1","616","616","0","[[0,0,0],[3,2],[0]]","2","[[2,3,0],[0,0],[1]]","11","0","","","","","","4","","","","","","","","",""
"","","","","","single-stim-button","157","481740","0.0-2.0-43.1-1.1","5c55b95b91c0ad0001cf86ab","B2","batch2","","934","tol_toboard","","","","tol_peg_3","934","934","0","[[0,0,0],[3,2],[1]]","2","[[2,3,0],[0,0],[1]]","11","0","","","","","","4","","","","","","","","",""
"","","","","","single-stim-button","158","482421","0.0-2.0-43.2-0.2","5c55b95b91c0ad0001cf86ab","B2","batch2","","681","tol_tohand","","","","tol_peg_2","681","681","0","[[0,0,0],[3,0],[1]]","3","[[2,3,0],[0,0],[1]]","11","0","","","","","","4","","","","","","","","",""
"","","","","","single-stim-button","159","483579","0.0-2.0-43.2-1.2","5c55b95b91c0ad0001cf86ab","B2","batch2","","1157","tol_toboard","","","","tol_peg_1","1157","1157","0","[[2,0,0],[3,0],[1]]","3","[[2,3,0],[0,0],[1]]","11","0","","","","","","4","","","","","","","","",""
"","","","","","single-stim-button","160","484188","0.0-2.0-43.3-0.3","5c55b95b91c0ad0001cf86ab","B2","batch2","","609","tol_tohand","","","","tol_peg_2","609","609","0","[[2,0,0],[0,0],[1]]","4","[[2,3,0],[0,0],[1]]","11","0","","","","","","4","","","","","","","","",""
"","","","","","single-stim-button","161","484748","0.0-2.0-43.3-1.3","5c55b95b91c0ad0001cf86ab","B2","batch2","","559","tol_toboard","","","","tol_peg_1","559","559","0","[[2,3,0],[0,0],[1]]","4","[[2,3,0],[0,0],[1]]","11","0","","","","","","4","","","","","","","","",""
"","","","","","poldrack-single-stim","162","485763","0.0-2.0-44.0","5c55b95b91c0ad0001cf86ab","B2","batch2","","-1","tol_feedback","","","true","","1000","1000","500","","","","","","-1","none","true","7647","9553","","","","","","","","","",""
"","","","","","html-button-response","163","487124","0.0-2.0-45.0","5c55b95b91c0ad0001cf86ab","B2","batch2","","1360.199999988079","tol_trial_num","<div class = centerbox><p class = center-block-text>problem <strong>13</strong> out of 25 problems</p></div>","0","","","","","","","","","","","","","","","","","","","","","","","","",""
"","","","","","single-stim-button","164","493460","0.0-2.0-46.0-0.0","5c55b95b91c0ad0001cf86ab","B2","batch2","","6335","tol_tohand","","","","tol_peg_2","6335","6335","0","[[1,2,0],[0,0],[0]]","1","[[0,0,0],[2,3],[1]]","12","0","","","","","","4","","","","","","","","",""
"","","","","","single-stim-button","165","494172","0.0-2.0-46.0-1.0","5c55b95b91c0ad0001cf86ab","B2","batch2","","712","tol_toboard","","","","tol_peg_3","712","712","0","[[1,2,0],[0,0],[3]]","1","[[0,0,0],[2,3],[1]]","12","0","","","","","","4","","","","","","","","",""
"","","","","","single-stim-button","166","495221","0.0-2.0-46.1-0.1","5c55b95b91c0ad0001cf86ab","B2","batch2","","1048","tol_tohand","","","","tol_peg_1","1048","1048","0","[[1,0,0],[0,0],[3]]","2","[[0,0,0],[2,3],[1]]","12","0","","","","","","4","","","","","","","","",""
"","","","","","single-stim-button","167","495700","0.0-2.0-46.1-1.1","5c55b95b91c0ad0001cf86ab","B2","batch2","","479","tol_toboard","","","","tol_peg_2","479","479","0","[[1,0,0],[2,0],[3]]","2","[[0,0,0],[2,3],[1]]","12","0","","","","","","4","","","","","","","","",""
"","","","","","single-stim-button","168","496685","0.0-2.0-46.2-0.2","5c55b95b91c0ad0001cf86ab","B2","batch2","","984","tol_tohand","","","","tol_peg_3","984","984","0","[[1,0,0],[2,0],[0]]","3","[[0,0,0],[2,3],[1]]","12","0","","","","","","4","","","","","","","","",""
"","","","","","single-stim-button","169","497156","0.0-2.0-46.2-1.2","5c55b95b91c0ad0001cf86ab","B2","batch2","","470","tol_toboard","","","","tol_peg_2","470","470","0","[[1,0,0],[2,3],[0]]","3","[[0,0,0],[2,3],[1]]","12","0","","","","","","4","","","","","","","","",""
"","","","","","single-stim-button","170","497861","0.0-2.0-46.3-0.3","5c55b95b91c0ad0001cf86ab","B2","batch2","","703","tol_tohand","","","","tol_peg_1","703","703","0","[[0,0,0],[2,3],[0]]","4","[[0,0,0],[2,3],[1]]","12","0","","","","","","4","","","","","","","","",""
"","","","","","single-stim-button","171","498516","0.0-2.0-46.3-1.3","5c55b95b91c0ad0001cf86ab","B2","batch2","","655","tol_toboard","","","","tol_peg_3","655","655","0","[[0,0,0],[2,3],[1]]","4","[[0,0,0],[2,3],[1]]","12","0","","","","","","4","","","","","","","","",""
"","","","","","poldrack-single-stim","172","499530","0.0-2.0-47.0","5c55b95b91c0ad0001cf86ab","B2","batch2","","-1","tol_feedback","","","true","","1000","1000","500","","","","","","-1","none","true","6335","9070","","","","","","","","","",""
"","","","","","html-button-response","173","503597","0.0-2.0-48.0","5c55b95b91c0ad0001cf86ab","B2","batch2","","4065","attention_check","<p class = block-text>How many balls are in your board<br></p>","1","true","","","","","","","","","","","","","","","","","","","","","","","",""
"","","","","","html-button-response","174","508917","0.0-2.0-49.0","5c55b95b91c0ad0001cf86ab","B2","batch2","","5318.5","tol_trial_num","<div class = centerbox><p class = center-block-text>problem <strong>14</strong> out of 25 problems</p></div>","0","","","","","","","","","","","","","","","","","","","","","","","","",""
"","","","","","single-stim-button","175","516869","0.0-2.0-50.0-0.0","5c55b95b91c0ad0001cf86ab","B2","batch2","","7951","tol_tohand","","","","tol_peg_1","7951","7951","0","[[2,0,0],[3,0],[0]]","1","[[1,2,0],[3,0],[0]]","13","0","","","","","","4","","","","","","","","",""
"","","","","","single-stim-button","176","522293","0.0-2.0-50.0-1.0","5c55b95b91c0ad0001cf86ab","B2","batch2","","5423","tol_toboard","","","","tol_peg_3","5423","5423","0","[[2,0,0],[3,0],[1]]","1","[[1,2,0],[3,0],[0]]","13","0","","","","","","4","","","","","","","","",""
"","","","","","single-stim-button","177","523053","0.0-2.0-50.1-0.1","5c55b95b91c0ad0001cf86ab","B2","batch2","","759","tol_tohand","","","","tol_peg_1","759","759","0","[[0,0,0],[3,0],[1]]","2","[[1,2,0],[3,0],[0]]","13","0","","","","","","4","","","","","","","","",""
"","","","","","single-stim-button","178","524076","0.0-2.0-50.1-1.1","5c55b95b91c0ad0001cf86ab","B2","batch2","","1023","tol_toboard","","","","tol_peg_2","1023","1023","0","[[0,0,0],[3,2],[1]]","2","[[1,2,0],[3,0],[0]]","13","0","","","","","","4","","","","","","","","",""
"","","","","","single-stim-button","179","524653","0.0-2.0-50.2-0.2","5c55b95b91c0ad0001cf86ab","B2","batch2","","576","tol_tohand","","","","tol_peg_3","576","576","0","[[0,0,0],[3,2],[0]]","3","[[1,2,0],[3,0],[0]]","13","0","","","","","","4","","","","","","","","",""
"","","","","","single-stim-button","180","525340","0.0-2.0-50.2-1.2","5c55b95b91c0ad0001cf86ab","B2","batch2","","687","tol_toboard","","","","tol_peg_1","687","687","0","[[1,0,0],[3,2],[0]]","3","[[1,2,0],[3,0],[0]]","13","0","","","","","","4","","","","","","","","",""
"","","","","","single-stim-button","181","525988","0.0-2.0-50.3-0.3","5c55b95b91c0ad0001cf86ab","B2","batch2","","647","tol_tohand","","","","tol_peg_2","647","647","0","[[1,0,0],[3,0],[0]]","4","[[1,2,0],[3,0],[0]]","13","0","","","","","","4","","","","","","","","",""
"","","","","","single-stim-button","182","526765","0.0-2.0-50.3-1.3","5c55b95b91c0ad0001cf86ab","B2","batch2","","775","tol_toboard","","","","tol_peg_1","775","775","0","[[1,2,0],[3,0],[0]]","4","[[1,2,0],[3,0],[0]]","13","0","","","","","","4","","","","","","","","",""
"","","","","","poldrack-single-stim","183","527766","0.0-2.0-51.0","5c55b95b91c0ad0001cf86ab","B2","batch2","","-1","tol_feedback","","","true","","1000","1000","500","","","","","","-1","none","true","7951","9933","","","","","","","","","",""
"","","","","","html-button-response","184","528948","0.0-2.0-52.0","5c55b95b91c0ad0001cf86ab","B2","batch2","","1180.5","tol_trial_num","<div class = centerbox><p class = center-block-text>problem <strong>15</strong> out of 25 problems</p></div>","0","","","","","","","","","","","","","","","","","","","","","","","","",""
"","","","","","single-stim-button","185","533085","0.0-2.0-53.0-0.0","5c55b95b91c0ad0001cf86ab","B2","batch2","","4135","tol_tohand","","","","tol_peg_1","4135","4135","0","[[1,0,0],[3,0],[0]]","1","[[2,0,0],[3,0],[1]]","14","0","","","","","","3","","","","","","","","",""
"","","","","","single-stim-button","186","533653","0.0-2.0-53.0-1.0","5c55b95b91c0ad0001cf86ab","B2","batch2","","567","tol_toboard","","","","tol_peg_2","567","567","0","[[1,0,0],[3,2],[0]]","1","[[2,0,0],[3,0],[1]]","14","0","","","","","","3","","","","","","","","",""
"","","","","","single-stim-button","187","534333","0.0-2.0-53.1-0.1","5c55b95b91c0ad0001cf86ab","B2","batch2","","680","tol_tohand","","","","tol_peg_1","680","680","0","[[0,0,0],[3,2],[0]]","2","[[2,0,0],[3,0],[1]]","14","0","","","","","","3","","","","","","","","",""
"","","","","","single-stim-button","188","534965","0.0-2.0-53.1-1.1","5c55b95b91c0ad0001cf86ab","B2","batch2","","631","tol_toboard","","","","tol_peg_3","631","631","0","[[0,0,0],[3,2],[1]]","2","[[2,0,0],[3,0],[1]]","14","0","","","","","","3","","","","","","","","",""
"","","","","","single-stim-button","189","535485","0.0-2.0-53.2-0.2","5c55b95b91c0ad0001cf86ab","B2","batch2","","519","tol_tohand","","","","tol_peg_2","519","519","0","[[0,0,0],[3,0],[1]]","3","[[2,0,0],[3,0],[1]]","14","0","","","","","","3","","","","","","","","",""
"","","","","","single-stim-button","190","535988","0.0-2.0-53.2-1.2","5c55b95b91c0ad0001cf86ab","B2","batch2","","502","tol_toboard","","","","tol_peg_1","502","502","0","[[2,0,0],[3,0],[1]]","3","[[2,0,0],[3,0],[1]]","14","0","","","","","","3","","","","","","","","",""
"","","","","","poldrack-single-stim","191","536994","0.0-2.0-54.0","5c55b95b91c0ad0001cf86ab","B2","batch2","","-1","tol_feedback","","","true","","1000","1000","500","","","","","","-1","none","true","4135","5334","","","","","","","","","",""
"","","","","","html-button-response","192","537996","0.0-2.0-55.0","5c55b95b91c0ad0001cf86ab","B2","batch2","","1001.1000000238419","tol_trial_num","<div class = centerbox><p class = center-block-text>problem <strong>16</strong> out of 25 problems</p></div>","0","","","","","","","","","","","","","","","","","","","","","","","","",""
"","","","","","single-stim-button","193","564349","0.0-2.0-56.0-0.0","5c55b95b91c0ad0001cf86ab","B2","batch2","","26351","tol_tohand","","","","tol_peg_2","26351","26351","0","[[0,0,0],[2,0],[1]]","1","[[2,3,0],[1,0],[0]]","15","0","","","","","","7","","","","","","","","",""
"","","","","","single-stim-button","194","565276","0.0-2.0-56.0-1.0","5c55b95b91c0ad0001cf86ab","B2","batch2","","927","tol_toboard","","","","tol_peg_1","927","927","0","[[3,0,0],[2,0],[1]]","1","[[2,3,0],[1,0],[0]]","15","0","","","","","","7","","","","","","","","",""
"","","","","","single-stim-button","195","565996","0.0-2.0-56.1-0.1","5c55b95b91c0ad0001cf86ab","B2","batch2","","720","tol_tohand","","","","tol_peg_2","720","720","0","[[3,0,0],[0,0],[1]]","2","[[2,3,0],[1,0],[0]]","15","0","","","","","","7","","","","","","","","",""
"","","","","","single-stim-button","196","566900","0.0-2.0-56.1-1.1","5c55b95b91c0ad0001cf86ab","B2","batch2","","903","tol_toboard","","","","tol_peg_1","903","903","0","[[3,2,0],[0,0],[1]]","2","[[2,3,0],[1,0],[0]]","15","0","","","","","","7","","","","","","","","",""
"","","","","","single-stim-button","197","568508","0.0-2.0-56.2-0.2","5c55b95b91c0ad0001cf86ab","B2","batch2","","1607","tol_tohand","","","","tol_peg_3","1607","1607","0","[[3,2,0],[0,0],[0]]","3","[[2,3,0],[1,0],[0]]","15","0","","","","","","7","","","","","","","","",""
"","","","","","single-stim-button","198","569012","0.0-2.0-56.2-1.2","5c55b95b91c0ad0001cf86ab","B2","batch2","","503","tol_toboard","","","","tol_peg_2","503","503","0","[[3,2,0],[1,0],[0]]","3","[[2,3,0],[1,0],[0]]","15","0","","","","","","7","","","","","","","","",""
"","","","","","single-stim-button","199","573756","0.0-2.0-56.3-0.3","5c55b95b91c0ad0001cf86ab","B2","batch2","","4743","tol_tohand","","","","tol_peg_1","4743","4743","0","[[3,0,0],[1,0],[0]]","4","[[2,3,0],[1,0],[0]]","15","0","","","","","","7","","","","","","","","",""
"","","","","","single-stim-button","200","575124","0.0-2.0-56.3-1.3","5c55b95b91c0ad0001cf86ab","B2","batch2","","1367","tol_toboard","","","","tol_peg_2","1367","1367","0","[[3,0,0],[1,2],[0]]","4","[[2,3,0],[1,0],[0]]","15","0","","","","","","7","","","","","","","","",""
"","","","","","single-stim-button","201","575844","0.0-2.0-56.4-0.4","5c55b95b91c0ad0001cf86ab","B2","batch2","","720","tol_tohand","","","","tol_peg_1","720","720","0","[[0,0,0],[1,2],[0]]","5","[[2,3,0],[1,0],[0]]","15","0","","","","","","7","","","","","","","","",""
"","","","","","single-stim-button","202","578804","0.0-2.0-56.4-1.4","5c55b95b91c0ad0001cf86ab","B2","batch2","","2959","tol_toboard","","","","tol_peg_3","2959","2959","0","[[0,0,0],[1,2],[3]]","5","[[2,3,0],[1,0],[0]]","15","0","","","","","","7","","","","","","","","",""
"","","","","","single-stim-button","203","579445","0.0-2.0-56.5-0.5","5c55b95b91c0ad0001cf86ab","B2","batch2","","639","tol_tohand","","","","tol_peg_2","639","639","0","[[0,0,0],[1,0],[3]]","6","[[2,3,0],[1,0],[0]]","15","0","","","","","","7","","","","","","","","",""
"","","","","","single-stim-button","204","580173","0.0-2.0-56.5-1.5","5c55b95b91c0ad0001cf86ab","B2","batch2","","727","tol_toboard","","","","tol_peg_1","727","727","0","[[2,0,0],[1,0],[3]]","6","[[2,3,0],[1,0],[0]]","15","0","","","","","","7","","","","","","","","",""
"","","","","","single-stim-button","205","581149","0.0-2.0-56.6-0.6","5c55b95b91c0ad0001cf86ab","B2","batch2","","976","tol_tohand","","","","tol_peg_3","976","976","0","[[2,0,0],[1,0],[0]]","7","[[2,3,0],[1,0],[0]]","15","0","","","","","","7","","","","","","","","",""
"","","","","","single-stim-button","206","581892","0.0-2.0-56.6-1.6","5c55b95b91c0ad0001cf86ab","B2","batch2","","743","tol_toboard","","","","tol_peg_1","743","743","0","[[2,3,0],[1,0],[0]]","7","[[2,3,0],[1,0],[0]]","15","0","","","","","","7","","","","","","","","",""
"","","","","","poldrack-single-stim","207","582894","0.0-2.0-57.0","5c55b95b91c0ad0001cf86ab","B2","batch2","","-1","tol_feedback","","","true","","1000","1000","500","","","","","","-1","none","true","26351","35756","","","","","","","","","",""
"","","","","","html-button-response","208","584036","0.0-2.0-58.0","5c55b95b91c0ad0001cf86ab","B2","batch2","","1140.4000000059605","tol_trial_num","<div class = centerbox><p class = center-block-text>problem <strong>17</strong> out of 25 problems</p></div>","0","","","","","","","","","","","","","","","","","","","","","","","","",""
"","","","","","single-stim-button","209","606476","0.0-2.0-59.0-0.0","5c55b95b91c0ad0001cf86ab","B2","batch2","","22440","tol_tohand","","","","tol_peg_2","22440","22440","0","[[1,2,0],[0,0],[0]]","1","[[3,1,0],[2,0],[0]]","16","0","","","","","","5","","","","","","","","",""
"","","","","","single-stim-button","210","607092","0.0-2.0-59.0-1.0","5c55b95b91c0ad0001cf86ab","B2","batch2","","615","tol_toboard","","","","tol_peg_3","615","615","0","[[1,2,0],[0,0],[3]]","1","[[3,1,0],[2,0],[0]]","16","0","","","","","","5","","","","","","","","",""
"","","","","","single-stim-button","211","608220","0.0-2.0-59.1-0.1","5c55b95b91c0ad0001cf86ab","B2","batch2","","1128","tol_tohand","","","","tol_peg_1","1128","1128","0","[[1,0,0],[0,0],[3]]","2","[[3,1,0],[2,0],[0]]","16","0","","","","","","5","","","","","","","","",""
"","","","","","single-stim-button","212","608869","0.0-2.0-59.1-1.1","5c55b95b91c0ad0001cf86ab","B2","batch2","","647","tol_toboard","","","","tol_peg_2","647","647","0","[[1,0,0],[2,0],[3]]","2","[[3,1,0],[2,0],[0]]","16","0","","","","","","5","","","","","","","","",""
"","","","","","single-stim-button","213","609477","0.0-2.0-59.2-0.2","5c55b95b91c0ad0001cf86ab","B2","batch2","","607","tol_tohand","","","","tol_peg_1","607","607","0","[[0,0,0],[2,0],[3]]","3","[[3,1,0],[2,0],[0]]","16","0","","","","","","5","","","","","","","","",""
"","","","","","single-stim-button","214","609948","0.0-2.0-59.2-1.2","5c55b95b91c0ad0001cf86ab","B2","batch2","","471","tol_toboard","","","","tol_peg_2","471","471","0","[[0,0,0],[2,1],[3]]","3","[[3,1,0],[2,0],[0]]","16","0","","","","","","5","","","","","","","","",""
"","","","","","single-stim-button","215","610484","0.0-2.0-59.3-0.3","5c55b95b91c0ad0001cf86ab","B2","batch2","","535","tol_tohand","","","","tol_peg_3","535","535","0","[[0,0,0],[2,1],[0]]","4","[[3,1,0],[2,0],[0]]","16","0","","","","","","5","","","","","","","","",""
"","","","","","single-stim-button","216","611388","0.0-2.0-59.3-1.3","5c55b95b91c0ad0001cf86ab","B2","batch2","","903","tol_toboard","","","","tol_peg_1","903","903","0","[[3,0,0],[2,1],[0]]","4","[[3,1,0],[2,0],[0]]","16","0","","","","","","5","","","","","","","","",""
"","","","","","single-stim-button","217","612013","0.0-2.0-59.4-0.4","5c55b95b91c0ad0001cf86ab","B2","batch2","","625","tol_tohand","","","","tol_peg_2","625","625","0","[[3,0,0],[2,0],[0]]","5","[[3,1,0],[2,0],[0]]","16","0","","","","","","5","","","","","","","","",""
"","","","","","single-stim-button","218","612605","0.0-2.0-59.4-1.4","5c55b95b91c0ad0001cf86ab","B2","batch2","","590","tol_toboard","","","","tol_peg_1","590","590","0","[[3,1,0],[2,0],[0]]","5","[[3,1,0],[2,0],[0]]","16","0","","","","","","5","","","","","","","","",""
"","","","","","poldrack-single-stim","219","613612","0.0-2.0-60.0","5c55b95b91c0ad0001cf86ab","B2","batch2","","-1","tol_feedback","","","true","","1000","1000","500","","","","","","-1","none","true","22440","25335","","","","","","","","","",""
"","","","","","html-button-response","220","614613","0.0-2.0-61.0","5c55b95b91c0ad0001cf86ab","B2","batch2","","998.8999999761581","tol_trial_num","<div class = centerbox><p class = center-block-text>problem <strong>18</strong> out of 25 problems</p></div>","0","","","","","","","","","","","","","","","","","","","","","","","","",""
"","","","","","single-stim-button","221","626117","0.0-2.0-62.0-0.0","5c55b95b91c0ad0001cf86ab","B2","batch2","","11504","tol_tohand","","","","tol_peg_1","11504","11504","0","[[1,0,0],[3,0],[0]]","1","[[3,0,0],[2,0],[1]]","17","0","","","","","","5","","","","","","","","",""
"","","","","","single-stim-button","222","626965","0.0-2.0-62.0-1.0","5c55b95b91c0ad0001cf86ab","B2","batch2","","846","tol_toboard","","","","tol_peg_2","846","846","0","[[1,0,0],[3,2],[0]]","1","[[3,0,0],[2,0],[1]]","17","0","","","","","","5","","","","","","","","",""
"","","","","","single-stim-button","223","627716","0.0-2.0-62.1-0.1","5c55b95b91c0ad0001cf86ab","B2","batch2","","751","tol_tohand","","","","tol_peg_1","751","751","0","[[0,0,0],[3,2],[0]]","2","[[3,0,0],[2,0],[1]]","17","0","","","","","","5","","","","","","","","",""
"","","","","","single-stim-button","224","633709","0.0-2.0-62.1-1.1","5c55b95b91c0ad0001cf86ab","B2","batch2","","5992","tol_toboard","","","","tol_peg_3","5992","5992","0","[[0,0,0],[3,2],[1]]","2","[[3,0,0],[2,0],[1]]","17","0","","","","","","5","","","","","","","","",""
"","","","","","single-stim-button","225","663565","0.0-2.0-62.2-0.2","5c55b95b91c0ad0001cf86ab","B2","batch2","","29854","tol_tohand","","","","tol_peg_3","29854","29854","0","[[0,0,0],[3,2],[0]]","3","[[3,0,0],[2,0],[1]]","17","0","","","","","","5","","","","","","","","",""
"","","","","","single-stim-button","226","665117","0.0-2.0-62.2-1.2","5c55b95b91c0ad0001cf86ab","B2","batch2","","1550","tol_toboard","","","","tol_peg_1","1550","1550","0","[[1,0,0],[3,2],[0]]","3","[[3,0,0],[2,0],[1]]","17","0","","","","","","5","","","","","","","","",""
"","","","","","single-stim-button","227","665957","0.0-2.0-62.3-0.3","5c55b95b91c0ad0001cf86ab","B2","batch2","","840","tol_tohand","","","","tol_peg_2","840","840","0","[[1,0,0],[3,0],[0]]","4","[[3,0,0],[2,0],[1]]","17","0","","","","","","5","","","","","","","","",""
"","","","","","single-stim-button","228","668213","0.0-2.0-62.3-1.3","5c55b95b91c0ad0001cf86ab","B2","batch2","","2255","tol_toboard","","","","tol_peg_3","2255","2255","0","[[1,0,0],[3,0],[2]]","4","[[3,0,0],[2,0],[1]]","17","0","","","","","","5","","","","","","","","",""
"","","","","","single-stim-button","229","668764","0.0-2.0-62.4-0.4","5c55b95b91c0ad0001cf86ab","B2","batch2","","550","tol_tohand","","","","tol_peg_2","550","550","0","[[1,0,0],[0,0],[2]]","5","[[3,0,0],[2,0],[1]]","17","0","","","","","","5","","","","","","","","",""
"","","","","","single-stim-button","230","669365","0.0-2.0-62.4-1.4","5c55b95b91c0ad0001cf86ab","B2","batch2","","599","tol_toboard","","","","tol_peg_1","599","599","0","[[1,3,0],[0,0],[2]]","5","[[3,0,0],[2,0],[1]]","17","0","","","","","","5","","","","","","","","",""
"","","","","","single-stim-button","231","670046","0.0-2.0-62.5-0.5","5c55b95b91c0ad0001cf86ab","B2","batch2","","681","tol_tohand","","","","tol_peg_3","681","681","0","[[1,3,0],[0,0],[0]]","6","[[3,0,0],[2,0],[1]]","17","0","","","","","","5","","","","","","","","",""
"","","","","","single-stim-button","232","670749","0.0-2.0-62.5-1.5","5c55b95b91c0ad0001cf86ab","B2","batch2","","702","tol_toboard","","","","tol_peg_2","702","702","0","[[1,3,0],[2,0],[0]]","6","[[3,0,0],[2,0],[1]]","17","0","","","","","","5","","","","","","","","",""
"","","","","","single-stim-button","233","671965","0.0-2.0-62.6-0.6","5c55b95b91c0ad0001cf86ab","B2","batch2","","1216","tol_tohand","","","","tol_peg_1","1216","1216","0","[[1,0,0],[2,0],[0]]","7","[[3,0,0],[2,0],[1]]","17","0","","","","","","5","","","","","","","","",""
"","","","","","single-stim-button","234","672501","0.0-2.0-62.6-1.6","5c55b95b91c0ad0001cf86ab","B2","batch2","","535","tol_toboard","","","","tol_peg_2","535","535","0","[[1,0,0],[2,3],[0]]","7","[[3,0,0],[2,0],[1]]","17","0","","","","","","5","","","","","","","","",""
"","","","","","single-stim-button","235","672981","0.0-2.0-62.7-0.7","5c55b95b91c0ad0001cf86ab","B2","batch2","","479","tol_tohand","","","","tol_peg_1","479","479","0","[[0,0,0],[2,3],[0]]","8","[[3,0,0],[2,0],[1]]","17","0","","","","","","5","","","","","","","","",""
"","","","","","single-stim-button","236","673179","0.0-2.0-62.7-1.7","5c55b95b91c0ad0001cf86ab","B2","batch2","","198","tol_toboard","","","","tol_peg_1","198","198","0","[[1,0,0],[2,3],[0]]","8","[[3,0,0],[2,0],[1]]","17","0","","","","","","5","","","","","","","","",""
"","","","","","single-stim-button","237","673909","0.0-2.0-62.8-0.8","5c55b95b91c0ad0001cf86ab","B2","batch2","","728","tol_tohand","","","","tol_peg_1","728","728","0","[[0,0,0],[2,3],[0]]","9","[[3,0,0],[2,0],[1]]","17","0","","","","","","5","","","","","","","","",""
"","","","","","single-stim-button","238","674532","0.0-2.0-62.8-1.8","5c55b95b91c0ad0001cf86ab","B2","batch2","","623","tol_toboard","","","","tol_peg_3","623","623","0","[[0,0,0],[2,3],[1]]","9","[[3,0,0],[2,0],[1]]","17","0","","","","","","5","","","","","","","","",""
"","","","","","single-stim-button","239","675341","0.0-2.0-62.9-0.9","5c55b95b91c0ad0001cf86ab","B2","batch2","","807","tol_tohand","","","","tol_peg_2","807","807","0","[[0,0,0],[2,0],[1]]","10","[[3,0,0],[2,0],[1]]","17","0","","","","","","5","","","","","","","","",""
"","","","","","single-stim-button","240","676445","0.0-2.0-62.9-1.9","5c55b95b91c0ad0001cf86ab","B2","batch2","","1103","tol_toboard","","","","tol_peg_1","1103","1103","0","[[3,0,0],[2,0],[1]]","10","[[3,0,0],[2,0],[1]]","17","0","","","","","","5","","","","","","","","",""
"","","","","","poldrack-single-stim","241","677456","0.0-2.0-63.0","5c55b95b91c0ad0001cf86ab","B2","batch2","","-1","tol_feedback","","","true","","1000","1000","500","","","","","","-1","none","true","11504","47410","","","","","","","","","",""
"","","","","","html-button-response","242","678957","0.0-2.0-64.0","5c55b95b91c0ad0001cf86ab","B2","batch2","","1498.9000000059605","tol_trial_num","<div class = centerbox><p class = center-block-text>problem <strong>19</strong> out of 25 problems</p></div>","0","","","","","","","","","","","","","","","","","","","","","","","","",""
"","","","","","single-stim-button","243","745804","0.0-2.0-65.0-0.0","5c55b95b91c0ad0001cf86ab","B2","batch2","","66846","tol_tohand","","","","tol_peg_1","66846","66846","0","[[1,0,0],[3,0],[0]]","1","[[0,0,0],[1,2],[3]]","18","0","","","","","","7","","","","","","","","",""
"","","","","","single-stim-button","244","746820","0.0-2.0-65.0-1.0","5c55b95b91c0ad0001cf86ab","B2","batch2","","1015","tol_toboard","","","","tol_peg_3","1015","1015","0","[[1,0,0],[3,0],[2]]","1","[[0,0,0],[1,2],[3]]","18","0","","","","","","7","","","","","","","","",""
"","","","","","single-stim-button","245","748420","0.0-2.0-65.1-0.1","5c55b95b91c0ad0001cf86ab","B2","batch2","","1599","tol_tohand","","","","tol_peg_2","1599","1599","0","[[1,0,0],[0,0],[2]]","2","[[0,0,0],[1,2],[3]]","18","0","","","","","","7","","","","","","","","",""
"","","","","","single-stim-button","246","757997","0.0-2.0-65.1-1.1","5c55b95b91c0ad0001cf86ab","B2","batch2","","9576","tol_toboard","","","","tol_peg_1","9576","9576","0","[[1,3,0],[0,0],[2]]","2","[[0,0,0],[1,2],[3]]","18","0","","","","","","7","","","","","","","","",""
"","","","","","single-stim-button","247","760572","0.0-2.0-65.2-0.2","5c55b95b91c0ad0001cf86ab","B2","batch2","","2575","tol_tohand","","","","tol_peg_3","2575","2575","0","[[1,3,0],[0,0],[0]]","3","[[0,0,0],[1,2],[3]]","18","0","","","","","","7","","","","","","","","",""
"","","","","","single-stim-button","248","762060","0.0-2.0-65.2-1.2","5c55b95b91c0ad0001cf86ab","B2","batch2","","1487","tol_toboard","","","","tol_peg_2","1487","1487","0","[[1,3,0],[2,0],[0]]","3","[[0,0,0],[1,2],[3]]","18","0","","","","","","7","","","","","","","","",""
"","","","","","single-stim-button","249","769364","0.0-2.0-65.3-0.3","5c55b95b91c0ad0001cf86ab","B2","batch2","","7303","tol_tohand","","","","tol_peg_1","7303","7303","0","[[1,0,0],[2,0],[0]]","4","[[0,0,0],[1,2],[3]]","18","0","","","","","","7","","","","","","","","",""
"","","","","","single-stim-button","250","770323","0.0-2.0-65.3-1.3","5c55b95b91c0ad0001cf86ab","B2","batch2","","958","tol_toboard","","","","tol_peg_2","958","958","0","[[1,0,0],[2,3],[0]]","4","[[0,0,0],[1,2],[3]]","18","0","","","","","","7","","","","","","","","",""
"","","","","","single-stim-button","251","771124","0.0-2.0-65.4-0.4","5c55b95b91c0ad0001cf86ab","B2","batch2","","799","tol_tohand","","","","tol_peg_1","799","799","0","[[0,0,0],[2,3],[0]]","5","[[0,0,0],[1,2],[3]]","18","0","","","","","","7","","","","","","","","",""
"","","","","","single-stim-button","252","778251","0.0-2.0-65.4-1.4","5c55b95b91c0ad0001cf86ab","B2","batch2","","7127","tol_toboard","","","","tol_peg_3","7127","7127","0","[[0,0,0],[2,3],[1]]","5","[[0,0,0],[1,2],[3]]","18","0","","","","","","7","","","","","","","","",""
"","","","","","single-stim-button","253","779540","0.0-2.0-65.5-0.5","5c55b95b91c0ad0001cf86ab","B2","batch2","","1288","tol_tohand","","","","tol_peg_2","1288","1288","0","[[0,0,0],[2,0],[1]]","6","[[0,0,0],[1,2],[3]]","18","0","","","","","","7","","","","","","","","",""
"","","","","","single-stim-button","254","781684","0.0-2.0-65.5-1.5","5c55b95b91c0ad0001cf86ab","B2","batch2","","2143","tol_toboard","","","","tol_peg_2","2143","2143","0","[[0,0,0],[2,3],[1]]","6","[[0,0,0],[1,2],[3]]","18","0","","","","","","7","","","","","","","","",""
"","","","","","single-stim-button","255","783092","0.0-2.0-65.6-0.6","5c55b95b91c0ad0001cf86ab","B2","batch2","","1406","tol_tohand","","","","tol_peg_2","1406","1406","0","[[0,0,0],[2,0],[1]]","7","[[0,0,0],[1,2],[3]]","18","0","","","","","","7","","","","","","","","",""
"","","","","","single-stim-button","256","783620","0.0-2.0-65.6-1.6","5c55b95b91c0ad0001cf86ab","B2","batch2","","528","tol_toboard","","","","tol_peg_1","528","528","0","[[3,0,0],[2,0],[1]]","7","[[0,0,0],[1,2],[3]]","18","0","","","","","","7","","","","","","","","",""
"","","","","","single-stim-button","257","784356","0.0-2.0-65.7-0.7","5c55b95b91c0ad0001cf86ab","B2","batch2","","735","tol_tohand","","","","tol_peg_2","735","735","0","[[3,0,0],[0,0],[1]]","8","[[0,0,0],[1,2],[3]]","18","0","","","","","","7","","","","","","","","",""
"","","","","","single-stim-button","258","784772","0.0-2.0-65.7-1.7","5c55b95b91c0ad0001cf86ab","B2","batch2","","415","tol_toboard","","","","tol_peg_1","415","415","0","[[3,2,0],[0,0],[1]]","8","[[0,0,0],[1,2],[3]]","18","0","","","","","","7","","","","","","","","",""
"","","","","","single-stim-button","259","785540","0.0-2.0-65.8-0.8","5c55b95b91c0ad0001cf86ab","B2","batch2","","768","tol_tohand","","","","tol_peg_3","768","768","0","[[3,2,0],[0,0],[0]]","9","[[0,0,0],[1,2],[3]]","18","0","","","","","","7","","","","","","","","",""
"","","","","","single-stim-button","260","786044","0.0-2.0-65.8-1.8","5c55b95b91c0ad0001cf86ab","B2","batch2","","502","tol_toboard","","","","tol_peg_2","502","502","0","[[3,2,0],[1,0],[0]]","9","[[0,0,0],[1,2],[3]]","18","0","","","","","","7","","","","","","","","",""
"","","","","","single-stim-button","261","786811","0.0-2.0-65.9-0.9","5c55b95b91c0ad0001cf86ab","B2","batch2","","767","tol_tohand","","","","tol_peg_1","767","767","0","[[3,0,0],[1,0],[0]]","10","[[0,0,0],[1,2],[3]]","18","0","","","","","","7","","","","","","","","",""
"","","","","","single-stim-button","262","787604","0.0-2.0-65.9-1.9","5c55b95b91c0ad0001cf86ab","B2","batch2","","791","tol_toboard","","","","tol_peg_2","791","791","0","[[3,0,0],[1,2],[0]]","10","[[0,0,0],[1,2],[3]]","18","0","","","","","","7","","","","","","","","",""
"","","","","","single-stim-button","263","788212","0.0-2.0-65.10-0.10","5c55b95b91c0ad0001cf86ab","B2","batch2","","607","tol_tohand","","","","tol_peg_1","607","607","0","[[0,0,0],[1,2],[0]]","11","[[0,0,0],[1,2],[3]]","18","0","","","","","","7","","","","","","","","",""
"","","","","","single-stim-button","264","789492","0.0-2.0-65.10-1.10","5c55b95b91c0ad0001cf86ab","B2","batch2","","1279","tol_toboard","","","","tol_peg_3","1279","1279","0","[[0,0,0],[1,2],[3]]","11","[[0,0,0],[1,2],[3]]","18","0","","","","","","7","","","","","","","","",""
"","","","","","poldrack-single-stim","265","790494","0.0-2.0-66.0","5c55b95b91c0ad0001cf86ab","B2","batch2","","-1","tol_feedback","","","true","","1000","1000","500","","","","","","-1","none","true","66846","84693","","","","","","","","","",""
"","","","","","html-button-response","266","791588","0.0-2.0-67.0","5c55b95b91c0ad0001cf86ab","B2","batch2","","1092.5","tol_trial_num","<div class = centerbox><p class = center-block-text>problem <strong>20</strong> out of 25 problems</p></div>","0","","","","","","","","","","","","","","","","","","","","","","","","",""
"","","","","","single-stim-button","267","805084","0.0-2.0-68.0-0.0","5c55b95b91c0ad0001cf86ab","B2","batch2","","13495","tol_tohand","","","","tol_peg_1","13495","13495","0","[[1,0,0],[3,0],[0]]","1","[[2,1,0],[0,0],[3]]","19","0","","","","","","5","","","","","","","","",""
"","","","","","single-stim-button","268","805796","0.0-2.0-68.0-1.0","5c55b95b91c0ad0001cf86ab","B2","batch2","","711","tol_toboard","","","","tol_peg_2","711","711","0","[[1,0,0],[3,2],[0]]","1","[[2,1,0],[0,0],[3]]","19","0","","","","","","5","","","","","","","","",""
"","","","","","single-stim-button","269","806396","0.0-2.0-68.1-0.1","5c55b95b91c0ad0001cf86ab","B2","batch2","","599","tol_tohand","","","","tol_peg_1","599","599","0","[[0,0,0],[3,2],[0]]","2","[[2,1,0],[0,0],[3]]","19","0","","","","","","5","","","","","","","","",""
"","","","","","single-stim-button","270","807444","0.0-2.0-68.1-1.1","5c55b95b91c0ad0001cf86ab","B2","batch2","","1048","tol_toboard","","","","tol_peg_3","1048","1048","0","[[0,0,0],[3,2],[1]]","2","[[2,1,0],[0,0],[3]]","19","0","","","","","","5","","","","","","","","",""
"","","","","","single-stim-button","271","808196","0.0-2.0-68.2-0.2","5c55b95b91c0ad0001cf86ab","B2","batch2","","751","tol_tohand","","","","tol_peg_2","751","751","0","[[0,0,0],[3,0],[1]]","3","[[2,1,0],[0,0],[3]]","19","0","","","","","","5","","","","","","","","",""
"","","","","","single-stim-button","272","809604","0.0-2.0-68.2-1.2","5c55b95b91c0ad0001cf86ab","B2","batch2","","1408","tol_toboard","","","","tol_peg_1","1408","1408","0","[[2,0,0],[3,0],[1]]","3","[[2,1,0],[0,0],[3]]","19","0","","","","","","5","","","","","","","","",""
"","","","","","single-stim-button","273","810573","0.0-2.0-68.3-0.3","5c55b95b91c0ad0001cf86ab","B2","batch2","","969","tol_tohand","","","","tol_peg_3","969","969","0","[[2,0,0],[3,0],[0]]","4","[[2,1,0],[0,0],[3]]","19","0","","","","","","5","","","","","","","","",""
"","","","","","single-stim-button","274","811309","0.0-2.0-68.3-1.3","5c55b95b91c0ad0001cf86ab","B2","batch2","","734","tol_toboard","","","","tol_peg_1","734","734","0","[[2,1,0],[3,0],[0]]","4","[[2,1,0],[0,0],[3]]","19","0","","","","","","5","","","","","","","","",""
"","","","","","single-stim-button","275","811885","0.0-2.0-68.4-0.4","5c55b95b91c0ad0001cf86ab","B2","batch2","","574","tol_tohand","","","","tol_peg_2","574","574","0","[[2,1,0],[0,0],[0]]","5","[[2,1,0],[0,0],[3]]","19","0","","","","","","5","","","","","","","","",""
"","","","","","single-stim-button","276","812764","0.0-2.0-68.4-1.4","5c55b95b91c0ad0001cf86ab","B2","batch2","","879","tol_toboard","","","","tol_peg_3","879","879","0","[[2,1,0],[0,0],[3]]","5","[[2,1,0],[0,0],[3]]","19","0","","","","","","5","","","","","","","","",""
"","","","","","poldrack-single-stim","277","813778","0.0-2.0-69.0","5c55b95b91c0ad0001cf86ab","B2","batch2","","-1","tol_feedback","","","true","","1000","1000","500","","","","","","-1","none","true","13495","16388","","","","","","","","","",""
"","","","","","html-button-response","278","815068","0.0-2.0-70.0","5c55b95b91c0ad0001cf86ab","B2","batch2","","1289","tol_trial_num","<div class = centerbox><p class = center-block-text>problem <strong>21</strong> out of 25 problems</p></div>","0","","","","","","","","","","","","","","","","","","","","","","","","",""
"","","","","","single-stim-button","279","835621","0.0-2.0-71.0-0.0","5c55b95b91c0ad0001cf86ab","B2","batch2","","20551","tol_tohand","","","","tol_peg_2","20551","20551","0","[[1,2,0],[0,0],[0]]","1","[[3,2,0],[0,0],[1]]","20","0","","","","","","6","","","","","","","","",""
"","","","","","single-stim-button","280","836164","0.0-2.0-71.0-1.0","5c55b95b91c0ad0001cf86ab","B2","batch2","","543","tol_toboard","","","","tol_peg_3","543","543","0","[[1,2,0],[0,0],[3]]","1","[[3,2,0],[0,0],[1]]","20","0","","","","","","6","","","","","","","","",""
"","","","","","single-stim-button","281","836908","0.0-2.0-71.1-0.1","5c55b95b91c0ad0001cf86ab","B2","batch2","","743","tol_tohand","","","","tol_peg_1","743","743","0","[[1,0,0],[0,0],[3]]","2","[[3,2,0],[0,0],[1]]","20","0","","","","","","6","","","","","","","","",""
"","","","","","single-stim-button","282","837772","0.0-2.0-71.1-1.1","5c55b95b91c0ad0001cf86ab","B2","batch2","","864","tol_toboard","","","","tol_peg_2","864","864","0","[[1,0,0],[2,0],[3]]","2","[[3,2,0],[0,0],[1]]","20","0","","","","","","6","","","","","","","","",""
"","","","","","single-stim-button","283","838411","0.0-2.0-71.2-0.2","5c55b95b91c0ad0001cf86ab","B2","batch2","","639","tol_tohand","","","","tol_peg_1","639","639","0","[[0,0,0],[2,0],[3]]","3","[[3,2,0],[0,0],[1]]","20","0","","","","","","6","","","","","","","","",""
"","","","","","single-stim-button","284","838940","0.0-2.0-71.2-1.2","5c55b95b91c0ad0001cf86ab","B2","batch2","","528","tol_toboard","","","","tol_peg_2","528","528","0","[[0,0,0],[2,1],[3]]","3","[[3,2,0],[0,0],[1]]","20","0","","","","","","6","","","","","","","","",""
"","","","","","single-stim-button","285","839621","0.0-2.0-71.3-0.3","5c55b95b91c0ad0001cf86ab","B2","batch2","","679","tol_tohand","","","","tol_peg_3","679","679","0","[[0,0,0],[2,1],[0]]","4","[[3,2,0],[0,0],[1]]","20","0","","","","","","6","","","","","","","","",""
"","","","","","single-stim-button","286","840372","0.0-2.0-71.3-1.3","5c55b95b91c0ad0001cf86ab","B2","batch2","","751","tol_toboard","","","","tol_peg_1","751","751","0","[[3,0,0],[2,1],[0]]","4","[[3,2,0],[0,0],[1]]","20","0","","","","","","6","","","","","","","","",""
"","","","","","single-stim-button","287","840989","0.0-2.0-71.4-0.4","5c55b95b91c0ad0001cf86ab","B2","batch2","","615","tol_tohand","","","","tol_peg_2","615","615","0","[[3,0,0],[2,0],[0]]","5","[[3,2,0],[0,0],[1]]","20","0","","","","","","6","","","","","","","","",""
"","","","","","single-stim-button","288","841868","0.0-2.0-71.4-1.4","5c55b95b91c0ad0001cf86ab","B2","batch2","","878","tol_toboard","","","","tol_peg_3","878","878","0","[[3,0,0],[2,0],[1]]","5","[[3,2,0],[0,0],[1]]","20","0","","","","","","6","","","","","","","","",""
"","","","","","single-stim-button","289","842444","0.0-2.0-71.5-0.5","5c55b95b91c0ad0001cf86ab","B2","batch2","","576","tol_tohand","","","","tol_peg_2","576","576","0","[[3,0,0],[0,0],[1]]","6","[[3,2,0],[0,0],[1]]","20","0","","","","","","6","","","","","","","","",""
"","","","","","single-stim-button","290","843172","0.0-2.0-71.5-1.5","5c55b95b91c0ad0001cf86ab","B2","batch2","","727","tol_toboard","","","","tol_peg_1","727","727","0","[[3,2,0],[0,0],[1]]","6","[[3,2,0],[0,0],[1]]","20","0","","","","","","6","","","","","","","","",""
"","","","","","poldrack-single-stim","291","844180","0.0-2.0-72.0","5c55b95b91c0ad0001cf86ab","B2","batch2","","-1","tol_feedback","","","true","","1000","1000","500","","","","","","-1","none","true","20551","23803","","","","","","","","","",""
"","","","","","html-button-response","292","845621","0.0-2.0-73.0","5c55b95b91c0ad0001cf86ab","B2","batch2","","1439.5999999940395","tol_trial_num","<div class = centerbox><p class = center-block-text>problem <strong>22</strong> out of 25 problems</p></div>","0","","","","","","","","","","","","","","","","","","","","","","","","",""
"","","","","","single-stim-button","293","890204","0.0-2.0-74.0-0.0","5c55b95b91c0ad0001cf86ab","B2","batch2","","44582","tol_tohand","","","","tol_peg_1","44582","44582","0","[[0,0,0],[2,3],[0]]","1","[[0,0,0],[1,2],[3]]","21","0","","","","","","6","","","","","","","","",""
"","","","","","single-stim-button","294","890908","0.0-2.0-74.0-1.0","5c55b95b91c0ad0001cf86ab","B2","batch2","","703","tol_toboard","","","","tol_peg_3","703","703","0","[[0,0,0],[2,3],[1]]","1","[[0,0,0],[1,2],[3]]","21","0","","","","","","6","","","","","","","","",""
"","","","","","single-stim-button","295","891645","0.0-2.0-74.1-0.1","5c55b95b91c0ad0001cf86ab","B2","batch2","","736","tol_tohand","","","","tol_peg_2","736","736","0","[[0,0,0],[2,0],[1]]","2","[[0,0,0],[1,2],[3]]","21","0","","","","","","6","","","","","","","","",""
"","","","","","single-stim-button","296","892644","0.0-2.0-74.1-1.1","5c55b95b91c0ad0001cf86ab","B2","batch2","","999","tol_toboard","","","","tol_peg_1","999","999","0","[[3,0,0],[2,0],[1]]","2","[[0,0,0],[1,2],[3]]","21","0","","","","","","6","","","","","","","","",""
"","","","","","single-stim-button","297","893853","0.0-2.0-74.2-0.2","5c55b95b91c0ad0001cf86ab","B2","batch2","","1208","tol_tohand","","","","tol_peg_2","1208","1208","0","[[3,0,0],[0,0],[1]]","3","[[0,0,0],[1,2],[3]]","21","0","","","","","","6","","","","","","","","",""
"","","","","","single-stim-button","298","894652","0.0-2.0-74.2-1.2","5c55b95b91c0ad0001cf86ab","B2","batch2","","799","tol_toboard","","","","tol_peg_1","799","799","0","[[3,2,0],[0,0],[1]]","3","[[0,0,0],[1,2],[3]]","21","0","","","","","","6","","","","","","","","",""
"","","","","","single-stim-button","299","895445","0.0-2.0-74.3-0.3","5c55b95b91c0ad0001cf86ab","B2","batch2","","792","tol_tohand","","","","tol_peg_3","792","792","0","[[3,2,0],[0,0],[0]]","4","[[0,0,0],[1,2],[3]]","21","0","","","","","","6","","","","","","","","",""
"","","","","","single-stim-button","300","895964","0.0-2.0-74.3-1.3","5c55b95b91c0ad0001cf86ab","B2","batch2","","519","tol_toboard","","","","tol_peg_2","519","519","0","[[3,2,0],[1,0],[0]]","4","[[0,0,0],[1,2],[3]]","21","0","","","","","","6","","","","","","","","",""
"","","","","","single-stim-button","301","897524","0.0-2.0-74.4-0.4","5c55b95b91c0ad0001cf86ab","B2","batch2","","1559","tol_tohand","","","","tol_peg_1","1559","1559","0","[[3,0,0],[1,0],[0]]","5","[[0,0,0],[1,2],[3]]","21","0","","","","","","6","","","","","","","","",""
"","","","","","single-stim-button","302","898277","0.0-2.0-74.4-1.4","5c55b95b91c0ad0001cf86ab","B2","batch2","","752","tol_toboard","","","","tol_peg_2","752","752","0","[[3,0,0],[1,2],[0]]","5","[[0,0,0],[1,2],[3]]","21","0","","","","","","6","","","","","","","","",""
"","","","","","single-stim-button","303","899172","0.0-2.0-74.5-0.5","5c55b95b91c0ad0001cf86ab","B2","batch2","","894","tol_tohand","","","","tol_peg_1","894","894","0","[[0,0,0],[1,2],[0]]","6","[[0,0,0],[1,2],[3]]","21","0","","","","","","6","","","","","","","","",""
"","","","","","single-stim-button","304","899924","0.0-2.0-74.5-1.5","5c55b95b91c0ad0001cf86ab","B2","batch2","","751","tol_toboard","","","","tol_peg_3","751","751","0","[[0,0,0],[1,2],[3]]","6","[[0,0,0],[1,2],[3]]","21","0","","","","","","6","","","","","","","","",""
"","","","","","poldrack-single-stim","305","900933","0.0-2.0-75.0","5c55b95b91c0ad0001cf86ab","B2","batch2","","-1","tol_feedback","","","true","","1000","1000","500","","","","","","-1","none","true","44582","49771","","","","","","","","","",""
"","","","","","html-button-response","306","902212","0.0-2.0-76.0","5c55b95b91c0ad0001cf86ab","B2","batch2","","1277.300000011921","tol_trial_num","<div class = centerbox><p class = center-block-text>problem <strong>23</strong> out of 25 problems</p></div>","0","","","","","","","","","","","","","","","","","","","","","","","","",""
"","","","","","single-stim-button","307","906621","0.0-2.0-77.0-0.0","5c55b95b91c0ad0001cf86ab","B2","batch2","","4408","tol_tohand","","","","tol_peg_1","4408","4408","0","[[1,0,0],[3,0],[0]]","1","[[1,3,2],[0,0],[0]]","22","0","","","","","","3","","","","","","","","",""
"","","","","","single-stim-button","308","907356","0.0-2.0-77.0-1.0","5c55b95b91c0ad0001cf86ab","B2","batch2","","735","tol_toboard","","","","tol_peg_3","735","735","0","[[1,0,0],[3,0],[2]]","1","[[1,3,2],[0,0],[0]]","22","0","","","","","","3","","","","","","","","",""
"","","","","","single-stim-button","309","908085","0.0-2.0-77.1-0.1","5c55b95b91c0ad0001cf86ab","B2","batch2","","727","tol_tohand","","","","tol_peg_2","727","727","0","[[1,0,0],[0,0],[2]]","2","[[1,3,2],[0,0],[0]]","22","0","","","","","","3","","","","","","","","",""
"","","","","","single-stim-button","310","908636","0.0-2.0-77.1-1.1","5c55b95b91c0ad0001cf86ab","B2","batch2","","550","tol_toboard","","","","tol_peg_1","550","550","0","[[1,3,0],[0,0],[2]]","2","[[1,3,2],[0,0],[0]]","22","0","","","","","","3","","","","","","","","",""
"","","","","","single-stim-button","311","909429","0.0-2.0-77.2-0.2","5c55b95b91c0ad0001cf86ab","B2","batch2","","793","tol_tohand","","","","tol_peg_3","793","793","0","[[1,3,0],[0,0],[0]]","3","[[1,3,2],[0,0],[0]]","22","0","","","","","","3","","","","","","","","",""
"","","","","","single-stim-button","312","910420","0.0-2.0-77.2-1.2","5c55b95b91c0ad0001cf86ab","B2","batch2","","990","tol_toboard","","","","tol_peg_1","990","990","0","[[1,3,2],[0,0],[0]]","3","[[1,3,2],[0,0],[0]]","22","0","","","","","","3","","","","","","","","",""
"","","","","","poldrack-single-stim","313","911424","0.0-2.0-78.0","5c55b95b91c0ad0001cf86ab","B2","batch2","","-1","tol_feedback","","","true","","1000","1000","500","","","","","","-1","none","true","4408","5928","","","","","","","","","",""
"","","","","","html-button-response","314","912925","0.0-2.0-79.0","5c55b95b91c0ad0001cf86ab","B2","batch2","","1499.4000000059605","tol_trial_num","<div class = centerbox><p class = center-block-text>problem <strong>24</strong> out of 25 problems</p></div>","0","","","","","","","","","","","","","","","","","","","","","","","","",""
"","","","","","single-stim-button","315","950204","0.0-2.0-80.0-0.0","5c55b95b91c0ad0001cf86ab","B2","batch2","","37279","tol_tohand","","","","tol_peg_2","37279","37279","0","[[0,0,0],[2,0],[1]]","1","[[2,0,0],[3,0],[1]]","23","0","","","","","","7","","","","","","","","",""
"","","","","","single-stim-button","316","959036","0.0-2.0-80.0-1.0","5c55b95b91c0ad0001cf86ab","B2","batch2","","8831","tol_toboard","","","","tol_peg_1","8831","8831","0","[[3,0,0],[2,0],[1]]","1","[[2,0,0],[3,0],[1]]","23","0","","","","","","7","","","","","","","","",""
"","","","","","single-stim-button","317","960212","0.0-2.0-80.1-0.1","5c55b95b91c0ad0001cf86ab","B2","batch2","","1174","tol_tohand","","","","tol_peg_2","1174","1174","0","[[3,0,0],[0,0],[1]]","2","[[2,0,0],[3,0],[1]]","23","0","","","","","","7","","","","","","","","",""
"","","","","","single-stim-button","318","961100","0.0-2.0-80.1-1.1","5c55b95b91c0ad0001cf86ab","B2","batch2","","888","tol_toboard","","","","tol_peg_1","888","888","0","[[3,2,0],[0,0],[1]]","2","[[2,0,0],[3,0],[1]]","23","0","","","","","","7","","","","","","","","",""
"","","","","","single-stim-button","319","962445","0.0-2.0-80.2-0.2","5c55b95b91c0ad0001cf86ab","B2","batch2","","1345","tol_tohand","","","","tol_peg_3","1345","1345","0","[[3,2,0],[0,0],[0]]","3","[[2,0,0],[3,0],[1]]","23","0","","","","","","7","","","","","","","","",""
"","","","","","single-stim-button","320","963124","0.0-2.0-80.2-1.2","5c55b95b91c0ad0001cf86ab","B2","batch2","","678","tol_toboard","","","","tol_peg_2","678","678","0","[[3,2,0],[1,0],[0]]","3","[[2,0,0],[3,0],[1]]","23","0","","","","","","7","","","","","","","","",""
"","","","","","single-stim-button","321","964797","0.0-2.0-80.3-0.3","5c55b95b91c0ad0001cf86ab","B2","batch2","","1672","tol_tohand","","","","tol_peg_1","1672","1672","0","[[3,0,0],[1,0],[0]]","4","[[2,0,0],[3,0],[1]]","23","0","","","","","","7","","","","","","","","",""
"","","","","","single-stim-button","322","965252","0.0-2.0-80.3-1.3","5c55b95b91c0ad0001cf86ab","B2","batch2","","455","tol_toboard","","","","tol_peg_2","455","455","0","[[3,0,0],[1,2],[0]]","4","[[2,0,0],[3,0],[1]]","23","0","","","","","","7","","","","","","","","",""
"","","","","","single-stim-button","323","966131","0.0-2.0-80.4-0.4","5c55b95b91c0ad0001cf86ab","B2","batch2","","877","tol_tohand","","","","tol_peg_1","877","877","0","[[0,0,0],[1,2],[0]]","5","[[2,0,0],[3,0],[1]]","23","0","","","","","","7","","","","","","","","",""
"","","","","","single-stim-button","324","967979","0.0-2.0-80.4-1.4","5c55b95b91c0ad0001cf86ab","B2","batch2","","1847","tol_toboard","","","","tol_peg_3","1847","1847","0","[[0,0,0],[1,2],[3]]","5","[[2,0,0],[3,0],[1]]","23","0","","","","","","7","","","","","","","","",""
"","","","","","single-stim-button","325","968613","0.0-2.0-80.5-0.5","5c55b95b91c0ad0001cf86ab","B2","batch2","","634","tol_tohand","","","","tol_peg_2","634","634","0","[[0,0,0],[1,0],[3]]","6","[[2,0,0],[3,0],[1]]","23","0","","","","","","7","","","","","","","","",""
"","","","","","single-stim-button","326","969389","0.0-2.0-80.5-1.5","5c55b95b91c0ad0001cf86ab","B2","batch2","","775","tol_toboard","","","","tol_peg_1","775","775","0","[[2,0,0],[1,0],[3]]","6","[[2,0,0],[3,0],[1]]","23","0","","","","","","7","","","","","","","","",""
"","","","","","single-stim-button","327","970094","0.0-2.0-80.6-0.6","5c55b95b91c0ad0001cf86ab","B2","batch2","","704","tol_tohand","","","","tol_peg_2","704","704","0","[[2,0,0],[0,0],[3]]","7","[[2,0,0],[3,0],[1]]","23","0","","","","","","7","","","","","","","","",""
"","","","","","single-stim-button","328","970621","0.0-2.0-80.6-1.6","5c55b95b91c0ad0001cf86ab","B2","batch2","","526","tol_toboard","","","","tol_peg_1","526","526","0","[[2,1,0],[0,0],[3]]","7","[[2,0,0],[3,0],[1]]","23","0","","","","","","7","","","","","","","","",""
"","","","","","single-stim-button","329","971357","0.0-2.0-80.7-0.7","5c55b95b91c0ad0001cf86ab","B2","batch2","","736","tol_tohand","","","","tol_peg_3","736","736","0","[[2,1,0],[0,0],[0]]","8","[[2,0,0],[3,0],[1]]","23","0","","","","","","7","","","","","","","","",""
"","","","","","single-stim-button","330","971804","0.0-2.0-80.7-1.7","5c55b95b91c0ad0001cf86ab","B2","batch2","","446","tol_toboard","","","","tol_peg_2","446","446","0","[[2,1,0],[3,0],[0]]","8","[[2,0,0],[3,0],[1]]","23","0","","","","","","7","","","","","","","","",""
"","","","","","single-stim-button","331","972852","0.0-2.0-80.8-0.8","5c55b95b91c0ad0001cf86ab","B2","batch2","","1047","tol_tohand","","","","tol_peg_1","1047","1047","0","[[2,0,0],[3,0],[0]]","9","[[2,0,0],[3,0],[1]]","23","0","","","","","","7","","","","","","","","",""
"","","","","","single-stim-button","332","973581","0.0-2.0-80.8-1.8","5c55b95b91c0ad0001cf86ab","B2","batch2","","728","tol_toboard","","","","tol_peg_3","728","728","0","[[2,0,0],[3,0],[1]]","9","[[2,0,0],[3,0],[1]]","23","0","","","","","","7","","","","","","","","",""
"","","","","","poldrack-single-stim","333","974586","0.0-2.0-81.0","5c55b95b91c0ad0001cf86ab","B2","batch2","","-1","tol_feedback","","","true","","1000","1000","500","","","","","","-1","none","true","37279","45468","","","","","","","","","",""
"","","","","","html-button-response","334","976452","0.0-2.0-82.0","5c55b95b91c0ad0001cf86ab","B2","batch2","","1863.800000011921","tol_trial_num","<div class = centerbox><p class = center-block-text>problem <strong>25</strong> out of 25 problems</p></div>","0","","","","","","","","","","","","","","","","","","","","","","","","",""
"","","","","","single-stim-button","335","1043748","0.0-2.0-83.0-0.0","5c55b95b91c0ad0001cf86ab","B2","batch2","","67296","tol_tohand","","","","tol_peg_2","67296","67296","0","[[1,2,0],[0,0],[0]]","1","[[3,0,0],[1,0],[2]]","24","0","","","","","","7","","","","","","","","",""
"","","","","","single-stim-button","336","1045316","0.0-2.0-83.0-1.0","5c55b95b91c0ad0001cf86ab","B2","batch2","","1567","tol_toboard","","","","tol_peg_3","1567","1567","0","[[1,2,0],[0,0],[3]]","1","[[3,0,0],[1,0],[2]]","24","0","","","","","","7","","","","","","","","",""
"","","","","","single-stim-button","337","1046212","0.0-2.0-83.1-0.1","5c55b95b91c0ad0001cf86ab","B2","batch2","","896","tol_tohand","","","","tol_peg_1","896","896","0","[[1,0,0],[0,0],[3]]","2","[[3,0,0],[1,0],[2]]","24","0","","","","","","7","","","","","","","","",""
"","","","","","single-stim-button","338","1046917","0.0-2.0-83.1-1.1","5c55b95b91c0ad0001cf86ab","B2","batch2","","704","tol_toboard","","","","tol_peg_2","704","704","0","[[1,0,0],[2,0],[3]]","2","[[3,0,0],[1,0],[2]]","24","0","","","","","","7","","","","","","","","",""
"","","","","","single-stim-button","339","1047444","0.0-2.0-83.2-0.2","5c55b95b91c0ad0001cf86ab","B2","batch2","","526","tol_tohand","","","","tol_peg_1","526","526","0","[[0,0,0],[2,0],[3]]","3","[[3,0,0],[1,0],[2]]","24","0","","","","","","7","","","","","","","","",""
"","","","","","single-stim-button","340","1048069","0.0-2.0-83.2-1.2","5c55b95b91c0ad0001cf86ab","B2","batch2","","624","tol_toboard","","","","tol_peg_2","624","624","0","[[0,0,0],[2,1],[3]]","3","[[3,0,0],[1,0],[2]]","24","0","","","","","","7","","","","","","","","",""
"","","","","","single-stim-button","341","1048798","0.0-2.0-83.3-0.3","5c55b95b91c0ad0001cf86ab","B2","batch2","","728","tol_tohand","","","","tol_peg_3","728","728","0","[[0,0,0],[2,1],[0]]","4","[[3,0,0],[1,0],[2]]","24","0","","","","","","7","","","","","","","","",""
"","","","","","single-stim-button","342","1049685","0.0-2.0-83.3-1.3","5c55b95b91c0ad0001cf86ab","B2","batch2","","886","tol_toboard","","","","tol_peg_1","886","886","0","[[3,0,0],[2,1],[0]]","4","[[3,0,0],[1,0],[2]]","24","0","","","","","","7","","","","","","","","",""
"","","","","","single-stim-button","343","1051556","0.0-2.0-83.4-0.4","5c55b95b91c0ad0001cf86ab","B2","batch2","","1870","tol_tohand","","","","tol_peg_2","1870","1870","0","[[3,0,0],[2,0],[0]]","5","[[3,0,0],[1,0],[2]]","24","0","","","","","","7","","","","","","","","",""
"","","","","","single-stim-button","344","1054300","0.0-2.0-83.4-1.4","5c55b95b91c0ad0001cf86ab","B2","batch2","","2743","tol_toboard","","","","tol_peg_1","2743","2743","0","[[3,1,0],[2,0],[0]]","5","[[3,0,0],[1,0],[2]]","24","0","","","","","","7","","","","","","","","",""
"","","","","","single-stim-button","345","1054860","0.0-2.0-83.5-0.5","5c55b95b91c0ad0001cf86ab","B2","batch2","","560","tol_tohand","","","","tol_peg_2","560","560","0","[[3,1,0],[0,0],[0]]","6","[[3,0,0],[1,0],[2]]","24","0","","","","","","7","","","","","","","","",""
"","","","","","single-stim-button","346","1055532","0.0-2.0-83.5-1.5","5c55b95b91c0ad0001cf86ab","B2","batch2","","671","tol_toboard","","","","tol_peg_3","671","671","0","[[3,1,0],[0,0],[2]]","6","[[3,0,0],[1,0],[2]]","24","0","","","","","","7","","","","","","","","",""
"","","","","","single-stim-button","347","1056540","0.0-2.0-83.6-0.6","5c55b95b91c0ad0001cf86ab","B2","batch2","","1007","tol_tohand","","","","tol_peg_1","1007","1007","0","[[3,0,0],[0,0],[2]]","7","[[3,0,0],[1,0],[2]]","24","0","","","","","","7","","","","","","","","",""
"","","","","","single-stim-button","348","1057004","0.0-2.0-83.6-1.6","5c55b95b91c0ad0001cf86ab","B2","batch2","","463","tol_toboard","","","","tol_peg_2","463","463","0","[[3,0,0],[1,0],[2]]","7","[[3,0,0],[1,0],[2]]","24","0","","","","","","7","","","","","","","","",""
"","","","","","poldrack-single-stim","349","1058013","0.0-2.0-84.0","5c55b95b91c0ad0001cf86ab","B2","batch2","","-1","tol_feedback","","","true","","1000","1000","500","","","","","","-1","none","true","67296","72883","","","","","","","","","",""
"","","","","","html-button-response","350","1060413","0.0-2.0-85.0","5c55b95b91c0ad0001cf86ab","B2","batch2","","2398.0999999940395","tol-goodbye","<p class= block-text>This concludes the Tower of London Task. Thank you for your responses!<br> Click the button below to continue</p>","0","","","","","","","","","","","","","","","","","","","","","","","","",""
"true","","","","","fullscreen","351","1086846","0.0-3.0-0.0","5c55b95b91c0ad0001cf86ab","B2","batch2","","","spm_fullscreen","","","","","","","","","","","","","","","","","","","","","","","","","","",""
"","","","","","html-button-response","352","1096252","0.0-3.0-1.0","5c55b95b91c0ad0001cf86ab","B2","batch2","","9402.59999999404","","<p class = block-text><b>Instructions</b> <br>This is a widely used intelligence test in research. <br>In this test, a figure with a missing piece will be presented.<br>Below the figure are alternative pieces to complete the figure, only one of which is correct.<br> Different figures might involve different principles for obtaining the missing piece<br>Your job is to select the most logical piece to complete the figure.</p>","0","","","","","","","","","","","","","","","","","","","","","","","","",""
"","","","","","html-keyboard-response","353","1097062","0.0-3.0-2.0-0.0","5c55b95b91c0ad0001cf86ab","B2","batch2","","null","spm_show_trial_num","<p class=block-text>Trial 1 out of 60</p>","null","","","","","","","","","","","","","","","","","","","","","","","","",""
"","","","","","image-button-response","354","1102189","0.0-3.0-2.0-1.0","5c55b95b91c0ad0001cf86ab","B2","batch2","","5116.800000011921","spm_respsonse","img/question_1_1.jpeg","3","1","","","","","","","","","","","","","","","","mat_01","4","1","5116.800000011921","","","","",""
