"success","timeout","failed_images","failed_audio","failed_video","trial_type","trial_index","time_elapsed","internal_node_id","subject_id","study_id","session_id","task","rt","stimulus","response","item","answer","correct","spm_correct","spm_rt","view_history","fiar_detect_rt","fiar_detect_correct","total_correct_fiar_detect","post_trial_gap","choices","mouse_click","stim_duration","block_duration","timing_post_trial","current_position","tol_num_moves_made","tol_target","tol_problem_id","tol_rt","key_press","possible_responses","tol_correct","preplanning","tol_rt_per_trial","tol_min_moves"
"true","false","[]","[]","[]","preload","0","1269","0.0-0.0","5c5dba4ed86a7f000191e5d5","E1","batch5","","","","","","","","","","","","","","","","","","","","","","","","","","","","","",""
"true","","","","","fullscreen","1","12980","0.0-1.0-0.0","5c5dba4ed86a7f000191e5d5","E1","batch5","","","","","","","","","","","","","","","","","","","","","","","","","","","","","",""
"true","","","","","fullscreen","2","16079","0.0-2.0-0.0","5c5dba4ed86a7f000191e5d5","E1","batch5","spm_fullscreen","","","","","","","","","","","","","","","","","","","","","","","","","","","","",""
"","","","","","html-button-response","3","27562","0.0-2.0-1.0","5c5dba4ed86a7f000191e5d5","E1","batch5","","11482.400000095367","<p class = block-text><b>Instructions</b> <br>This is a widely used intelligence test in research. <br>In this test, a figure with a missing piece will be presented.<br>Below the figure are alternative pieces to complete the figure, only one of which is correct.<br> Different figures might involve different principles for obtaining the missing piece<br>Your job is to select the most logical piece to complete the figure.</p>","0","","","","","","","","","","","","","","","","","","","","","","","","","",""
"","","","","","html-keyboard-response","4","28378","0.0-2.0-2.0-0.0","5c5dba4ed86a7f000191e5d5","E1","batch5","spm_show_trial_num","null","<p class=block-text>Trial 1 out of 60</p>","null","","","","","","","","","","","","","","","","","","","","","","","","","",""
"","","","","","image-button-response","5","34868","0.0-2.0-2.0-1.0","5c5dba4ed86a7f000191e5d5","E1","batch5","spm_respsonse","6486.099999904633","img/question_1_1.jpeg","3","mat_01","4","1","1","6486.099999904633","","","","","","","","","","","","","","","","","","","","",""
"","","","","","html-keyboard-response","6","35936","0.0-2.0-2.0-0.1","5c5dba4ed86a7f000191e5d5","E1","batch5","spm_show_trial_num","null","<p class=block-text>Trial 2 out of 60</p>","null","","","","","","","","","","","","","","","","","","","","","","","","","",""
"","","","","","image-button-response","7","38620","0.0-2.0-2.0-1.1","5c5dba4ed86a7f000191e5d5","E1","batch5","spm_respsonse","2682.199999809265","img/question_1_2.jpeg","4","mat_02","5","1","1","2682.199999809265","","","","","","","","","","","","","","","","","","","","",""
"","","","","","html-keyboard-response","8","39680","0.0-2.0-2.0-0.2","5c5dba4ed86a7f000191e5d5","E1","batch5","spm_show_trial_num","null","<p class=block-text>Trial 3 out of 60</p>","null","","","","","","","","","","","","","","","","","","","","","","","","","",""
"","","","","","image-button-response","9","42590","0.0-2.0-2.0-1.2","5c5dba4ed86a7f000191e5d5","E1","batch5","spm_respsonse","2908.399999856949","img/question_1_3.jpeg","0","mat_03","1","1","1","2908.399999856949","","","","","","","","","","","","","","","","","","","","",""
"","","","","","html-keyboard-response","10","43655","0.0-2.0-2.0-0.3","5c5dba4ed86a7f000191e5d5","E1","batch5","spm_show_trial_num","null","<p class=block-text>Trial 4 out of 60</p>","null","","","","","","","","","","","","","","","","","","","","","","","","","",""
"","","","","","image-button-response","11","48482","0.0-2.0-2.0-1.3","5c5dba4ed86a7f000191e5d5","E1","batch5","spm_respsonse","4824.899999856949","img/question_1_4.jpeg","1","mat_04","2","1","1","4824.899999856949","","","","","","","","","","","","","","","","","","","","",""
"","","","","","html-keyboard-response","12","49557","0.0-2.0-2.0-0.4","5c5dba4ed86a7f000191e5d5","E1","batch5","spm_show_trial_num","null","<p class=block-text>Trial 5 out of 60</p>","null","","","","","","","","","","","","","","","","","","","","","","","","","",""
"","","","","","image-button-response","13","54168","0.0-2.0-2.0-1.4","5c5dba4ed86a7f000191e5d5","E1","batch5","spm_respsonse","4609.5","img/question_1_5.jpeg","5","mat_05","6","1","1","4609.5","","","","","","","","","","","","","","","","","","","","",""
"","","","","","html-keyboard-response","14","55235","0.0-2.0-2.0-0.5","5c5dba4ed86a7f000191e5d5","E1","batch5","spm_show_trial_num","null","<p class=block-text>Trial 6 out of 60</p>","null","","","","","","","","","","","","","","","","","","","","","","","","","",""
"","","","","","image-button-response","15","58374","0.0-2.0-2.0-1.5","5c5dba4ed86a7f000191e5d5","E1","batch5","spm_respsonse","3137.699999809265","img/question_1_6.jpeg","2","mat_06","3","1","1","3137.699999809265","","","","","","","","","","","","","","","","","","","","",""
"","","","","","html-keyboard-response","16","59441","0.0-2.0-2.0-0.6","5c5dba4ed86a7f000191e5d5","E1","batch5","spm_show_trial_num","null","<p class=block-text>Trial 7 out of 60</p>","null","","","","","","","","","","","","","","","","","","","","","","","","","",""
"","","","","","image-button-response","17","65090","0.0-2.0-2.0-1.6","5c5dba4ed86a7f000191e5d5","E1","batch5","spm_respsonse","5647.799999952316","img/question_1_7.jpeg","5","mat_07","6","1","1","5647.799999952316","","","","","","","","","","","","","","","","","","","","",""
"","","","","","html-keyboard-response","18","66151","0.0-2.0-2.0-0.7","5c5dba4ed86a7f000191e5d5","E1","batch5","spm_show_trial_num","null","<p class=block-text>Trial 8 out of 60</p>","null","","","","","","","","","","","","","","","","","","","","","","","","","",""
"","","","","","image-button-response","19","70596","0.0-2.0-2.0-1.7","5c5dba4ed86a7f000191e5d5","E1","batch5","spm_respsonse","4443","img/question_1_8.jpeg","1","mat_08","2","1","1","4443","","","","","","","","","","","","","","","","","","","","",""
"","","","","","html-keyboard-response","20","71656","0.0-2.0-2.0-0.8","5c5dba4ed86a7f000191e5d5","E1","batch5","spm_show_trial_num","null","<p class=block-text>Trial 9 out of 60</p>","null","","","","","","","","","","","","","","","","","","","","","","","","","",""
"","","","","","image-button-response","21","76014","0.0-2.0-2.0-1.8","5c5dba4ed86a7f000191e5d5","E1","batch5","spm_respsonse","4356.799999952316","img/question_1_9.jpeg","0","mat_09","1","1","1","4356.799999952316","","","","","","","","","","","","","","","","","","","","",""
"","","","","","html-keyboard-response","22","77092","0.0-2.0-2.0-0.9","5c5dba4ed86a7f000191e5d5","E1","batch5","spm_show_trial_num","null","<p class=block-text>Trial 10 out of 60</p>","null","","","","","","","","","","","","","","","","","","","","","","","","","",""
"","","","","","image-button-response","23","82668","0.0-2.0-2.0-1.9","5c5dba4ed86a7f000191e5d5","E1","batch5","spm_respsonse","5574.800000190735","img/question_1_10.jpeg","2","mat_10","3","1","1","5574.800000190735","","","","","","","","","","","","","","","","","","","","",""
"","","","","","html-keyboard-response","24","83741","0.0-2.0-2.0-0.10","5c5dba4ed86a7f000191e5d5","E1","batch5","spm_show_trial_num","null","<p class=block-text>Trial 11 out of 60</p>","null","","","","","","","","","","","","","","","","","","","","","","","","","",""
"","","","","","image-button-response","25","91234","0.0-2.0-2.0-1.10","5c5dba4ed86a7f000191e5d5","E1","batch5","spm_respsonse","7490.700000047684","img/question_1_11.jpeg","3","mat_11","4","1","1","7490.700000047684","","","","","","","","","","","","","","","","","","","","",""
"","","","","","html-keyboard-response","26","92310","0.0-2.0-2.0-0.11","5c5dba4ed86a7f000191e5d5","E1","batch5","spm_show_trial_num","null","<p class=block-text>Trial 12 out of 60</p>","null","","","","","","","","","","","","","","","","","","","","","","","","","",""
"","","","","","image-button-response","27","102220","0.0-2.0-2.0-1.11","5c5dba4ed86a7f000191e5d5","E1","batch5","spm_respsonse","9907.5","img/question_1_12.jpeg","0","mat_12","5","0","0","9907.5","","","","","","","","","","","","","","","","","","","","",""
"","","","","","html-keyboard-response","28","103295","0.0-2.0-2.0-0.12","5c5dba4ed86a7f000191e5d5","E1","batch5","spm_show_trial_num","null","<p class=block-text>Trial 13 out of 60</p>","null","","","","","","","","","","","","","","","","","","","","","","","","","",""
"","","","","","image-button-response","29","105870","0.0-2.0-2.0-1.12","5c5dba4ed86a7f000191e5d5","E1","batch5","spm_respsonse","2573","img/question_2_1.jpeg","1","mat_13","2","1","1","2573","","","","","","","","","","","","","","","","","","","","",""
"","","","","","html-keyboard-response","30","106943","0.0-2.0-2.0-0.13","5c5dba4ed86a7f000191e5d5","E1","batch5","spm_show_trial_num","null","<p class=block-text>Trial 14 out of 60</p>","null","","","","","","","","","","","","","","","","","","","","","","","","","",""
"","","","","","image-button-response","31","117786","0.0-2.0-2.0-1.13","5c5dba4ed86a7f000191e5d5","E1","batch5","spm_respsonse","10841","img/question_2_2.jpeg","5","mat_14","6","1","1","10841","","","","","","","","","","","","","","","","","","","","",""
"","","","","","html-keyboard-response","32","118857","0.0-2.0-2.0-0.14","5c5dba4ed86a7f000191e5d5","E1","batch5","spm_show_trial_num","null","<p class=block-text>Trial 15 out of 60</p>","null","","","","","","","","","","","","","","","","","","","","","","","","","",""
"","","","","","image-button-response","33","122032","0.0-2.0-2.0-1.14","5c5dba4ed86a7f000191e5d5","E1","batch5","spm_respsonse","3173.5","img/question_2_3.jpeg","0","mat_15","1","1","1","3173.5","","","","","","","","","","","","","","","","","","","","",""
"","","","","","html-keyboard-response","34","123091","0.0-2.0-2.0-0.15","5c5dba4ed86a7f000191e5d5","E1","batch5","spm_show_trial_num","null","<p class=block-text>Trial 16 out of 60</p>","null","","","","","","","","","","","","","","","","","","","","","","","","","",""
"","","","","","image-button-response","35","126130","0.0-2.0-2.0-1.15","5c5dba4ed86a7f000191e5d5","E1","batch5","spm_respsonse","3037.7999999523163","img/question_2_4.jpeg","1","mat_16","2","1","1","3037.7999999523163","","","","","","","","","","","","","","","","","","","","",""
"","","","","","html-keyboard-response","36","127184","0.0-2.0-2.0-0.16","5c5dba4ed86a7f000191e5d5","E1","batch5","spm_show_trial_num","null","<p class=block-text>Trial 17 out of 60</p>","null","","","","","","","","","","","","","","","","","","","","","","","","","",""
"","","","","","image-button-response","37","131636","0.0-2.0-2.0-1.16","5c5dba4ed86a7f000191e5d5","E1","batch5","spm_respsonse","4450.099999904633","img/question_2_5.jpeg","0","mat_17","1","1","1","4450.099999904633","","","","","","","","","","","","","","","","","","","","",""
"","","","","","html-keyboard-response","38","132701","0.0-2.0-2.0-0.17","5c5dba4ed86a7f000191e5d5","E1","batch5","spm_show_trial_num","null","<p class=block-text>Trial 18 out of 60</p>","null","","","","","","","","","","","","","","","","","","","","","","","","","",""
"","","","","","image-button-response","39","138172","0.0-2.0-2.0-1.17","5c5dba4ed86a7f000191e5d5","E1","batch5","spm_respsonse","5468.5","img/question_2_6.jpeg","2","mat_18","3","1","1","5468.5","","","","","","","","","","","","","","","","","","","","",""
"","","","","","html-keyboard-response","40","139235","0.0-2.0-2.0-0.18","5c5dba4ed86a7f000191e5d5","E1","batch5","spm_show_trial_num","null","<p class=block-text>Trial 19 out of 60</p>","null","","","","","","","","","","","","","","","","","","","","","","","","","",""
"","","","","","image-button-response","41","143292","0.0-2.0-2.0-1.18","5c5dba4ed86a7f000191e5d5","E1","batch5","spm_respsonse","4054.800000190735","img/question_2_7.jpeg","4","mat_19","5","1","1","4054.800000190735","","","","","","","","","","","","","","","","","","","","",""
"","","","","","html-keyboard-response","42","144361","0.0-2.0-2.0-0.19","5c5dba4ed86a7f000191e5d5","E1","batch5","spm_show_trial_num","null","<p class=block-text>Trial 20 out of 60</p>","null","","","","","","","","","","","","","","","","","","","","","","","","","",""
"","","","","","image-button-response","43","150804","0.0-2.0-2.0-1.19","5c5dba4ed86a7f000191e5d5","E1","batch5","spm_respsonse","6441.700000047684","img/question_2_8.jpeg","5","mat_20","6","1","1","6441.700000047684","","","","","","","","","","","","","","","","","","","","",""
"","","","","","html-keyboard-response","44","151871","0.0-2.0-2.0-0.20","5c5dba4ed86a7f000191e5d5","E1","batch5","spm_show_trial_num","null","<p class=block-text>Trial 21 out of 60</p>","null","","","","","","","","","","","","","","","","","","","","","","","","","",""
"","","","","","image-button-response","45","156066","0.0-2.0-2.0-1.20","5c5dba4ed86a7f000191e5d5","E1","batch5","spm_respsonse","4193.200000047684","img/question_2_9.jpeg","3","mat_21","4","1","1","4193.200000047684","","","","","","","","","","","","","","","","","","","","",""
"","","","","","html-keyboard-response","46","157142","0.0-2.0-2.0-0.21","5c5dba4ed86a7f000191e5d5","E1","batch5","spm_show_trial_num","null","<p class=block-text>Trial 22 out of 60</p>","null","","","","","","","","","","","","","","","","","","","","","","","","","",""
"","","","","","image-button-response","47","162996","0.0-2.0-2.0-1.21","5c5dba4ed86a7f000191e5d5","E1","batch5","spm_respsonse","5852.299999952316","img/question_2_10.jpeg","2","mat_22","3","1","1","5852.299999952316","","","","","","","","","","","","","","","","","","","","",""
"","","","","","html-keyboard-response","48","164066","0.0-2.0-2.0-0.22","5c5dba4ed86a7f000191e5d5","E1","batch5","spm_show_trial_num","null","<p class=block-text>Trial 23 out of 60</p>","null","","","","","","","","","","","","","","","","","","","","","","","","","",""
"","","","","","image-button-response","49","167770","0.0-2.0-2.0-1.22","5c5dba4ed86a7f000191e5d5","E1","batch5","spm_respsonse","3702","img/question_2_11.jpeg","3","mat_23","4","1","1","3702","","","","","","","","","","","","","","","","","","","","",""
"","","","","","html-keyboard-response","50","168839","0.0-2.0-2.0-0.23","5c5dba4ed86a7f000191e5d5","E1","batch5","spm_show_trial_num","null","<p class=block-text>Trial 24 out of 60</p>","null","","","","","","","","","","","","","","","","","","","","","","","","","",""
"","","","","","image-button-response","51","175438","0.0-2.0-2.0-1.23","5c5dba4ed86a7f000191e5d5","E1","batch5","spm_respsonse","6597.5","img/question_2_12.jpeg","4","mat_24","5","1","1","6597.5","","","","","","","","","","","","","","","","","","","","",""
"","","","","","html-button-response","52","177571","0.0-2.0-3.0","5c5dba4ed86a7f000191e5d5","E1","batch5","attention_check","1872.8999998569489","<p class = block-text>Attention check: Please choose 1<br></p>","0","","","true","","","","","","","","","","","","","","","","","","","","","","",""
"","","","","","html-keyboard-response","53","178375","0.0-2.0-4.0-0.0","5c5dba4ed86a7f000191e5d5","E1","batch5","spm_show_trial_num","null","<p class=block-text>Trial 25 out of 60</p>","null","","","","","","","","","","","","","","","","","","","","","","","","","",""
"","","","","","image-button-response","54","185373","0.0-2.0-4.0-1.0","5c5dba4ed86a7f000191e5d5","E1","batch5","spm_respsonse","6995.200000047684","img/question_3_1.jpeg","7","mat_25","8","1","1","6995.200000047684","","","","","","","","","","","","","","","","","","","","",""
"","","","","","html-keyboard-response","55","186436","0.0-2.0-4.0-0.1","5c5dba4ed86a7f000191e5d5","E1","batch5","spm_show_trial_num","null","<p class=block-text>Trial 26 out of 60</p>","null","","","","","","","","","","","","","","","","","","","","","","","","","",""
"","","","","","image-button-response","56","205696","0.0-2.0-4.0-1.1","5c5dba4ed86a7f000191e5d5","E1","batch5","spm_respsonse","19258.799999952316","img/question_3_2.jpeg","1","mat_26","2","1","1","19258.799999952316","","","","","","","","","","","","","","","","","","","","",""
"","","","","","html-keyboard-response","57","206748","0.0-2.0-4.0-0.2","5c5dba4ed86a7f000191e5d5","E1","batch5","spm_show_trial_num","null","<p class=block-text>Trial 27 out of 60</p>","null","","","","","","","","","","","","","","","","","","","","","","","","","",""
"","","","","","image-button-response","58","213971","0.0-2.0-4.0-1.2","5c5dba4ed86a7f000191e5d5","E1","batch5","spm_respsonse","7221","img/question_3_3.jpeg","2","mat_27","3","1","1","7221","","","","","","","","","","","","","","","","","","","","",""
"","","","","","html-keyboard-response","59","215030","0.0-2.0-4.0-0.3","5c5dba4ed86a7f000191e5d5","E1","batch5","spm_show_trial_num","null","<p class=block-text>Trial 28 out of 60</p>","null","","","","","","","","","","","","","","","","","","","","","","","","","",""
"","","","","","image-button-response","60","220019","0.0-2.0-4.0-1.3","5c5dba4ed86a7f000191e5d5","E1","batch5","spm_respsonse","4986.900000095367","img/question_3_4.jpeg","7","mat_28","8","1","1","4986.900000095367","","","","","","","","","","","","","","","","","","","","",""
"","","","","","html-keyboard-response","61","221084","0.0-2.0-4.0-0.4","5c5dba4ed86a7f000191e5d5","E1","batch5","spm_show_trial_num","null","<p class=block-text>Trial 29 out of 60</p>","null","","","","","","","","","","","","","","","","","","","","","","","","","",""
"","","","","","image-button-response","62","229503","0.0-2.0-4.0-1.4","5c5dba4ed86a7f000191e5d5","E1","batch5","spm_respsonse","8417","img/question_3_5.jpeg","6","mat_29","7","1","1","8417","","","","","","","","","","","","","","","","","","","","",""
"","","","","","html-keyboard-response","63","230568","0.0-2.0-4.0-0.5","5c5dba4ed86a7f000191e5d5","E1","batch5","spm_show_trial_num","null","<p class=block-text>Trial 30 out of 60</p>","null","","","","","","","","","","","","","","","","","","","","","","","","","",""
"","","","","","image-button-response","64","234016","0.0-2.0-4.0-1.5","5c5dba4ed86a7f000191e5d5","E1","batch5","spm_respsonse","3446.7000000476837","img/question_3_6.jpeg","3","mat_30","4","1","1","3446.7000000476837","","","","","","","","","","","","","","","","","","","","",""
"","","","","","html-keyboard-response","65","235083","0.0-2.0-4.0-0.6","5c5dba4ed86a7f000191e5d5","E1","batch5","spm_show_trial_num","null","<p class=block-text>Trial 31 out of 60</p>","null","","","","","","","","","","","","","","","","","","","","","","","","","",""
"","","","","","image-button-response","66","237074","0.0-2.0-4.0-1.6","5c5dba4ed86a7f000191e5d5","E1","batch5","spm_respsonse","1989.3000001907349","img/question_3_7.jpeg","5","mat_31","5","0","0","1989.3000001907349","","","","","","","","","","","","","","","","","","","","",""
"","","","","","html-keyboard-response","67","238139","0.0-2.0-4.0-0.7","5c5dba4ed86a7f000191e5d5","E1","batch5","spm_show_trial_num","null","<p class=block-text>Trial 32 out of 60</p>","null","","","","","","","","","","","","","","","","","","","","","","","","","",""
"","","","","","image-button-response","68","240110","0.0-2.0-4.0-1.7","5c5dba4ed86a7f000191e5d5","E1","batch5","spm_respsonse","1969.9000000953674","img/question_3_8.jpeg","6","mat_32","1","0","0","1969.9000000953674","","","","","","","","","","","","","","","","","","","","",""
"","","","","","html-keyboard-response","69","241167","0.0-2.0-4.0-0.8","5c5dba4ed86a7f000191e5d5","E1","batch5","spm_show_trial_num","null","<p class=block-text>Trial 33 out of 60</p>","null","","","","","","","","","","","","","","","","","","","","","","","","","",""
"","","","","","image-button-response","70","242092","0.0-2.0-4.0-1.8","5c5dba4ed86a7f000191e5d5","E1","batch5","spm_respsonse","923.2999999523163","img/question_3_9.jpeg","2","mat_33","7","0","0","923.2999999523163","","","","","","","","","","","","","","","","","","","","",""
"","","","","","html-keyboard-response","71","243151","0.0-2.0-4.0-0.9","5c5dba4ed86a7f000191e5d5","E1","batch5","spm_show_trial_num","null","<p class=block-text>Trial 34 out of 60</p>","null","","","","","","","","","","","","","","","","","","","","","","","","","",""
"","","","","","image-button-response","72","244240","0.0-2.0-4.0-1.9","5c5dba4ed86a7f000191e5d5","E1","batch5","spm_respsonse","1087.7000000476837","img/question_3_10.jpeg","4","mat_34","6","0","0","1087.7000000476837","","","","","","","","","","","","","","","","","","","","",""
"","","","","","html-keyboard-response","73","245305","0.0-2.0-4.0-0.10","5c5dba4ed86a7f000191e5d5","E1","batch5","spm_show_trial_num","null","<p class=block-text>Trial 35 out of 60</p>","null","","","","","","","","","","","","","","","","","","","","","","","","","",""
"","","","","","image-button-response","74","247062","0.0-2.0-4.0-1.10","5c5dba4ed86a7f000191e5d5","E1","batch5","spm_respsonse","1755.5","img/question_3_11.jpeg","5","mat_35","1","0","0","1755.5","","","","","","","","","","","","","","","","","","","","",""
"","","","","","html-keyboard-response","75","248118","0.0-2.0-4.0-0.11","5c5dba4ed86a7f000191e5d5","E1","batch5","spm_show_trial_num","null","<p class=block-text>Trial 36 out of 60</p>","null","","","","","","","","","","","","","","","","","","","","","","","","","",""
"","","","","","image-button-response","76","249178","0.0-2.0-4.0-1.11","5c5dba4ed86a7f000191e5d5","E1","batch5","spm_respsonse","1058.6999998092651","img/question_3_12.jpeg","4","mat_36","2","0","0","1058.6999998092651","","","","","","","","","","","","","","","","","","","","",""
"","","","","","html-keyboard-response","77","250255","0.0-2.0-4.0-0.12","5c5dba4ed86a7f000191e5d5","E1","batch5","spm_show_trial_num","null","<p class=block-text>Trial 37 out of 60</p>","null","","","","","","","","","","","","","","","","","","","","","","","","","",""
"","","","","","image-button-response","78","251639","0.0-2.0-4.0-1.12","5c5dba4ed86a7f000191e5d5","E1","batch5","spm_respsonse","1381.7999999523163","img/question_4_1.jpeg","7","mat_37","3","0","0","1381.7999999523163","","","","","","","","","","","","","","","","","","","","",""
"","","","","","html-keyboard-response","79","252692","0.0-2.0-4.0-0.13","5c5dba4ed86a7f000191e5d5","E1","batch5","spm_show_trial_num","null","<p class=block-text>Trial 38 out of 60</p>","null","","","","","","","","","","","","","","","","","","","","","","","","","",""
"","","","","","image-button-response","80","253527","0.0-2.0-4.0-1.13","5c5dba4ed86a7f000191e5d5","E1","batch5","spm_respsonse","834","img/question_4_2.jpeg","3","mat_38","4","1","1","834","","","","","","","","","","","","","","","","","","","","",""
"","","","","","html-keyboard-response","81","254589","0.0-2.0-4.0-0.14","5c5dba4ed86a7f000191e5d5","E1","batch5","spm_show_trial_num","null","<p class=block-text>Trial 39 out of 60</p>","null","","","","","","","","","","","","","","","","","","","","","","","","","",""
"","","","","","image-button-response","82","256208","0.0-2.0-4.0-1.14","5c5dba4ed86a7f000191e5d5","E1","batch5","spm_respsonse","1618.2000000476837","img/question_4_3.jpeg","4","mat_39","3","0","0","1618.2000000476837","","","","","","","","","","","","","","","","","","","","",""
"","","","","","html-keyboard-response","83","257270","0.0-2.0-4.0-0.15","5c5dba4ed86a7f000191e5d5","E1","batch5","spm_show_trial_num","null","<p class=block-text>Trial 40 out of 60</p>","null","","","","","","","","","","","","","","","","","","","","","","","","","",""
"","","","","","image-button-response","84","258078","0.0-2.0-4.0-1.15","5c5dba4ed86a7f000191e5d5","E1","batch5","spm_respsonse","807.0999999046326","img/question_4_4.jpeg","2","mat_40","7","0","0","807.0999999046326","","","","","","","","","","","","","","","","","","","","",""
"","","","","","html-keyboard-response","85","259150","0.0-2.0-4.0-0.16","5c5dba4ed86a7f000191e5d5","E1","batch5","spm_show_trial_num","null","<p class=block-text>Trial 41 out of 60</p>","null","","","","","","","","","","","","","","","","","","","","","","","","","",""
"","","","","","image-button-response","86","260658","0.0-2.0-4.0-1.16","5c5dba4ed86a7f000191e5d5","E1","batch5","spm_respsonse","1506.2999999523163","img/question_4_5.jpeg","1","mat_41","8","0","0","1506.2999999523163","","","","","","","","","","","","","","","","","","","","",""
"","","","","","html-keyboard-response","87","261723","0.0-2.0-4.0-0.17","5c5dba4ed86a7f000191e5d5","E1","batch5","spm_show_trial_num","null","<p class=block-text>Trial 42 out of 60</p>","null","","","","","","","","","","","","","","","","","","","","","","","","","",""
"","","","","","image-button-response","88","262868","0.0-2.0-4.0-1.17","5c5dba4ed86a7f000191e5d5","E1","batch5","spm_respsonse","1143.7000000476837","img/question_4_6.jpeg","6","mat_42","6","0","0","1143.7000000476837","","","","","","","","","","","","","","","","","","","","",""
"","","","","","html-keyboard-response","89","263925","0.0-2.0-4.0-0.18","5c5dba4ed86a7f000191e5d5","E1","batch5","spm_show_trial_num","null","<p class=block-text>Trial 43 out of 60</p>","null","","","","","","","","","","","","","","","","","","","","","","","","","",""
"","","","","","image-button-response","90","265180","0.0-2.0-4.0-1.18","5c5dba4ed86a7f000191e5d5","E1","batch5","spm_respsonse","1254.2999999523163","img/question_4_7.jpeg","5","mat_43","5","0","0","1254.2999999523163","","","","","","","","","","","","","","","","","","","","",""
"","","","","","html-keyboard-response","91","266243","0.0-2.0-4.0-0.19","5c5dba4ed86a7f000191e5d5","E1","batch5","spm_show_trial_num","null","<p class=block-text>Trial 44 out of 60</p>","null","","","","","","","","","","","","","","","","","","","","","","","","","",""
"","","","","","image-button-response","92","267594","0.0-2.0-4.0-1.19","5c5dba4ed86a7f000191e5d5","E1","batch5","spm_respsonse","1349.2999999523163","img/question_4_8.jpeg","0","mat_44","4","0","0","1349.2999999523163","","","","","","","","","","","","","","","","","","","","",""
"","","","","","html-keyboard-response","93","268645","0.0-2.0-4.0-0.20","5c5dba4ed86a7f000191e5d5","E1","batch5","spm_show_trial_num","null","<p class=block-text>Trial 45 out of 60</p>","null","","","","","","","","","","","","","","","","","","","","","","","","","",""
"","","","","","image-button-response","94","270110","0.0-2.0-4.0-1.20","5c5dba4ed86a7f000191e5d5","E1","batch5","spm_respsonse","1462.8999998569489","img/question_4_9.jpeg","7","mat_45","1","0","0","1462.8999998569489","","","","","","","","","","","","","","","","","","","","",""
"","","","","","html-keyboard-response","95","271161","0.0-2.0-4.0-0.21","5c5dba4ed86a7f000191e5d5","E1","batch5","spm_show_trial_num","null","<p class=block-text>Trial 46 out of 60</p>","null","","","","","","","","","","","","","","","","","","","","","","","","","",""
"","","","","","image-button-response","96","272801","0.0-2.0-4.0-1.21","5c5dba4ed86a7f000191e5d5","E1","batch5","spm_respsonse","1638.1999998092651","img/question_4_10.jpeg","2","mat_46","2","0","0","1638.1999998092651","","","","","","","","","","","","","","","","","","","","",""
"","","","","","html-keyboard-response","97","273869","0.0-2.0-4.0-0.22","5c5dba4ed86a7f000191e5d5","E1","batch5","spm_show_trial_num","null","<p class=block-text>Trial 47 out of 60</p>","null","","","","","","","","","","","","","","","","","","","","","","","","","",""
"","","","","","image-button-response","98","274960","0.0-2.0-4.0-1.22","5c5dba4ed86a7f000191e5d5","E1","batch5","spm_respsonse","1089.7000000476837","img/question_4_11.jpeg","5","mat_47","5","0","0","1089.7000000476837","","","","","","","","","","","","","","","","","","","","",""
"","","","","","html-keyboard-response","99","276018","0.0-2.0-4.0-0.23","5c5dba4ed86a7f000191e5d5","E1","batch5","spm_show_trial_num","null","<p class=block-text>Trial 48 out of 60</p>","null","","","","","","","","","","","","","","","","","","","","","","","","","",""
"","","","","","image-button-response","100","276808","0.0-2.0-4.0-1.23","5c5dba4ed86a7f000191e5d5","E1","batch5","spm_respsonse","789.2999999523163","img/question_4_12.jpeg","4","mat_48","6","0","0","789.2999999523163","","","","","","","","","","","","","","","","","","","","",""
"","","","","","html-keyboard-response","101","277875","0.0-2.0-4.0-0.24","5c5dba4ed86a7f000191e5d5","E1","batch5","spm_show_trial_num","null","<p class=block-text>Trial 49 out of 60</p>","null","","","","","","","","","","","","","","","","","","","","","","","","","",""
"","","","","","image-button-response","102","279080","0.0-2.0-4.0-1.24","5c5dba4ed86a7f000191e5d5","E1","batch5","spm_respsonse","1204.5999999046326","img/question_5_1.jpeg","6","mat_49","7","1","1","1204.5999999046326","","","","","","","","","","","","","","","","","","","","",""
"","","","","","html-keyboard-response","103","280138","0.0-2.0-4.0-0.25","5c5dba4ed86a7f000191e5d5","E1","batch5","spm_show_trial_num","null","<p class=block-text>Trial 50 out of 60</p>","null","","","","","","","","","","","","","","","","","","","","","","","","","",""
"","","","","","image-button-response","104","280976","0.0-2.0-4.0-1.25","5c5dba4ed86a7f000191e5d5","E1","batch5","spm_respsonse","836.2999999523163","img/question_5_2.jpeg","1","mat_50","6","0","0","836.2999999523163","","","","","","","","","","","","","","","","","","","","",""
"","","","","","html-keyboard-response","105","282031","0.0-2.0-4.0-0.26","5c5dba4ed86a7f000191e5d5","E1","batch5","spm_show_trial_num","null","<p class=block-text>Trial 51 out of 60</p>","null","","","","","","","","","","","","","","","","","","","","","","","","","",""
"","","","","","image-button-response","106","283146","0.0-2.0-4.0-1.26","5c5dba4ed86a7f000191e5d5","E1","batch5","spm_respsonse","1114.5","img/question_5_3.jpeg","3","mat_51","8","0","0","1114.5","","","","","","","","","","","","","","","","","","","","",""
"","","","","","html-keyboard-response","107","284220","0.0-2.0-4.0-0.27","5c5dba4ed86a7f000191e5d5","E1","batch5","spm_show_trial_num","null","<p class=block-text>Trial 52 out of 60</p>","null","","","","","","","","","","","","","","","","","","","","","","","","","",""
"","","","","","image-button-response","108","285293","0.0-2.0-4.0-1.27","5c5dba4ed86a7f000191e5d5","E1","batch5","spm_respsonse","1070.7000000476837","img/question_5_4.jpeg","5","mat_52","2","0","0","1070.7000000476837","","","","","","","","","","","","","","","","","","","","",""
"","","","","","html-keyboard-response","109","286345","0.0-2.0-4.0-0.28","5c5dba4ed86a7f000191e5d5","E1","batch5","spm_show_trial_num","null","<p class=block-text>Trial 53 out of 60</p>","null","","","","","","","","","","","","","","","","","","","","","","","","","",""
"","","","","","image-button-response","110","287068","0.0-2.0-4.0-1.28","5c5dba4ed86a7f000191e5d5","E1","batch5","spm_respsonse","722.0999999046326","img/question_5_5.jpeg","4","mat_53","1","0","0","722.0999999046326","","","","","","","","","","","","","","","","","","","","",""
"","","","","","html-keyboard-response","111","288131","0.0-2.0-4.0-0.29","5c5dba4ed86a7f000191e5d5","E1","batch5","spm_show_trial_num","null","<p class=block-text>Trial 54 out of 60</p>","null","","","","","","","","","","","","","","","","","","","","","","","","","",""
"","","","","","image-button-response","112","289013","0.0-2.0-4.0-1.29","5c5dba4ed86a7f000191e5d5","E1","batch5","spm_respsonse","880","img/question_5_6.jpeg","7","mat_54","5","0","0","880","","","","","","","","","","","","","","","","","","","","",""
"","","","","","html-keyboard-response","113","290065","0.0-2.0-4.0-0.30","5c5dba4ed86a7f000191e5d5","E1","batch5","spm_show_trial_num","null","<p class=block-text>Trial 55 out of 60</p>","null","","","","","","","","","","","","","","","","","","","","","","","","","",""
"","","","","","image-button-response","114","291330","0.0-2.0-4.0-1.30","5c5dba4ed86a7f000191e5d5","E1","batch5","spm_respsonse","1264.2000000476837","img/question_5_7.jpeg","1","mat_55","1","0","0","1264.2000000476837","","","","","","","","","","","","","","","","","","","","",""
"","","","","","html-keyboard-response","115","292381","0.0-2.0-4.0-0.31","5c5dba4ed86a7f000191e5d5","E1","batch5","spm_show_trial_num","null","<p class=block-text>Trial 56 out of 60</p>","null","","","","","","","","","","","","","","","","","","","","","","","","","",""
"","","","","","image-button-response","116","293368","0.0-2.0-4.0-1.31","5c5dba4ed86a7f000191e5d5","E1","batch5","spm_respsonse","985.4000000953674","img/question_5_8.jpeg","0","mat_56","6","0","0","985.4000000953674","","","","","","","","","","","","","","","","","","","","",""
"","","","","","html-keyboard-response","117","294425","0.0-2.0-4.0-0.32","5c5dba4ed86a7f000191e5d5","E1","batch5","spm_show_trial_num","null","<p class=block-text>Trial 57 out of 60</p>","null","","","","","","","","","","","","","","","","","","","","","","","","","",""
"","","","","","image-button-response","118","295428","0.0-2.0-4.0-1.32","5c5dba4ed86a7f000191e5d5","E1","batch5","spm_respsonse","1001.5","img/question_5_9.jpeg","3","mat_57","3","0","0","1001.5","","","","","","","","","","","","","","","","","","","","",""
"","","","","","html-keyboard-response","119","296493","0.0-2.0-4.0-0.33","5c5dba4ed86a7f000191e5d5","E1","batch5","spm_show_trial_num","null","<p class=block-text>Trial 58 out of 60</p>","null","","","","","","","","","","","","","","","","","","","","","","","","","",""
"","","","","","image-button-response","120","297896","0.0-2.0-4.0-1.33","5c5dba4ed86a7f000191e5d5","E1","batch5","spm_respsonse","1402.2999999523163","img/question_5_10.jpeg","5","mat_58","2","0","0","1402.2999999523163","","","","","","","","","","","","","","","","","","","","",""
"","","","","","html-keyboard-response","121","298956","0.0-2.0-4.0-0.34","5c5dba4ed86a7f000191e5d5","E1","batch5","spm_show_trial_num","null","<p class=block-text>Trial 59 out of 60</p>","null","","","","","","","","","","","","","","","","","","","","","","","","","",""
"","","","","","image-button-response","122","300144","0.0-2.0-4.0-1.34","5c5dba4ed86a7f000191e5d5","E1","batch5","spm_respsonse","1186.7999999523163","img/question_5_11.jpeg","4","mat_59","4","0","0","1186.7999999523163","","","","","","","","","","","","","","","","","","","","",""
"","","","","","html-keyboard-response","123","301222","0.0-2.0-4.0-0.35","5c5dba4ed86a7f000191e5d5","E1","batch5","spm_show_trial_num","null","<p class=block-text>Trial 60 out of 60</p>","null","","","","","","","","","","","","","","","","","","","","","","","","","",""
"","","","","","image-button-response","124","302261","0.0-2.0-4.0-1.35","5c5dba4ed86a7f000191e5d5","E1","batch5","spm_respsonse","1037.2000000476837","img/question_5_12.jpeg","6","mat_60","5","0","0","1037.2000000476837","","","","","","","","","","","","","","","","","","","","",""
"","","","","","html-button-response","125","305012","0.0-2.0-5.0","5c5dba4ed86a7f000191e5d5","E1","batch5","spm_goodbye","2500","<p class= block-text>This concludes the Standard Progressive Matrix game. Thank you for your responses!<br> When you are ready, click the button continue</p>","0","","","","","","","","","","","","","","","","","","","","","","","","","",""
"true","","","","","fullscreen","126","309158","0.0-3.0-0.0","5c5dba4ed86a7f000191e5d5","E1","batch5","","","","","","","","","","","","","","","","","","","","","","","","","","","","","",""
"","","","","","instructions","127","342858","0.0-3.0-1.0-0.0","5c5dba4ed86a7f000191e5d5","E1","batch5","","33698.700000047684","","","","","","","","[{""page_index"":0,""viewing_time"":21559.299999952316},{""page_index"":1,""viewing_time"":12139}]","","","","","","","","","","","","","","","","","","","",""
"","","","","","html-button-response","128","343982","0.0-3.0-1.0-1.0-0.0","5c5dba4ed86a7f000191e5d5","E1","batch5","pattern_enter_quiz","1123.5","<p class=block-text> Let's answer a few questions <br>","0","","","","","","","","","","","","","","","","","","","","","","","","","",""
"","","","","","html-button-response","129","351492","0.0-3.0-1.0-1.0-1.0","5c5dba4ed86a7f000191e5d5","E1","batch5","pattern_quiz","7508.900000095367","<p class = block-text>True or False: You will have as much time as you want to make each choice. <br></p>","1","","","true","","","","","","","","","","","","","","","","","","","","","","",""
"","","","","","html-button-response","130","353334","0.0-3.0-1.0-1.0-2.0","5c5dba4ed86a7f000191e5d5","E1","batch5","pattern_quiz_feedback","1840.5999999046326","<p class = block-text>Correct! You should make your choice <strong> as fast as you can</strong>.</p>","0","","","","","","","","","","","","","","","","","","","","","","","","","",""
"","","","","","html-button-response","131","355826","0.0-3.0-1.0-1.0-3.0","5c5dba4ed86a7f000191e5d5","E1","batch5","pattern_quiz","2491.5","<p class = block-text>True or False: You will look for 4 pieces in black or white color connected in a row either horizontally, vertically or diagonally. <br></p>","0","","","true","","","","","","","","","","","","","","","","","","","","","","",""
"","","","","","html-button-response","132","356572","0.0-3.0-1.0-1.0-4.0","5c5dba4ed86a7f000191e5d5","E1","batch5","pattern_quiz_feedback","744.9000000953674","<p class = block-text>Correct! </p>","0","","","","","","","","","","","","","","","","","","","","","","","","","",""
"","","","","","html-button-response","133","358194","0.0-3.0-2.0","5c5dba4ed86a7f000191e5d5","E1","batch5","pattern_enter_practice","1620.2999999523163","<p class=block-text> Now that you've understood the game, let's do a few practice trials before we start!<br> <br>","0","","","","","","","","","","","","","","","","","","","","","","","","","",""
"","","","","","image-keyboard-response","134","361002","0.0-3.0-3.0-0.0","5c5dba4ed86a7f000191e5d5","E1","batch5","pattern_practice","2806.7000000476837","stim/prac_no_16_1.png","j","","j","true","","","","","","","","","","","","","","","","","","","","","","",""
"","","","","","html-keyboard-response","135","362013","0.0-3.0-3.0-1.0","5c5dba4ed86a7f000191e5d5","E1","batch5","pattern_feedback","null","<p style=""font-size:30px;color:green;"">Correct!</p>","null","","","","","","","","","","","","","","","","","","","","","","","","","",""
"","","","","","image-keyboard-response","136","364234","0.0-3.0-3.0-0.1","5c5dba4ed86a7f000191e5d5","E1","batch5","pattern_practice","2220.4000000953674","stim/prac_yes_20_dia_b1.png","f","","f","true","","","","","","","","","","","","","","","","","","","","","","",""
"","","","","","html-keyboard-response","137","365262","0.0-3.0-3.0-1.1","5c5dba4ed86a7f000191e5d5","E1","batch5","pattern_feedback","null","<p style=""font-size:30px;color:green;"">Correct!</p>","null","","","","","","","","","","","","","","","","","","","","","","","","","",""
"","","","","","image-keyboard-response","138","366210","0.0-3.0-3.0-0.2","5c5dba4ed86a7f000191e5d5","E1","batch5","pattern_practice","946.5999999046326","stim/prac_yes_18_hor_w1.png","j","","f","false","","","","","","","","","","","","","","","","","","","","","","",""
"","","","","","html-keyboard-response","139","367228","0.0-3.0-3.0-1.2","5c5dba4ed86a7f000191e5d5","E1","batch5","pattern_feedback","null","<p style=""font-size:30px;color:red;"">Wrong.</p>","null","","","","","","","","","","","","","","","","","","","","","","","","","",""
"","","","","","image-keyboard-response","140","370666","0.0-3.0-3.0-0.3","5c5dba4ed86a7f000191e5d5","E1","batch5","pattern_practice","3436.4000000953674","stim/prac_no_18_1.png","j","","j","true","","","","","","","","","","","","","","","","","","","","","","",""
"","","","","","html-keyboard-response","141","371695","0.0-3.0-3.0-1.3","5c5dba4ed86a7f000191e5d5","E1","batch5","pattern_feedback","null","<p style=""font-size:30px;color:green;"">Correct!</p>","null","","","","","","","","","","","","","","","","","","","","","","","","","",""
"","","","","","image-keyboard-response","142","372834","0.0-3.0-3.0-0.4","5c5dba4ed86a7f000191e5d5","E1","batch5","pattern_practice","1136.8999998569489","stim/prac_yes_16_ver_w1.png","j","","f","false","","","","","","","","","","","","","","","","","","","","","","",""
"","","","","","html-keyboard-response","143","373848","0.0-3.0-3.0-1.4","5c5dba4ed86a7f000191e5d5","E1","batch5","pattern_feedback","null","<p style=""font-size:30px;color:red;"">Wrong.</p>","null","","","","","","","","","","","","","","","","","","","","","","","","","",""
"","","","","","html-button-response","144","378552","0.0-3.0-4.0","5c5dba4ed86a7f000191e5d5","E1","batch5","pattern_enter_official_trials","4703.399999856949","<p class=block-text> Good job! You are done with practice trials!<br>
        You responded correctly on 60% of the trials.<br>
        Press the button below to start official trials. Now you won't see any feedback about your response</p>","0","","","","","","","","","","","","","","","","","","","","","","","","","",""
"","","","","","html-keyboard-response","145","379358","0.0-3.0-5.0-0.0","5c5dba4ed86a7f000191e5d5","E1","batch5","pattern_show_trial_num","null","<p class=block-text>Trial 1 out of 78</p>","null","","","","","","","","","","","","","","","","","","","","","","","","","",""
"","","","","","image-keyboard-response","146","382882","0.0-3.0-5.0-1.0","5c5dba4ed86a7f000191e5d5","E1","batch5","pattern_response","3522.0999999046326","stim/no_25_1_b.png","j","pattern_09","j","true","","","","3522.0999999046326","true","1","","","","","","","","","","","","","","","","",""
"","","","","","html-keyboard-response","147","384210","0.0-3.0-5.0-0.1","5c5dba4ed86a7f000191e5d5","E1","batch5","pattern_show_trial_num","null","<p class=block-text>Trial 2 out of 78</p>","null","","","","","","","","","","","","","","","","","","","","","","","","","",""
"","","","","","image-keyboard-response","148","388442","0.0-3.0-5.0-1.1","5c5dba4ed86a7f000191e5d5","E1","batch5","pattern_response","4230.100000143051","stim/no_51_1.png","j","pattern_31","j","true","","","","4230.100000143051","true","2","","","","","","","","","","","","","","","","",""
"","","","","","html-keyboard-response","149","389754","0.0-3.0-5.0-0.2","5c5dba4ed86a7f000191e5d5","E1","batch5","pattern_show_trial_num","null","<p class=block-text>Trial 3 out of 78</p>","null","","","","","","","","","","","","","","","","","","","","","","","","","",""
"","","","","","image-keyboard-response","150","390977","0.0-3.0-5.0-1.2","5c5dba4ed86a7f000191e5d5","E1","batch5","pattern_response","1221.9000000953674","stim/yes_30_ver_b1_b.png","f","pattern_54","f","true","","","","1221.9000000953674","true","3","","","","","","","","","","","","","","","","",""
"","","","","","html-keyboard-response","151","392288","0.0-3.0-5.0-0.3","5c5dba4ed86a7f000191e5d5","E1","batch5","pattern_show_trial_num","null","<p class=block-text>Trial 4 out of 78</p>","null","","","","","","","","","","","","","","","","","","","","","","","","","",""
"","","","","","image-keyboard-response","152","393970","0.0-3.0-5.0-1.3","5c5dba4ed86a7f000191e5d5","E1","batch5","pattern_response","1680.5","stim/yes_42_dia_w1_w.png","j","pattern_64","f","false","","","","1680.5","false","3","","","","","","","","","","","","","","","","",""
"","","","","","html-keyboard-response","153","395294","0.0-3.0-5.0-0.4","5c5dba4ed86a7f000191e5d5","E1","batch5","pattern_show_trial_num","null","<p class=block-text>Trial 5 out of 78</p>","null","","","","","","","","","","","","","","","","","","","","","","","","","",""
"","","","","","image-keyboard-response","154","397194","0.0-3.0-5.0-1.4","5c5dba4ed86a7f000191e5d5","E1","batch5","pattern_response","1898.2999999523163","stim/yes_33_dia_w1_w.png","f","pattern_56","f","true","","","","1898.2999999523163","true","4","","","","","","","","","","","","","","","","",""
"","","","","","html-keyboard-response","155","398511","0.0-3.0-5.0-0.5","5c5dba4ed86a7f000191e5d5","E1","batch5","pattern_show_trial_num","null","<p class=block-text>Trial 6 out of 78</p>","null","","","","","","","","","","","","","","","","","","","","","","","","","",""
"","","","","","image-keyboard-response","156","399138","0.0-3.0-5.0-1.5","5c5dba4ed86a7f000191e5d5","E1","batch5","pattern_response","625.7999999523163","stim/yes_12_hor_w1_w.png","j","pattern_42","f","false","","","","625.7999999523163","false","4","","","","","","","","","","","","","","","","",""
"","","","","","html-keyboard-response","157","400461","0.0-3.0-5.0-0.6","5c5dba4ed86a7f000191e5d5","E1","batch5","pattern_show_trial_num","null","<p class=block-text>Trial 7 out of 78</p>","null","","","","","","","","","","","","","","","","","","","","","","","","","",""
"","","","","","image-keyboard-response","158","401642","0.0-3.0-5.0-1.6","5c5dba4ed86a7f000191e5d5","E1","batch5","pattern_response","1179.9000000953674","stim/yes_39_hor_w1_w.png","j","pattern_62","f","false","","","","1179.9000000953674","false","4","","","","","","","","","","","","","","","","",""
"","","","","","html-keyboard-response","159","402962","0.0-3.0-5.0-0.7","5c5dba4ed86a7f000191e5d5","E1","batch5","pattern_show_trial_num","null","<p class=block-text>Trial 8 out of 78</p>","null","","","","","","","","","","","","","","","","","","","","","","","","","",""
"","","","","","image-keyboard-response","160","403586","0.0-3.0-5.0-1.7","5c5dba4ed86a7f000191e5d5","E1","batch5","pattern_response","623","stim/yes_53_ver_b1_b.png","f","pattern_74","f","true","","","","623","true","5","","","","","","","","","","","","","","","","",""
"","","","","","html-keyboard-response","161","404912","0.0-3.0-5.0-0.8","5c5dba4ed86a7f000191e5d5","E1","batch5","pattern_show_trial_num","null","<p class=block-text>Trial 9 out of 78</p>","null","","","","","","","","","","","","","","","","","","","","","","","","","",""
"","","","","","image-keyboard-response","162","405586","0.0-3.0-5.0-1.8","5c5dba4ed86a7f000191e5d5","E1","batch5","pattern_response","672.7000000476837","stim/no_15_1_w.png","j","pattern_03","j","true","","","","672.7000000476837","true","6","","","","","","","","","","","","","","","","",""
"","","","","","html-keyboard-response","163","406912","0.0-3.0-5.0-0.9","5c5dba4ed86a7f000191e5d5","E1","batch5","pattern_show_trial_num","null","<p class=block-text>Trial 10 out of 78</p>","null","","","","","","","","","","","","","","","","","","","","","","","","","",""
"","","","","","image-keyboard-response","164","407706","0.0-3.0-5.0-1.9","5c5dba4ed86a7f000191e5d5","E1","batch5","pattern_response","792.7000000476837","stim/no_49_2_b.png","f","pattern_29","j","false","","","","792.7000000476837","false","6","","","","","","","","","","","","","","","","",""
"","","","","","html-keyboard-response","165","409029","0.0-3.0-5.0-0.10","5c5dba4ed86a7f000191e5d5","E1","batch5","pattern_show_trial_num","null","<p class=block-text>Trial 11 out of 78</p>","null","","","","","","","","","","","","","","","","","","","","","","","","","",""
"","","","","","image-keyboard-response","166","409666","0.0-3.0-5.0-1.10","5c5dba4ed86a7f000191e5d5","E1","batch5","pattern_response","635.9000000953674","stim/yes_49_hor_w1_b.png","f","pattern_70","f","true","","","","635.9000000953674","true","7","","","","","","","","","","","","","","","","",""
"","","","","","html-keyboard-response","167","410995","0.0-3.0-5.0-0.11","5c5dba4ed86a7f000191e5d5","E1","batch5","pattern_show_trial_num","null","<p class=block-text>Trial 12 out of 78</p>","null","","","","","","","","","","","","","","","","","","","","","","","","","",""
"","","","","","image-keyboard-response","168","411530","0.0-3.0-5.0-1.11","5c5dba4ed86a7f000191e5d5","E1","batch5","pattern_response","533.9000000953674","stim/yes_26_dia_w2_w.png","j","pattern_50","f","false","","","","533.9000000953674","false","7","","","","","","","","","","","","","","","","",""
"","","","","","html-keyboard-response","169","412837","0.0-3.0-5.0-0.12","5c5dba4ed86a7f000191e5d5","E1","batch5","pattern_show_trial_num","null","<p class=block-text>Trial 13 out of 78</p>","null","","","","","","","","","","","","","","","","","","","","","","","","","",""
"","","","","","image-keyboard-response","170","413434","0.0-3.0-5.0-1.12","5c5dba4ed86a7f000191e5d5","E1","batch5","pattern_response","595.5","stim/no_53_1_b.png","f","pattern_33","j","false","","","","595.5","false","7","","","","","","","","","","","","","","","","",""
"","","","","","html-keyboard-response","171","414761","0.0-3.0-5.0-0.13","5c5dba4ed86a7f000191e5d5","E1","batch5","pattern_show_trial_num","null","<p class=block-text>Trial 14 out of 78</p>","null","","","","","","","","","","","","","","","","","","","","","","","","","",""
"","","","","","image-keyboard-response","172","415410","0.0-3.0-5.0-1.13","5c5dba4ed86a7f000191e5d5","E1","batch5","pattern_response","647","stim/yes_36_ver_w1_w.png","j","pattern_58","f","false","","","","647","false","7","","","","","","","","","","","","","","","","",""
"","","","","","html-keyboard-response","173","416729","0.0-3.0-5.0-0.14","5c5dba4ed86a7f000191e5d5","E1","batch5","pattern_show_trial_num","null","<p class=block-text>Trial 15 out of 78</p>","null","","","","","","","","","","","","","","","","","","","","","","","","","",""
"","","","","","image-keyboard-response","174","417274","0.0-3.0-5.0-1.14","5c5dba4ed86a7f000191e5d5","E1","batch5","pattern_response","543.5999999046326","stim/no_12_1.png","j","pattern_01","j","true","","","","543.5999999046326","true","8","","","","","","","","","","","","","","","","",""
"","","","","","html-keyboard-response","175","418595","0.0-3.0-5.0-0.15","5c5dba4ed86a7f000191e5d5","E1","batch5","pattern_show_trial_num","null","<p class=block-text>Trial 16 out of 78</p>","null","","","","","","","","","","","","","","","","","","","","","","","","","",""
"","","","","","image-keyboard-response","176","420018","0.0-3.0-5.0-1.15","5c5dba4ed86a7f000191e5d5","E1","batch5","pattern_response","1421.5","stim/yes_23_ver_b1.png","f","pattern_48","f","true","","","","1421.5","true","9","","","","","","","","","","","","","","","","",""
"","","","","","html-keyboard-response","177","421346","0.0-3.0-5.0-0.16","5c5dba4ed86a7f000191e5d5","E1","batch5","pattern_show_trial_num","null","<p class=block-text>Trial 17 out of 78</p>","null","","","","","","","","","","","","","","","","","","","","","","","","","",""
"","","","","","image-keyboard-response","178","422009","0.0-3.0-5.0-1.16","5c5dba4ed86a7f000191e5d5","E1","batch5","pattern_response","662.5999999046326","stim/no_18_1_b.png","j","pattern_05","j","true","","","","662.5999999046326","true","10","","","","","","","","","","","","","","","","",""
"","","","","","html-keyboard-response","179","423318","0.0-3.0-5.0-0.17","5c5dba4ed86a7f000191e5d5","E1","batch5","pattern_show_trial_num","null","<p class=block-text>Trial 18 out of 78</p>","null","","","","","","","","","","","","","","","","","","","","","","","","","",""
"","","","","","image-keyboard-response","180","424202","0.0-3.0-5.0-1.17","5c5dba4ed86a7f000191e5d5","E1","batch5","pattern_response","882.3000001907349","stim/no_30_1_b.png","f","pattern_13","j","false","","","","882.3000001907349","false","10","","","","","","","","","","","","","","","","",""
"","","","","","html-keyboard-response","181","425512","0.0-3.0-5.0-0.18","5c5dba4ed86a7f000191e5d5","E1","batch5","pattern_show_trial_num","null","<p class=block-text>Trial 19 out of 78</p>","null","","","","","","","","","","","","","","","","","","","","","","","","","",""
"","","","","","image-keyboard-response","182","426041","0.0-3.0-5.0-1.18","5c5dba4ed86a7f000191e5d5","E1","batch5","pattern_response","528","stim/yes_70_ver_b1.png","f","pattern_80","f","true","","","","528","true","11","","","","","","","","","","","","","","","","",""
"","","","","","html-keyboard-response","183","427362","0.0-3.0-5.0-0.19","5c5dba4ed86a7f000191e5d5","E1","batch5","pattern_show_trial_num","null","<p class=block-text>Trial 20 out of 78</p>","null","","","","","","","","","","","","","","","","","","","","","","","","","",""
"","","","","","image-keyboard-response","184","428185","0.0-3.0-5.0-1.19","5c5dba4ed86a7f000191e5d5","E1","batch5","pattern_response","822.4000000953674","stim/no_36_1_b.png","f","pattern_17","j","false","","","","822.4000000953674","false","11","","","","","","","","","","","","","","","","",""
"","","","","","html-keyboard-response","185","429514","0.0-3.0-5.0-0.20","5c5dba4ed86a7f000191e5d5","E1","batch5","pattern_show_trial_num","null","<p class=block-text>Trial 21 out of 78</p>","null","","","","","","","","","","","","","","","","","","","","","","","","","",""
"","","","","","image-keyboard-response","186","430906","0.0-3.0-5.0-1.20","5c5dba4ed86a7f000191e5d5","E1","batch5","pattern_response","1391.2000000476837","stim/no_22_1_b.png","j","pattern_07","j","true","","","","1391.2000000476837","true","12","","","","","","","","","","","","","","","","",""
"","","","","","html-keyboard-response","187","432230","0.0-3.0-5.0-0.21","5c5dba4ed86a7f000191e5d5","E1","batch5","pattern_show_trial_num","null","<p class=block-text>Trial 22 out of 78</p>","null","","","","","","","","","","","","","","","","","","","","","","","","","",""
"","","","","","image-keyboard-response","188","434186","0.0-3.0-5.0-1.21","5c5dba4ed86a7f000191e5d5","E1","batch5","pattern_response","1954.5999999046326","stim/no_28_2.png","j","pattern_11","j","true","","","","1954.5999999046326","true","13","","","","","","","","","","","","","","","","",""
"","","","","","html-keyboard-response","189","435513","0.0-3.0-5.0-0.22","5c5dba4ed86a7f000191e5d5","E1","batch5","pattern_show_trial_num","null","<p class=block-text>Trial 23 out of 78</p>","null","","","","","","","","","","","","","","","","","","","","","","","","","",""
"","","","","","image-keyboard-response","190","436170","0.0-3.0-5.0-1.22","5c5dba4ed86a7f000191e5d5","E1","batch5","pattern_response","654.9000000953674","stim/yes_46_ver_b1_b.png","f","pattern_68","f","true","","","","654.9000000953674","true","14","","","","","","","","","","","","","","","","",""
"","","","","","html-keyboard-response","191","437480","0.0-3.0-5.0-0.23","5c5dba4ed86a7f000191e5d5","E1","batch5","pattern_show_trial_num","null","<p class=block-text>Trial 24 out of 78</p>","null","","","","","","","","","","","","","","","","","","","","","","","","","",""
"","","","","","image-keyboard-response","192","438890","0.0-3.0-5.0-1.23","5c5dba4ed86a7f000191e5d5","E1","batch5","pattern_response","1408.6000001430511","stim/no_33_1_b.png","j","pattern_15","j","true","","","","1408.6000001430511","true","15","","","","","","","","","","","","","","","","",""
"","","","","","html-keyboard-response","193","440196","0.0-3.0-5.0-0.24","5c5dba4ed86a7f000191e5d5","E1","batch5","pattern_show_trial_num","null","<p class=block-text>Trial 25 out of 78</p>","null","","","","","","","","","","","","","","","","","","","","","","","","","",""
"","","","","","image-keyboard-response","194","441082","0.0-3.0-5.0-1.24","5c5dba4ed86a7f000191e5d5","E1","batch5","pattern_response","884.5","stim/no_58_1_w.png","f","pattern_35","j","false","","","","884.5","false","15","","","","","","","","","","","","","","","","",""
"","","","","","html-keyboard-response","195","442397","0.0-3.0-5.0-0.25","5c5dba4ed86a7f000191e5d5","E1","batch5","pattern_show_trial_num","null","<p class=block-text>Trial 26 out of 78</p>","null","","","","","","","","","","","","","","","","","","","","","","","","","",""
"","","","","","image-keyboard-response","196","443946","0.0-3.0-5.0-1.25","5c5dba4ed86a7f000191e5d5","E1","batch5","pattern_response","1547.8000001907349","stim/no_39_1_w.png","j","pattern_21","j","true","","","","1547.8000001907349","true","16","","","","","","","","","","","","","","","","",""
"","","","","","html-keyboard-response","197","445264","0.0-3.0-5.0-0.26","5c5dba4ed86a7f000191e5d5","E1","batch5","pattern_show_trial_num","null","<p class=block-text>Trial 27 out of 78</p>","null","","","","","","","","","","","","","","","","","","","","","","","","","",""
"","","","","","image-keyboard-response","198","446354","0.0-3.0-5.0-1.26","5c5dba4ed86a7f000191e5d5","E1","batch5","pattern_response","1088.4000000953674","stim/no_37_2_w.png","j","pattern_19","j","true","","","","1088.4000000953674","true","17","","","","","","","","","","","","","","","","",""
"","","","","","html-keyboard-response","199","447664","0.0-3.0-5.0-0.27","5c5dba4ed86a7f000191e5d5","E1","batch5","pattern_show_trial_num","null","<p class=block-text>Trial 28 out of 78</p>","null","","","","","","","","","","","","","","","","","","","","","","","","","",""
"","","","","","image-keyboard-response","200","448522","0.0-3.0-5.0-1.27","5c5dba4ed86a7f000191e5d5","E1","batch5","pattern_response","856.6000001430511","stim/no_43_2_b.png","f","pattern_23","j","false","","","","856.6000001430511","false","17","","","","","","","","","","","","","","","","",""
"","","","","","html-keyboard-response","201","449847","0.0-3.0-5.0-0.28","5c5dba4ed86a7f000191e5d5","E1","batch5","pattern_show_trial_num","null","<p class=block-text>Trial 29 out of 78</p>","null","","","","","","","","","","","","","","","","","","","","","","","","","",""
"","","","","","image-keyboard-response","202","451306","0.0-3.0-5.0-1.28","5c5dba4ed86a7f000191e5d5","E1","batch5","pattern_response","1457.6000001430511","stim/no_45_1_w.png","j","pattern_25","j","true","","","","1457.6000001430511","true","18","","","","","","","","","","","","","","","","",""
"","","","","","html-keyboard-response","203","452632","0.0-3.0-5.0-0.29","5c5dba4ed86a7f000191e5d5","E1","batch5","pattern_show_trial_num","null","<p class=block-text>Trial 30 out of 78</p>","null","","","","","","","","","","","","","","","","","","","","","","","","","",""
"","","","","","image-keyboard-response","204","453874","0.0-3.0-5.0-1.29","5c5dba4ed86a7f000191e5d5","E1","batch5","pattern_response","1240.5","stim/yes_44_ver_w1_w.png","j","pattern_66","f","false","","","","1240.5","false","18","","","","","","","","","","","","","","","","",""
"","","","","","html-keyboard-response","205","455197","0.0-3.0-5.0-0.30","5c5dba4ed86a7f000191e5d5","E1","batch5","pattern_show_trial_num","null","<p class=block-text>Trial 31 out of 78</p>","null","","","","","","","","","","","","","","","","","","","","","","","","","",""
"","","","","","image-keyboard-response","206","456186","0.0-3.0-5.0-1.30","5c5dba4ed86a7f000191e5d5","E1","batch5","pattern_response","987.2000000476837","stim/yes_51_dia_b1.png","f","pattern_72","f","true","","","","987.2000000476837","true","19","","","","","","","","","","","","","","","","",""
"","","","","","html-keyboard-response","207","457517","0.0-3.0-5.0-0.31","5c5dba4ed86a7f000191e5d5","E1","batch5","pattern_show_trial_num","null","<p class=block-text>Trial 32 out of 78</p>","null","","","","","","","","","","","","","","","","","","","","","","","","","",""
"","","","","","image-keyboard-response","208","458994","0.0-3.0-5.0-1.31","5c5dba4ed86a7f000191e5d5","E1","batch5","pattern_response","1475.7999999523163","stim/no_47_1_b.png","f","pattern_27","j","false","","","","1475.7999999523163","false","19","","","","","","","","","","","","","","","","",""
"","","","","","html-keyboard-response","209","460314","0.0-3.0-5.0-0.32","5c5dba4ed86a7f000191e5d5","E1","batch5","pattern_show_trial_num","null","<p class=block-text>Trial 33 out of 78</p>","null","","","","","","","","","","","","","","","","","","","","","","","","","",""
"","","","","","image-keyboard-response","210","461210","0.0-3.0-5.0-1.32","5c5dba4ed86a7f000191e5d5","E1","batch5","pattern_response","894.3000001907349","stim/yes_15_dia_b1u_b.png","f","pattern_44","f","true","","","","894.3000001907349","true","20","","","","","","","","","","","","","","","","",""
"","","","","","html-keyboard-response","211","462531","0.0-3.0-5.0-0.33","5c5dba4ed86a7f000191e5d5","E1","batch5","pattern_show_trial_num","null","<p class=block-text>Trial 34 out of 78</p>","null","","","","","","","","","","","","","","","","","","","","","","","","","",""
"","","","","","image-keyboard-response","212","463690","0.0-3.0-5.0-1.33","5c5dba4ed86a7f000191e5d5","E1","batch5","pattern_response","1157.5","stim/yes_17_ver_b1_b.png","f","pattern_46","f","true","","","","1157.5","true","21","","","","","","","","","","","","","","","","",""
"","","","","","html-keyboard-response","213","465016","0.0-3.0-5.0-0.34","5c5dba4ed86a7f000191e5d5","E1","batch5","pattern_show_trial_num","null","<p class=block-text>Trial 35 out of 78</p>","null","","","","","","","","","","","","","","","","","","","","","","","","","",""
"","","","","","image-keyboard-response","214","465857","0.0-3.0-5.0-1.34","5c5dba4ed86a7f000191e5d5","E1","batch5","pattern_response","840.2000000476837","stim/yes_63_dia_b1.png","f","pattern_78","f","true","","","","840.2000000476837","true","22","","","","","","","","","","","","","","","","",""
"","","","","","html-keyboard-response","215","467182","0.0-3.0-5.0-0.35","5c5dba4ed86a7f000191e5d5","E1","batch5","pattern_show_trial_num","null","<p class=block-text>Trial 36 out of 78</p>","null","","","","","","","","","","","","","","","","","","","","","","","","","",""
"","","","","","image-keyboard-response","216","467978","0.0-3.0-5.0-1.35","5c5dba4ed86a7f000191e5d5","E1","batch5","pattern_response","794.6000001430511","stim/yes_37_hor_w1_w.png","j","pattern_60","f","false","","","","794.6000001430511","false","22","","","","","","","","","","","","","","","","",""
"","","","","","html-keyboard-response","217","469290","0.0-3.0-5.0-0.36","5c5dba4ed86a7f000191e5d5","E1","batch5","pattern_show_trial_num","null","<p class=block-text>Trial 37 out of 78</p>","null","","","","","","","","","","","","","","","","","","","","","","","","","",""
"","","","","","image-keyboard-response","218","470002","0.0-3.0-5.0-1.36","5c5dba4ed86a7f000191e5d5","E1","batch5","pattern_response","710.6000001430511","stim/yes_58_dia_w1_w.png","f","pattern_76","f","true","","","","710.6000001430511","true","23","","","","","","","","","","","","","","","","",""
"","","","","","html-keyboard-response","219","471315","0.0-3.0-5.0-0.37","5c5dba4ed86a7f000191e5d5","E1","batch5","pattern_show_trial_num","null","<p class=block-text>Trial 38 out of 78</p>","null","","","","","","","","","","","","","","","","","","","","","","","","","",""
"","","","","","image-keyboard-response","220","471890","0.0-3.0-5.0-1.37","5c5dba4ed86a7f000191e5d5","E1","batch5","pattern_response","573.3999998569489","stim/yes_29_hor_b1_b.png","j","pattern_52","f","false","","","","573.3999998569489","false","23","","","","","","","","","","","","","","","","",""
"","","","","","html-keyboard-response","221","473216","0.0-3.0-5.0-0.38","5c5dba4ed86a7f000191e5d5","E1","batch5","pattern_show_trial_num","null","<p class=block-text>Trial 39 out of 78</p>","null","","","","","","","","","","","","","","","","","","","","","","","","","",""
"","","","","","image-keyboard-response","222","473850","0.0-3.0-5.0-1.38","5c5dba4ed86a7f000191e5d5","E1","batch5","pattern_response","633.2000000476837","stim/no_67_1.png","j","pattern_39","j","true","","","","633.2000000476837","true","24","","","","","","","","","","","","","","","","",""
"","","","","","image-keyboard-response","223","476665","0.0-3.0-6.0","5c5dba4ed86a7f000191e5d5","E1","batch5","attention_check","2308.7999999523163","stim/empty_board.png","j","","j","true","","","","","","","500","[""f"",""j""]","","","","","","","","","","","","","","",""
"","","","","","html-keyboard-response","224","477467","0.0-3.0-7.0-0.0","5c5dba4ed86a7f000191e5d5","E1","batch5","pattern_show_trial_num","null","<p class=block-text>Trial 40 out of 78</p>","null","","","","","","","","","","","","","","","","","","","","","","","","","",""
"","","","","","image-keyboard-response","225","478250","0.0-3.0-7.0-1.0","5c5dba4ed86a7f000191e5d5","E1","batch5","pattern_response","780.8000001907349","stim/yes_60_ver_b1_b.png","f","pattern_77","f","true","","","","780.8000001907349","true","25","","","","","","","","","","","","","","","","",""
"","","","","","html-keyboard-response","226","479566","0.0-3.0-7.0-0.1","5c5dba4ed86a7f000191e5d5","E1","batch5","pattern_show_trial_num","null","<p class=block-text>Trial 41 out of 78</p>","null","","","","","","","","","","","","","","","","","","","","","","","","","",""
"","","","","","image-keyboard-response","227","481226","0.0-3.0-7.0-1.1","5c5dba4ed86a7f000191e5d5","E1","batch5","pattern_response","1658.7999999523163","stim/no_48_1_w.png","j","pattern_28","j","true","","","","1658.7999999523163","true","26","","","","","","","","","","","","","","","","",""
"","","","","","html-keyboard-response","228","482549","0.0-3.0-7.0-0.2","5c5dba4ed86a7f000191e5d5","E1","batch5","pattern_show_trial_num","null","<p class=block-text>Trial 42 out of 78</p>","null","","","","","","","","","","","","","","","","","","","","","","","","","",""
"","","","","","image-keyboard-response","229","483361","0.0-3.0-7.0-1.2","5c5dba4ed86a7f000191e5d5","E1","batch5","pattern_response","810.9000000953674","stim/no_20_1_w.png","j","pattern_06","j","true","","","","810.9000000953674","true","27","","","","","","","","","","","","","","","","",""
"","","","","","html-keyboard-response","230","484675","0.0-3.0-7.0-0.3","5c5dba4ed86a7f000191e5d5","E1","batch5","pattern_show_trial_num","null","<p class=block-text>Trial 43 out of 78</p>","null","","","","","","","","","","","","","","","","","","","","","","","","","",""
"","","","","","image-keyboard-response","231","486105","0.0-3.0-7.0-1.3","5c5dba4ed86a7f000191e5d5","E1","batch5","pattern_response","1428.7000000476837","stim/yes_38_hor_b1_b.png","f","pattern_61","f","true","","","","1428.7000000476837","true","28","","","","","","","","","","","","","","","","",""
"","","","","","html-keyboard-response","232","487433","0.0-3.0-7.0-0.4","5c5dba4ed86a7f000191e5d5","E1","batch5","pattern_show_trial_num","null","<p class=block-text>Trial 44 out of 78</p>","null","","","","","","","","","","","","","","","","","","","","","","","","","",""
"","","","","","image-keyboard-response","233","489697","0.0-3.0-7.0-1.4","5c5dba4ed86a7f000191e5d5","E1","batch5","pattern_response","2263.0999999046326","stim/no_46_1_b.png","j","pattern_26","j","true","","","","2263.0999999046326","true","29","","","","","","","","","","","","","","","","",""
"","","","","","html-keyboard-response","234","491007","0.0-3.0-7.0-0.5","5c5dba4ed86a7f000191e5d5","E1","batch5","pattern_show_trial_num","null","<p class=block-text>Trial 45 out of 78</p>","null","","","","","","","","","","","","","","","","","","","","","","","","","",""
"","","","","","image-keyboard-response","235","492185","0.0-3.0-7.0-1.5","5c5dba4ed86a7f000191e5d5","E1","batch5","pattern_response","1177","stim/yes_25_hor_b1_b.png","f","pattern_49","f","true","","","","1177","true","30","","","","","","","","","","","","","","","","",""
"","","","","","html-keyboard-response","236","493500","0.0-3.0-7.0-0.6","5c5dba4ed86a7f000191e5d5","E1","batch5","pattern_show_trial_num","null","<p class=block-text>Trial 46 out of 78</p>","null","","","","","","","","","","","","","","","","","","","","","","","","","",""
"","","","","","image-keyboard-response","237","496282","0.0-3.0-7.0-1.6","5c5dba4ed86a7f000191e5d5","E1","batch5","pattern_response","2780.9000000953674","stim/no_34_1_b.png","j","pattern_16","j","true","","","","2780.9000000953674","true","31","","","","","","","","","","","","","","","","",""
"","","","","","html-keyboard-response","238","497600","0.0-3.0-7.0-0.7","5c5dba4ed86a7f000191e5d5","E1","batch5","pattern_show_trial_num","null","<p class=block-text>Trial 47 out of 78</p>","null","","","","","","","","","","","","","","","","","","","","","","","","","",""
"","","","","","image-keyboard-response","239","499281","0.0-3.0-7.0-1.7","5c5dba4ed86a7f000191e5d5","E1","batch5","pattern_response","1679.8999998569489","stim/no_50_1.png","j","pattern_30","j","true","","","","1679.8999998569489","true","32","","","","","","","","","","","","","","","","",""
"","","","","","html-keyboard-response","240","500599","0.0-3.0-7.0-0.8","5c5dba4ed86a7f000191e5d5","E1","batch5","pattern_show_trial_num","null","<p class=block-text>Trial 48 out of 78</p>","null","","","","","","","","","","","","","","","","","","","","","","","","","",""
"","","","","","image-keyboard-response","241","502401","0.0-3.0-7.0-1.8","5c5dba4ed86a7f000191e5d5","E1","batch5","pattern_response","1800.5","stim/yes_40_dia_b1_b.png","f","pattern_63","f","true","","","","1800.5","true","33","","","","","","","","","","","","","","","","",""
"","","","","","html-keyboard-response","242","503716","0.0-3.0-7.0-0.9","5c5dba4ed86a7f000191e5d5","E1","batch5","pattern_show_trial_num","null","<p class=block-text>Trial 49 out of 78</p>","null","","","","","","","","","","","","","","","","","","","","","","","","","",""
"","","","","","image-keyboard-response","243","504361","0.0-3.0-7.0-1.9","5c5dba4ed86a7f000191e5d5","E1","batch5","pattern_response","643.3999998569489","stim/no_62_1_w.png","f","pattern_36","j","false","","","","643.3999998569489","false","33","","","","","","","","","","","","","","","","",""
"","","","","","html-keyboard-response","244","505675","0.0-3.0-7.0-0.10","5c5dba4ed86a7f000191e5d5","E1","batch5","pattern_show_trial_num","null","<p class=block-text>Trial 50 out of 78</p>","null","","","","","","","","","","","","","","","","","","","","","","","","","",""
"","","","","","image-keyboard-response","245","506193","0.0-3.0-7.0-1.10","5c5dba4ed86a7f000191e5d5","E1","batch5","pattern_response","517.2999999523163","stim/yes_67_hor_b1.png","f","pattern_79","f","true","","","","517.2999999523163","true","34","","","","","","","","","","","","","","","","",""
"","","","","","html-keyboard-response","246","507517","0.0-3.0-7.0-0.11","5c5dba4ed86a7f000191e5d5","E1","batch5","pattern_show_trial_num","null","<p class=block-text>Trial 51 out of 78</p>","null","","","","","","","","","","","","","","","","","","","","","","","","","",""
"","","","","","image-keyboard-response","247","509745","0.0-3.0-7.0-1.11","5c5dba4ed86a7f000191e5d5","E1","batch5","pattern_response","2227.600000143051","stim/yes_28_ver_b1.png","f","pattern_51","f","true","","","","2227.600000143051","true","35","","","","","","","","","","","","","","","","",""
"","","","","","html-keyboard-response","248","511066","0.0-3.0-7.0-0.12","5c5dba4ed86a7f000191e5d5","E1","batch5","pattern_show_trial_num","null","<p class=block-text>Trial 52 out of 78</p>","null","","","","","","","","","","","","","","","","","","","","","","","","","",""
"","","","","","image-keyboard-response","249","511841","0.0-3.0-7.0-1.12","5c5dba4ed86a7f000191e5d5","E1","batch5","pattern_response","773.5","stim/yes_29_ver_w1.png","f","pattern_53","f","true","","","","773.5","true","36","","","","","","","","","","","","","","","","",""
"","","","","","html-keyboard-response","250","513167","0.0-3.0-7.0-0.13","5c5dba4ed86a7f000191e5d5","E1","batch5","pattern_show_trial_num","null","<p class=block-text>Trial 53 out of 78</p>","null","","","","","","","","","","","","","","","","","","","","","","","","","",""
"","","","","","image-keyboard-response","251","514097","0.0-3.0-7.0-1.13","5c5dba4ed86a7f000191e5d5","E1","batch5","pattern_response","928.5999999046326","stim/yes_17_dia_w1.png","j","pattern_45","f","false","","","","928.5999999046326","false","36","","","","","","","","","","","","","","","","",""
"","","","","","html-keyboard-response","252","515402","0.0-3.0-7.0-0.14","5c5dba4ed86a7f000191e5d5","E1","batch5","pattern_show_trial_num","null","<p class=block-text>Trial 54 out of 78</p>","null","","","","","","","","","","","","","","","","","","","","","","","","","",""
"","","","","","image-keyboard-response","253","517465","0.0-3.0-7.0-1.14","5c5dba4ed86a7f000191e5d5","E1","batch5","pattern_response","2062.2000000476837","stim/yes_31_hor_b1.png","f","pattern_55","f","true","","","","2062.2000000476837","true","37","","","","","","","","","","","","","","","","",""
"","","","","","html-keyboard-response","254","518784","0.0-3.0-7.0-0.15","5c5dba4ed86a7f000191e5d5","E1","batch5","pattern_show_trial_num","null","<p class=block-text>Trial 55 out of 78</p>","null","","","","","","","","","","","","","","","","","","","","","","","","","",""
"","","","","","image-keyboard-response","255","520345","0.0-3.0-7.0-1.15","5c5dba4ed86a7f000191e5d5","E1","batch5","pattern_response","1559.6000001430511","stim/no_23_1.png","j","pattern_08","j","true","","","","1559.6000001430511","true","38","","","","","","","","","","","","","","","","",""
"","","","","","html-keyboard-response","256","521668","0.0-3.0-7.0-0.16","5c5dba4ed86a7f000191e5d5","E1","batch5","pattern_show_trial_num","null","<p class=block-text>Trial 56 out of 78</p>","null","","","","","","","","","","","","","","","","","","","","","","","","","",""
"","","","","","image-keyboard-response","257","523553","0.0-3.0-7.0-1.16","5c5dba4ed86a7f000191e5d5","E1","batch5","pattern_response","1883.7999999523163","stim/yes_43_ver_w1_w.png","j","pattern_65","f","false","","","","1883.7999999523163","false","38","","","","","","","","","","","","","","","","",""
"","","","","","html-keyboard-response","258","524860","0.0-3.0-7.0-0.17","5c5dba4ed86a7f000191e5d5","E1","batch5","pattern_show_trial_num","null","<p class=block-text>Trial 57 out of 78</p>","null","","","","","","","","","","","","","","","","","","","","","","","","","",""
"","","","","","image-keyboard-response","259","525745","0.0-3.0-7.0-1.17","5c5dba4ed86a7f000191e5d5","E1","batch5","pattern_response","884.1000001430511","stim/yes_14_hor_b1_w.png","f","pattern_43","f","true","","","","884.1000001430511","true","39","","","","","","","","","","","","","","","","",""
"","","","","","html-keyboard-response","260","527057","0.0-3.0-7.0-0.18","5c5dba4ed86a7f000191e5d5","E1","batch5","pattern_show_trial_num","null","<p class=block-text>Trial 58 out of 78</p>","null","","","","","","","","","","","","","","","","","","","","","","","","","",""
"","","","","","image-keyboard-response","261","528657","0.0-3.0-7.0-1.18","5c5dba4ed86a7f000191e5d5","E1","batch5","pattern_response","1599.5","stim/yes_35_dia_b1.png","f","pattern_57","f","true","","","","1599.5","true","40","","","","","","","","","","","","","","","","",""
"","","","","","html-keyboard-response","262","529985","0.0-3.0-7.0-0.19","5c5dba4ed86a7f000191e5d5","E1","batch5","pattern_show_trial_num","null","<p class=block-text>Trial 59 out of 78</p>","null","","","","","","","","","","","","","","","","","","","","","","","","","",""
"","","","","","image-keyboard-response","263","533481","0.0-3.0-7.0-1.19","5c5dba4ed86a7f000191e5d5","E1","batch5","pattern_response","3495.7000000476837","stim/no_55_1_w.png","j","pattern_34","j","true","","","","3495.7000000476837","true","41","","","","","","","","","","","","","","","","",""
"","","","","","html-keyboard-response","264","534802","0.0-3.0-7.0-0.20","5c5dba4ed86a7f000191e5d5","E1","batch5","pattern_show_trial_num","null","<p class=block-text>Trial 60 out of 78</p>","null","","","","","","","","","","","","","","","","","","","","","","","","","",""
"","","","","","image-keyboard-response","265","537185","0.0-3.0-7.0-1.20","5c5dba4ed86a7f000191e5d5","E1","batch5","pattern_response","2382","stim/yes_50_dia_w1.png","j","pattern_71","f","false","","","","2382","false","41","","","","","","","","","","","","","","","","",""
"","","","","","html-keyboard-response","266","538502","0.0-3.0-7.0-0.21","5c5dba4ed86a7f000191e5d5","E1","batch5","pattern_show_trial_num","null","<p class=block-text>Trial 61 out of 78</p>","null","","","","","","","","","","","","","","","","","","","","","","","","","",""
"","","","","","image-keyboard-response","267","539401","0.0-3.0-7.0-1.21","5c5dba4ed86a7f000191e5d5","E1","batch5","pattern_response","897.5999999046326","stim/no_17_1_w.png","j","pattern_04","j","true","","","","897.5999999046326","true","42","","","","","","","","","","","","","","","","",""
"","","","","","html-keyboard-response","268","540719","0.0-3.0-7.0-0.22","5c5dba4ed86a7f000191e5d5","E1","batch5","pattern_show_trial_num","null","<p class=block-text>Trial 62 out of 78</p>","null","","","","","","","","","","","","","","","","","","","","","","","","","",""
"","","","","","image-keyboard-response","269","542630","0.0-3.0-7.0-1.22","5c5dba4ed86a7f000191e5d5","E1","batch5","pattern_response","1912.6000001430511","stim/yes_37_dia_w1.png","j","pattern_59","f","false","","","","1912.6000001430511","false","42","","","","","","","","","","","","","","","","",""
"","","","","","html-keyboard-response","270","543951","0.0-3.0-7.0-0.23","5c5dba4ed86a7f000191e5d5","E1","batch5","pattern_show_trial_num","null","<p class=block-text>Trial 63 out of 78</p>","null","","","","","","","","","","","","","","","","","","","","","","","","","",""
"","","","","","image-keyboard-response","271","544646","0.0-3.0-7.0-1.23","5c5dba4ed86a7f000191e5d5","E1","batch5","pattern_response","693.9000000953674","stim/yes_22_ver_w1.png","j","pattern_47","f","false","","","","693.9000000953674","false","42","","","","","","","","","","","","","","","","",""
"","","","","","html-keyboard-response","272","545967","0.0-3.0-7.0-0.24","5c5dba4ed86a7f000191e5d5","E1","batch5","pattern_show_trial_num","null","<p class=block-text>Trial 64 out of 78</p>","null","","","","","","","","","","","","","","","","","","","","","","","","","",""
"","","","","","image-keyboard-response","273","548054","0.0-3.0-7.0-1.24","5c5dba4ed86a7f000191e5d5","E1","batch5","pattern_response","2086.2000000476837","stim/yes_55_hor_w1_w.png","j","pattern_75","f","false","","","","2086.2000000476837","false","42","","","","","","","","","","","","","","","","",""
"","","","","","html-keyboard-response","274","549366","0.0-3.0-7.0-0.25","5c5dba4ed86a7f000191e5d5","E1","batch5","pattern_show_trial_num","null","<p class=block-text>Trial 65 out of 78</p>","null","","","","","","","","","","","","","","","","","","","","","","","","","",""
"","","","","","image-keyboard-response","275","550774","0.0-3.0-7.0-1.25","5c5dba4ed86a7f000191e5d5","E1","batch5","pattern_response","1406.8000001907349","stim/yes_45_hor_b2_b.png","f","pattern_67","f","true","","","","1406.8000001907349","true","43","","","","","","","","","","","","","","","","",""
"","","","","","html-keyboard-response","276","552100","0.0-3.0-7.0-0.26","5c5dba4ed86a7f000191e5d5","E1","batch5","pattern_show_trial_num","null","<p class=block-text>Trial 66 out of 78</p>","null","","","","","","","","","","","","","","","","","","","","","","","","","",""
"","","","","","image-keyboard-response","277","557039","0.0-3.0-7.0-1.26","5c5dba4ed86a7f000191e5d5","E1","batch5","pattern_response","4937.200000047684","stim/no_70_2.png","j","pattern_40","j","true","","","","4937.200000047684","true","44","","","","","","","","","","","","","","","","",""
"","","","","","html-keyboard-response","278","558353","0.0-3.0-7.0-0.27","5c5dba4ed86a7f000191e5d5","E1","batch5","pattern_show_trial_num","null","<p class=block-text>Trial 67 out of 78</p>","null","","","","","","","","","","","","","","","","","","","","","","","","","",""
"","","","","","image-keyboard-response","279","559638","0.0-3.0-7.0-1.27","5c5dba4ed86a7f000191e5d5","E1","batch5","pattern_response","1283.9000000953674","stim/no_36_2_w.png","j","pattern_18","j","true","","","","1283.9000000953674","true","45","","","","","","","","","","","","","","","","",""
"","","","","","html-keyboard-response","280","560967","0.0-3.0-7.0-0.28","5c5dba4ed86a7f000191e5d5","E1","batch5","pattern_show_trial_num","null","<p class=block-text>Trial 68 out of 78</p>","null","","","","","","","","","","","","","","","","","","","","","","","","","",""
"","","","","","image-keyboard-response","281","564846","0.0-3.0-7.0-1.28","5c5dba4ed86a7f000191e5d5","E1","batch5","pattern_response","3877.100000143051","stim/no_38_1_b.png","j","pattern_20","j","true","","","","3877.100000143051","true","46","","","","","","","","","","","","","","","","",""
"","","","","","html-keyboard-response","282","566151","0.0-3.0-7.0-0.29","5c5dba4ed86a7f000191e5d5","E1","batch5","pattern_show_trial_num","null","<p class=block-text>Trial 69 out of 78</p>","null","","","","","","","","","","","","","","","","","","","","","","","","","",""
"","","","","","image-keyboard-response","283","568318","0.0-3.0-7.0-1.29","5c5dba4ed86a7f000191e5d5","E1","batch5","pattern_response","2165.9000000953674","stim/no_44_1.png","j","pattern_24","j","true","","","","2165.9000000953674","true","47","","","","","","","","","","","","","","","","",""
"","","","","","html-keyboard-response","284","569635","0.0-3.0-7.0-0.30","5c5dba4ed86a7f000191e5d5","E1","batch5","pattern_show_trial_num","null","<p class=block-text>Trial 70 out of 78</p>","null","","","","","","","","","","","","","","","","","","","","","","","","","",""
"","","","","","image-keyboard-response","285","570806","0.0-3.0-7.0-1.30","5c5dba4ed86a7f000191e5d5","E1","batch5","pattern_response","1169.8000001907349","stim/no_42_1_w.png","j","pattern_22","j","true","","","","1169.8000001907349","true","48","","","","","","","","","","","","","","","","",""
"","","","","","html-keyboard-response","286","572136","0.0-3.0-7.0-0.31","5c5dba4ed86a7f000191e5d5","E1","batch5","pattern_show_trial_num","null","<p class=block-text>Trial 71 out of 78</p>","null","","","","","","","","","","","","","","","","","","","","","","","","","",""
"","","","","","image-keyboard-response","287","573398","0.0-3.0-7.0-1.31","5c5dba4ed86a7f000191e5d5","E1","batch5","pattern_response","1260.6000001430511","stim/no_26_1_w.png","j","pattern_10","j","true","","","","1260.6000001430511","true","49","","","","","","","","","","","","","","","","",""
"","","","","","html-keyboard-response","288","574718","0.0-3.0-7.0-0.32","5c5dba4ed86a7f000191e5d5","E1","batch5","pattern_show_trial_num","null","<p class=block-text>Trial 72 out of 78</p>","null","","","","","","","","","","","","","","","","","","","","","","","","","",""
"","","","","","image-keyboard-response","289","576934","0.0-3.0-7.0-1.32","5c5dba4ed86a7f000191e5d5","E1","batch5","pattern_response","2214.800000190735","stim/yes_48_dia_w1_w.png","j","pattern_69","f","false","","","","2214.800000190735","false","49","","","","","","","","","","","","","","","","",""
"","","","","","html-keyboard-response","290","578252","0.0-3.0-7.0-0.33","5c5dba4ed86a7f000191e5d5","E1","batch5","pattern_show_trial_num","null","<p class=block-text>Trial 73 out of 78</p>","null","","","","","","","","","","","","","","","","","","","","","","","","","",""
"","","","","","image-keyboard-response","291","579926","0.0-3.0-7.0-1.33","5c5dba4ed86a7f000191e5d5","E1","batch5","pattern_response","1673","stim/no_29_1_b.png","j","pattern_12","j","true","","","","1673","true","50","","","","","","","","","","","","","","","","",""
"","","","","","html-keyboard-response","292","581251","0.0-3.0-7.0-0.34","5c5dba4ed86a7f000191e5d5","E1","batch5","pattern_show_trial_num","null","<p class=block-text>Trial 74 out of 78</p>","null","","","","","","","","","","","","","","","","","","","","","","","","","",""
"","","","","","image-keyboard-response","293","582062","0.0-3.0-7.0-1.34","5c5dba4ed86a7f000191e5d5","E1","batch5","pattern_response","809.2999999523163","stim/no_13_2_b.png","j","pattern_02","j","true","","","","809.2999999523163","true","51","","","","","","","","","","","","","","","","",""
"","","","","","html-keyboard-response","294","583385","0.0-3.0-7.0-0.35","5c5dba4ed86a7f000191e5d5","E1","batch5","pattern_show_trial_num","null","<p class=block-text>Trial 75 out of 78</p>","null","","","","","","","","","","","","","","","","","","","","","","","","","",""
"","","","","","image-keyboard-response","295","585926","0.0-3.0-7.0-1.35","5c5dba4ed86a7f000191e5d5","E1","batch5","pattern_response","2539.800000190735","stim/no_52_1.png","j","pattern_32","j","true","","","","2539.800000190735","true","52","","","","","","","","","","","","","","","","",""
"","","","","","html-keyboard-response","296","587253","0.0-3.0-7.0-0.36","5c5dba4ed86a7f000191e5d5","E1","batch5","pattern_show_trial_num","null","<p class=block-text>Trial 76 out of 78</p>","null","","","","","","","","","","","","","","","","","","","","","","","","","",""
"","","","","","image-keyboard-response","297","588334","0.0-3.0-7.0-1.36","5c5dba4ed86a7f000191e5d5","E1","batch5","pattern_response","1080.4000000953674","stim/no_32_1_w.png","j","pattern_14","j","true","","","","1080.4000000953674","true","53","","","","","","","","","","","","","","","","",""
"","","","","","html-keyboard-response","298","589653","0.0-3.0-7.0-0.37","5c5dba4ed86a7f000191e5d5","E1","batch5","pattern_show_trial_num","null","<p class=block-text>Trial 77 out of 78</p>","null","","","","","","","","","","","","","","","","","","","","","","","","","",""
"","","","","","image-keyboard-response","299","590726","0.0-3.0-7.0-1.37","5c5dba4ed86a7f000191e5d5","E1","batch5","pattern_response","1072.9000000953674","stim/no_65_1_b.png","f","pattern_38","j","false","","","","1072.9000000953674","false","53","","","","","","","","","","","","","","","","",""
"","","","","","html-keyboard-response","300","592052","0.0-3.0-7.0-0.38","5c5dba4ed86a7f000191e5d5","E1","batch5","pattern_show_trial_num","null","<p class=block-text>Trial 78 out of 78</p>","null","","","","","","","","","","","","","","","","","","","","","","","","","",""
"","","","","","image-keyboard-response","301","593766","0.0-3.0-7.0-1.38","5c5dba4ed86a7f000191e5d5","E1","batch5","pattern_response","1712.5999999046326","stim/yes_52_ver_w1.png","j","pattern_73","f","false","","","","1712.5999999046326","false","53","","","","","","","","","","","","","","","","",""
"","","","","","html-button-response","302","598513","0.0-3.0-8.0","5c5dba4ed86a7f000191e5d5","E1","batch5","","4239.799999952316","<p class = block-text>This concludes the 4-in-a-row detection game.Thank you for your responses!<br>
            You responded correctly on 68% of the trials.<br>
            When you are ready, press ""Continue"" button to continue </p>","0","","","","","","","","","","","","","","","","","","","","","","","","","",""
"true","","","","","fullscreen","303","600875","0.0-4.0-0.0","5c5dba4ed86a7f000191e5d5","E1","batch5","","","","","","","","","","","","","","","","","","","","","","","","","","","","","",""
"","","","","","instructions","304","659250","0.0-4.0-1.0-0.0-0.0","5c5dba4ed86a7f000191e5d5","E1","batch5","tol-instructions","58370.700000047684","","","","","","","","[{""page_index"":0,""viewing_time"":17576.599999904633},{""page_index"":1,""viewing_time"":4726.100000143051},{""page_index"":2,""viewing_time"":2996},{""page_index"":3,""viewing_time"":10376},{""page_index"":4,""viewing_time"":6652.5},{""page_index"":5,""viewing_time"":13213.899999856949},{""page_index"":6,""viewing_time"":2829.4000000953674}]","","","","","","","","","","","","","","","","","","","",""
"","","","","","html-button-response","305","660438","0.0-4.0-1.0-1.0-0.0","5c5dba4ed86a7f000191e5d5","E1","batch5","tol_enter_quiz","1187.7000000476837","<p class=block-text> Let's answer a few questions <br>","0","","","","","","","","","","","","","","","","","","","","","","","","","",""
"","","","","","html-button-response","306","665594","0.0-4.0-1.0-1.0-1.0","5c5dba4ed86a7f000191e5d5","E1","batch5","tol_quiz","5154.900000095367","<p class = block-text>True or False: You can only move the ball on top of a peg. <br></p>","1","","","false","","","","","","","","","","","","","","","","","","","","","","",""
"","","","","","html-button-response","307","667356","0.0-4.0-1.0-1.0-2.0","5c5dba4ed86a7f000191e5d5","E1","batch5","tol_quiz_feedback","1761.1000001430511","<p class = block-text>Incorrect. Remember, you can only move the ball on top of a peg.</p>","0","","","","","","","","","","","","","","","","","","","","","","","","","",""
"","","","","","html-button-response","308","670642","0.0-4.0-1.0-1.0-3.0","5c5dba4ed86a7f000191e5d5","E1","batch5","tol_quiz","3285.0999999046326","<p class = block-text>True or False: You should try to match your board with the target board with fewest moves possible. <br></p>","0","","","true","","","","","","","","","","","","","","","","","","","","","","",""
"","","","","","html-button-response","309","671820","0.0-4.0-1.0-1.0-4.0","5c5dba4ed86a7f000191e5d5","E1","batch5","tol_quiz_feedback","1177.0999999046326","<p class = block-text>Correct! </p>","0","","","","","","","","","","","","","","","","","","","","","","","","","",""
"","","","","","html-button-response","310","674250","0.0-4.0-1.0-2.0-0.0","5c5dba4ed86a7f000191e5d5","E1","batch5","","2429","<p class = block-text>You made too many incorrect choices.</p><p class = block-text>You will now repeat the instructions and quiz</p>","0","","","","","","","","","","","","","","","","","","","","","","","","","",""
"","","","","","instructions","311","695574","0.0-4.0-1.1-0.1-0.1","5c5dba4ed86a7f000191e5d5","E1","batch5","tol-instructions","21323.5","","","","","","","","[{""page_index"":0,""viewing_time"":5621.299999952316},{""page_index"":1,""viewing_time"":2145.800000190735},{""page_index"":2,""viewing_time"":1414.0999999046326},{""page_index"":3,""viewing_time"":3044.7999999523163},{""page_index"":4,""viewing_time"":2569.2999999523163},{""page_index"":5,""viewing_time"":3296.100000143051},{""page_index"":6,""viewing_time"":3231.899999856949}]","","","","","","","","","","","","","","","","","","","",""
"","","","","","html-button-response","312","696446","0.0-4.0-1.1-1.1-0.1","5c5dba4ed86a7f000191e5d5","E1","batch5","tol_enter_quiz","871.2999999523163","<p class=block-text> Let's answer a few questions <br>","0","","","","","","","","","","","","","","","","","","","","","","","","","",""
"","","","","","html-button-response","313","698498","0.0-4.0-1.1-1.1-1.1","5c5dba4ed86a7f000191e5d5","E1","batch5","tol_quiz","2050.9000000953674","<p class = block-text>True or False: You can only move the ball on top of a peg. <br></p>","0","","","true","","","","","","","","","","","","","","","","","","","","","","",""
"","","","","","html-button-response","314","699748","0.0-4.0-1.1-1.1-2.1","5c5dba4ed86a7f000191e5d5","E1","batch5","tol_quiz_feedback","1249.5","<p class = block-text>Correct! You can only move the ball on top of a peg.</p>","0","","","","","","","","","","","","","","","","","","","","","","","","","",""
"","","","","","html-button-response","315","701476","0.0-4.0-1.1-1.1-3.1","5c5dba4ed86a7f000191e5d5","E1","batch5","tol_quiz","1727.1999998092651","<p class = block-text>True or False: You should try to match your board with the target board with fewest moves possible. <br></p>","0","","","true","","","","","","","","","","","","","","","","","","","","","","",""
"","","","","","html-button-response","316","702178","0.0-4.0-1.1-1.1-4.1","5c5dba4ed86a7f000191e5d5","E1","batch5","tol_quiz_feedback","701.5","<p class = block-text>Correct! </p>","0","","","","","","","","","","","","","","","","","","","","","","","","","",""
"","","","","","html-button-response","317","703324","0.0-4.0-2.0","5c5dba4ed86a7f000191e5d5","E1","batch5","","1144.8999998569489","<p class=block-text> Now that you've understood the game, let's practice a few easier examples before we start!<br> <br>","0","","","","","","","","","","","","","","","","","","","","","","","","","",""
"","","","","","single-stim-button","318","706517","0.0-4.0-3.0-0.0","5c5dba4ed86a7f000191e5d5","E1","batch5","tol_practice","3192","","","","","","","","","","","","","","tol_peg_2","3192","3192","0","[[1,2,0],[0,0],[0]]","1","[[1,2,0],[0,0],[3]]","practice","3192","","","","","",""
"","","","","","single-stim-button","319","707892","0.0-4.0-3.0-1.0","5c5dba4ed86a7f000191e5d5","E1","batch5","tol_practice","1374","","","","","","","","","","","","","","tol_peg_3","1374","1374","0","[[1,2,0],[0,0],[3]]","1","[[1,2,0],[0,0],[3]]","practice","1374","","","","","",""
"","","","","","poldrack-single-stim","320","708905","0.0-4.0-4.0","5c5dba4ed86a7f000191e5d5","E1","batch5","tol_feedback","-1","","","","","true","","","","","","","","","","1000","1000","500","","","","","","-1","none","true","","0",""
"","","","","","single-stim-button","321","713246","0.0-4.0-5.0-0.0","5c5dba4ed86a7f000191e5d5","E1","batch5","tol_practice","4340","","","","","","","","","","","","","","tol_peg_1","4340","4340","0","[[1,0,0],[3,0],[0]]","2","[[0,0,0],[3,1],[2]]","practice","4340","","","","","",""
"","","","","","single-stim-button","322","714568","0.0-4.0-5.0-1.0","5c5dba4ed86a7f000191e5d5","E1","batch5","tol_practice","1322","","","","","","","","","","","","","","tol_peg_3","1322","1322","0","[[1,0,0],[3,0],[2]]","2","[[0,0,0],[3,1],[2]]","practice","1322","","","","","",""
"","","","","","single-stim-button","323","716800","0.0-4.0-5.1-0.1","5c5dba4ed86a7f000191e5d5","E1","batch5","tol_practice","2231","","","","","","","","","","","","","","tol_peg_1","2231","2231","0","[[0,0,0],[3,0],[2]]","3","[[0,0,0],[3,1],[2]]","practice","2231","","","","","",""
"","","","","","single-stim-button","324","718050","0.0-4.0-5.1-1.1","5c5dba4ed86a7f000191e5d5","E1","batch5","tol_practice","1250","","","","","","","","","","","","","","tol_peg_2","1250","1250","0","[[0,0,0],[3,1],[2]]","3","[[0,0,0],[3,1],[2]]","practice","1250","","","","","",""
"","","","","","poldrack-single-stim","325","719064","0.0-4.0-6.0","5c5dba4ed86a7f000191e5d5","E1","batch5","tol_feedback","-1","","","","","true","","","","","","","","","","1000","1000","500","","","","","","-1","none","true","","0",""
"","","","","","single-stim-button","326","721660","0.0-4.0-7.0-0.0","5c5dba4ed86a7f000191e5d5","E1","batch5","tol_practice","2596","","","","","","","","","","","","","","tol_peg_2","2596","2596","0","[[1,2,0],[0,0],[0]]","4","[[1,0,0],[2,0],[3]]","practice","2596","","","","","",""
"","","","","","single-stim-button","327","722468","0.0-4.0-7.0-1.0","5c5dba4ed86a7f000191e5d5","E1","batch5","tol_practice","807","","","","","","","","","","","","","","tol_peg_3","807","807","0","[[1,2,0],[0,0],[3]]","4","[[1,0,0],[2,0],[3]]","practice","807","","","","","",""
"","","","","","single-stim-button","328","723766","0.0-4.0-7.1-0.1","5c5dba4ed86a7f000191e5d5","E1","batch5","tol_practice","1298","","","","","","","","","","","","","","tol_peg_1","1298","1298","0","[[1,0,0],[0,0],[3]]","5","[[1,0,0],[2,0],[3]]","practice","1298","","","","","",""
"","","","","","single-stim-button","329","724630","0.0-4.0-7.1-1.1","5c5dba4ed86a7f000191e5d5","E1","batch5","tol_practice","864","","","","","","","","","","","","","","tol_peg_2","864","864","0","[[1,0,0],[2,0],[3]]","5","[[1,0,0],[2,0],[3]]","practice","864","","","","","",""
"","","","","","poldrack-single-stim","330","725643","0.0-4.0-8.0","5c5dba4ed86a7f000191e5d5","E1","batch5","tol_feedback","-1","","","","","true","","","","","","","","","","1000","1000","500","","","","","","-1","none","true","","0",""
"","","","","","html-button-response","331","727516","0.0-4.0-9.0","5c5dba4ed86a7f000191e5d5","E1","batch5","tol_instruction","1872.5","<div class = centerbox><p class = center-block-text>Great job! You are done with practice trials<br>You are about to start official trials.<br> <br> Problem <strong>1</strong> out of 25 problems</p></div>","0","","","","","","","","","","","","","","","","","","","","","","","","","",""
"","","","","","single-stim-button","332","734090","0.0-4.0-10.0-0.0","5c5dba4ed86a7f000191e5d5","E1","batch5","tol_tohand","5567","","","","","","","","","","","","","","tol_peg_1","5567","5567","0","[[1,0,0],[3,0],[0]]","1","[[1,3,0],[2,0],[0]]","0","0","","","","","","3"
"","","","","","single-stim-button","333","736472","0.0-4.0-10.0-1.0","5c5dba4ed86a7f000191e5d5","E1","batch5","tol_toboard","2382","","","","","","","","","","","","","","tol_peg_3","2382","2382","0","[[1,0,0],[3,0],[2]]","1","[[1,3,0],[2,0],[0]]","0","0","","","","","","3"
"","","","","","single-stim-button","334","737108","0.0-4.0-10.1-0.1","5c5dba4ed86a7f000191e5d5","E1","batch5","tol_tohand","635","","","","","","","","","","","","","","tol_peg_2","635","635","0","[[1,0,0],[0,0],[2]]","2","[[1,3,0],[2,0],[0]]","0","0","","","","","","3"
"","","","","","single-stim-button","335","738570","0.0-4.0-10.1-1.1","5c5dba4ed86a7f000191e5d5","E1","batch5","tol_toboard","1461","","","","","","","","","","","","","","tol_peg_1","1461","1461","0","[[1,3,0],[0,0],[2]]","2","[[1,3,0],[2,0],[0]]","0","0","","","","","","3"
"","","","","","single-stim-button","336","739584","0.0-4.0-10.2-0.2","5c5dba4ed86a7f000191e5d5","E1","batch5","tol_tohand","1013","","","","","","","","","","","","","","tol_peg_3","1013","1013","0","[[1,3,0],[0,0],[0]]","3","[[1,3,0],[2,0],[0]]","0","0","","","","","","3"
"","","","","","single-stim-button","337","740167","0.0-4.0-10.2-1.2","5c5dba4ed86a7f000191e5d5","E1","batch5","tol_toboard","582","","","","","","","","","","","","","","tol_peg_2","582","582","0","[[1,3,0],[2,0],[0]]","3","[[1,3,0],[2,0],[0]]","0","0","","","","","","3"
"","","","","","poldrack-single-stim","338","741180","0.0-4.0-11.0","5c5dba4ed86a7f000191e5d5","E1","batch5","tol_feedback","-1","","","","","true","","","","","","","","","","1000","1000","500","","","","","","-1","none","true","5567","7215",""
"","","","","","html-button-response","339","742218","0.0-4.0-12.0","5c5dba4ed86a7f000191e5d5","E1","batch5","tol_trial_num","1037.7999999523163","<div class = centerbox><p class = center-block-text>problem <strong>2</strong> out of 25 problems</p></div>","0","","","","","","","","","","","","","","","","","","","","","","","","","",""
"","","","","","single-stim-button","340","748548","0.0-4.0-13.0-0.0","5c5dba4ed86a7f000191e5d5","E1","batch5","tol_tohand","6330","","","","","","","","","","","","","","tol_peg_1","6330","6330","0","[[1,0,0],[3,0],[0]]","1","[[2,1,3],[0,0],[0]]","1","0","","","","","","5"
"","","","","","single-stim-button","341","750080","0.0-4.0-13.0-1.0","5c5dba4ed86a7f000191e5d5","E1","batch5","tol_toboard","1530","","","","","","","","","","","","","","tol_peg_3","1530","1530","0","[[1,0,0],[3,0],[2]]","1","[[2,1,3],[0,0],[0]]","1","0","","","","","","5"
"","","","","","single-stim-button","342","750670","0.0-4.0-13.1-0.1","5c5dba4ed86a7f000191e5d5","E1","batch5","tol_tohand","590","","","","","","","","","","","","","","tol_peg_1","590","590","0","[[0,0,0],[3,0],[2]]","2","[[2,1,3],[0,0],[0]]","1","0","","","","","","5"
"","","","","","single-stim-button","343","751472","0.0-4.0-13.1-1.1","5c5dba4ed86a7f000191e5d5","E1","batch5","tol_toboard","802","","","","","","","","","","","","","","tol_peg_2","802","802","0","[[0,0,0],[3,1],[2]]","2","[[2,1,3],[0,0],[0]]","1","0","","","","","","5"
"","","","","","single-stim-button","344","752321","0.0-4.0-13.2-0.2","5c5dba4ed86a7f000191e5d5","E1","batch5","tol_tohand","848","","","","","","","","","","","","","","tol_peg_3","848","848","0","[[0,0,0],[3,1],[0]]","3","[[2,1,3],[0,0],[0]]","1","0","","","","","","5"
"","","","","","single-stim-button","345","753216","0.0-4.0-13.2-1.2","5c5dba4ed86a7f000191e5d5","E1","batch5","tol_toboard","895","","","","","","","","","","","","","","tol_peg_1","895","895","0","[[2,0,0],[3,1],[0]]","3","[[2,1,3],[0,0],[0]]","1","0","","","","","","5"
"","","","","","single-stim-button","346","753806","0.0-4.0-13.3-0.3","5c5dba4ed86a7f000191e5d5","E1","batch5","tol_tohand","590","","","","","","","","","","","","","","tol_peg_2","590","590","0","[[2,0,0],[3,0],[0]]","4","[[2,1,3],[0,0],[0]]","1","0","","","","","","5"
