"success","timeout","failed_images","failed_audio","failed_video","trial_type","trial_index","time_elapsed","internal_node_id","subject_id","study_id","session_id","task","rt","stimulus","response","item","answer","correct","spm_correct","spm_rt","view_history","fiar_detect_rt","fiar_detect_correct","total_correct_fiar_detect","post_trial_gap","choices","mouse_click","stim_duration","block_duration","timing_post_trial","current_position","tol_num_moves_made","tol_target","tol_problem_id","tol_rt","key_press","possible_responses","tol_correct","preplanning","tol_rt_per_trial","tol_min_moves"
"true","false","[]","[]","[]","preload","0","3730","0.0-0.0","5c6ee20c0506a200015c4275","E1","batch5","","","","","","","","","","","","","","","","","","","","","","","","","","","","","",""
"true","","","","","fullscreen","1","40294","0.0-1.0-0.0","5c6ee20c0506a200015c4275","E1","batch5","","","","","","","","","","","","","","","","","","","","","","","","","","","","","",""
"true","","","","","fullscreen","2","43426","0.0-2.0-0.0","5c6ee20c0506a200015c4275","E1","batch5","spm_fullscreen","","","","","","","","","","","","","","","","","","","","","","","","","","","","",""
"","","","","","html-button-response","3","50989","0.0-2.0-1.0","5c6ee20c0506a200015c4275","E1","batch5","","7562.5","<p class = block-text><b>Instructions</b> <br>This is a widely used intelligence test in research. <br>In this test, a figure with a missing piece will be presented.<br>Below the figure are alternative pieces to complete the figure, only one of which is correct.<br> Different figures might involve different principles for obtaining the missing piece<br>Your job is to select the most logical piece to complete the figure.</p>","0","","","","","","","","","","","","","","","","","","","","","","","","","",""
"","","","","","html-keyboard-response","4","51796","0.0-2.0-2.0-0.0","5c6ee20c0506a200015c4275","E1","batch5","spm_show_trial_num","null","<p class=block-text>Trial 1 out of 60</p>","null","","","","","","","","","","","","","","","","","","","","","","","","","",""
"","","","","","image-button-response","5","62106","0.0-2.0-2.0-1.0","5c6ee20c0506a200015c4275","E1","batch5","spm_respsonse","10305.89999999106","img/question_1_1.jpeg","3","mat_01","4","1","1","10305.89999999106","","","","","","","","","","","","","","","","","","","","",""
"","","","","","html-keyboard-response","6","63164","0.0-2.0-2.0-0.1","5c6ee20c0506a200015c4275","E1","batch5","spm_show_trial_num","null","<p class=block-text>Trial 2 out of 60</p>","null","","","","","","","","","","","","","","","","","","","","","","","","","",""
"","","","","","image-button-response","7","68036","0.0-2.0-2.0-1.1","5c6ee20c0506a200015c4275","E1","batch5","spm_respsonse","4870.29999999702","img/question_1_2.jpeg","4","mat_02","5","1","1","4870.29999999702","","","","","","","","","","","","","","","","","","","","",""
"","","","","","html-keyboard-response","8","69090","0.0-2.0-2.0-0.2","5c6ee20c0506a200015c4275","E1","batch5","spm_show_trial_num","null","<p class=block-text>Trial 3 out of 60</p>","null","","","","","","","","","","","","","","","","","","","","","","","","","",""
"","","","","","image-button-response","9","72814","0.0-2.0-2.0-1.2","5c6ee20c0506a200015c4275","E1","batch5","spm_respsonse","3722.5","img/question_1_3.jpeg","0","mat_03","1","1","1","3722.5","","","","","","","","","","","","","","","","","","","","",""
"","","","","","html-keyboard-response","10","73884","0.0-2.0-2.0-0.3","5c6ee20c0506a200015c4275","E1","batch5","spm_show_trial_num","null","<p class=block-text>Trial 4 out of 60</p>","null","","","","","","","","","","","","","","","","","","","","","","","","","",""
"","","","","","image-button-response","11","77000","0.0-2.0-2.0-1.3","5c6ee20c0506a200015c4275","E1","batch5","spm_respsonse","3114.5","img/question_1_4.jpeg","1","mat_04","2","1","1","3114.5","","","","","","","","","","","","","","","","","","","","",""
"","","","","","html-keyboard-response","12","78057","0.0-2.0-2.0-0.4","5c6ee20c0506a200015c4275","E1","batch5","spm_show_trial_num","null","<p class=block-text>Trial 5 out of 60</p>","null","","","","","","","","","","","","","","","","","","","","","","","","","",""
"","","","","","image-button-response","13","82330","0.0-2.0-2.0-1.4","5c6ee20c0506a200015c4275","E1","batch5","spm_respsonse","4272.20000000298","img/question_1_5.jpeg","5","mat_05","6","1","1","4272.20000000298","","","","","","","","","","","","","","","","","","","","",""
"","","","","","html-keyboard-response","14","83394","0.0-2.0-2.0-0.5","5c6ee20c0506a200015c4275","E1","batch5","spm_show_trial_num","null","<p class=block-text>Trial 6 out of 60</p>","null","","","","","","","","","","","","","","","","","","","","","","","","","",""
"","","","","","image-button-response","15","86332","0.0-2.0-2.0-1.5","5c6ee20c0506a200015c4275","E1","batch5","spm_respsonse","2936.2999999970198","img/question_1_6.jpeg","2","mat_06","3","1","1","2936.2999999970198","","","","","","","","","","","","","","","","","","","","",""
"","","","","","html-keyboard-response","16","87403","0.0-2.0-2.0-0.6","5c6ee20c0506a200015c4275","E1","batch5","spm_show_trial_num","null","<p class=block-text>Trial 7 out of 60</p>","null","","","","","","","","","","","","","","","","","","","","","","","","","",""
"","","","","","image-button-response","17","92110","0.0-2.0-2.0-1.6","5c6ee20c0506a200015c4275","E1","batch5","spm_respsonse","4705.29999999702","img/question_1_7.jpeg","5","mat_07","6","1","1","4705.29999999702","","","","","","","","","","","","","","","","","","","","",""
"","","","","","html-keyboard-response","18","93169","0.0-2.0-2.0-0.7","5c6ee20c0506a200015c4275","E1","batch5","spm_show_trial_num","null","<p class=block-text>Trial 8 out of 60</p>","null","","","","","","","","","","","","","","","","","","","","","","","","","",""
"","","","","","image-button-response","19","100610","0.0-2.0-2.0-1.7","5c6ee20c0506a200015c4275","E1","batch5","spm_respsonse","7440.399999991059","img/question_1_8.jpeg","1","mat_08","2","1","1","7440.399999991059","","","","","","","","","","","","","","","","","","","","",""
"","","","","","html-keyboard-response","20","101674","0.0-2.0-2.0-0.8","5c6ee20c0506a200015c4275","E1","batch5","spm_show_trial_num","null","<p class=block-text>Trial 9 out of 60</p>","null","","","","","","","","","","","","","","","","","","","","","","","","","",""
"","","","","","image-button-response","21","107070","0.0-2.0-2.0-1.8","5c6ee20c0506a200015c4275","E1","batch5","spm_respsonse","5392.5","img/question_1_9.jpeg","0","mat_09","1","1","1","5392.5","","","","","","","","","","","","","","","","","","","","",""
"","","","","","html-keyboard-response","22","108134","0.0-2.0-2.0-0.9","5c6ee20c0506a200015c4275","E1","batch5","spm_show_trial_num","null","<p class=block-text>Trial 10 out of 60</p>","null","","","","","","","","","","","","","","","","","","","","","","","","","",""
"","","","","","image-button-response","23","116724","0.0-2.0-2.0-1.9","5c6ee20c0506a200015c4275","E1","batch5","spm_respsonse","8586.79999999702","img/question_1_10.jpeg","2","mat_10","3","1","1","8586.79999999702","","","","","","","","","","","","","","","","","","","","",""
"","","","","","html-keyboard-response","24","117780","0.0-2.0-2.0-0.10","5c6ee20c0506a200015c4275","E1","batch5","spm_show_trial_num","null","<p class=block-text>Trial 11 out of 60</p>","null","","","","","","","","","","","","","","","","","","","","","","","","","",""
"","","","","","image-button-response","25","128029","0.0-2.0-2.0-1.10","5c6ee20c0506a200015c4275","E1","batch5","spm_respsonse","10248.20000000298","img/question_1_11.jpeg","3","mat_11","4","1","1","10248.20000000298","","","","","","","","","","","","","","","","","","","","",""
"","","","","","html-keyboard-response","26","129093","0.0-2.0-2.0-0.11","5c6ee20c0506a200015c4275","E1","batch5","spm_show_trial_num","null","<p class=block-text>Trial 12 out of 60</p>","null","","","","","","","","","","","","","","","","","","","","","","","","","",""
"","","","","","image-button-response","27","137895","0.0-2.0-2.0-1.11","5c6ee20c0506a200015c4275","E1","batch5","spm_respsonse","8801.300000011921","img/question_1_12.jpeg","0","mat_12","5","0","0","8801.300000011921","","","","","","","","","","","","","","","","","","","","",""
"","","","","","html-keyboard-response","28","138966","0.0-2.0-2.0-0.12","5c6ee20c0506a200015c4275","E1","batch5","spm_show_trial_num","null","<p class=block-text>Trial 13 out of 60</p>","null","","","","","","","","","","","","","","","","","","","","","","","","","",""
"","","","","","image-button-response","29","141410","0.0-2.0-2.0-1.12","5c6ee20c0506a200015c4275","E1","batch5","spm_respsonse","2442.5999999940395","img/question_2_1.jpeg","1","mat_13","2","1","1","2442.5999999940395","","","","","","","","","","","","","","","","","","","","",""
"","","","","","html-keyboard-response","30","142474","0.0-2.0-2.0-0.13","5c6ee20c0506a200015c4275","E1","batch5","spm_show_trial_num","null","<p class=block-text>Trial 14 out of 60</p>","null","","","","","","","","","","","","","","","","","","","","","","","","","",""
"","","","","","image-button-response","31","146724","0.0-2.0-2.0-1.13","5c6ee20c0506a200015c4275","E1","batch5","spm_respsonse","4248.9000000059605","img/question_2_2.jpeg","5","mat_14","6","1","1","4248.9000000059605","","","","","","","","","","","","","","","","","","","","",""
"","","","","","html-keyboard-response","32","147789","0.0-2.0-2.0-0.14","5c6ee20c0506a200015c4275","E1","batch5","spm_show_trial_num","null","<p class=block-text>Trial 15 out of 60</p>","null","","","","","","","","","","","","","","","","","","","","","","","","","",""
"","","","","","image-button-response","33","152541","0.0-2.0-2.0-1.14","5c6ee20c0506a200015c4275","E1","batch5","spm_respsonse","4750.70000000298","img/question_2_3.jpeg","0","mat_15","1","1","1","4750.70000000298","","","","","","","","","","","","","","","","","","","","",""
"","","","","","html-keyboard-response","34","153603","0.0-2.0-2.0-0.15","5c6ee20c0506a200015c4275","E1","batch5","spm_show_trial_num","null","<p class=block-text>Trial 16 out of 60</p>","null","","","","","","","","","","","","","","","","","","","","","","","","","",""
"","","","","","image-button-response","35","158340","0.0-2.0-2.0-1.15","5c6ee20c0506a200015c4275","E1","batch5","spm_respsonse","4735.20000000298","img/question_2_4.jpeg","1","mat_16","2","1","1","4735.20000000298","","","","","","","","","","","","","","","","","","","","",""
"","","","","","html-keyboard-response","36","159405","0.0-2.0-2.0-0.16","5c6ee20c0506a200015c4275","E1","batch5","spm_show_trial_num","null","<p class=block-text>Trial 17 out of 60</p>","null","","","","","","","","","","","","","","","","","","","","","","","","","",""
"","","","","","image-button-response","37","165814","0.0-2.0-2.0-1.16","5c6ee20c0506a200015c4275","E1","batch5","spm_respsonse","6407.600000008941","img/question_2_5.jpeg","0","mat_17","1","1","1","6407.600000008941","","","","","","","","","","","","","","","","","","","","",""
"","","","","","html-keyboard-response","38","166875","0.0-2.0-2.0-0.17","5c6ee20c0506a200015c4275","E1","batch5","spm_show_trial_num","null","<p class=block-text>Trial 18 out of 60</p>","null","","","","","","","","","","","","","","","","","","","","","","","","","",""
"","","","","","image-button-response","39","171383","0.0-2.0-2.0-1.17","5c6ee20c0506a200015c4275","E1","batch5","spm_respsonse","4506.899999991059","img/question_2_6.jpeg","2","mat_18","3","1","1","4506.899999991059","","","","","","","","","","","","","","","","","","","","",""
"","","","","","html-keyboard-response","40","172439","0.0-2.0-2.0-0.18","5c6ee20c0506a200015c4275","E1","batch5","spm_show_trial_num","null","<p class=block-text>Trial 19 out of 60</p>","null","","","","","","","","","","","","","","","","","","","","","","","","","",""
"","","","","","image-button-response","41","184277","0.0-2.0-2.0-1.18","5c6ee20c0506a200015c4275","E1","batch5","spm_respsonse","11836.5","img/question_2_7.jpeg","0","mat_19","5","0","0","11836.5","","","","","","","","","","","","","","","","","","","","",""
"","","","","","html-keyboard-response","42","185332","0.0-2.0-2.0-0.19","5c6ee20c0506a200015c4275","E1","batch5","spm_show_trial_num","null","<p class=block-text>Trial 20 out of 60</p>","null","","","","","","","","","","","","","","","","","","","","","","","","","",""
"","","","","","image-button-response","43","198854","0.0-2.0-2.0-1.19","5c6ee20c0506a200015c4275","E1","batch5","spm_respsonse","13520.70000000298","img/question_2_8.jpeg","5","mat_20","6","1","1","13520.70000000298","","","","","","","","","","","","","","","","","","","","",""
"","","","","","html-keyboard-response","44","199910","0.0-2.0-2.0-0.20","5c6ee20c0506a200015c4275","E1","batch5","spm_show_trial_num","null","<p class=block-text>Trial 21 out of 60</p>","null","","","","","","","","","","","","","","","","","","","","","","","","","",""
"","","","","","image-button-response","45","206137","0.0-2.0-2.0-1.20","5c6ee20c0506a200015c4275","E1","batch5","spm_respsonse","6225.5","img/question_2_9.jpeg","3","mat_21","4","1","1","6225.5","","","","","","","","","","","","","","","","","","","","",""
"","","","","","html-keyboard-response","46","207206","0.0-2.0-2.0-0.21","5c6ee20c0506a200015c4275","E1","batch5","spm_show_trial_num","null","<p class=block-text>Trial 22 out of 60</p>","null","","","","","","","","","","","","","","","","","","","","","","","","","",""
"","","","","","image-button-response","47","213836","0.0-2.0-2.0-1.21","5c6ee20c0506a200015c4275","E1","batch5","spm_respsonse","6628.600000008941","img/question_2_10.jpeg","2","mat_22","3","1","1","6628.600000008941","","","","","","","","","","","","","","","","","","","","",""
"","","","","","html-keyboard-response","48","214907","0.0-2.0-2.0-0.22","5c6ee20c0506a200015c4275","E1","batch5","spm_show_trial_num","null","<p class=block-text>Trial 23 out of 60</p>","null","","","","","","","","","","","","","","","","","","","","","","","","","",""
"","","","","","image-button-response","49","220360","0.0-2.0-2.0-1.22","5c6ee20c0506a200015c4275","E1","batch5","spm_respsonse","5450.70000000298","img/question_2_11.jpeg","3","mat_23","4","1","1","5450.70000000298","","","","","","","","","","","","","","","","","","","","",""
"","","","","","html-keyboard-response","50","221422","0.0-2.0-2.0-0.23","5c6ee20c0506a200015c4275","E1","batch5","spm_show_trial_num","null","<p class=block-text>Trial 24 out of 60</p>","null","","","","","","","","","","","","","","","","","","","","","","","","","",""
"","","","","","image-button-response","51","230379","0.0-2.0-2.0-1.23","5c6ee20c0506a200015c4275","E1","batch5","spm_respsonse","8955.90000000596","img/question_2_12.jpeg","4","mat_24","5","1","1","8955.90000000596","","","","","","","","","","","","","","","","","","","","",""
"","","","","","html-button-response","52","232380","0.0-2.0-3.0","5c6ee20c0506a200015c4275","E1","batch5","attention_check","1748.300000011921","<p class = block-text>Attention check: Please choose 1<br></p>","0","","","true","","","","","","","","","","","","","","","","","","","","","","",""
"","","","","","html-keyboard-response","53","233185","0.0-2.0-4.0-0.0","5c6ee20c0506a200015c4275","E1","batch5","spm_show_trial_num","null","<p class=block-text>Trial 25 out of 60</p>","null","","","","","","","","","","","","","","","","","","","","","","","","","",""
"","","","","","image-button-response","54","241844","0.0-2.0-4.0-1.0","5c6ee20c0506a200015c4275","E1","batch5","spm_respsonse","8657.90000000596","img/question_3_1.jpeg","7","mat_25","8","1","1","8657.90000000596","","","","","","","","","","","","","","","","","","","","",""
"","","","","","html-keyboard-response","55","242904","0.0-2.0-4.0-0.1","5c6ee20c0506a200015c4275","E1","batch5","spm_show_trial_num","null","<p class=block-text>Trial 26 out of 60</p>","null","","","","","","","","","","","","","","","","","","","","","","","","","",""
"","","","","","image-button-response","56","248933","0.0-2.0-4.0-1.1","5c6ee20c0506a200015c4275","E1","batch5","spm_respsonse","6027.20000000298","img/question_3_2.jpeg","1","mat_26","2","1","1","6027.20000000298","","","","","","","","","","","","","","","","","","","","",""
"","","","","","html-keyboard-response","57","250002","0.0-2.0-4.0-0.2","5c6ee20c0506a200015c4275","E1","batch5","spm_show_trial_num","null","<p class=block-text>Trial 27 out of 60</p>","null","","","","","","","","","","","","","","","","","","","","","","","","","",""
"","","","","","image-button-response","58","256747","0.0-2.0-4.0-1.2","5c6ee20c0506a200015c4275","E1","batch5","spm_respsonse","6744.70000000298","img/question_3_3.jpeg","2","mat_27","3","1","1","6744.70000000298","","","","","","","","","","","","","","","","","","","","",""
"","","","","","html-keyboard-response","59","257818","0.0-2.0-4.0-0.3","5c6ee20c0506a200015c4275","E1","batch5","spm_show_trial_num","null","<p class=block-text>Trial 28 out of 60</p>","null","","","","","","","","","","","","","","","","","","","","","","","","","",""
"","","","","","image-button-response","60","270854","0.0-2.0-4.0-1.3","5c6ee20c0506a200015c4275","E1","batch5","spm_respsonse","13034.70000000298","img/question_3_4.jpeg","7","mat_28","8","1","1","13034.70000000298","","","","","","","","","","","","","","","","","","","","",""
"","","","","","html-keyboard-response","61","271917","0.0-2.0-4.0-0.4","5c6ee20c0506a200015c4275","E1","batch5","spm_show_trial_num","null","<p class=block-text>Trial 29 out of 60</p>","null","","","","","","","","","","","","","","","","","","","","","","","","","",""
"","","","","","image-button-response","62","278908","0.0-2.0-4.0-1.4","5c6ee20c0506a200015c4275","E1","batch5","spm_respsonse","6990","img/question_3_5.jpeg","6","mat_29","7","1","1","6990","","","","","","","","","","","","","","","","","","","","",""
"","","","","","html-keyboard-response","63","279968","0.0-2.0-4.0-0.5","5c6ee20c0506a200015c4275","E1","batch5","spm_show_trial_num","null","<p class=block-text>Trial 30 out of 60</p>","null","","","","","","","","","","","","","","","","","","","","","","","","","",""
"","","","","","image-button-response","64","284356","0.0-2.0-4.0-1.5","5c6ee20c0506a200015c4275","E1","batch5","spm_respsonse","4387.600000008941","img/question_3_6.jpeg","2","mat_30","4","0","0","4387.600000008941","","","","","","","","","","","","","","","","","","","","",""
"","","","","","html-keyboard-response","65","285423","0.0-2.0-4.0-0.6","5c6ee20c0506a200015c4275","E1","batch5","spm_show_trial_num","null","<p class=block-text>Trial 31 out of 60</p>","null","","","","","","","","","","","","","","","","","","","","","","","","","",""
"","","","","","image-button-response","66","292437","0.0-2.0-4.0-1.6","5c6ee20c0506a200015c4275","E1","batch5","spm_respsonse","7012.70000000298","img/question_3_7.jpeg","4","mat_31","5","1","1","7012.70000000298","","","","","","","","","","","","","","","","","","","","",""
"","","","","","html-keyboard-response","67","293495","0.0-2.0-4.0-0.7","5c6ee20c0506a200015c4275","E1","batch5","spm_show_trial_num","null","<p class=block-text>Trial 32 out of 60</p>","null","","","","","","","","","","","","","","","","","","","","","","","","","",""
"","","","","","image-button-response","68","299863","0.0-2.0-4.0-1.7","5c6ee20c0506a200015c4275","E1","batch5","spm_respsonse","6366.29999999702","img/question_3_8.jpeg","0","mat_32","1","1","1","6366.29999999702","","","","","","","","","","","","","","","","","","","","",""
"","","","","","html-keyboard-response","69","300923","0.0-2.0-4.0-0.8","5c6ee20c0506a200015c4275","E1","batch5","spm_show_trial_num","null","<p class=block-text>Trial 33 out of 60</p>","null","","","","","","","","","","","","","","","","","","","","","","","","","",""
"","","","","","image-button-response","70","307983","0.0-2.0-4.0-1.8","5c6ee20c0506a200015c4275","E1","batch5","spm_respsonse","7058.5999999940395","img/question_3_9.jpeg","0","mat_33","7","0","0","7058.5999999940395","","","","","","","","","","","","","","","","","","","","",""
"","","","","","html-keyboard-response","71","309050","0.0-2.0-4.0-0.9","5c6ee20c0506a200015c4275","E1","batch5","spm_show_trial_num","null","<p class=block-text>Trial 34 out of 60</p>","null","","","","","","","","","","","","","","","","","","","","","","","","","",""
"","","","","","image-button-response","72","322455","0.0-2.0-4.0-1.9","5c6ee20c0506a200015c4275","E1","batch5","spm_respsonse","13403.70000000298","img/question_3_10.jpeg","7","mat_34","6","0","0","13403.70000000298","","","","","","","","","","","","","","","","","","","","",""
"","","","","","html-keyboard-response","73","323514","0.0-2.0-4.0-0.10","5c6ee20c0506a200015c4275","E1","batch5","spm_show_trial_num","null","<p class=block-text>Trial 35 out of 60</p>","null","","","","","","","","","","","","","","","","","","","","","","","","","",""
"","","","","","image-button-response","74","343795","0.0-2.0-4.0-1.10","5c6ee20c0506a200015c4275","E1","batch5","spm_respsonse","20279.20000000298","img/question_3_11.jpeg","5","mat_35","1","0","0","20279.20000000298","","","","","","","","","","","","","","","","","","","","",""
"","","","","","html-keyboard-response","75","344858","0.0-2.0-4.0-0.11","5c6ee20c0506a200015c4275","E1","batch5","spm_show_trial_num","null","<p class=block-text>Trial 36 out of 60</p>","null","","","","","","","","","","","","","","","","","","","","","","","","","",""
"","","","","","image-button-response","76","350639","0.0-2.0-4.0-1.11","5c6ee20c0506a200015c4275","E1","batch5","spm_respsonse","5780","img/question_3_12.jpeg","3","mat_36","2","0","0","5780","","","","","","","","","","","","","","","","","","","","",""
"","","","","","html-keyboard-response","77","351693","0.0-2.0-4.0-0.12","5c6ee20c0506a200015c4275","E1","batch5","spm_show_trial_num","null","<p class=block-text>Trial 37 out of 60</p>","null","","","","","","","","","","","","","","","","","","","","","","","","","",""
"","","","","","image-button-response","78","354628","0.0-2.0-4.0-1.12","5c6ee20c0506a200015c4275","E1","batch5","spm_respsonse","2934","img/question_4_1.jpeg","2","mat_37","3","1","1","2934","","","","","","","","","","","","","","","","","","","","",""
"","","","","","html-keyboard-response","79","355694","0.0-2.0-4.0-0.13","5c6ee20c0506a200015c4275","E1","batch5","spm_show_trial_num","null","<p class=block-text>Trial 38 out of 60</p>","null","","","","","","","","","","","","","","","","","","","","","","","","","",""
"","","","","","image-button-response","80","359086","0.0-2.0-4.0-1.13","5c6ee20c0506a200015c4275","E1","batch5","spm_respsonse","3390.4000000059605","img/question_4_2.jpeg","3","mat_38","4","1","1","3390.4000000059605","","","","","","","","","","","","","","","","","","","","",""
"","","","","","html-keyboard-response","81","360148","0.0-2.0-4.0-0.14","5c6ee20c0506a200015c4275","E1","batch5","spm_show_trial_num","null","<p class=block-text>Trial 39 out of 60</p>","null","","","","","","","","","","","","","","","","","","","","","","","","","",""
"","","","","","image-button-response","82","374472","0.0-2.0-4.0-1.14","5c6ee20c0506a200015c4275","E1","batch5","spm_respsonse","14322","img/question_4_3.jpeg","2","mat_39","3","1","1","14322","","","","","","","","","","","","","","","","","","","","",""
"","","","","","html-keyboard-response","83","375529","0.0-2.0-4.0-0.15","5c6ee20c0506a200015c4275","E1","batch5","spm_show_trial_num","null","<p class=block-text>Trial 40 out of 60</p>","null","","","","","","","","","","","","","","","","","","","","","","","","","",""
"","","","","","image-button-response","84","385136","0.0-2.0-4.0-1.15","5c6ee20c0506a200015c4275","E1","batch5","spm_respsonse","9605.79999999702","img/question_4_4.jpeg","6","mat_40","7","1","1","9605.79999999702","","","","","","","","","","","","","","","","","","","","",""
"","","","","","html-keyboard-response","85","386201","0.0-2.0-4.0-0.16","5c6ee20c0506a200015c4275","E1","batch5","spm_show_trial_num","null","<p class=block-text>Trial 41 out of 60</p>","null","","","","","","","","","","","","","","","","","","","","","","","","","",""
"","","","","","image-button-response","86","397862","0.0-2.0-4.0-1.16","5c6ee20c0506a200015c4275","E1","batch5","spm_respsonse","11659.39999999106","img/question_4_5.jpeg","7","mat_41","8","1","1","11659.39999999106","","","","","","","","","","","","","","","","","","","","",""
"","","","","","html-keyboard-response","87","398922","0.0-2.0-4.0-0.17","5c6ee20c0506a200015c4275","E1","batch5","spm_show_trial_num","null","<p class=block-text>Trial 42 out of 60</p>","null","","","","","","","","","","","","","","","","","","","","","","","","","",""
"","","","","","image-button-response","88","407946","0.0-2.0-4.0-1.17","5c6ee20c0506a200015c4275","E1","batch5","spm_respsonse","9022.60000000894","img/question_4_6.jpeg","5","mat_42","6","1","1","9022.60000000894","","","","","","","","","","","","","","","","","","","","",""
"","","","","","html-keyboard-response","89","409002","0.0-2.0-4.0-0.18","5c6ee20c0506a200015c4275","E1","batch5","spm_show_trial_num","null","<p class=block-text>Trial 43 out of 60</p>","null","","","","","","","","","","","","","","","","","","","","","","","","","",""
"","","","","","image-button-response","90","419491","0.0-2.0-4.0-1.18","5c6ee20c0506a200015c4275","E1","batch5","spm_respsonse","10487.29999999702","img/question_4_7.jpeg","4","mat_43","5","1","1","10487.29999999702","","","","","","","","","","","","","","","","","","","","",""
"","","","","","html-keyboard-response","91","420549","0.0-2.0-4.0-0.19","5c6ee20c0506a200015c4275","E1","batch5","spm_show_trial_num","null","<p class=block-text>Trial 44 out of 60</p>","null","","","","","","","","","","","","","","","","","","","","","","","","","",""
"","","","","","image-button-response","92","427834","0.0-2.0-4.0-1.19","5c6ee20c0506a200015c4275","E1","batch5","spm_respsonse","7283.0999999940395","img/question_4_8.jpeg","3","mat_44","4","1","1","7283.0999999940395","","","","","","","","","","","","","","","","","","","","",""
"","","","","","html-keyboard-response","93","428897","0.0-2.0-4.0-0.20","5c6ee20c0506a200015c4275","E1","batch5","spm_show_trial_num","null","<p class=block-text>Trial 45 out of 60</p>","null","","","","","","","","","","","","","","","","","","","","","","","","","",""
"","","","","","image-button-response","94","438399","0.0-2.0-4.0-1.20","5c6ee20c0506a200015c4275","E1","batch5","spm_respsonse","9498.20000000298","img/question_4_9.jpeg","0","mat_45","1","1","1","9498.20000000298","","","","","","","","","","","","","","","","","","","","",""
"","","","","","html-keyboard-response","95","439459","0.0-2.0-4.0-0.21","5c6ee20c0506a200015c4275","E1","batch5","spm_show_trial_num","null","<p class=block-text>Trial 46 out of 60</p>","null","","","","","","","","","","","","","","","","","","","","","","","","","",""
"","","","","","image-button-response","96","454700","0.0-2.0-4.0-1.21","5c6ee20c0506a200015c4275","E1","batch5","spm_respsonse","15239.09999999404","img/question_4_10.jpeg","1","mat_46","2","1","1","15239.09999999404","","","","","","","","","","","","","","","","","","","","",""
"","","","","","html-keyboard-response","97","455767","0.0-2.0-4.0-0.22","5c6ee20c0506a200015c4275","E1","batch5","spm_show_trial_num","null","<p class=block-text>Trial 47 out of 60</p>","null","","","","","","","","","","","","","","","","","","","","","","","","","",""
"","","","","","image-button-response","98","477913","0.0-2.0-4.0-1.22","5c6ee20c0506a200015c4275","E1","batch5","spm_respsonse","22145.29999999702","img/question_4_11.jpeg","7","mat_47","5","0","0","22145.29999999702","","","","","","","","","","","","","","","","","","","","",""
"","","","","","html-keyboard-response","99","478966","0.0-2.0-4.0-0.23","5c6ee20c0506a200015c4275","E1","batch5","spm_show_trial_num","null","<p class=block-text>Trial 48 out of 60</p>","null","","","","","","","","","","","","","","","","","","","","","","","","","",""
"","","","","","image-button-response","100","491211","0.0-2.0-4.0-1.23","5c6ee20c0506a200015c4275","E1","batch5","spm_respsonse","12243.29999999702","img/question_4_12.jpeg","6","mat_48","6","0","0","12243.29999999702","","","","","","","","","","","","","","","","","","","","",""
"","","","","","html-keyboard-response","101","492282","0.0-2.0-4.0-0.24","5c6ee20c0506a200015c4275","E1","batch5","spm_show_trial_num","null","<p class=block-text>Trial 49 out of 60</p>","null","","","","","","","","","","","","","","","","","","","","","","","","","",""
"","","","","","image-button-response","102","510328","0.0-2.0-4.0-1.24","5c6ee20c0506a200015c4275","E1","batch5","spm_respsonse","18045.39999999106","img/question_5_1.jpeg","6","mat_49","7","1","1","18045.39999999106","","","","","","","","","","","","","","","","","","","","",""
"","","","","","html-keyboard-response","103","511387","0.0-2.0-4.0-0.25","5c6ee20c0506a200015c4275","E1","batch5","spm_show_trial_num","null","<p class=block-text>Trial 50 out of 60</p>","null","","","","","","","","","","","","","","","","","","","","","","","","","",""
"","","","","","image-button-response","104","522759","0.0-2.0-4.0-1.25","5c6ee20c0506a200015c4275","E1","batch5","spm_respsonse","11370.5","img/question_5_2.jpeg","5","mat_50","6","1","1","11370.5","","","","","","","","","","","","","","","","","","","","",""
"","","","","","html-keyboard-response","105","523827","0.0-2.0-4.0-0.26","5c6ee20c0506a200015c4275","E1","batch5","spm_show_trial_num","null","<p class=block-text>Trial 51 out of 60</p>","null","","","","","","","","","","","","","","","","","","","","","","","","","",""
"","","","","","image-button-response","106","540243","0.0-2.0-4.0-1.26","5c6ee20c0506a200015c4275","E1","batch5","spm_respsonse","16414.90000000596","img/question_5_3.jpeg","7","mat_51","8","1","1","16414.90000000596","","","","","","","","","","","","","","","","","","","","",""
"","","","","","html-keyboard-response","107","541311","0.0-2.0-4.0-0.27","5c6ee20c0506a200015c4275","E1","batch5","spm_show_trial_num","null","<p class=block-text>Trial 52 out of 60</p>","null","","","","","","","","","","","","","","","","","","","","","","","","","",""
"","","","","","image-button-response","108","552326","0.0-2.0-4.0-1.27","5c6ee20c0506a200015c4275","E1","batch5","spm_respsonse","11013.70000000298","img/question_5_4.jpeg","1","mat_52","2","1","1","11013.70000000298","","","","","","","","","","","","","","","","","","","","",""
"","","","","","html-keyboard-response","109","553392","0.0-2.0-4.0-0.28","5c6ee20c0506a200015c4275","E1","batch5","spm_show_trial_num","null","<p class=block-text>Trial 53 out of 60</p>","null","","","","","","","","","","","","","","","","","","","","","","","","","",""
"","","","","","image-button-response","110","562113","0.0-2.0-4.0-1.28","5c6ee20c0506a200015c4275","E1","batch5","spm_respsonse","8719.800000011921","img/question_5_5.jpeg","0","mat_53","1","1","1","8719.800000011921","","","","","","","","","","","","","","","","","","","","",""
"","","","","","html-keyboard-response","111","563167","0.0-2.0-4.0-0.29","5c6ee20c0506a200015c4275","E1","batch5","spm_show_trial_num","null","<p class=block-text>Trial 54 out of 60</p>","null","","","","","","","","","","","","","","","","","","","","","","","","","",""
"","","","","","image-button-response","112","586115","0.0-2.0-4.0-1.29","5c6ee20c0506a200015c4275","E1","batch5","spm_respsonse","22947","img/question_5_6.jpeg","7","mat_54","5","0","0","22947","","","","","","","","","","","","","","","","","","","","",""
"","","","","","html-keyboard-response","113","587186","0.0-2.0-4.0-0.30","5c6ee20c0506a200015c4275","E1","batch5","spm_show_trial_num","null","<p class=block-text>Trial 55 out of 60</p>","null","","","","","","","","","","","","","","","","","","","","","","","","","",""
"","","","","","image-button-response","114","600328","0.0-2.0-4.0-1.30","5c6ee20c0506a200015c4275","E1","batch5","spm_respsonse","13140.09999999404","img/question_5_7.jpeg","4","mat_55","1","0","0","13140.09999999404","","","","","","","","","","","","","","","","","","","","",""
"","","","","","html-keyboard-response","115","601401","0.0-2.0-4.0-0.31","5c6ee20c0506a200015c4275","E1","batch5","spm_show_trial_num","null","<p class=block-text>Trial 56 out of 60</p>","null","","","","","","","","","","","","","","","","","","","","","","","","","",""
"","","","","","image-button-response","116","612235","0.0-2.0-4.0-1.31","5c6ee20c0506a200015c4275","E1","batch5","spm_respsonse","10831.39999999106","img/question_5_8.jpeg","0","mat_56","6","0","0","10831.39999999106","","","","","","","","","","","","","","","","","","","","",""
"","","","","","html-keyboard-response","117","613297","0.0-2.0-4.0-0.32","5c6ee20c0506a200015c4275","E1","batch5","spm_show_trial_num","null","<p class=block-text>Trial 57 out of 60</p>","null","","","","","","","","","","","","","","","","","","","","","","","","","",""
"","","","","","image-button-response","118","624788","0.0-2.0-4.0-1.32","5c6ee20c0506a200015c4275","E1","batch5","spm_respsonse","11489","img/question_5_9.jpeg","1","mat_57","3","0","0","11489","","","","","","","","","","","","","","","","","","","","",""
"","","","","","html-keyboard-response","119","625845","0.0-2.0-4.0-0.33","5c6ee20c0506a200015c4275","E1","batch5","spm_show_trial_num","null","<p class=block-text>Trial 58 out of 60</p>","null","","","","","","","","","","","","","","","","","","","","","","","","","",""
"","","","","","image-button-response","120","646171","0.0-2.0-4.0-1.33","5c6ee20c0506a200015c4275","E1","batch5","spm_respsonse","20324.70000000298","img/question_5_10.jpeg","7","mat_58","2","0","0","20324.70000000298","","","","","","","","","","","","","","","","","","","","",""
"","","","","","html-keyboard-response","121","647225","0.0-2.0-4.0-0.34","5c6ee20c0506a200015c4275","E1","batch5","spm_show_trial_num","null","<p class=block-text>Trial 59 out of 60</p>","null","","","","","","","","","","","","","","","","","","","","","","","","","",""
"","","","","","image-button-response","122","663510","0.0-2.0-4.0-1.34","5c6ee20c0506a200015c4275","E1","batch5","spm_respsonse","16284.5","img/question_5_11.jpeg","7","mat_59","4","0","0","16284.5","","","","","","","","","","","","","","","","","","","","",""
"","","","","","html-keyboard-response","123","664562","0.0-2.0-4.0-0.35","5c6ee20c0506a200015c4275","E1","batch5","spm_show_trial_num","null","<p class=block-text>Trial 60 out of 60</p>","null","","","","","","","","","","","","","","","","","","","","","","","","","",""
"","","","","","image-button-response","124","686978","0.0-2.0-4.0-1.35","5c6ee20c0506a200015c4275","E1","batch5","spm_respsonse","22413.90000000596","img/question_5_12.jpeg","2","mat_60","5","0","0","22413.90000000596","","","","","","","","","","","","","","","","","","","","",""
"","","","","","html-button-response","125","690163","0.0-2.0-5.0","5c6ee20c0506a200015c4275","E1","batch5","spm_goodbye","2922.0999999940395","<p class= block-text>This concludes the Standard Progressive Matrix game. Thank you for your responses!<br> When you are ready, click the button continue</p>","0","","","","","","","","","","","","","","","","","","","","","","","","","",""
"true","","","","","fullscreen","126","693938","0.0-3.0-0.0","5c6ee20c0506a200015c4275","E1","batch5","","","","","","","","","","","","","","","","","","","","","","","","","","","","","",""
"","","","","","instructions","127","708243","0.0-3.0-1.0-0.0","5c6ee20c0506a200015c4275","E1","batch5","","14303.29999999702","","","","","","","","[{""page_index"":0,""viewing_time"":8340},{""page_index"":1,""viewing_time"":5962.9000000059605}]","","","","","","","","","","","","","","","","","","","",""
"","","","","","html-button-response","128","709631","0.0-3.0-1.0-1.0-0.0","5c6ee20c0506a200015c4275","E1","batch5","pattern_enter_quiz","1386.9000000059605","<p class=block-text> Let's answer a few questions <br>","0","","","","","","","","","","","","","","","","","","","","","","","","","",""
"","","","","","html-button-response","129","713447","0.0-3.0-1.0-1.0-1.0","5c6ee20c0506a200015c4275","E1","batch5","pattern_quiz","3815","<p class = block-text>True or False: You will have as much time as you want to make each choice. <br></p>","1","","","true","","","","","","","","","","","","","","","","","","","","","","",""
"","","","","","html-button-response","130","714960","0.0-3.0-1.0-1.0-2.0","5c6ee20c0506a200015c4275","E1","batch5","pattern_quiz_feedback","1512","<p class = block-text>Correct! You should make your choice <strong> as fast as you can</strong>.</p>","0","","","","","","","","","","","","","","","","","","","","","","","","","",""
"","","","","","html-button-response","131","718032","0.0-3.0-1.0-1.0-3.0","5c6ee20c0506a200015c4275","E1","batch5","pattern_quiz","3071.5","<p class = block-text>True or False: You will look for 4 pieces in black or white color connected in a row either horizontally, vertically or diagonally. <br></p>","0","","","true","","","","","","","","","","","","","","","","","","","","","","",""
"","","","","","html-button-response","132","718862","0.0-3.0-1.0-1.0-4.0","5c6ee20c0506a200015c4275","E1","batch5","pattern_quiz_feedback","828.5999999940395","<p class = block-text>Correct! </p>","0","","","","","","","","","","","","","","","","","","","","","","","","","",""
"","","","","","html-button-response","133","720623","0.0-3.0-2.0","5c6ee20c0506a200015c4275","E1","batch5","pattern_enter_practice","1760.1000000089407","<p class=block-text> Now that you've understood the game, let's do a few practice trials before we start!<br> <br>","0","","","","","","","","","","","","","","","","","","","","","","","","","",""
"","","","","","image-keyboard-response","134","722316","0.0-3.0-3.0-0.0","5c6ee20c0506a200015c4275","E1","batch5","pattern_practice","1692.1000000089407","stim/prac_yes_16_ver_w1.png","f","","f","true","","","","","","","","","","","","","","","","","","","","","","",""
"","","","","","html-keyboard-response","135","723324","0.0-3.0-3.0-1.0","5c6ee20c0506a200015c4275","E1","batch5","pattern_feedback","null","<p style=""font-size:30px;color:green;"">Correct!</p>","null","","","","","","","","","","","","","","","","","","","","","","","","","",""
"","","","","","image-keyboard-response","136","724561","0.0-3.0-3.0-0.1","5c6ee20c0506a200015c4275","E1","batch5","pattern_practice","1236.6000000089407","stim/prac_no_18_1.png","j","","j","true","","","","","","","","","","","","","","","","","","","","","","",""
"","","","","","html-keyboard-response","137","725585","0.0-3.0-3.0-1.1","5c6ee20c0506a200015c4275","E1","batch5","pattern_feedback","null","<p style=""font-size:30px;color:green;"">Correct!</p>","null","","","","","","","","","","","","","","","","","","","","","","","","","",""
"","","","","","image-keyboard-response","138","726872","0.0-3.0-3.0-0.2","5c6ee20c0506a200015c4275","E1","batch5","pattern_practice","1286.1000000089407","stim/prac_yes_18_hor_w1.png","f","","f","true","","","","","","","","","","","","","","","","","","","","","","",""
"","","","","","html-keyboard-response","139","727885","0.0-3.0-3.0-1.2","5c6ee20c0506a200015c4275","E1","batch5","pattern_feedback","null","<p style=""font-size:30px;color:green;"">Correct!</p>","null","","","","","","","","","","","","","","","","","","","","","","","","","",""
"","","","","","image-keyboard-response","140","728642","0.0-3.0-3.0-0.3","5c6ee20c0506a200015c4275","E1","batch5","pattern_practice","756.5","stim/prac_no_16_1.png","j","","j","true","","","","","","","","","","","","","","","","","","","","","","",""
"","","","","","html-keyboard-response","141","729659","0.0-3.0-3.0-1.3","5c6ee20c0506a200015c4275","E1","batch5","pattern_feedback","null","<p style=""font-size:30px;color:green;"">Correct!</p>","null","","","","","","","","","","","","","","","","","","","","","","","","","",""
"","","","","","image-keyboard-response","142","730744","0.0-3.0-3.0-0.4","5c6ee20c0506a200015c4275","E1","batch5","pattern_practice","1083.2999999970198","stim/prac_yes_20_dia_b1.png","j","","f","false","","","","","","","","","","","","","","","","","","","","","","",""
"","","","","","html-keyboard-response","143","731768","0.0-3.0-3.0-1.4","5c6ee20c0506a200015c4275","E1","batch5","pattern_feedback","null","<p style=""font-size:30px;color:red;"">Wrong.</p>","null","","","","","","","","","","","","","","","","","","","","","","","","","",""
"","","","","","html-button-response","144","734558","0.0-3.0-4.0","5c6ee20c0506a200015c4275","E1","batch5","pattern_enter_official_trials","2789","<p class=block-text> Good job! You are done with practice trials!<br>
        You responded correctly on 80% of the trials.<br>
        Press the button below to start official trials. Now you won't see any feedback about your response</p>","0","","","","","","","","","","","","","","","","","","","","","","","","","",""
"","","","","","html-keyboard-response","145","735375","0.0-3.0-5.0-0.0","5c6ee20c0506a200015c4275","E1","batch5","pattern_show_trial_num","null","<p class=block-text>Trial 1 out of 78</p>","null","","","","","","","","","","","","","","","","","","","","","","","","","",""
"","","","","","image-keyboard-response","146","736352","0.0-3.0-5.0-1.0","5c6ee20c0506a200015c4275","E1","batch5","pattern_response","974.5","stim/no_39_1_w.png","f","pattern_21","j","false","","","","974.5","false","0","","","","","","","","","","","","","","","","",""
"","","","","","html-keyboard-response","147","737673","0.0-3.0-5.0-0.1","5c6ee20c0506a200015c4275","E1","batch5","pattern_show_trial_num","null","<p class=block-text>Trial 2 out of 78</p>","null","","","","","","","","","","","","","","","","","","","","","","","","","",""
"","","","","","image-keyboard-response","148","738878","0.0-3.0-5.0-1.1","5c6ee20c0506a200015c4275","E1","batch5","pattern_response","1203.2000000029802","stim/yes_26_dia_w2_w.png","j","pattern_50","f","false","","","","1203.2000000029802","false","0","","","","","","","","","","","","","","","","",""
"","","","","","html-keyboard-response","149","740198","0.0-3.0-5.0-0.2","5c6ee20c0506a200015c4275","E1","batch5","pattern_show_trial_num","null","<p class=block-text>Trial 3 out of 78</p>","null","","","","","","","","","","","","","","","","","","","","","","","","","",""
"","","","","","image-keyboard-response","150","741238","0.0-3.0-5.0-1.2","5c6ee20c0506a200015c4275","E1","batch5","pattern_response","1039.2000000029802","stim/yes_39_hor_w1_w.png","f","pattern_62","f","true","","","","1039.2000000029802","true","1","","","","","","","","","","","","","","","","",""
"","","","","","html-keyboard-response","151","742547","0.0-3.0-5.0-0.3","5c6ee20c0506a200015c4275","E1","batch5","pattern_show_trial_num","null","<p class=block-text>Trial 4 out of 78</p>","null","","","","","","","","","","","","","","","","","","","","","","","","","",""
"","","","","","image-keyboard-response","152","743989","0.0-3.0-5.0-1.3","5c6ee20c0506a200015c4275","E1","batch5","pattern_response","1441.7000000029802","stim/no_36_1_b.png","f","pattern_17","j","false","","","","1441.7000000029802","false","1","","","","","","","","","","","","","","","","",""
"","","","","","html-keyboard-response","153","745298","0.0-3.0-5.0-0.4","5c6ee20c0506a200015c4275","E1","batch5","pattern_show_trial_num","null","<p class=block-text>Trial 5 out of 78</p>","null","","","","","","","","","","","","","","","","","","","","","","","","","",""
"","","","","","image-keyboard-response","154","746848","0.0-3.0-5.0-1.4","5c6ee20c0506a200015c4275","E1","batch5","pattern_response","1547.8999999910593","stim/no_45_1_w.png","j","pattern_25","j","true","","","","1547.8999999910593","true","2","","","","","","","","","","","","","","","","",""
"","","","","","html-keyboard-response","155","748160","0.0-3.0-5.0-0.5","5c6ee20c0506a200015c4275","E1","batch5","pattern_show_trial_num","null","<p class=block-text>Trial 6 out of 78</p>","null","","","","","","","","","","","","","","","","","","","","","","","","","",""
"","","","","","image-keyboard-response","156","748970","0.0-3.0-5.0-1.5","5c6ee20c0506a200015c4275","E1","batch5","pattern_response","808.8999999910593","stim/yes_46_ver_b1_b.png","f","pattern_68","f","true","","","","808.8999999910593","true","3","","","","","","","","","","","","","","","","",""
"","","","","","html-keyboard-response","157","750288","0.0-3.0-5.0-0.6","5c6ee20c0506a200015c4275","E1","batch5","pattern_show_trial_num","null","<p class=block-text>Trial 7 out of 78</p>","null","","","","","","","","","","","","","","","","","","","","","","","","","",""
"","","","","","image-keyboard-response","158","751111","0.0-3.0-5.0-1.6","5c6ee20c0506a200015c4275","E1","batch5","pattern_response","821.2000000029802","stim/yes_30_ver_b1_b.png","f","pattern_54","f","true","","","","821.2000000029802","true","4","","","","","","","","","","","","","","","","",""
"","","","","","html-keyboard-response","159","752416","0.0-3.0-5.0-0.7","5c6ee20c0506a200015c4275","E1","batch5","pattern_show_trial_num","null","<p class=block-text>Trial 8 out of 78</p>","null","","","","","","","","","","","","","","","","","","","","","","","","","",""
"","","","","","image-keyboard-response","160","753508","0.0-3.0-5.0-1.7","5c6ee20c0506a200015c4275","E1","batch5","pattern_response","1091.199999988079","stim/yes_63_dia_b1.png","f","pattern_78","f","true","","","","1091.199999988079","true","5","","","","","","","","","","","","","","","","",""
"","","","","","html-keyboard-response","161","754824","0.0-3.0-5.0-0.8","5c6ee20c0506a200015c4275","E1","batch5","pattern_show_trial_num","null","<p class=block-text>Trial 9 out of 78</p>","null","","","","","","","","","","","","","","","","","","","","","","","","","",""
"","","","","","image-keyboard-response","162","756017","0.0-3.0-5.0-1.8","5c6ee20c0506a200015c4275","E1","batch5","pattern_response","1191.2000000029802","stim/no_58_1_w.png","j","pattern_35","j","true","","","","1191.2000000029802","true","6","","","","","","","","","","","","","","","","",""
"","","","","","html-keyboard-response","163","757335","0.0-3.0-5.0-0.9","5c6ee20c0506a200015c4275","E1","batch5","pattern_show_trial_num","null","<p class=block-text>Trial 10 out of 78</p>","null","","","","","","","","","","","","","","","","","","","","","","","","","",""
"","","","","","image-keyboard-response","164","758152","0.0-3.0-5.0-1.9","5c6ee20c0506a200015c4275","E1","batch5","pattern_response","816.7000000029802","stim/yes_36_ver_w1_w.png","f","pattern_58","f","true","","","","816.7000000029802","true","7","","","","","","","","","","","","","","","","",""
"","","","","","html-keyboard-response","165","759465","0.0-3.0-5.0-0.10","5c6ee20c0506a200015c4275","E1","batch5","pattern_show_trial_num","null","<p class=block-text>Trial 11 out of 78</p>","null","","","","","","","","","","","","","","","","","","","","","","","","","",""
"","","","","","image-keyboard-response","166","760261","0.0-3.0-5.0-1.10","5c6ee20c0506a200015c4275","E1","batch5","pattern_response","793.7999999970198","stim/yes_33_dia_w1_w.png","j","pattern_56","f","false","","","","793.7999999970198","false","7","","","","","","","","","","","","","","","","",""
"","","","","","html-keyboard-response","167","761577","0.0-3.0-5.0-0.11","5c6ee20c0506a200015c4275","E1","batch5","pattern_show_trial_num","null","<p class=block-text>Trial 12 out of 78</p>","null","","","","","","","","","","","","","","","","","","","","","","","","","",""
"","","","","","image-keyboard-response","168","762316","0.0-3.0-5.0-1.11","5c6ee20c0506a200015c4275","E1","batch5","pattern_response","737.7999999970198","stim/yes_12_hor_w1_w.png","f","pattern_42","f","true","","","","737.7999999970198","true","8","","","","","","","","","","","","","","","","",""
"","","","","","html-keyboard-response","169","763639","0.0-3.0-5.0-0.12","5c6ee20c0506a200015c4275","E1","batch5","pattern_show_trial_num","null","<p class=block-text>Trial 13 out of 78</p>","null","","","","","","","","","","","","","","","","","","","","","","","","","",""
"","","","","","image-keyboard-response","170","764523","0.0-3.0-5.0-1.12","5c6ee20c0506a200015c4275","E1","batch5","pattern_response","882.7000000029802","stim/yes_53_ver_b1_b.png","f","pattern_74","f","true","","","","882.7000000029802","true","9","","","","","","","","","","","","","","","","",""
"","","","","","html-keyboard-response","171","765842","0.0-3.0-5.0-0.13","5c6ee20c0506a200015c4275","E1","batch5","pattern_show_trial_num","null","<p class=block-text>Trial 14 out of 78</p>","null","","","","","","","","","","","","","","","","","","","","","","","","","",""
"","","","","","image-keyboard-response","172","766585","0.0-3.0-5.0-1.13","5c6ee20c0506a200015c4275","E1","batch5","pattern_response","742.4000000059605","stim/no_33_1_b.png","j","pattern_15","j","true","","","","742.4000000059605","true","10","","","","","","","","","","","","","","","","",""
"","","","","","html-keyboard-response","173","767905","0.0-3.0-5.0-0.14","5c6ee20c0506a200015c4275","E1","batch5","pattern_show_trial_num","null","<p class=block-text>Trial 15 out of 78</p>","null","","","","","","","","","","","","","","","","","","","","","","","","","",""
"","","","","","image-keyboard-response","174","768659","0.0-3.0-5.0-1.14","5c6ee20c0506a200015c4275","E1","batch5","pattern_response","752.7000000029802","stim/yes_23_ver_b1.png","f","pattern_48","f","true","","","","752.7000000029802","true","11","","","","","","","","","","","","","","","","",""
"","","","","","html-keyboard-response","175","769970","0.0-3.0-5.0-0.15","5c6ee20c0506a200015c4275","E1","batch5","pattern_show_trial_num","null","<p class=block-text>Trial 16 out of 78</p>","null","","","","","","","","","","","","","","","","","","","","","","","","","",""
"","","","","","image-keyboard-response","176","770905","0.0-3.0-5.0-1.15","5c6ee20c0506a200015c4275","E1","batch5","pattern_response","934.2999999970198","stim/yes_58_dia_w1_w.png","j","pattern_76","f","false","","","","934.2999999970198","false","11","","","","","","","","","","","","","","","","",""
"","","","","","html-keyboard-response","177","772216","0.0-3.0-5.0-0.16","5c6ee20c0506a200015c4275","E1","batch5","pattern_show_trial_num","null","<p class=block-text>Trial 17 out of 78</p>","null","","","","","","","","","","","","","","","","","","","","","","","","","",""
"","","","","","image-keyboard-response","178","772968","0.0-3.0-5.0-1.16","5c6ee20c0506a200015c4275","E1","batch5","pattern_response","751","stim/yes_51_dia_b1.png","j","pattern_72","f","false","","","","751","false","11","","","","","","","","","","","","","","","","",""
"","","","","","html-keyboard-response","179","774277","0.0-3.0-5.0-0.17","5c6ee20c0506a200015c4275","E1","batch5","pattern_show_trial_num","null","<p class=block-text>Trial 18 out of 78</p>","null","","","","","","","","","","","","","","","","","","","","","","","","","",""
"","","","","","image-keyboard-response","180","774922","0.0-3.0-5.0-1.17","5c6ee20c0506a200015c4275","E1","batch5","pattern_response","643.2999999970198","stim/no_15_1_w.png","j","pattern_03","j","true","","","","643.2999999970198","true","12","","","","","","","","","","","","","","","","",""
"","","","","","html-keyboard-response","181","776235","0.0-3.0-5.0-0.18","5c6ee20c0506a200015c4275","E1","batch5","pattern_show_trial_num","null","<p class=block-text>Trial 19 out of 78</p>","null","","","","","","","","","","","","","","","","","","","","","","","","","",""
"","","","","","image-keyboard-response","182","776803","0.0-3.0-5.0-1.18","5c6ee20c0506a200015c4275","E1","batch5","pattern_response","567.5999999940395","stim/yes_17_ver_b1_b.png","f","pattern_46","f","true","","","","567.5999999940395","true","13","","","","","","","","","","","","","","","","",""
"","","","","","html-keyboard-response","183","778114","0.0-3.0-5.0-0.19","5c6ee20c0506a200015c4275","E1","batch5","pattern_show_trial_num","null","<p class=block-text>Trial 20 out of 78</p>","null","","","","","","","","","","","","","","","","","","","","","","","","","",""
"","","","","","image-keyboard-response","184","779029","0.0-3.0-5.0-1.19","5c6ee20c0506a200015c4275","E1","batch5","pattern_response","914.2000000029802","stim/yes_49_hor_w1_b.png","j","pattern_70","f","false","","","","914.2000000029802","false","13","","","","","","","","","","","","","","","","",""
"","","","","","html-keyboard-response","185","780343","0.0-3.0-5.0-0.20","5c6ee20c0506a200015c4275","E1","batch5","pattern_show_trial_num","null","<p class=block-text>Trial 21 out of 78</p>","null","","","","","","","","","","","","","","","","","","","","","","","","","",""
"","","","","","image-keyboard-response","186","781086","0.0-3.0-5.0-1.20","5c6ee20c0506a200015c4275","E1","batch5","pattern_response","742.5999999940395","stim/yes_42_dia_w1_w.png","j","pattern_64","f","false","","","","742.5999999940395","false","13","","","","","","","","","","","","","","","","",""
"","","","","","html-keyboard-response","187","782398","0.0-3.0-5.0-0.21","5c6ee20c0506a200015c4275","E1","batch5","pattern_show_trial_num","null","<p class=block-text>Trial 22 out of 78</p>","null","","","","","","","","","","","","","","","","","","","","","","","","","",""
"","","","","","image-keyboard-response","188","782947","0.0-3.0-5.0-1.21","5c6ee20c0506a200015c4275","E1","batch5","pattern_response","547.9000000059605","stim/yes_70_ver_b1.png","f","pattern_80","f","true","","","","547.9000000059605","true","14","","","","","","","","","","","","","","","","",""
"","","","","","html-keyboard-response","189","784259","0.0-3.0-5.0-0.22","5c6ee20c0506a200015c4275","E1","batch5","pattern_show_trial_num","null","<p class=block-text>Trial 23 out of 78</p>","null","","","","","","","","","","","","","","","","","","","","","","","","","",""
"","","","","","image-keyboard-response","190","784850","0.0-3.0-5.0-1.22","5c6ee20c0506a200015c4275","E1","batch5","pattern_response","590.3000000119209","stim/no_22_1_b.png","j","pattern_07","j","true","","","","590.3000000119209","true","15","","","","","","","","","","","","","","","","",""
"","","","","","html-keyboard-response","191","786173","0.0-3.0-5.0-0.23","5c6ee20c0506a200015c4275","E1","batch5","pattern_show_trial_num","null","<p class=block-text>Trial 24 out of 78</p>","null","","","","","","","","","","","","","","","","","","","","","","","","","",""
"","","","","","image-keyboard-response","192","786926","0.0-3.0-5.0-1.23","5c6ee20c0506a200015c4275","E1","batch5","pattern_response","752.5","stim/no_53_1_b.png","j","pattern_33","j","true","","","","752.5","true","16","","","","","","","","","","","","","","","","",""
"","","","","","html-keyboard-response","193","788237","0.0-3.0-5.0-0.24","5c6ee20c0506a200015c4275","E1","batch5","pattern_show_trial_num","null","<p class=block-text>Trial 25 out of 78</p>","null","","","","","","","","","","","","","","","","","","","","","","","","","",""
"","","","","","image-keyboard-response","194","788926","0.0-3.0-5.0-1.24","5c6ee20c0506a200015c4275","E1","batch5","pattern_response","687.9000000059605","stim/no_37_2_w.png","j","pattern_19","j","true","","","","687.9000000059605","true","17","","","","","","","","","","","","","","","","",""
"","","","","","html-keyboard-response","195","790240","0.0-3.0-5.0-0.25","5c6ee20c0506a200015c4275","E1","batch5","pattern_show_trial_num","null","<p class=block-text>Trial 26 out of 78</p>","null","","","","","","","","","","","","","","","","","","","","","","","","","",""
"","","","","","image-keyboard-response","196","790820","0.0-3.0-5.0-1.25","5c6ee20c0506a200015c4275","E1","batch5","pattern_response","578.3000000119209","stim/no_12_1.png","j","pattern_01","j","true","","","","578.3000000119209","true","18","","","","","","","","","","","","","","","","",""
"","","","","","html-keyboard-response","197","792137","0.0-3.0-5.0-0.26","5c6ee20c0506a200015c4275","E1","batch5","pattern_show_trial_num","null","<p class=block-text>Trial 27 out of 78</p>","null","","","","","","","","","","","","","","","","","","","","","","","","","",""
"","","","","","image-keyboard-response","198","792746","0.0-3.0-5.0-1.26","5c6ee20c0506a200015c4275","E1","batch5","pattern_response","608.1999999880791","stim/no_49_2_b.png","f","pattern_29","j","false","","","","608.1999999880791","false","18","","","","","","","","","","","","","","","","",""
"","","","","","html-keyboard-response","199","794056","0.0-3.0-5.0-0.27","5c6ee20c0506a200015c4275","E1","batch5","pattern_show_trial_num","null","<p class=block-text>Trial 28 out of 78</p>","null","","","","","","","","","","","","","","","","","","","","","","","","","",""
"","","","","","image-keyboard-response","200","794561","0.0-3.0-5.0-1.27","5c6ee20c0506a200015c4275","E1","batch5","pattern_response","503.90000000596046","stim/no_18_1_b.png","j","pattern_05","j","true","","","","503.90000000596046","true","19","","","","","","","","","","","","","","","","",""
"","","","","","html-keyboard-response","201","795876","0.0-3.0-5.0-0.28","5c6ee20c0506a200015c4275","E1","batch5","pattern_show_trial_num","null","<p class=block-text>Trial 29 out of 78</p>","null","","","","","","","","","","","","","","","","","","","","","","","","","",""
"","","","","","image-keyboard-response","202","796453","0.0-3.0-5.0-1.28","5c6ee20c0506a200015c4275","E1","batch5","pattern_response","575.7999999970198","stim/yes_15_dia_b1u_b.png","j","pattern_44","f","false","","","","575.7999999970198","false","19","","","","","","","","","","","","","","","","",""
"","","","","","html-keyboard-response","203","797769","0.0-3.0-5.0-0.29","5c6ee20c0506a200015c4275","E1","batch5","pattern_show_trial_num","null","<p class=block-text>Trial 30 out of 78</p>","null","","","","","","","","","","","","","","","","","","","","","","","","","",""
"","","","","","image-keyboard-response","204","798555","0.0-3.0-5.0-1.29","5c6ee20c0506a200015c4275","E1","batch5","pattern_response","784.7999999970198","stim/no_25_1_b.png","j","pattern_09","j","true","","","","784.7999999970198","true","20","","","","","","","","","","","","","","","","",""
"","","","","","html-keyboard-response","205","799872","0.0-3.0-5.0-0.30","5c6ee20c0506a200015c4275","E1","batch5","pattern_show_trial_num","null","<p class=block-text>Trial 31 out of 78</p>","null","","","","","","","","","","","","","","","","","","","","","","","","","",""
"","","","","","image-keyboard-response","206","800464","0.0-3.0-5.0-1.30","5c6ee20c0506a200015c4275","E1","batch5","pattern_response","591.3000000119209","stim/yes_29_hor_b1_b.png","f","pattern_52","f","true","","","","591.3000000119209","true","21","","","","","","","","","","","","","","","","",""
"","","","","","html-keyboard-response","207","801787","0.0-3.0-5.0-0.31","5c6ee20c0506a200015c4275","E1","batch5","pattern_show_trial_num","null","<p class=block-text>Trial 32 out of 78</p>","null","","","","","","","","","","","","","","","","","","","","","","","","","",""
"","","","","","image-keyboard-response","208","802417","0.0-3.0-5.0-1.31","5c6ee20c0506a200015c4275","E1","batch5","pattern_response","629.7000000029802","stim/no_28_2.png","f","pattern_11","j","false","","","","629.7000000029802","false","21","","","","","","","","","","","","","","","","",""
"","","","","","html-keyboard-response","209","803732","0.0-3.0-5.0-0.32","5c6ee20c0506a200015c4275","E1","batch5","pattern_show_trial_num","null","<p class=block-text>Trial 33 out of 78</p>","null","","","","","","","","","","","","","","","","","","","","","","","","","",""
"","","","","","image-keyboard-response","210","804264","0.0-3.0-5.0-1.32","5c6ee20c0506a200015c4275","E1","batch5","pattern_response","531.3999999910593","stim/no_30_1_b.png","j","pattern_13","j","true","","","","531.3999999910593","true","22","","","","","","","","","","","","","","","","",""
"","","","","","html-keyboard-response","211","805580","0.0-3.0-5.0-0.33","5c6ee20c0506a200015c4275","E1","batch5","pattern_show_trial_num","null","<p class=block-text>Trial 34 out of 78</p>","null","","","","","","","","","","","","","","","","","","","","","","","","","",""
"","","","","","image-keyboard-response","212","806292","0.0-3.0-5.0-1.33","5c6ee20c0506a200015c4275","E1","batch5","pattern_response","710","stim/no_43_2_b.png","j","pattern_23","j","true","","","","710","true","23","","","","","","","","","","","","","","","","",""
"","","","","","html-keyboard-response","213","807614","0.0-3.0-5.0-0.34","5c6ee20c0506a200015c4275","E1","batch5","pattern_show_trial_num","null","<p class=block-text>Trial 35 out of 78</p>","null","","","","","","","","","","","","","","","","","","","","","","","","","",""
"","","","","","image-keyboard-response","214","808455","0.0-3.0-5.0-1.34","5c6ee20c0506a200015c4275","E1","batch5","pattern_response","840.2999999970198","stim/yes_44_ver_w1_w.png","j","pattern_66","f","false","","","","840.2999999970198","false","23","","","","","","","","","","","","","","","","",""
"","","","","","html-keyboard-response","215","809774","0.0-3.0-5.0-0.35","5c6ee20c0506a200015c4275","E1","batch5","pattern_show_trial_num","null","<p class=block-text>Trial 36 out of 78</p>","null","","","","","","","","","","","","","","","","","","","","","","","","","",""
"","","","","","image-keyboard-response","216","810612","0.0-3.0-5.0-1.35","5c6ee20c0506a200015c4275","E1","batch5","pattern_response","837.0999999940395","stim/no_47_1_b.png","j","pattern_27","j","true","","","","837.0999999940395","true","24","","","","","","","","","","","","","","","","",""
"","","","","","html-keyboard-response","217","811932","0.0-3.0-5.0-0.36","5c6ee20c0506a200015c4275","E1","batch5","pattern_show_trial_num","null","<p class=block-text>Trial 37 out of 78</p>","null","","","","","","","","","","","","","","","","","","","","","","","","","",""
"","","","","","image-keyboard-response","218","812569","0.0-3.0-5.0-1.36","5c6ee20c0506a200015c4275","E1","batch5","pattern_response","635.1999999880791","stim/no_51_1.png","f","pattern_31","j","false","","","","635.1999999880791","false","24","","","","","","","","","","","","","","","","",""
"","","","","","html-keyboard-response","219","813886","0.0-3.0-5.0-0.37","5c6ee20c0506a200015c4275","E1","batch5","pattern_show_trial_num","null","<p class=block-text>Trial 38 out of 78</p>","null","","","","","","","","","","","","","","","","","","","","","","","","","",""
"","","","","","image-keyboard-response","220","814580","0.0-3.0-5.0-1.37","5c6ee20c0506a200015c4275","E1","batch5","pattern_response","692.3000000119209","stim/no_67_1.png","f","pattern_39","j","false","","","","692.3000000119209","false","24","","","","","","","","","","","","","","","","",""
"","","","","","html-keyboard-response","221","815890","0.0-3.0-5.0-0.38","5c6ee20c0506a200015c4275","E1","batch5","pattern_show_trial_num","null","<p class=block-text>Trial 39 out of 78</p>","null","","","","","","","","","","","","","","","","","","","","","","","","","",""
"","","","","","image-keyboard-response","222","816437","0.0-3.0-5.0-1.38","5c6ee20c0506a200015c4275","E1","batch5","pattern_response","545.5999999940395","stim/yes_37_hor_w1_w.png","j","pattern_60","f","false","","","","545.5999999940395","false","24","","","","","","","","","","","","","","","","",""
"","","","","","image-keyboard-response","223","818566","0.0-3.0-6.0","5c6ee20c0506a200015c4275","E1","batch5","attention_check","1619.4000000059605","stim/empty_board.png","j","","j","true","","","","","","","500","[""f"",""j""]","","","","","","","","","","","","","","",""
"","","","","","html-keyboard-response","224","819381","0.0-3.0-7.0-0.0","5c6ee20c0506a200015c4275","E1","batch5","pattern_show_trial_num","null","<p class=block-text>Trial 40 out of 78</p>","null","","","","","","","","","","","","","","","","","","","","","","","","","",""
"","","","","","image-keyboard-response","225","820170","0.0-3.0-7.0-1.0","5c6ee20c0506a200015c4275","E1","batch5","pattern_response","787.7999999970198","stim/no_42_1_w.png","f","pattern_22","j","false","","","","787.7999999970198","false","24","","","","","","","","","","","","","","","","",""
"","","","","","html-keyboard-response","226","821494","0.0-3.0-7.0-0.1","5c6ee20c0506a200015c4275","E1","batch5","pattern_show_trial_num","null","<p class=block-text>Trial 41 out of 78</p>","null","","","","","","","","","","","","","","","","","","","","","","","","","",""
"","","","","","image-keyboard-response","227","822567","0.0-3.0-7.0-1.1","5c6ee20c0506a200015c4275","E1","batch5","pattern_response","1072.5999999940395","stim/yes_48_dia_w1_w.png","j","pattern_69","f","false","","","","1072.5999999940395","false","24","","","","","","","","","","","","","","","","",""
"","","","","","html-keyboard-response","228","823885","0.0-3.0-7.0-0.2","5c6ee20c0506a200015c4275","E1","batch5","pattern_show_trial_num","null","<p class=block-text>Trial 42 out of 78</p>","null","","","","","","","","","","","","","","","","","","","","","","","","","",""
"","","","","","image-keyboard-response","229","824695","0.0-3.0-7.0-1.2","5c6ee20c0506a200015c4275","E1","batch5","pattern_response","808.9000000059605","stim/yes_38_hor_b1_b.png","j","pattern_61","f","false","","","","808.9000000059605","false","24","","","","","","","","","","","","","","","","",""
"","","","","","html-keyboard-response","230","826003","0.0-3.0-7.0-0.3","5c6ee20c0506a200015c4275","E1","batch5","pattern_show_trial_num","null","<p class=block-text>Trial 43 out of 78</p>","null","","","","","","","","","","","","","","","","","","","","","","","","","",""
"","","","","","image-keyboard-response","231","826923","0.0-3.0-7.0-1.3","5c6ee20c0506a200015c4275","E1","batch5","pattern_response","918.8999999910593","stim/no_50_1.png","j","pattern_30","j","true","","","","918.8999999910593","true","25","","","","","","","","","","","","","","","","",""
"","","","","","html-keyboard-response","232","828237","0.0-3.0-7.0-0.4","5c6ee20c0506a200015c4275","E1","batch5","pattern_show_trial_num","null","<p class=block-text>Trial 44 out of 78</p>","null","","","","","","","","","","","","","","","","","","","","","","","","","",""
"","","","","","image-keyboard-response","233","829214","0.0-3.0-7.0-1.4","5c6ee20c0506a200015c4275","E1","batch5","pattern_response","975.7999999970198","stim/yes_52_ver_w1.png","f","pattern_73","f","true","","","","975.7999999970198","true","26","","","","","","","","","","","","","","","","",""
"","","","","","html-keyboard-response","234","830538","0.0-3.0-7.0-0.5","5c6ee20c0506a200015c4275","E1","batch5","pattern_show_trial_num","null","<p class=block-text>Trial 45 out of 78</p>","null","","","","","","","","","","","","","","","","","","","","","","","","","",""
"","","","","","image-keyboard-response","235","831094","0.0-3.0-7.0-1.5","5c6ee20c0506a200015c4275","E1","batch5","pattern_response","555.2000000029802","stim/yes_25_hor_b1_b.png","f","pattern_49","f","true","","","","555.2000000029802","true","27","","","","","","","","","","","","","","","","",""
"","","","","","html-keyboard-response","236","832410","0.0-3.0-7.0-0.6","5c6ee20c0506a200015c4275","E1","batch5","pattern_show_trial_num","null","<p class=block-text>Trial 46 out of 78</p>","null","","","","","","","","","","","","","","","","","","","","","","","","","",""
"","","","","","image-keyboard-response","237","833194","0.0-3.0-7.0-1.6","5c6ee20c0506a200015c4275","E1","batch5","pattern_response","783.1999999880791","stim/no_34_1_b.png","j","pattern_16","j","true","","","","783.1999999880791","true","28","","","","","","","","","","","","","","","","",""
"","","","","","html-keyboard-response","238","834507","0.0-3.0-7.0-0.7","5c6ee20c0506a200015c4275","E1","batch5","pattern_show_trial_num","null","<p class=block-text>Trial 47 out of 78</p>","null","","","","","","","","","","","","","","","","","","","","","","","","","",""
"","","","","","image-keyboard-response","239","835316","0.0-3.0-7.0-1.7","5c6ee20c0506a200015c4275","E1","batch5","pattern_response","807.6000000089407","stim/no_46_1_b.png","j","pattern_26","j","true","","","","807.6000000089407","true","29","","","","","","","","","","","","","","","","",""
"","","","","","html-keyboard-response","240","836638","0.0-3.0-7.0-0.8","5c6ee20c0506a200015c4275","E1","batch5","pattern_show_trial_num","null","<p class=block-text>Trial 48 out of 78</p>","null","","","","","","","","","","","","","","","","","","","","","","","","","",""
"","","","","","image-keyboard-response","241","837336","0.0-3.0-7.0-1.8","5c6ee20c0506a200015c4275","E1","batch5","pattern_response","696.5","stim/yes_35_dia_b1.png","j","pattern_57","f","false","","","","696.5","false","29","","","","","","","","","","","","","","","","",""
"","","","","","html-keyboard-response","242","838644","0.0-3.0-7.0-0.9","5c6ee20c0506a200015c4275","E1","batch5","pattern_show_trial_num","null","<p class=block-text>Trial 49 out of 78</p>","null","","","","","","","","","","","","","","","","","","","","","","","","","",""
"","","","","","image-keyboard-response","243","839521","0.0-3.0-7.0-1.9","5c6ee20c0506a200015c4275","E1","batch5","pattern_response","875.6000000089407","stim/yes_29_ver_w1.png","j","pattern_53","f","false","","","","875.6000000089407","false","29","","","","","","","","","","","","","","","","",""
"","","","","","html-keyboard-response","244","840833","0.0-3.0-7.0-0.10","5c6ee20c0506a200015c4275","E1","batch5","pattern_show_trial_num","null","<p class=block-text>Trial 50 out of 78</p>","null","","","","","","","","","","","","","","","","","","","","","","","","","",""
"","","","","","image-keyboard-response","245","841452","0.0-3.0-7.0-1.10","5c6ee20c0506a200015c4275","E1","batch5","pattern_response","618.2000000029802","stim/no_52_1.png","f","pattern_32","j","false","","","","618.2000000029802","false","29","","","","","","","","","","","","","","","","",""
"","","","","","html-keyboard-response","246","842770","0.0-3.0-7.0-0.11","5c6ee20c0506a200015c4275","E1","batch5","pattern_show_trial_num","null","<p class=block-text>Trial 51 out of 78</p>","null","","","","","","","","","","","","","","","","","","","","","","","","","",""
"","","","","","image-keyboard-response","247","843526","0.0-3.0-7.0-1.11","5c6ee20c0506a200015c4275","E1","batch5","pattern_response","754.5","stim/no_36_2_w.png","j","pattern_18","j","true","","","","754.5","true","30","","","","","","","","","","","","","","","","",""
"","","","","","html-keyboard-response","248","844838","0.0-3.0-7.0-0.12","5c6ee20c0506a200015c4275","E1","batch5","pattern_show_trial_num","null","<p class=block-text>Trial 52 out of 78</p>","null","","","","","","","","","","","","","","","","","","","","","","","","","",""
"","","","","","image-keyboard-response","249","845488","0.0-3.0-7.0-1.12","5c6ee20c0506a200015c4275","E1","batch5","pattern_response","649.0999999940395","stim/yes_60_ver_b1_b.png","f","pattern_77","f","true","","","","649.0999999940395","true","31","","","","","","","","","","","","","","","","",""
"","","","","","html-keyboard-response","250","846809","0.0-3.0-7.0-0.13","5c6ee20c0506a200015c4275","E1","batch5","pattern_show_trial_num","null","<p class=block-text>Trial 53 out of 78</p>","null","","","","","","","","","","","","","","","","","","","","","","","","","",""
"","","","","","image-keyboard-response","251","847704","0.0-3.0-7.0-1.13","5c6ee20c0506a200015c4275","E1","batch5","pattern_response","893.2999999970198","stim/yes_50_dia_w1.png","j","pattern_71","f","false","","","","893.2999999970198","false","31","","","","","","","","","","","","","","","","",""
"","","","","","html-keyboard-response","252","849019","0.0-3.0-7.0-0.14","5c6ee20c0506a200015c4275","E1","batch5","pattern_show_trial_num","null","<p class=block-text>Trial 54 out of 78</p>","null","","","","","","","","","","","","","","","","","","","","","","","","","",""
"","","","","","image-keyboard-response","253","849943","0.0-3.0-7.0-1.14","5c6ee20c0506a200015c4275","E1","batch5","pattern_response","922.7999999970198","stim/yes_37_dia_w1.png","j","pattern_59","f","false","","","","922.7999999970198","false","31","","","","","","","","","","","","","","","","",""
"","","","","","html-keyboard-response","254","851257","0.0-3.0-7.0-0.15","5c6ee20c0506a200015c4275","E1","batch5","pattern_show_trial_num","null","<p class=block-text>Trial 55 out of 78</p>","null","","","","","","","","","","","","","","","","","","","","","","","","","",""
"","","","","","image-keyboard-response","255","851944","0.0-3.0-7.0-1.15","5c6ee20c0506a200015c4275","E1","batch5","pattern_response","686.4000000059605","stim/no_70_2.png","f","pattern_40","j","false","","","","686.4000000059605","false","31","","","","","","","","","","","","","","","","",""
"","","","","","html-keyboard-response","256","853254","0.0-3.0-7.0-0.16","5c6ee20c0506a200015c4275","E1","batch5","pattern_show_trial_num","null","<p class=block-text>Trial 56 out of 78</p>","null","","","","","","","","","","","","","","","","","","","","","","","","","",""
"","","","","","image-keyboard-response","257","854073","0.0-3.0-7.0-1.16","5c6ee20c0506a200015c4275","E1","batch5","pattern_response","817.2999999970198","stim/yes_43_ver_w1_w.png","f","pattern_65","f","true","","","","817.2999999970198","true","32","","","","","","","","","","","","","","","","",""
"","","","","","html-keyboard-response","258","855382","0.0-3.0-7.0-0.17","5c6ee20c0506a200015c4275","E1","batch5","pattern_show_trial_num","null","<p class=block-text>Trial 57 out of 78</p>","null","","","","","","","","","","","","","","","","","","","","","","","","","",""
"","","","","","image-keyboard-response","259","856166","0.0-3.0-7.0-1.17","5c6ee20c0506a200015c4275","E1","batch5","pattern_response","782","stim/no_48_1_w.png","j","pattern_28","j","true","","","","782","true","33","","","","","","","","","","","","","","","","",""
"","","","","","html-keyboard-response","260","857481","0.0-3.0-7.0-0.18","5c6ee20c0506a200015c4275","E1","batch5","pattern_show_trial_num","null","<p class=block-text>Trial 58 out of 78</p>","null","","","","","","","","","","","","","","","","","","","","","","","","","",""
"","","","","","image-keyboard-response","261","858290","0.0-3.0-7.0-1.18","5c6ee20c0506a200015c4275","E1","batch5","pattern_response","807.7000000029802","stim/yes_55_hor_w1_w.png","f","pattern_75","f","true","","","","807.7000000029802","true","34","","","","","","","","","","","","","","","","",""
"","","","","","html-keyboard-response","262","859611","0.0-3.0-7.0-0.19","5c6ee20c0506a200015c4275","E1","batch5","pattern_show_trial_num","null","<p class=block-text>Trial 59 out of 78</p>","null","","","","","","","","","","","","","","","","","","","","","","","","","",""
"","","","","","image-keyboard-response","263","860154","0.0-3.0-7.0-1.19","5c6ee20c0506a200015c4275","E1","batch5","pattern_response","542.1999999880791","stim/yes_17_dia_w1.png","j","pattern_45","f","false","","","","542.1999999880791","false","34","","","","","","","","","","","","","","","","",""
"","","","","","html-keyboard-response","264","861476","0.0-3.0-7.0-0.20","5c6ee20c0506a200015c4275","E1","batch5","pattern_show_trial_num","null","<p class=block-text>Trial 60 out of 78</p>","null","","","","","","","","","","","","","","","","","","","","","","","","","",""
"","","","","","image-keyboard-response","265","862298","0.0-3.0-7.0-1.20","5c6ee20c0506a200015c4275","E1","batch5","pattern_response","819.7000000029802","stim/no_65_1_b.png","f","pattern_38","j","false","","","","819.7000000029802","false","34","","","","","","","","","","","","","","","","",""
"","","","","","html-keyboard-response","266","863620","0.0-3.0-7.0-0.21","5c6ee20c0506a200015c4275","E1","batch5","pattern_show_trial_num","null","<p class=block-text>Trial 61 out of 78</p>","null","","","","","","","","","","","","","","","","","","","","","","","","","",""
"","","","","","image-keyboard-response","267","864373","0.0-3.0-7.0-1.21","5c6ee20c0506a200015c4275","E1","batch5","pattern_response","752.3999999910593","stim/yes_31_hor_b1.png","j","pattern_55","f","false","","","","752.3999999910593","false","34","","","","","","","","","","","","","","","","",""
"","","","","","html-keyboard-response","268","865689","0.0-3.0-7.0-0.22","5c6ee20c0506a200015c4275","E1","batch5","pattern_show_trial_num","null","<p class=block-text>Trial 62 out of 78</p>","null","","","","","","","","","","","","","","","","","","","","","","","","","",""
"","","","","","image-keyboard-response","269","866494","0.0-3.0-7.0-1.22","5c6ee20c0506a200015c4275","E1","batch5","pattern_response","804.4000000059605","stim/no_23_1.png","j","pattern_08","j","true","","","","804.4000000059605","true","35","","","","","","","","","","","","","","","","",""
"","","","","","html-keyboard-response","270","867819","0.0-3.0-7.0-0.23","5c6ee20c0506a200015c4275","E1","batch5","pattern_show_trial_num","null","<p class=block-text>Trial 63 out of 78</p>","null","","","","","","","","","","","","","","","","","","","","","","","","","",""
"","","","","","image-keyboard-response","271","868509","0.0-3.0-7.0-1.23","5c6ee20c0506a200015c4275","E1","batch5","pattern_response","688.3000000119209","stim/no_29_1_b.png","j","pattern_12","j","true","","","","688.3000000119209","true","36","","","","","","","","","","","","","","","","",""
"","","","","","html-keyboard-response","272","869822","0.0-3.0-7.0-0.24","5c6ee20c0506a200015c4275","E1","batch5","pattern_show_trial_num","null","<p class=block-text>Trial 64 out of 78</p>","null","","","","","","","","","","","","","","","","","","","","","","","","","",""
"","","","","","image-keyboard-response","273","870516","0.0-3.0-7.0-1.24","5c6ee20c0506a200015c4275","E1","batch5","pattern_response","691.9000000059605","stim/yes_14_hor_b1_w.png","f","pattern_43","f","true","","","","691.9000000059605","true","37","","","","","","","","","","","","","","","","",""
"","","","","","html-keyboard-response","274","871825","0.0-3.0-7.0-0.25","5c6ee20c0506a200015c4275","E1","batch5","pattern_show_trial_num","null","<p class=block-text>Trial 65 out of 78</p>","null","","","","","","","","","","","","","","","","","","","","","","","","","",""
"","","","","","image-keyboard-response","275","872545","0.0-3.0-7.0-1.25","5c6ee20c0506a200015c4275","E1","batch5","pattern_response","718.5","stim/no_17_1_w.png","j","pattern_04","j","true","","","","718.5","true","38","","","","","","","","","","","","","","","","",""
"","","","","","html-keyboard-response","276","873859","0.0-3.0-7.0-0.26","5c6ee20c0506a200015c4275","E1","batch5","pattern_show_trial_num","null","<p class=block-text>Trial 66 out of 78</p>","null","","","","","","","","","","","","","","","","","","","","","","","","","",""
"","","","","","image-keyboard-response","277","874639","0.0-3.0-7.0-1.26","5c6ee20c0506a200015c4275","E1","batch5","pattern_response","779.1000000089407","stim/yes_40_dia_b1_b.png","j","pattern_63","f","false","","","","779.1000000089407","false","38","","","","","","","","","","","","","","","","",""
"","","","","","html-keyboard-response","278","875956","0.0-3.0-7.0-0.27","5c6ee20c0506a200015c4275","E1","batch5","pattern_show_trial_num","null","<p class=block-text>Trial 67 out of 78</p>","null","","","","","","","","","","","","","","","","","","","","","","","","","",""
"","","","","","image-keyboard-response","279","876746","0.0-3.0-7.0-1.27","5c6ee20c0506a200015c4275","E1","batch5","pattern_response","789.2000000029802","stim/no_44_1.png","f","pattern_24","j","false","","","","789.2000000029802","false","38","","","","","","","","","","","","","","","","",""
"","","","","","html-keyboard-response","280","878067","0.0-3.0-7.0-0.28","5c6ee20c0506a200015c4275","E1","batch5","pattern_show_trial_num","null","<p class=block-text>Trial 68 out of 78</p>","null","","","","","","","","","","","","","","","","","","","","","","","","","",""
"","","","","","image-keyboard-response","281","878807","0.0-3.0-7.0-1.28","5c6ee20c0506a200015c4275","E1","batch5","pattern_response","739.5","stim/no_55_1_w.png","f","pattern_34","j","false","","","","739.5","false","38","","","","","","","","","","","","","","","","",""
"","","","","","html-keyboard-response","282","880116","0.0-3.0-7.0-0.29","5c6ee20c0506a200015c4275","E1","batch5","pattern_show_trial_num","null","<p class=block-text>Trial 69 out of 78</p>","null","","","","","","","","","","","","","","","","","","","","","","","","","",""
"","","","","","image-keyboard-response","283","880850","0.0-3.0-7.0-1.29","5c6ee20c0506a200015c4275","E1","batch5","pattern_response","732.6999999880791","stim/yes_45_hor_b2_b.png","j","pattern_67","f","false","","","","732.6999999880791","false","38","","","","","","","","","","","","","","","","",""
"","","","","","html-keyboard-response","284","882168","0.0-3.0-7.0-0.30","5c6ee20c0506a200015c4275","E1","batch5","pattern_show_trial_num","null","<p class=block-text>Trial 70 out of 78</p>","null","","","","","","","","","","","","","","","","","","","","","","","","","",""
"","","","","","image-keyboard-response","285","882931","0.0-3.0-7.0-1.30","5c6ee20c0506a200015c4275","E1","batch5","pattern_response","761.9000000059605","stim/no_62_1_w.png","j","pattern_36","j","true","","","","761.9000000059605","true","39","","","","","","","","","","","","","","","","",""
"","","","","","html-keyboard-response","286","884246","0.0-3.0-7.0-0.31","5c6ee20c0506a200015c4275","E1","batch5","pattern_show_trial_num","null","<p class=block-text>Trial 71 out of 78</p>","null","","","","","","","","","","","","","","","","","","","","","","","","","",""
"","","","","","image-keyboard-response","287","884842","0.0-3.0-7.0-1.31","5c6ee20c0506a200015c4275","E1","batch5","pattern_response","594.1000000089407","stim/yes_28_ver_b1.png","f","pattern_51","f","true","","","","594.1000000089407","true","40","","","","","","","","","","","","","","","","",""
"","","","","","html-keyboard-response","288","886155","0.0-3.0-7.0-0.32","5c6ee20c0506a200015c4275","E1","batch5","pattern_show_trial_num","null","<p class=block-text>Trial 72 out of 78</p>","null","","","","","","","","","","","","","","","","","","","","","","","","","",""
"","","","","","image-keyboard-response","289","887034","0.0-3.0-7.0-1.32","5c6ee20c0506a200015c4275","E1","batch5","pattern_response","878","stim/no_38_1_b.png","f","pattern_20","j","false","","","","878","false","40","","","","","","","","","","","","","","","","",""
"","","","","","html-keyboard-response","290","888343","0.0-3.0-7.0-0.33","5c6ee20c0506a200015c4275","E1","batch5","pattern_show_trial_num","null","<p class=block-text>Trial 73 out of 78</p>","null","","","","","","","","","","","","","","","","","","","","","","","","","",""
"","","","","","image-keyboard-response","291","889315","0.0-3.0-7.0-1.33","5c6ee20c0506a200015c4275","E1","batch5","pattern_response","969.0999999940395","stim/no_20_1_w.png","j","pattern_06","j","true","","","","969.0999999940395","true","41","","","","","","","","","","","","","","","","",""
"","","","","","html-keyboard-response","292","890626","0.0-3.0-7.0-0.34","5c6ee20c0506a200015c4275","E1","batch5","pattern_show_trial_num","null","<p class=block-text>Trial 74 out of 78</p>","null","","","","","","","","","","","","","","","","","","","","","","","","","",""
"","","","","","image-keyboard-response","293","891368","0.0-3.0-7.0-1.34","5c6ee20c0506a200015c4275","E1","batch5","pattern_response","740.5","stim/no_32_1_w.png","j","pattern_14","j","true","","","","740.5","true","42","","","","","","","","","","","","","","","","",""
"","","","","","html-keyboard-response","294","892675","0.0-3.0-7.0-0.35","5c6ee20c0506a200015c4275","E1","batch5","pattern_show_trial_num","null","<p class=block-text>Trial 75 out of 78</p>","null","","","","","","","","","","","","","","","","","","","","","","","","","",""
"","","","","","image-keyboard-response","295","893254","0.0-3.0-7.0-1.35","5c6ee20c0506a200015c4275","E1","batch5","pattern_response","578.7000000029802","stim/yes_67_hor_b1.png","f","pattern_79","f","true","","","","578.7000000029802","true","43","","","","","","","","","","","","","","","","",""
"","","","","","html-keyboard-response","296","894572","0.0-3.0-7.0-0.36","5c6ee20c0506a200015c4275","E1","batch5","pattern_show_trial_num","null","<p class=block-text>Trial 76 out of 78</p>","null","","","","","","","","","","","","","","","","","","","","","","","","","",""
"","","","","","image-keyboard-response","297","895216","0.0-3.0-7.0-1.36","5c6ee20c0506a200015c4275","E1","batch5","pattern_response","642.9000000059605","stim/no_13_2_b.png","j","pattern_02","j","true","","","","642.9000000059605","true","44","","","","","","","","","","","","","","","","",""
"","","","","","html-keyboard-response","298","896530","0.0-3.0-7.0-0.37","5c6ee20c0506a200015c4275","E1","batch5","pattern_show_trial_num","null","<p class=block-text>Trial 77 out of 78</p>","null","","","","","","","","","","","","","","","","","","","","","","","","","",""
"","","","","","image-keyboard-response","299","897250","0.0-3.0-7.0-1.37","5c6ee20c0506a200015c4275","E1","batch5","pattern_response","719.5999999940395","stim/yes_22_ver_w1.png","f","pattern_47","f","true","","","","719.5999999940395","true","45","","","","","","","","","","","","","","","","",""
"","","","","","html-keyboard-response","300","898566","0.0-3.0-7.0-0.38","5c6ee20c0506a200015c4275","E1","batch5","pattern_show_trial_num","null","<p class=block-text>Trial 78 out of 78</p>","null","","","","","","","","","","","","","","","","","","","","","","","","","",""
"","","","","","image-keyboard-response","301","899231","0.0-3.0-7.0-1.38","5c6ee20c0506a200015c4275","E1","batch5","pattern_response","664.2000000029802","stim/no_26_1_w.png","j","pattern_10","j","true","","","","664.2000000029802","true","46","","","","","","","","","","","","","","","","",""
"","","","","","html-button-response","302","904043","0.0-3.0-8.0","5c6ee20c0506a200015c4275","E1","batch5","","4296.399999991059","<p class = block-text>This concludes the 4-in-a-row detection game.Thank you for your responses!<br>
            You responded correctly on 59% of the trials.<br>
            When you are ready, press ""Continue"" button to continue </p>","0","","","","","","","","","","","","","","","","","","","","","","","","","",""
"true","","","","","fullscreen","303","907315","0.0-4.0-0.0","5c6ee20c0506a200015c4275","E1","batch5","","","","","","","","","","","","","","","","","","","","","","","","","","","","","",""
"","","","","","instructions","304","945671","0.0-4.0-1.0-0.0-0.0","5c6ee20c0506a200015c4275","E1","batch5","tol-instructions","38355.70000000298","","","","","","","","[{""page_index"":0,""viewing_time"":11153.90000000596},{""page_index"":1,""viewing_time"":3997.3999999910593},{""page_index"":2,""viewing_time"":2888.2000000029802},{""page_index"":3,""viewing_time"":6357.5999999940395},{""page_index"":4,""viewing_time"":4031.300000011921},{""page_index"":5,""viewing_time"":5428.199999988079},{""page_index"":6,""viewing_time"":4498.800000011921}]","","","","","","","","","","","","","","","","","","","",""
"","","","","","html-button-response","305","953898","0.0-4.0-1.0-1.0-0.0","5c6ee20c0506a200015c4275","E1","batch5","tol_enter_quiz","8226.20000000298","<p class=block-text> Let's answer a few questions <br>","0","","","","","","","","","","","","","","","","","","","","","","","","","",""
"","","","","","html-button-response","306","958537","0.0-4.0-1.0-1.0-1.0","5c6ee20c0506a200015c4275","E1","batch5","tol_quiz","4638.29999999702","<p class = block-text>True or False: You can only move the ball on top of a peg. <br></p>","0","","","true","","","","","","","","","","","","","","","","","","","","","","",""
"","","","","","html-button-response","307","962047","0.0-4.0-1.0-1.0-2.0","5c6ee20c0506a200015c4275","E1","batch5","tol_quiz_feedback","3509","<p class = block-text>Correct! You can only move the ball on top of a peg.</p>","0","","","","","","","","","","","","","","","","","","","","","","","","","",""
"","","","","","html-button-response","308","965734","0.0-4.0-1.0-1.0-3.0","5c6ee20c0506a200015c4275","E1","batch5","tol_quiz","3686.2000000029802","<p class = block-text>True or False: You should try to match your board with the target board with fewest moves possible. <br></p>","0","","","true","","","","","","","","","","","","","","","","","","","","","","",""
"","","","","","html-button-response","309","966566","0.0-4.0-1.0-1.0-4.0","5c6ee20c0506a200015c4275","E1","batch5","tol_quiz_feedback","831.5999999940395","<p class = block-text>Correct! </p>","0","","","","","","","","","","","","","","","","","","","","","","","","","",""
"","","","","","html-button-response","310","968821","0.0-4.0-2.0","5c6ee20c0506a200015c4275","E1","batch5","","2253.9000000059605","<p class=block-text> Now that you've understood the game, let's practice a few easier examples before we start!<br> <br>","0","","","","","","","","","","","","","","","","","","","","","","","","","",""
"","","","","","single-stim-button","311","971639","0.0-4.0-3.0-0.0","5c6ee20c0506a200015c4275","E1","batch5","tol_practice","2817","","","","","","","","","","","","","","tol_peg_2","2817","2817","0","[[1,2,0],[0,0],[0]]","1","[[1,2,0],[0,0],[3]]","practice","2817","","","","","",""
"","","","","","single-stim-button","312","973243","0.0-4.0-3.0-1.0","5c6ee20c0506a200015c4275","E1","batch5","tol_practice","1604","","","","","","","","","","","","","","tol_peg_3","1604","1604","0","[[1,2,0],[0,0],[3]]","1","[[1,2,0],[0,0],[3]]","practice","1604","","","","","",""
"","","","","","poldrack-single-stim","313","974253","0.0-4.0-4.0","5c6ee20c0506a200015c4275","E1","batch5","tol_feedback","-1","","","","","true","","","","","","","","","","1000","1000","500","","","","","","-1","none","true","","0",""
"","","","","","single-stim-button","314","978004","0.0-4.0-5.0-0.0","5c6ee20c0506a200015c4275","E1","batch5","tol_practice","3750","","","","","","","","","","","","","","tol_peg_1","3750","3750","0","[[1,0,0],[3,0],[0]]","2","[[0,0,0],[3,1],[2]]","practice","3750","","","","","",""
"","","","","","single-stim-button","315","980252","0.0-4.0-5.0-1.0","5c6ee20c0506a200015c4275","E1","batch5","tol_practice","2246","","","","","","","","","","","","","","tol_peg_3","2246","2246","0","[[1,0,0],[3,0],[2]]","2","[[0,0,0],[3,1],[2]]","practice","2246","","","","","",""
"","","","","","single-stim-button","316","981138","0.0-4.0-5.1-0.1","5c6ee20c0506a200015c4275","E1","batch5","tol_practice","885","","","","","","","","","","","","","","tol_peg_1","885","885","0","[[0,0,0],[3,0],[2]]","3","[[0,0,0],[3,1],[2]]","practice","885","","","","","",""
"","","","","","single-stim-button","317","982057","0.0-4.0-5.1-1.1","5c6ee20c0506a200015c4275","E1","batch5","tol_practice","918","","","","","","","","","","","","","","tol_peg_2","918","918","0","[[0,0,0],[3,1],[2]]","3","[[0,0,0],[3,1],[2]]","practice","918","","","","","",""
"","","","","","poldrack-single-stim","318","983058","0.0-4.0-6.0","5c6ee20c0506a200015c4275","E1","batch5","tol_feedback","-1","","","","","true","","","","","","","","","","1000","1000","500","","","","","","-1","none","true","","0",""
"","","","","","single-stim-button","319","986098","0.0-4.0-7.0-0.0","5c6ee20c0506a200015c4275","E1","batch5","tol_practice","3038","","","","","","","","","","","","","","tol_peg_2","3038","3038","0","[[1,2,0],[0,0],[0]]","4","[[1,0,0],[2,0],[3]]","practice","3038","","","","","",""
"","","","","","single-stim-button","320","987481","0.0-4.0-7.0-1.0","5c6ee20c0506a200015c4275","E1","batch5","tol_practice","1383","","","","","","","","","","","","","","tol_peg_3","1383","1383","0","[[1,2,0],[0,0],[3]]","4","[[1,0,0],[2,0],[3]]","practice","1383","","","","","",""
"","","","","","single-stim-button","321","988531","0.0-4.0-7.1-0.1","5c6ee20c0506a200015c4275","E1","batch5","tol_practice","1050","","","","","","","","","","","","","","tol_peg_1","1050","1050","0","[[1,0,0],[0,0],[3]]","5","[[1,0,0],[2,0],[3]]","practice","1050","","","","","",""
"","","","","","single-stim-button","322","989335","0.0-4.0-7.1-1.1","5c6ee20c0506a200015c4275","E1","batch5","tol_practice","803","","","","","","","","","","","","","","tol_peg_2","803","803","0","[[1,0,0],[2,0],[3]]","5","[[1,0,0],[2,0],[3]]","practice","803","","","","","",""
"","","","","","poldrack-single-stim","323","990341","0.0-4.0-8.0","5c6ee20c0506a200015c4275","E1","batch5","tol_feedback","-1","","","","","true","","","","","","","","","","1000","1000","500","","","","","","-1","none","true","","0",""
"","","","","","html-button-response","324","994207","0.0-4.0-9.0","5c6ee20c0506a200015c4275","E1","batch5","tol_instruction","3865.6000000089407","<div class = centerbox><p class = center-block-text>Great job! You are done with practice trials<br>You are about to start official trials.<br> <br> Problem <strong>1</strong> out of 25 problems</p></div>","0","","","","","","","","","","","","","","","","","","","","","","","","","",""
"","","","","","single-stim-button","325","998411","0.0-4.0-10.0-0.0","5c6ee20c0506a200015c4275","E1","batch5","tol_tohand","3193","","","","","","","","","","","","","","tol_peg_2","3193","3193","0","[[1,2,0],[0,0],[0]]","1","[[1,3,0],[2,0],[0]]","0","0","","","","","","3"
"","","","","","single-stim-button","326","999464","0.0-4.0-10.0-1.0","5c6ee20c0506a200015c4275","E1","batch5","tol_toboard","1052","","","","","","","","","","","","","","tol_peg_1","1052","1052","0","[[1,2,3],[0,0],[0]]","1","[[1,3,0],[2,0],[0]]","0","0","","","","","","3"
"","","","","","single-stim-button","327","1001893","0.0-4.0-10.1-0.1","5c6ee20c0506a200015c4275","E1","batch5","tol_tohand","2429","","","","","","","","","","","","","","tol_peg_1","2429","2429","0","[[1,2,0],[0,0],[0]]","2","[[1,3,0],[2,0],[0]]","0","0","","","","","","3"
"","","","","","single-stim-button","328","1002983","0.0-4.0-10.1-1.1","5c6ee20c0506a200015c4275","E1","batch5","tol_toboard","1090","","","","","","","","","","","","","","tol_peg_3","1090","1090","0","[[1,2,0],[0,0],[3]]","2","[[1,3,0],[2,0],[0]]","0","0","","","","","","3"
"","","","","","single-stim-button","329","1003796","0.0-4.0-10.2-0.2","5c6ee20c0506a200015c4275","E1","batch5","tol_tohand","812","","","","","","","","","","","","","","tol_peg_1","812","812","0","[[1,0,0],[0,0],[3]]","3","[[1,3,0],[2,0],[0]]","0","0","","","","","","3"
"","","","","","single-stim-button","330","1004559","0.0-4.0-10.2-1.2","5c6ee20c0506a200015c4275","E1","batch5","tol_toboard","762","","","","","","","","","","","","","","tol_peg_2","762","762","0","[[1,0,0],[2,0],[3]]","3","[[1,3,0],[2,0],[0]]","0","0","","","","","","3"
"","","","","","single-stim-button","331","1005244","0.0-4.0-10.3-0.3","5c6ee20c0506a200015c4275","E1","batch5","tol_tohand","683","","","","","","","","","","","","","","tol_peg_3","683","683","0","[[1,0,0],[2,0],[0]]","4","[[1,3,0],[2,0],[0]]","0","0","","","","","","3"
"","","","","","single-stim-button","332","1006049","0.0-4.0-10.3-1.3","5c6ee20c0506a200015c4275","E1","batch5","tol_toboard","805","","","","","","","","","","","","","","tol_peg_1","805","805","0","[[1,3,0],[2,0],[0]]","4","[[1,3,0],[2,0],[0]]","0","0","","","","","","3"
"","","","","","poldrack-single-stim","333","1007053","0.0-4.0-11.0","5c6ee20c0506a200015c4275","E1","batch5","tol_feedback","-1","","","","","true","","","","","","","","","","1000","1000","500","","","","","","-1","none","true","3193","7117",""
"","","","","","html-button-response","334","1008404","0.0-4.0-12.0","5c6ee20c0506a200015c4275","E1","batch5","tol_trial_num","1349.2999999970198","<div class = centerbox><p class = center-block-text>problem <strong>2</strong> out of 25 problems</p></div>","0","","","","","","","","","","","","","","","","","","","","","","","","","",""
"","","","","","single-stim-button","335","1014426","0.0-4.0-13.0-0.0","5c6ee20c0506a200015c4275","E1","batch5","tol_tohand","6021","","","","","","","","","","","","","","tol_peg_1","6021","6021","0","[[1,0,0],[3,0],[0]]","1","[[2,1,3],[0,0],[0]]","1","0","","","","","","5"
"","","","","","single-stim-button","336","1015761","0.0-4.0-13.0-1.0","5c6ee20c0506a200015c4275","E1","batch5","tol_toboard","1334","","","","","","","","","","","","","","tol_peg_3","1334","1334","0","[[1,0,0],[3,0],[2]]","1","[[2,1,3],[0,0],[0]]","1","0","","","","","","5"
"","","","","","single-stim-button","337","1022296","0.0-4.0-13.1-0.1","5c6ee20c0506a200015c4275","E1","batch5","tol_tohand","6535","","","","","","","","","","","","","","tol_peg_3","6535","6535","0","[[1,0,0],[3,0],[0]]","2","[[2,1,3],[0,0],[0]]","1","0","","","","","","5"
"","","","","","single-stim-button","338","1024381","0.0-4.0-13.1-1.1","5c6ee20c0506a200015c4275","E1","batch5","tol_toboard","2084","","","","","","","","","","","","","","tol_peg_1","2084","2084","0","[[1,2,0],[3,0],[0]]","2","[[2,1,3],[0,0],[0]]","1","0","","","","","","5"
"","","","","","single-stim-button","339","1024949","0.0-4.0-13.2-0.2","5c6ee20c0506a200015c4275","E1","batch5","tol_tohand","567","","","","","","","","","","","","","","tol_peg_2","567","567","0","[[1,2,0],[0,0],[0]]","3","[[2,1,3],[0,0],[0]]","1","0","","","","","","5"
"","","","","","single-stim-button","340","1026269","0.0-4.0-13.2-1.2","5c6ee20c0506a200015c4275","E1","batch5","tol_toboard","1320","","","","","","","","","","","","","","tol_peg_3","1320","1320","0","[[1,2,0],[0,0],[3]]","3","[[2,1,3],[0,0],[0]]","1","0","","","","","","5"
"","","","","","single-stim-button","341","1027755","0.0-4.0-13.3-0.3","5c6ee20c0506a200015c4275","E1","batch5","tol_tohand","1486","","","","","","","","","","","","","","tol_peg_1","1486","1486","0","[[1,0,0],[0,0],[3]]","4","[[2,1,3],[0,0],[0]]","1","0","","","","","","5"
"","","","","","single-stim-button","342","1031551","0.0-4.0-13.3-1.3","5c6ee20c0506a200015c4275","E1","batch5","tol_toboard","3795","","","","","","","","","","","","","","tol_peg_2","3795","3795","0","[[1,0,0],[2,0],[3]]","4","[[2,1,3],[0,0],[0]]","1","0","","","","","","5"
"","","","","","single-stim-button","343","1039784","0.0-4.0-13.4-0.4","5c6ee20c0506a200015c4275","E1","batch5","tol_tohand","8232","","","","","","","","","","","","","","tol_peg_1","8232","8232","0","[[0,0,0],[2,0],[3]]","5","[[2,1,3],[0,0],[0]]","1","0","","","","","","5"
"","","","","","single-stim-button","344","1043417","0.0-4.0-13.4-1.4","5c6ee20c0506a200015c4275","E1","batch5","tol_toboard","3633","","","","","","","","","","","","","","tol_peg_2","3633","3633","0","[[0,0,0],[2,1],[3]]","5","[[2,1,3],[0,0],[0]]","1","0","","","","","","5"
"","","","","","single-stim-button","345","1044462","0.0-4.0-13.5-0.5","5c6ee20c0506a200015c4275","E1","batch5","tol_tohand","1043","","","","","","","","","","","","","","tol_peg_2","1043","1043","0","[[0,0,0],[2,0],[3]]","6","[[2,1,3],[0,0],[0]]","1","0","","","","","","5"
"","","","","","single-stim-button","346","1048755","0.0-4.0-13.5-1.5","5c6ee20c0506a200015c4275","E1","batch5","tol_toboard","4293","","","","","","","","","","","","","","tol_peg_1","4293","4293","0","[[1,0,0],[2,0],[3]]","6","[[2,1,3],[0,0],[0]]","1","0","","","","","","5"
"","","","","","single-stim-button","347","1050799","0.0-4.0-13.6-0.6","5c6ee20c0506a200015c4275","E1","batch5","tol_tohand","2043","","","","","","","","","","","","","","tol_peg_3","2043","2043","0","[[1,0,0],[2,0],[0]]","7","[[2,1,3],[0,0],[0]]","1","0","","","","","","5"
