"success","timeout","failed_images","failed_audio","failed_video","trial_type","trial_index","time_elapsed","internal_node_id","subject_id","study_id","session_id","task","rt","stimulus","response","item","answer","correct","spm_correct","spm_rt","view_history","fiar_detect_rt","fiar_detect_correct","total_correct_fiar_detect","post_trial_gap","choices","mouse_click","stim_duration","block_duration","timing_post_trial","current_position","tol_num_moves_made","tol_target","tol_problem_id","tol_rt","key_press","possible_responses","tol_correct","preplanning","tol_rt_per_trial","tol_min_moves"
"true","false","[]","[]","[]","preload","0","768","0.0-0.0","5c71b63c4aa8ec0001f2bfc4","A3","batch1","","","","","","","","","","","","","","","","","","","","","","","","","","","","","",""
"true","","","","","fullscreen","1","8641","0.0-1.0-0.0","5c71b63c4aa8ec0001f2bfc4","A3","batch1","","","","","","","","","","","","","","","","","","","","","","","","","","","","","",""
"true","","","","","fullscreen","2","11610","0.0-2.0-0.0","5c71b63c4aa8ec0001f2bfc4","A3","batch1","spm_fullscreen","","","","","","","","","","","","","","","","","","","","","","","","","","","","",""
"","","","","","html-button-response","3","15405","0.0-2.0-1.0","5c71b63c4aa8ec0001f2bfc4","A3","batch1","","3792.699999988079","<p class = block-text><b>Instructions</b> <br>This is a widely used intelligence test in research. <br>In this test, a figure with a missing piece will be presented.<br>Below the figure are alternative pieces to complete the figure, only one of which is correct.<br> Different figures might involve different principles for obtaining the missing piece<br>Your job is to select the most logical piece to complete the figure.</p>","0","","","","","","","","","","","","","","","","","","","","","","","","","",""
"","","","","","html-keyboard-response","4","16210","0.0-2.0-2.0-0.0","5c71b63c4aa8ec0001f2bfc4","A3","batch1","spm_show_trial_num","null","<p class=block-text>Trial 1 out of 60</p>","null","","","","","","","","","","","","","","","","","","","","","","","","","",""
"","","","","","image-button-response","5","39846","0.0-2.0-2.0-1.0","5c71b63c4aa8ec0001f2bfc4","A3","batch1","spm_respsonse","23615.90000000596","img/question_1_1.jpeg","3","mat_01","4","1","1","23615.90000000596","","","","","","","","","","","","","","","","","","","","",""
"","","","","","html-keyboard-response","6","40914","0.0-2.0-2.0-0.1","5c71b63c4aa8ec0001f2bfc4","A3","batch1","spm_show_trial_num","null","<p class=block-text>Trial 2 out of 60</p>","null","","","","","","","","","","","","","","","","","","","","","","","","","",""
"","","","","","image-button-response","7","45919","0.0-2.0-2.0-1.1","5c71b63c4aa8ec0001f2bfc4","A3","batch1","spm_respsonse","5001.9000000059605","img/question_1_2.jpeg","4","mat_02","5","1","1","5001.9000000059605","","","","","","","","","","","","","","","","","","","","",""
"","","","","","html-keyboard-response","8","46986","0.0-2.0-2.0-0.2","5c71b63c4aa8ec0001f2bfc4","A3","batch1","spm_show_trial_num","null","<p class=block-text>Trial 3 out of 60</p>","null","","","","","","","","","","","","","","","","","","","","","","","","","",""
"","","","","","image-button-response","9","52767","0.0-2.0-2.0-1.2","5c71b63c4aa8ec0001f2bfc4","A3","batch1","spm_respsonse","5778.300000011921","img/question_1_3.jpeg","0","mat_03","1","1","1","5778.300000011921","","","","","","","","","","","","","","","","","","","","",""
"","","","","","html-keyboard-response","10","53834","0.0-2.0-2.0-0.3","5c71b63c4aa8ec0001f2bfc4","A3","batch1","spm_show_trial_num","null","<p class=block-text>Trial 4 out of 60</p>","null","","","","","","","","","","","","","","","","","","","","","","","","","",""
"","","","","","image-button-response","11","57381","0.0-2.0-2.0-1.3","5c71b63c4aa8ec0001f2bfc4","A3","batch1","spm_respsonse","3544.2999999821186","img/question_1_4.jpeg","1","mat_04","2","1","1","3544.2999999821186","","","","","","","","","","","","","","","","","","","","",""
"","","","","","html-keyboard-response","12","58442","0.0-2.0-2.0-0.4","5c71b63c4aa8ec0001f2bfc4","A3","batch1","spm_show_trial_num","null","<p class=block-text>Trial 5 out of 60</p>","null","","","","","","","","","","","","","","","","","","","","","","","","","",""
"","","","","","image-button-response","13","63393","0.0-2.0-2.0-1.4","5c71b63c4aa8ec0001f2bfc4","A3","batch1","spm_respsonse","4947.9000000059605","img/question_1_5.jpeg","5","mat_05","6","1","1","4947.9000000059605","","","","","","","","","","","","","","","","","","","","",""
"","","","","","html-keyboard-response","14","64457","0.0-2.0-2.0-0.5","5c71b63c4aa8ec0001f2bfc4","A3","batch1","spm_show_trial_num","null","<p class=block-text>Trial 6 out of 60</p>","null","","","","","","","","","","","","","","","","","","","","","","","","","",""
"","","","","","image-button-response","15","68243","0.0-2.0-2.0-1.5","5c71b63c4aa8ec0001f2bfc4","A3","batch1","spm_respsonse","3784.0999999940395","img/question_1_6.jpeg","2","mat_06","3","1","1","3784.0999999940395","","","","","","","","","","","","","","","","","","","","",""
"","","","","","html-keyboard-response","16","69307","0.0-2.0-2.0-0.6","5c71b63c4aa8ec0001f2bfc4","A3","batch1","spm_show_trial_num","null","<p class=block-text>Trial 7 out of 60</p>","null","","","","","","","","","","","","","","","","","","","","","","","","","",""
"","","","","","image-button-response","17","73278","0.0-2.0-2.0-1.6","5c71b63c4aa8ec0001f2bfc4","A3","batch1","spm_respsonse","3968.2999999821186","img/question_1_7.jpeg","5","mat_07","6","1","1","3968.2999999821186","","","","","","","","","","","","","","","","","","","","",""
"","","","","","html-keyboard-response","18","74337","0.0-2.0-2.0-0.7","5c71b63c4aa8ec0001f2bfc4","A3","batch1","spm_show_trial_num","null","<p class=block-text>Trial 8 out of 60</p>","null","","","","","","","","","","","","","","","","","","","","","","","","","",""
"","","","","","image-button-response","19","80764","0.0-2.0-2.0-1.7","5c71b63c4aa8ec0001f2bfc4","A3","batch1","spm_respsonse","6424.9000000059605","img/question_1_8.jpeg","1","mat_08","2","1","1","6424.9000000059605","","","","","","","","","","","","","","","","","","","","",""
"","","","","","html-keyboard-response","20","81826","0.0-2.0-2.0-0.8","5c71b63c4aa8ec0001f2bfc4","A3","batch1","spm_show_trial_num","null","<p class=block-text>Trial 9 out of 60</p>","null","","","","","","","","","","","","","","","","","","","","","","","","","",""
"","","","","","image-button-response","21","86702","0.0-2.0-2.0-1.8","5c71b63c4aa8ec0001f2bfc4","A3","batch1","spm_respsonse","4872.9000000059605","img/question_1_9.jpeg","0","mat_09","1","1","1","4872.9000000059605","","","","","","","","","","","","","","","","","","","","",""
"","","","","","html-keyboard-response","22","87761","0.0-2.0-2.0-0.9","5c71b63c4aa8ec0001f2bfc4","A3","batch1","spm_show_trial_num","null","<p class=block-text>Trial 10 out of 60</p>","null","","","","","","","","","","","","","","","","","","","","","","","","","",""
"","","","","","image-button-response","23","97618","0.0-2.0-2.0-1.9","5c71b63c4aa8ec0001f2bfc4","A3","batch1","spm_respsonse","9855.09999999404","img/question_1_10.jpeg","2","mat_10","3","1","1","9855.09999999404","","","","","","","","","","","","","","","","","","","","",""
"","","","","","html-keyboard-response","24","98682","0.0-2.0-2.0-0.10","5c71b63c4aa8ec0001f2bfc4","A3","batch1","spm_show_trial_num","null","<p class=block-text>Trial 11 out of 60</p>","null","","","","","","","","","","","","","","","","","","","","","","","","","",""
"","","","","","image-button-response","25","117448","0.0-2.0-2.0-1.10","5c71b63c4aa8ec0001f2bfc4","A3","batch1","spm_respsonse","18763","img/question_1_11.jpeg","3","mat_11","4","1","1","18763","","","","","","","","","","","","","","","","","","","","",""
"","","","","","html-keyboard-response","26","118515","0.0-2.0-2.0-0.11","5c71b63c4aa8ec0001f2bfc4","A3","batch1","spm_show_trial_num","null","<p class=block-text>Trial 12 out of 60</p>","null","","","","","","","","","","","","","","","","","","","","","","","","","",""
"","","","","","image-button-response","27","132951","0.0-2.0-2.0-1.11","5c71b63c4aa8ec0001f2bfc4","A3","batch1","spm_respsonse","14433.300000011921","img/question_1_12.jpeg","4","mat_12","5","1","1","14433.300000011921","","","","","","","","","","","","","","","","","","","","",""
"","","","","","html-keyboard-response","28","134010","0.0-2.0-2.0-0.12","5c71b63c4aa8ec0001f2bfc4","A3","batch1","spm_show_trial_num","null","<p class=block-text>Trial 13 out of 60</p>","null","","","","","","","","","","","","","","","","","","","","","","","","","",""
"","","","","","image-button-response","29","138516","0.0-2.0-2.0-1.12","5c71b63c4aa8ec0001f2bfc4","A3","batch1","spm_respsonse","4504.4000000059605","img/question_2_1.jpeg","1","mat_13","2","1","1","4504.4000000059605","","","","","","","","","","","","","","","","","","","","",""
"","","","","","html-keyboard-response","30","139578","0.0-2.0-2.0-0.13","5c71b63c4aa8ec0001f2bfc4","A3","batch1","spm_show_trial_num","null","<p class=block-text>Trial 14 out of 60</p>","null","","","","","","","","","","","","","","","","","","","","","","","","","",""
"","","","","","image-button-response","31","143111","0.0-2.0-2.0-1.13","5c71b63c4aa8ec0001f2bfc4","A3","batch1","spm_respsonse","3530.300000011921","img/question_2_2.jpeg","5","mat_14","6","1","1","3530.300000011921","","","","","","","","","","","","","","","","","","","","",""
"","","","","","html-keyboard-response","32","144178","0.0-2.0-2.0-0.14","5c71b63c4aa8ec0001f2bfc4","A3","batch1","spm_show_trial_num","null","<p class=block-text>Trial 15 out of 60</p>","null","","","","","","","","","","","","","","","","","","","","","","","","","",""
"","","","","","image-button-response","33","146944","0.0-2.0-2.0-1.14","5c71b63c4aa8ec0001f2bfc4","A3","batch1","spm_respsonse","2765.2999999821186","img/question_2_3.jpeg","0","mat_15","1","1","1","2765.2999999821186","","","","","","","","","","","","","","","","","","","","",""
"","","","","","html-keyboard-response","34","148010","0.0-2.0-2.0-0.15","5c71b63c4aa8ec0001f2bfc4","A3","batch1","spm_show_trial_num","null","<p class=block-text>Trial 16 out of 60</p>","null","","","","","","","","","","","","","","","","","","","","","","","","","",""
"","","","","","image-button-response","35","151280","0.0-2.0-2.0-1.15","5c71b63c4aa8ec0001f2bfc4","A3","batch1","spm_respsonse","3265.9000000059605","img/question_2_4.jpeg","1","mat_16","2","1","1","3265.9000000059605","","","","","","","","","","","","","","","","","","","","",""
"","","","","","html-keyboard-response","36","152347","0.0-2.0-2.0-0.16","5c71b63c4aa8ec0001f2bfc4","A3","batch1","spm_show_trial_num","null","<p class=block-text>Trial 17 out of 60</p>","null","","","","","","","","","","","","","","","","","","","","","","","","","",""
"","","","","","image-button-response","37","158611","0.0-2.0-2.0-1.16","5c71b63c4aa8ec0001f2bfc4","A3","batch1","spm_respsonse","6261.100000023842","img/question_2_5.jpeg","0","mat_17","1","1","1","6261.100000023842","","","","","","","","","","","","","","","","","","","","",""
"","","","","","html-keyboard-response","38","159674","0.0-2.0-2.0-0.17","5c71b63c4aa8ec0001f2bfc4","A3","batch1","spm_show_trial_num","null","<p class=block-text>Trial 18 out of 60</p>","null","","","","","","","","","","","","","","","","","","","","","","","","","",""
"","","","","","image-button-response","39","163434","0.0-2.0-2.0-1.17","5c71b63c4aa8ec0001f2bfc4","A3","batch1","spm_respsonse","3757","img/question_2_6.jpeg","2","mat_18","3","1","1","3757","","","","","","","","","","","","","","","","","","","","",""
"","","","","","html-keyboard-response","40","164498","0.0-2.0-2.0-0.18","5c71b63c4aa8ec0001f2bfc4","A3","batch1","spm_show_trial_num","null","<p class=block-text>Trial 19 out of 60</p>","null","","","","","","","","","","","","","","","","","","","","","","","","","",""
"","","","","","image-button-response","41","169035","0.0-2.0-2.0-1.18","5c71b63c4aa8ec0001f2bfc4","A3","batch1","spm_respsonse","4534.5999999940395","img/question_2_7.jpeg","4","mat_19","5","1","1","4534.5999999940395","","","","","","","","","","","","","","","","","","","","",""
"","","","","","html-keyboard-response","42","170099","0.0-2.0-2.0-0.19","5c71b63c4aa8ec0001f2bfc4","A3","batch1","spm_show_trial_num","null","<p class=block-text>Trial 20 out of 60</p>","null","","","","","","","","","","","","","","","","","","","","","","","","","",""
"","","","","","image-button-response","43","176088","0.0-2.0-2.0-1.19","5c71b63c4aa8ec0001f2bfc4","A3","batch1","spm_respsonse","5986.800000011921","img/question_2_8.jpeg","5","mat_20","6","1","1","5986.800000011921","","","","","","","","","","","","","","","","","","","","",""
"","","","","","html-keyboard-response","44","177154","0.0-2.0-2.0-0.20","5c71b63c4aa8ec0001f2bfc4","A3","batch1","spm_show_trial_num","null","<p class=block-text>Trial 21 out of 60</p>","null","","","","","","","","","","","","","","","","","","","","","","","","","",""
"","","","","","image-button-response","45","180431","0.0-2.0-2.0-1.20","5c71b63c4aa8ec0001f2bfc4","A3","batch1","spm_respsonse","3275.9000000059605","img/question_2_9.jpeg","3","mat_21","4","1","1","3275.9000000059605","","","","","","","","","","","","","","","","","","","","",""
"","","","","","html-keyboard-response","46","181498","0.0-2.0-2.0-0.21","5c71b63c4aa8ec0001f2bfc4","A3","batch1","spm_show_trial_num","null","<p class=block-text>Trial 22 out of 60</p>","null","","","","","","","","","","","","","","","","","","","","","","","","","",""
"","","","","","image-button-response","47","189124","0.0-2.0-2.0-1.21","5c71b63c4aa8ec0001f2bfc4","A3","batch1","spm_respsonse","7623.800000011921","img/question_2_10.jpeg","2","mat_22","3","1","1","7623.800000011921","","","","","","","","","","","","","","","","","","","","",""
"","","","","","html-keyboard-response","48","190187","0.0-2.0-2.0-0.22","5c71b63c4aa8ec0001f2bfc4","A3","batch1","spm_show_trial_num","null","<p class=block-text>Trial 23 out of 60</p>","null","","","","","","","","","","","","","","","","","","","","","","","","","",""
"","","","","","image-button-response","49","195252","0.0-2.0-2.0-1.22","5c71b63c4aa8ec0001f2bfc4","A3","batch1","spm_respsonse","5062.299999982119","img/question_2_11.jpeg","3","mat_23","4","1","1","5062.299999982119","","","","","","","","","","","","","","","","","","","","",""
"","","","","","html-keyboard-response","50","196315","0.0-2.0-2.0-0.23","5c71b63c4aa8ec0001f2bfc4","A3","batch1","spm_show_trial_num","null","<p class=block-text>Trial 24 out of 60</p>","null","","","","","","","","","","","","","","","","","","","","","","","","","",""
"","","","","","image-button-response","51","202142","0.0-2.0-2.0-1.23","5c71b63c4aa8ec0001f2bfc4","A3","batch1","spm_respsonse","5824.5999999940395","img/question_2_12.jpeg","4","mat_24","5","1","1","5824.5999999940395","","","","","","","","","","","","","","","","","","","","",""
"","","","","","html-button-response","52","203823","0.0-2.0-3.0","5c71b63c4aa8ec0001f2bfc4","A3","batch1","attention_check","1425.7000000178814","<p class = block-text>Attention check: Please choose 1<br></p>","0","","","true","","","","","","","","","","","","","","","","","","","","","","",""
"","","","","","html-keyboard-response","53","204627","0.0-2.0-4.0-0.0","5c71b63c4aa8ec0001f2bfc4","A3","batch1","spm_show_trial_num","null","<p class=block-text>Trial 25 out of 60</p>","null","","","","","","","","","","","","","","","","","","","","","","","","","",""
"","","","","","image-button-response","54","211294","0.0-2.0-4.0-1.0","5c71b63c4aa8ec0001f2bfc4","A3","batch1","spm_respsonse","6664.199999988079","img/question_3_1.jpeg","7","mat_25","8","1","1","6664.199999988079","","","","","","","","","","","","","","","","","","","","",""
"","","","","","html-keyboard-response","55","212356","0.0-2.0-4.0-0.1","5c71b63c4aa8ec0001f2bfc4","A3","batch1","spm_show_trial_num","null","<p class=block-text>Trial 26 out of 60</p>","null","","","","","","","","","","","","","","","","","","","","","","","","","",""
"","","","","","image-button-response","56","232367","0.0-2.0-4.0-1.1","5c71b63c4aa8ec0001f2bfc4","A3","batch1","spm_respsonse","20008.40000000596","img/question_3_2.jpeg","1","mat_26","2","1","1","20008.40000000596","","","","","","","","","","","","","","","","","","","","",""
"","","","","","html-keyboard-response","57","233426","0.0-2.0-4.0-0.2","5c71b63c4aa8ec0001f2bfc4","A3","batch1","spm_show_trial_num","null","<p class=block-text>Trial 27 out of 60</p>","null","","","","","","","","","","","","","","","","","","","","","","","","","",""
"","","","","","image-button-response","58","241813","0.0-2.0-4.0-1.2","5c71b63c4aa8ec0001f2bfc4","A3","batch1","spm_respsonse","8384.300000011921","img/question_3_3.jpeg","2","mat_27","3","1","1","8384.300000011921","","","","","","","","","","","","","","","","","","","","",""
"","","","","","html-keyboard-response","59","242875","0.0-2.0-4.0-0.3","5c71b63c4aa8ec0001f2bfc4","A3","batch1","spm_show_trial_num","null","<p class=block-text>Trial 28 out of 60</p>","null","","","","","","","","","","","","","","","","","","","","","","","","","",""
"","","","","","image-button-response","60","251159","0.0-2.0-4.0-1.3","5c71b63c4aa8ec0001f2bfc4","A3","batch1","spm_respsonse","8280.799999982119","img/question_3_4.jpeg","7","mat_28","8","1","1","8280.799999982119","","","","","","","","","","","","","","","","","","","","",""
"","","","","","html-keyboard-response","61","252218","0.0-2.0-4.0-0.4","5c71b63c4aa8ec0001f2bfc4","A3","batch1","spm_show_trial_num","null","<p class=block-text>Trial 29 out of 60</p>","null","","","","","","","","","","","","","","","","","","","","","","","","","",""
"","","","","","image-button-response","62","260812","0.0-2.0-4.0-1.4","5c71b63c4aa8ec0001f2bfc4","A3","batch1","spm_respsonse","8592.59999999404","img/question_3_5.jpeg","6","mat_29","7","1","1","8592.59999999404","","","","","","","","","","","","","","","","","","","","",""
"","","","","","html-keyboard-response","63","261876","0.0-2.0-4.0-0.5","5c71b63c4aa8ec0001f2bfc4","A3","batch1","spm_show_trial_num","null","<p class=block-text>Trial 30 out of 60</p>","null","","","","","","","","","","","","","","","","","","","","","","","","","",""
"","","","","","image-button-response","64","268532","0.0-2.0-4.0-1.5","5c71b63c4aa8ec0001f2bfc4","A3","batch1","spm_respsonse","6654.0999999940395","img/question_3_6.jpeg","3","mat_30","4","1","1","6654.0999999940395","","","","","","","","","","","","","","","","","","","","",""
"","","","","","html-keyboard-response","65","269589","0.0-2.0-4.0-0.6","5c71b63c4aa8ec0001f2bfc4","A3","batch1","spm_show_trial_num","null","<p class=block-text>Trial 31 out of 60</p>","null","","","","","","","","","","","","","","","","","","","","","","","","","",""
"","","","","","image-button-response","66","274151","0.0-2.0-4.0-1.6","5c71b63c4aa8ec0001f2bfc4","A3","batch1","spm_respsonse","4560.299999982119","img/question_3_7.jpeg","4","mat_31","5","1","1","4560.299999982119","","","","","","","","","","","","","","","","","","","","",""
"","","","","","html-keyboard-response","67","275220","0.0-2.0-4.0-0.7","5c71b63c4aa8ec0001f2bfc4","A3","batch1","spm_show_trial_num","null","<p class=block-text>Trial 32 out of 60</p>","null","","","","","","","","","","","","","","","","","","","","","","","","","",""
"","","","","","image-button-response","68","284856","0.0-2.0-4.0-1.7","5c71b63c4aa8ec0001f2bfc4","A3","batch1","spm_respsonse","9633.600000023842","img/question_3_8.jpeg","0","mat_32","1","1","1","9633.600000023842","","","","","","","","","","","","","","","","","","","","",""
"","","","","","html-keyboard-response","69","285924","0.0-2.0-4.0-0.8","5c71b63c4aa8ec0001f2bfc4","A3","batch1","spm_show_trial_num","null","<p class=block-text>Trial 33 out of 60</p>","null","","","","","","","","","","","","","","","","","","","","","","","","","",""
"","","","","","image-button-response","70","291895","0.0-2.0-4.0-1.8","5c71b63c4aa8ec0001f2bfc4","A3","batch1","spm_respsonse","5969.0999999940395","img/question_3_9.jpeg","6","mat_33","7","1","1","5969.0999999940395","","","","","","","","","","","","","","","","","","","","",""
"","","","","","html-keyboard-response","71","292955","0.0-2.0-4.0-0.9","5c71b63c4aa8ec0001f2bfc4","A3","batch1","spm_show_trial_num","null","<p class=block-text>Trial 34 out of 60</p>","null","","","","","","","","","","","","","","","","","","","","","","","","","",""
"","","","","","image-button-response","72","308246","0.0-2.0-4.0-1.9","5c71b63c4aa8ec0001f2bfc4","A3","batch1","spm_respsonse","15289.600000023842","img/question_3_10.jpeg","5","mat_34","6","1","1","15289.600000023842","","","","","","","","","","","","","","","","","","","","",""
"","","","","","html-keyboard-response","73","309308","0.0-2.0-4.0-0.10","5c71b63c4aa8ec0001f2bfc4","A3","batch1","spm_show_trial_num","null","<p class=block-text>Trial 35 out of 60</p>","null","","","","","","","","","","","","","","","","","","","","","","","","","",""
"","","","","","image-button-response","74","324931","0.0-2.0-4.0-1.10","5c71b63c4aa8ec0001f2bfc4","A3","batch1","spm_respsonse","15621.09999999404","img/question_3_11.jpeg","0","mat_35","1","1","1","15621.09999999404","","","","","","","","","","","","","","","","","","","","",""
"","","","","","html-keyboard-response","75","325994","0.0-2.0-4.0-0.11","5c71b63c4aa8ec0001f2bfc4","A3","batch1","spm_show_trial_num","null","<p class=block-text>Trial 36 out of 60</p>","null","","","","","","","","","","","","","","","","","","","","","","","","","",""
"","","","","","image-button-response","76","340157","0.0-2.0-4.0-1.11","5c71b63c4aa8ec0001f2bfc4","A3","batch1","spm_respsonse","14161","img/question_3_12.jpeg","1","mat_36","2","1","1","14161","","","","","","","","","","","","","","","","","","","","",""
"","","","","","html-keyboard-response","77","341220","0.0-2.0-4.0-0.12","5c71b63c4aa8ec0001f2bfc4","A3","batch1","spm_show_trial_num","null","<p class=block-text>Trial 37 out of 60</p>","null","","","","","","","","","","","","","","","","","","","","","","","","","",""
"","","","","","image-button-response","78","344168","0.0-2.0-4.0-1.12","5c71b63c4aa8ec0001f2bfc4","A3","batch1","spm_respsonse","2946.199999988079","img/question_4_1.jpeg","2","mat_37","3","1","1","2946.199999988079","","","","","","","","","","","","","","","","","","","","",""
"","","","","","html-keyboard-response","79","345228","0.0-2.0-4.0-0.13","5c71b63c4aa8ec0001f2bfc4","A3","batch1","spm_show_trial_num","null","<p class=block-text>Trial 38 out of 60</p>","null","","","","","","","","","","","","","","","","","","","","","","","","","",""
"","","","","","image-button-response","80","351330","0.0-2.0-4.0-1.13","5c71b63c4aa8ec0001f2bfc4","A3","batch1","spm_respsonse","6100.0999999940395","img/question_4_2.jpeg","3","mat_38","4","1","1","6100.0999999940395","","","","","","","","","","","","","","","","","","","","",""
"","","","","","html-keyboard-response","81","352394","0.0-2.0-4.0-0.14","5c71b63c4aa8ec0001f2bfc4","A3","batch1","spm_show_trial_num","null","<p class=block-text>Trial 39 out of 60</p>","null","","","","","","","","","","","","","","","","","","","","","","","","","",""
"","","","","","image-button-response","82","359319","0.0-2.0-4.0-1.14","5c71b63c4aa8ec0001f2bfc4","A3","batch1","spm_respsonse","6923","img/question_4_3.jpeg","2","mat_39","3","1","1","6923","","","","","","","","","","","","","","","","","","","","",""
"","","","","","html-keyboard-response","83","360380","0.0-2.0-4.0-0.15","5c71b63c4aa8ec0001f2bfc4","A3","batch1","spm_show_trial_num","null","<p class=block-text>Trial 40 out of 60</p>","null","","","","","","","","","","","","","","","","","","","","","","","","","",""
"","","","","","image-button-response","84","366315","0.0-2.0-4.0-1.15","5c71b63c4aa8ec0001f2bfc4","A3","batch1","spm_respsonse","5932.700000017881","img/question_4_4.jpeg","6","mat_40","7","1","1","5932.700000017881","","","","","","","","","","","","","","","","","","","","",""
"","","","","","html-keyboard-response","85","367380","0.0-2.0-4.0-0.16","5c71b63c4aa8ec0001f2bfc4","A3","batch1","spm_show_trial_num","null","<p class=block-text>Trial 41 out of 60</p>","null","","","","","","","","","","","","","","","","","","","","","","","","","",""
"","","","","","image-button-response","86","374341","0.0-2.0-4.0-1.16","5c71b63c4aa8ec0001f2bfc4","A3","batch1","spm_respsonse","6958.4000000059605","img/question_4_5.jpeg","7","mat_41","8","1","1","6958.4000000059605","","","","","","","","","","","","","","","","","","","","",""
"","","","","","html-keyboard-response","87","375403","0.0-2.0-4.0-0.17","5c71b63c4aa8ec0001f2bfc4","A3","batch1","spm_show_trial_num","null","<p class=block-text>Trial 42 out of 60</p>","null","","","","","","","","","","","","","","","","","","","","","","","","","",""
"","","","","","image-button-response","88","398929","0.0-2.0-4.0-1.17","5c71b63c4aa8ec0001f2bfc4","A3","batch1","spm_respsonse","23523.90000000596","img/question_4_6.jpeg","5","mat_42","6","1","1","23523.90000000596","","","","","","","","","","","","","","","","","","","","",""
"","","","","","html-keyboard-response","89","399995","0.0-2.0-4.0-0.18","5c71b63c4aa8ec0001f2bfc4","A3","batch1","spm_show_trial_num","null","<p class=block-text>Trial 43 out of 60</p>","null","","","","","","","","","","","","","","","","","","","","","","","","","",""
"","","","","","image-button-response","90","414278","0.0-2.0-4.0-1.18","5c71b63c4aa8ec0001f2bfc4","A3","batch1","spm_respsonse","14281.5","img/question_4_7.jpeg","4","mat_43","5","1","1","14281.5","","","","","","","","","","","","","","","","","","","","",""
"","","","","","html-keyboard-response","91","415340","0.0-2.0-4.0-0.19","5c71b63c4aa8ec0001f2bfc4","A3","batch1","spm_show_trial_num","null","<p class=block-text>Trial 44 out of 60</p>","null","","","","","","","","","","","","","","","","","","","","","","","","","",""
"","","","","","image-button-response","92","440608","0.0-2.0-4.0-1.19","5c71b63c4aa8ec0001f2bfc4","A3","batch1","spm_respsonse","25265.40000000596","img/question_4_8.jpeg","3","mat_44","4","1","1","25265.40000000596","","","","","","","","","","","","","","","","","","","","",""
"","","","","","html-keyboard-response","93","441669","0.0-2.0-4.0-0.20","5c71b63c4aa8ec0001f2bfc4","A3","batch1","spm_show_trial_num","null","<p class=block-text>Trial 45 out of 60</p>","null","","","","","","","","","","","","","","","","","","","","","","","","","",""
"","","","","","image-button-response","94","457392","0.0-2.0-4.0-1.20","5c71b63c4aa8ec0001f2bfc4","A3","batch1","spm_respsonse","15720.299999982119","img/question_4_9.jpeg","0","mat_45","1","1","1","15720.299999982119","","","","","","","","","","","","","","","","","","","","",""
"","","","","","html-keyboard-response","95","458451","0.0-2.0-4.0-0.21","5c71b63c4aa8ec0001f2bfc4","A3","batch1","spm_show_trial_num","null","<p class=block-text>Trial 46 out of 60</p>","null","","","","","","","","","","","","","","","","","","","","","","","","","",""
"","","","","","image-button-response","96","493485","0.0-2.0-4.0-1.21","5c71b63c4aa8ec0001f2bfc4","A3","batch1","spm_respsonse","35031","img/question_4_10.jpeg","1","mat_46","2","1","1","35031","","","","","","","","","","","","","","","","","","","","",""
"","","","","","html-keyboard-response","97","494552","0.0-2.0-4.0-0.22","5c71b63c4aa8ec0001f2bfc4","A3","batch1","spm_show_trial_num","null","<p class=block-text>Trial 47 out of 60</p>","null","","","","","","","","","","","","","","","","","","","","","","","","","",""
"","","","","","image-button-response","98","515117","0.0-2.0-4.0-1.22","5c71b63c4aa8ec0001f2bfc4","A3","batch1","spm_respsonse","20563.40000000596","img/question_4_11.jpeg","4","mat_47","5","1","1","20563.40000000596","","","","","","","","","","","","","","","","","","","","",""
"","","","","","html-keyboard-response","99","516181","0.0-2.0-4.0-0.23","5c71b63c4aa8ec0001f2bfc4","A3","batch1","spm_show_trial_num","null","<p class=block-text>Trial 48 out of 60</p>","null","","","","","","","","","","","","","","","","","","","","","","","","","",""
"","","","","","image-button-response","100","542283","0.0-2.0-4.0-1.23","5c71b63c4aa8ec0001f2bfc4","A3","batch1","spm_respsonse","26100","img/question_4_12.jpeg","4","mat_48","6","0","0","26100","","","","","","","","","","","","","","","","","","","","",""
"","","","","","html-keyboard-response","101","543349","0.0-2.0-4.0-0.24","5c71b63c4aa8ec0001f2bfc4","A3","batch1","spm_show_trial_num","null","<p class=block-text>Trial 49 out of 60</p>","null","","","","","","","","","","","","","","","","","","","","","","","","","",""
"","","","","","image-button-response","102","549123","0.0-2.0-4.0-1.24","5c71b63c4aa8ec0001f2bfc4","A3","batch1","spm_respsonse","5770.799999982119","img/question_5_1.jpeg","6","mat_49","7","1","1","5770.799999982119","","","","","","","","","","","","","","","","","","","","",""
"","","","","","html-keyboard-response","103","550188","0.0-2.0-4.0-0.25","5c71b63c4aa8ec0001f2bfc4","A3","batch1","spm_show_trial_num","null","<p class=block-text>Trial 50 out of 60</p>","null","","","","","","","","","","","","","","","","","","","","","","","","","",""
"","","","","","image-button-response","104","567304","0.0-2.0-4.0-1.25","5c71b63c4aa8ec0001f2bfc4","A3","batch1","spm_respsonse","17113.59999999404","img/question_5_2.jpeg","5","mat_50","6","1","1","17113.59999999404","","","","","","","","","","","","","","","","","","","","",""
"","","","","","html-keyboard-response","105","568364","0.0-2.0-4.0-0.26","5c71b63c4aa8ec0001f2bfc4","A3","batch1","spm_show_trial_num","null","<p class=block-text>Trial 51 out of 60</p>","null","","","","","","","","","","","","","","","","","","","","","","","","","",""
"","","","","","image-button-response","106","576306","0.0-2.0-4.0-1.26","5c71b63c4aa8ec0001f2bfc4","A3","batch1","spm_respsonse","7939.5999999940395","img/question_5_3.jpeg","7","mat_51","8","1","1","7939.5999999940395","","","","","","","","","","","","","","","","","","","","",""
"","","","","","html-keyboard-response","107","577373","0.0-2.0-4.0-0.27","5c71b63c4aa8ec0001f2bfc4","A3","batch1","spm_show_trial_num","null","<p class=block-text>Trial 52 out of 60</p>","null","","","","","","","","","","","","","","","","","","","","","","","","","",""
"","","","","","image-button-response","108","596570","0.0-2.0-4.0-1.27","5c71b63c4aa8ec0001f2bfc4","A3","batch1","spm_respsonse","19193.69999998808","img/question_5_4.jpeg","1","mat_52","2","1","1","19193.69999998808","","","","","","","","","","","","","","","","","","","","",""
"","","","","","html-keyboard-response","109","597637","0.0-2.0-4.0-0.28","5c71b63c4aa8ec0001f2bfc4","A3","batch1","spm_show_trial_num","null","<p class=block-text>Trial 53 out of 60</p>","null","","","","","","","","","","","","","","","","","","","","","","","","","",""
"","","","","","image-button-response","110","602435","0.0-2.0-4.0-1.28","5c71b63c4aa8ec0001f2bfc4","A3","batch1","spm_respsonse","4795.0999999940395","img/question_5_5.jpeg","0","mat_53","1","1","1","4795.0999999940395","","","","","","","","","","","","","","","","","","","","",""
"","","","","","html-keyboard-response","111","603500","0.0-2.0-4.0-0.29","5c71b63c4aa8ec0001f2bfc4","A3","batch1","spm_show_trial_num","null","<p class=block-text>Trial 54 out of 60</p>","null","","","","","","","","","","","","","","","","","","","","","","","","","",""
"","","","","","image-button-response","112","616471","0.0-2.0-4.0-1.29","5c71b63c4aa8ec0001f2bfc4","A3","batch1","spm_respsonse","12968.40000000596","img/question_5_6.jpeg","4","mat_54","5","1","1","12968.40000000596","","","","","","","","","","","","","","","","","","","","",""
"","","","","","html-keyboard-response","113","617532","0.0-2.0-4.0-0.30","5c71b63c4aa8ec0001f2bfc4","A3","batch1","spm_show_trial_num","null","<p class=block-text>Trial 55 out of 60</p>","null","","","","","","","","","","","","","","","","","","","","","","","","","",""
"","","","","","image-button-response","114","640329","0.0-2.0-4.0-1.30","5c71b63c4aa8ec0001f2bfc4","A3","batch1","spm_respsonse","22793.90000000596","img/question_5_7.jpeg","0","mat_55","1","1","1","22793.90000000596","","","","","","","","","","","","","","","","","","","","",""
"","","","","","html-keyboard-response","115","641388","0.0-2.0-4.0-0.31","5c71b63c4aa8ec0001f2bfc4","A3","batch1","spm_show_trial_num","null","<p class=block-text>Trial 56 out of 60</p>","null","","","","","","","","","","","","","","","","","","","","","","","","","",""
"","","","","","image-button-response","116","657245","0.0-2.0-4.0-1.31","5c71b63c4aa8ec0001f2bfc4","A3","batch1","spm_respsonse","15854","img/question_5_8.jpeg","5","mat_56","6","1","1","15854","","","","","","","","","","","","","","","","","","","","",""
"","","","","","html-keyboard-response","117","658308","0.0-2.0-4.0-0.32","5c71b63c4aa8ec0001f2bfc4","A3","batch1","spm_show_trial_num","null","<p class=block-text>Trial 57 out of 60</p>","null","","","","","","","","","","","","","","","","","","","","","","","","","",""
"","","","","","image-button-response","118","673670","0.0-2.0-4.0-1.32","5c71b63c4aa8ec0001f2bfc4","A3","batch1","spm_respsonse","15358.899999976158","img/question_5_9.jpeg","2","mat_57","3","1","1","15358.899999976158","","","","","","","","","","","","","","","","","","","","",""
"","","","","","html-keyboard-response","119","674734","0.0-2.0-4.0-0.33","5c71b63c4aa8ec0001f2bfc4","A3","batch1","spm_show_trial_num","null","<p class=block-text>Trial 58 out of 60</p>","null","","","","","","","","","","","","","","","","","","","","","","","","","",""
"","","","","","image-button-response","120","701186","0.0-2.0-4.0-1.33","5c71b63c4aa8ec0001f2bfc4","A3","batch1","spm_respsonse","26449.70000001788","img/question_5_10.jpeg","1","mat_58","2","1","1","26449.70000001788","","","","","","","","","","","","","","","","","","","","",""
"","","","","","html-keyboard-response","121","702253","0.0-2.0-4.0-0.34","5c71b63c4aa8ec0001f2bfc4","A3","batch1","spm_show_trial_num","null","<p class=block-text>Trial 59 out of 60</p>","null","","","","","","","","","","","","","","","","","","","","","","","","","",""
"","","","","","image-button-response","122","719694","0.0-2.0-4.0-1.34","5c71b63c4aa8ec0001f2bfc4","A3","batch1","spm_respsonse","17438.70000001788","img/question_5_11.jpeg","3","mat_59","4","1","1","17438.70000001788","","","","","","","","","","","","","","","","","","","","",""
"","","","","","html-keyboard-response","123","720757","0.0-2.0-4.0-0.35","5c71b63c4aa8ec0001f2bfc4","A3","batch1","spm_show_trial_num","null","<p class=block-text>Trial 60 out of 60</p>","null","","","","","","","","","","","","","","","","","","","","","","","","","",""
"","","","","","image-button-response","124","737377","0.0-2.0-4.0-1.35","5c71b63c4aa8ec0001f2bfc4","A3","batch1","spm_respsonse","16618.69999998808","img/question_5_12.jpeg","4","mat_60","5","1","1","16618.69999998808","","","","","","","","","","","","","","","","","","","","",""
"","","","","","html-button-response","125","738880","0.0-2.0-5.0","5c71b63c4aa8ec0001f2bfc4","A3","batch1","spm_goodbye","1247.800000011921","<p class= block-text>This concludes the Standard Progressive Matrix game. Thank you for your responses!<br> When you are ready, click the button continue</p>","0","","","","","","","","","","","","","","","","","","","","","","","","","",""
"true","","","","","fullscreen","126","745150","0.0-3.0-0.0","5c71b63c4aa8ec0001f2bfc4","A3","batch1","","","","","","","","","","","","","","","","","","","","","","","","","","","","","",""
"","","","","","instructions","127","753145","0.0-3.0-1.0-0.0","5c71b63c4aa8ec0001f2bfc4","A3","batch1","","7992.9000000059605","","","","","","","","[{""page_index"":0,""viewing_time"":4747.699999988079},{""page_index"":1,""viewing_time"":3244.7000000178814}]","","","","","","","","","","","","","","","","","","","",""
"","","","","","html-button-response","128","755253","0.0-3.0-1.0-1.0-0.0","5c71b63c4aa8ec0001f2bfc4","A3","batch1","pattern_enter_quiz","2107.100000023842","<p class=block-text> Let's answer a few questions <br>","0","","","","","","","","","","","","","","","","","","","","","","","","","",""
"","","","","","html-button-response","129","756832","0.0-3.0-1.0-1.0-1.0","5c71b63c4aa8ec0001f2bfc4","A3","batch1","pattern_quiz","1577.3999999761581","<p class = block-text>True or False: You will have as much time as you want to make each choice. <br></p>","1","","","true","","","","","","","","","","","","","","","","","","","","","","",""
"","","","","","html-button-response","130","758235","0.0-3.0-1.0-1.0-2.0","5c71b63c4aa8ec0001f2bfc4","A3","batch1","pattern_quiz_feedback","1401","<p class = block-text>Correct! You should make your choice <strong> as fast as you can</strong>.</p>","0","","","","","","","","","","","","","","","","","","","","","","","","","",""
"","","","","","html-button-response","131","760682","0.0-3.0-1.0-1.0-3.0","5c71b63c4aa8ec0001f2bfc4","A3","batch1","pattern_quiz","2444.7000000178814","<p class = block-text>True or False: You will look for 4 pieces in black or white color connected in a row either horizontally, vertically or diagonally. <br></p>","0","","","true","","","","","","","","","","","","","","","","","","","","","","",""
"","","","","","html-button-response","132","761421","0.0-3.0-1.0-1.0-4.0","5c71b63c4aa8ec0001f2bfc4","A3","batch1","pattern_quiz_feedback","737.9000000059605","<p class = block-text>Correct! </p>","0","","","","","","","","","","","","","","","","","","","","","","","","","",""
"","","","","","html-button-response","133","762494","0.0-3.0-2.0","5c71b63c4aa8ec0001f2bfc4","A3","batch1","pattern_enter_practice","1070.5","<p class=block-text> Now that you've understood the game, let's do a few practice trials before we start!<br> <br>","0","","","","","","","","","","","","","","","","","","","","","","","","","",""
"","","","","","image-keyboard-response","134","764096","0.0-3.0-3.0-0.0","5c71b63c4aa8ec0001f2bfc4","A3","batch1","pattern_practice","1599.199999988079","stim/prac_yes_20_dia_b1.png","f","","f","true","","","","","","","","","","","","","","","","","","","","","","",""
"","","","","","html-keyboard-response","135","765101","0.0-3.0-3.0-1.0","5c71b63c4aa8ec0001f2bfc4","A3","batch1","pattern_feedback","null","<p style=""font-size:30px;color:green;"">Correct!</p>","null","","","","","","","","","","","","","","","","","","","","","","","","","",""
"","","","","","image-keyboard-response","136","766117","0.0-3.0-3.0-0.1","5c71b63c4aa8ec0001f2bfc4","A3","batch1","pattern_practice","1014","stim/prac_yes_16_ver_w1.png","f","","f","true","","","","","","","","","","","","","","","","","","","","","","",""
"","","","","","html-keyboard-response","137","767126","0.0-3.0-3.0-1.1","5c71b63c4aa8ec0001f2bfc4","A3","batch1","pattern_feedback","null","<p style=""font-size:30px;color:green;"">Correct!</p>","null","","","","","","","","","","","","","","","","","","","","","","","","","",""
"","","","","","image-keyboard-response","138","768815","0.0-3.0-3.0-0.2","5c71b63c4aa8ec0001f2bfc4","A3","batch1","pattern_practice","1688.300000011921","stim/prac_no_16_1.png","j","","j","true","","","","","","","","","","","","","","","","","","","","","","",""
"","","","","","html-keyboard-response","139","769821","0.0-3.0-3.0-1.2","5c71b63c4aa8ec0001f2bfc4","A3","batch1","pattern_feedback","null","<p style=""font-size:30px;color:green;"">Correct!</p>","null","","","","","","","","","","","","","","","","","","","","","","","","","",""
"","","","","","image-keyboard-response","140","770777","0.0-3.0-3.0-0.3","5c71b63c4aa8ec0001f2bfc4","A3","batch1","pattern_practice","953.7999999821186","stim/prac_no_18_1.png","j","","j","true","","","","","","","","","","","","","","","","","","","","","","",""
"","","","","","html-keyboard-response","141","771782","0.0-3.0-3.0-1.3","5c71b63c4aa8ec0001f2bfc4","A3","batch1","pattern_feedback","null","<p style=""font-size:30px;color:green;"">Correct!</p>","null","","","","","","","","","","","","","","","","","","","","","","","","","",""
"","","","","","image-keyboard-response","142","772427","0.0-3.0-3.0-0.4","5c71b63c4aa8ec0001f2bfc4","A3","batch1","pattern_practice","644.0999999940395","stim/prac_yes_18_hor_w1.png","f","","f","true","","","","","","","","","","","","","","","","","","","","","","",""
"","","","","","html-keyboard-response","143","773437","0.0-3.0-3.0-1.4","5c71b63c4aa8ec0001f2bfc4","A3","batch1","pattern_feedback","null","<p style=""font-size:30px;color:green;"">Correct!</p>","null","","","","","","","","","","","","","","","","","","","","","","","","","",""
"","","","","","html-button-response","144","781259","0.0-3.0-4.0","5c71b63c4aa8ec0001f2bfc4","A3","batch1","pattern_enter_official_trials","7819.699999988079","<p class=block-text> Good job! You are done with practice trials!<br>
        You responded correctly on 100% of the trials.<br>
        Press the button below to start official trials. Now you won't see any feedback about your response</p>","0","","","","","","","","","","","","","","","","","","","","","","","","","",""
"","","","","","html-keyboard-response","145","782061","0.0-3.0-5.0-0.0","5c71b63c4aa8ec0001f2bfc4","A3","batch1","pattern_show_trial_num","null","<p class=block-text>Trial 1 out of 78</p>","null","","","","","","","","","","","","","","","","","","","","","","","","","",""
"","","","","","image-keyboard-response","146","789386","0.0-3.0-5.0-1.0","5c71b63c4aa8ec0001f2bfc4","A3","batch1","pattern_response","7323.199999988079","stim/yes_58_dia_w1_w.png","f","pattern_76","f","true","","","","7323.199999988079","true","1","","","","","","","","","","","","","","","","",""
"","","","","","html-keyboard-response","147","790701","0.0-3.0-5.0-0.1","5c71b63c4aa8ec0001f2bfc4","A3","batch1","pattern_show_trial_num","null","<p class=block-text>Trial 2 out of 78</p>","null","","","","","","","","","","","","","","","","","","","","","","","","","",""
"","","","","","image-keyboard-response","148","793248","0.0-3.0-5.0-1.1","5c71b63c4aa8ec0001f2bfc4","A3","batch1","pattern_response","2544.4000000059605","stim/no_33_1_b.png","j","pattern_15","j","true","","","","2544.4000000059605","true","2","","","","","","","","","","","","","","","","",""
"","","","","","html-keyboard-response","149","794558","0.0-3.0-5.0-0.2","5c71b63c4aa8ec0001f2bfc4","A3","batch1","pattern_show_trial_num","null","<p class=block-text>Trial 3 out of 78</p>","null","","","","","","","","","","","","","","","","","","","","","","","","","",""
"","","","","","image-keyboard-response","150","795369","0.0-3.0-5.0-1.2","5c71b63c4aa8ec0001f2bfc4","A3","batch1","pattern_response","809.5999999940395","stim/yes_29_hor_b1_b.png","f","pattern_52","f","true","","","","809.5999999940395","true","3","","","","","","","","","","","","","","","","",""
"","","","","","html-keyboard-response","151","796686","0.0-3.0-5.0-0.3","5c71b63c4aa8ec0001f2bfc4","A3","batch1","pattern_show_trial_num","null","<p class=block-text>Trial 4 out of 78</p>","null","","","","","","","","","","","","","","","","","","","","","","","","","",""
"","","","","","image-keyboard-response","152","797654","0.0-3.0-5.0-1.3","5c71b63c4aa8ec0001f2bfc4","A3","batch1","pattern_response","967.6999999880791","stim/yes_46_ver_b1_b.png","f","pattern_68","f","true","","","","967.6999999880791","true","4","","","","","","","","","","","","","","","","",""
"","","","","","html-keyboard-response","153","798965","0.0-3.0-5.0-0.4","5c71b63c4aa8ec0001f2bfc4","A3","batch1","pattern_show_trial_num","null","<p class=block-text>Trial 5 out of 78</p>","null","","","","","","","","","","","","","","","","","","","","","","","","","",""
"","","","","","image-keyboard-response","154","800233","0.0-3.0-5.0-1.4","5c71b63c4aa8ec0001f2bfc4","A3","batch1","pattern_response","1267.199999988079","stim/yes_26_dia_w2_w.png","f","pattern_50","f","true","","","","1267.199999988079","true","5","","","","","","","","","","","","","","","","",""
"","","","","","html-keyboard-response","155","801549","0.0-3.0-5.0-0.5","5c71b63c4aa8ec0001f2bfc4","A3","batch1","pattern_show_trial_num","null","<p class=block-text>Trial 6 out of 78</p>","null","","","","","","","","","","","","","","","","","","","","","","","","","",""
"","","","","","image-keyboard-response","156","810143","0.0-3.0-5.0-1.5","5c71b63c4aa8ec0001f2bfc4","A3","batch1","pattern_response","8591.90000000596","stim/no_58_1_w.png","j","pattern_35","j","true","","","","8591.90000000596","true","6","","","","","","","","","","","","","","","","",""
"","","","","","html-keyboard-response","157","811455","0.0-3.0-5.0-0.6","5c71b63c4aa8ec0001f2bfc4","A3","batch1","pattern_show_trial_num","null","<p class=block-text>Trial 7 out of 78</p>","null","","","","","","","","","","","","","","","","","","","","","","","","","",""
"","","","","","image-keyboard-response","158","818619","0.0-3.0-5.0-1.6","5c71b63c4aa8ec0001f2bfc4","A3","batch1","pattern_response","7162.5","stim/no_67_1.png","j","pattern_39","j","true","","","","7162.5","true","7","","","","","","","","","","","","","","","","",""
"","","","","","html-keyboard-response","159","819935","0.0-3.0-5.0-0.7","5c71b63c4aa8ec0001f2bfc4","A3","batch1","pattern_show_trial_num","null","<p class=block-text>Trial 8 out of 78</p>","null","","","","","","","","","","","","","","","","","","","","","","","","","",""
"","","","","","image-keyboard-response","160","824272","0.0-3.0-5.0-1.7","5c71b63c4aa8ec0001f2bfc4","A3","batch1","pattern_response","4335.100000023842","stim/no_22_1_b.png","j","pattern_07","j","true","","","","4335.100000023842","true","8","","","","","","","","","","","","","","","","",""
"","","","","","html-keyboard-response","161","825583","0.0-3.0-5.0-0.8","5c71b63c4aa8ec0001f2bfc4","A3","batch1","pattern_show_trial_num","null","<p class=block-text>Trial 9 out of 78</p>","null","","","","","","","","","","","","","","","","","","","","","","","","","",""
"","","","","","image-keyboard-response","162","828331","0.0-3.0-5.0-1.8","5c71b63c4aa8ec0001f2bfc4","A3","batch1","pattern_response","2746.300000011921","stim/yes_51_dia_b1.png","f","pattern_72","f","true","","","","2746.300000011921","true","9","","","","","","","","","","","","","","","","",""
"","","","","","html-keyboard-response","163","829647","0.0-3.0-5.0-0.9","5c71b63c4aa8ec0001f2bfc4","A3","batch1","pattern_show_trial_num","null","<p class=block-text>Trial 10 out of 78</p>","null","","","","","","","","","","","","","","","","","","","","","","","","","",""
"","","","","","image-keyboard-response","164","830796","0.0-3.0-5.0-1.9","5c71b63c4aa8ec0001f2bfc4","A3","batch1","pattern_response","1147.699999988079","stim/no_12_1.png","j","pattern_01","j","true","","","","1147.699999988079","true","10","","","","","","","","","","","","","","","","",""
"","","","","","html-keyboard-response","165","832111","0.0-3.0-5.0-0.10","5c71b63c4aa8ec0001f2bfc4","A3","batch1","pattern_show_trial_num","null","<p class=block-text>Trial 11 out of 78</p>","null","","","","","","","","","","","","","","","","","","","","","","","","","",""
"","","","","","image-keyboard-response","166","834019","0.0-3.0-5.0-1.10","5c71b63c4aa8ec0001f2bfc4","A3","batch1","pattern_response","1907.2999999821186","stim/yes_53_ver_b1_b.png","f","pattern_74","f","true","","","","1907.2999999821186","true","11","","","","","","","","","","","","","","","","",""
"","","","","","html-keyboard-response","167","835335","0.0-3.0-5.0-0.11","5c71b63c4aa8ec0001f2bfc4","A3","batch1","pattern_show_trial_num","null","<p class=block-text>Trial 12 out of 78</p>","null","","","","","","","","","","","","","","","","","","","","","","","","","",""
"","","","","","image-keyboard-response","168","840420","0.0-3.0-5.0-1.11","5c71b63c4aa8ec0001f2bfc4","A3","batch1","pattern_response","5083.699999988079","stim/no_51_1.png","j","pattern_31","j","true","","","","5083.699999988079","true","12","","","","","","","","","","","","","","","","",""
"","","","","","html-keyboard-response","169","841734","0.0-3.0-5.0-0.12","5c71b63c4aa8ec0001f2bfc4","A3","batch1","pattern_show_trial_num","null","<p class=block-text>Trial 13 out of 78</p>","null","","","","","","","","","","","","","","","","","","","","","","","","","",""
"","","","","","image-keyboard-response","170","847559","0.0-3.0-5.0-1.12","5c71b63c4aa8ec0001f2bfc4","A3","batch1","pattern_response","5823","stim/no_45_1_w.png","j","pattern_25","j","true","","","","5823","true","13","","","","","","","","","","","","","","","","",""
"","","","","","html-keyboard-response","171","848871","0.0-3.0-5.0-0.13","5c71b63c4aa8ec0001f2bfc4","A3","batch1","pattern_show_trial_num","null","<p class=block-text>Trial 14 out of 78</p>","null","","","","","","","","","","","","","","","","","","","","","","","","","",""
"","","","","","image-keyboard-response","172","851486","0.0-3.0-5.0-1.13","5c71b63c4aa8ec0001f2bfc4","A3","batch1","pattern_response","2613.2000000178814","stim/yes_70_ver_b1.png","f","pattern_80","f","true","","","","2613.2000000178814","true","14","","","","","","","","","","","","","","","","",""
"","","","","","html-keyboard-response","173","852798","0.0-3.0-5.0-0.14","5c71b63c4aa8ec0001f2bfc4","A3","batch1","pattern_show_trial_num","null","<p class=block-text>Trial 15 out of 78</p>","null","","","","","","","","","","","","","","","","","","","","","","","","","",""
"","","","","","image-keyboard-response","174","853899","0.0-3.0-5.0-1.14","5c71b63c4aa8ec0001f2bfc4","A3","batch1","pattern_response","1098.699999988079","stim/yes_23_ver_b1.png","f","pattern_48","f","true","","","","1098.699999988079","true","15","","","","","","","","","","","","","","","","",""
"","","","","","html-keyboard-response","175","855215","0.0-3.0-5.0-0.15","5c71b63c4aa8ec0001f2bfc4","A3","batch1","pattern_show_trial_num","null","<p class=block-text>Trial 16 out of 78</p>","null","","","","","","","","","","","","","","","","","","","","","","","","","",""
"","","","","","image-keyboard-response","176","856026","0.0-3.0-5.0-1.15","5c71b63c4aa8ec0001f2bfc4","A3","batch1","pattern_response","810.4000000059605","stim/yes_44_ver_w1_w.png","f","pattern_66","f","true","","","","810.4000000059605","true","16","","","","","","","","","","","","","","","","",""
"","","","","","html-keyboard-response","177","857342","0.0-3.0-5.0-0.16","5c71b63c4aa8ec0001f2bfc4","A3","batch1","pattern_show_trial_num","null","<p class=block-text>Trial 17 out of 78</p>","null","","","","","","","","","","","","","","","","","","","","","","","","","",""
"","","","","","image-keyboard-response","178","861631","0.0-3.0-5.0-1.16","5c71b63c4aa8ec0001f2bfc4","A3","batch1","pattern_response","4287.9000000059605","stim/yes_63_dia_b1.png","f","pattern_78","f","true","","","","4287.9000000059605","true","17","","","","","","","","","","","","","","","","",""
"","","","","","html-keyboard-response","179","862943","0.0-3.0-5.0-0.17","5c71b63c4aa8ec0001f2bfc4","A3","batch1","pattern_show_trial_num","null","<p class=block-text>Trial 18 out of 78</p>","null","","","","","","","","","","","","","","","","","","","","","","","","","",""
"","","","","","image-keyboard-response","180","864510","0.0-3.0-5.0-1.17","5c71b63c4aa8ec0001f2bfc4","A3","batch1","pattern_response","1565.2999999821186","stim/yes_15_dia_b1u_b.png","f","pattern_44","f","true","","","","1565.2999999821186","true","18","","","","","","","","","","","","","","","","",""
"","","","","","html-keyboard-response","181","865823","0.0-3.0-5.0-0.18","5c71b63c4aa8ec0001f2bfc4","A3","batch1","pattern_show_trial_num","null","<p class=block-text>Trial 19 out of 78</p>","null","","","","","","","","","","","","","","","","","","","","","","","","","",""
"","","","","","image-keyboard-response","182","868613","0.0-3.0-5.0-1.18","5c71b63c4aa8ec0001f2bfc4","A3","batch1","pattern_response","2788.5","stim/yes_30_ver_b1_b.png","f","pattern_54","f","true","","","","2788.5","true","19","","","","","","","","","","","","","","","","",""
"","","","","","html-keyboard-response","183","869927","0.0-3.0-5.0-0.19","5c71b63c4aa8ec0001f2bfc4","A3","batch1","pattern_show_trial_num","null","<p class=block-text>Trial 20 out of 78</p>","null","","","","","","","","","","","","","","","","","","","","","","","","","",""
"","","","","","image-keyboard-response","184","875168","0.0-3.0-5.0-1.19","5c71b63c4aa8ec0001f2bfc4","A3","batch1","pattern_response","5238.700000017881","stim/no_47_1_b.png","j","pattern_27","j","true","","","","5238.700000017881","true","20","","","","","","","","","","","","","","","","",""
"","","","","","html-keyboard-response","185","876478","0.0-3.0-5.0-0.20","5c71b63c4aa8ec0001f2bfc4","A3","batch1","pattern_show_trial_num","null","<p class=block-text>Trial 21 out of 78</p>","null","","","","","","","","","","","","","","","","","","","","","","","","","",""
"","","","","","image-keyboard-response","186","879864","0.0-3.0-5.0-1.20","5c71b63c4aa8ec0001f2bfc4","A3","batch1","pattern_response","3383.800000011921","stim/no_36_1_b.png","j","pattern_17","j","true","","","","3383.800000011921","true","21","","","","","","","","","","","","","","","","",""
"","","","","","html-keyboard-response","187","881173","0.0-3.0-5.0-0.21","5c71b63c4aa8ec0001f2bfc4","A3","batch1","pattern_show_trial_num","null","<p class=block-text>Trial 22 out of 78</p>","null","","","","","","","","","","","","","","","","","","","","","","","","","",""
"","","","","","image-keyboard-response","188","882393","0.0-3.0-5.0-1.21","5c71b63c4aa8ec0001f2bfc4","A3","batch1","pattern_response","1217.800000011921","stim/no_15_1_w.png","j","pattern_03","j","true","","","","1217.800000011921","true","22","","","","","","","","","","","","","","","","",""
"","","","","","html-keyboard-response","189","883703","0.0-3.0-5.0-0.22","5c71b63c4aa8ec0001f2bfc4","A3","batch1","pattern_show_trial_num","null","<p class=block-text>Trial 23 out of 78</p>","null","","","","","","","","","","","","","","","","","","","","","","","","","",""
"","","","","","image-keyboard-response","190","885154","0.0-3.0-5.0-1.22","5c71b63c4aa8ec0001f2bfc4","A3","batch1","pattern_response","1449.7000000178814","stim/yes_42_dia_w1_w.png","f","pattern_64","f","true","","","","1449.7000000178814","true","23","","","","","","","","","","","","","","","","",""
"","","","","","html-keyboard-response","191","886471","0.0-3.0-5.0-0.23","5c71b63c4aa8ec0001f2bfc4","A3","batch1","pattern_show_trial_num","null","<p class=block-text>Trial 24 out of 78</p>","null","","","","","","","","","","","","","","","","","","","","","","","","","",""
"","","","","","image-keyboard-response","192","895817","0.0-3.0-5.0-1.23","5c71b63c4aa8ec0001f2bfc4","A3","batch1","pattern_response","9344.299999982119","stim/no_53_1_b.png","j","pattern_33","j","true","","","","9344.299999982119","true","24","","","","","","","","","","","","","","","","",""
"","","","","","html-keyboard-response","193","897127","0.0-3.0-5.0-0.24","5c71b63c4aa8ec0001f2bfc4","A3","batch1","pattern_show_trial_num","null","<p class=block-text>Trial 25 out of 78</p>","null","","","","","","","","","","","","","","","","","","","","","","","","","",""
"","","","","","image-keyboard-response","194","901634","0.0-3.0-5.0-1.24","5c71b63c4aa8ec0001f2bfc4","A3","batch1","pattern_response","4504.9000000059605","stim/no_49_2_b.png","j","pattern_29","j","true","","","","4504.9000000059605","true","25","","","","","","","","","","","","","","","","",""
"","","","","","html-keyboard-response","195","902951","0.0-3.0-5.0-0.25","5c71b63c4aa8ec0001f2bfc4","A3","batch1","pattern_show_trial_num","null","<p class=block-text>Trial 26 out of 78</p>","null","","","","","","","","","","","","","","","","","","","","","","","","","",""
"","","","","","image-keyboard-response","196","905322","0.0-3.0-5.0-1.25","5c71b63c4aa8ec0001f2bfc4","A3","batch1","pattern_response","2369.5","stim/yes_12_hor_w1_w.png","f","pattern_42","f","true","","","","2369.5","true","26","","","","","","","","","","","","","","","","",""
"","","","","","html-keyboard-response","197","906638","0.0-3.0-5.0-0.26","5c71b63c4aa8ec0001f2bfc4","A3","batch1","pattern_show_trial_num","null","<p class=block-text>Trial 27 out of 78</p>","null","","","","","","","","","","","","","","","","","","","","","","","","","",""
"","","","","","image-keyboard-response","198","911108","0.0-3.0-5.0-1.26","5c71b63c4aa8ec0001f2bfc4","A3","batch1","pattern_response","4468.0999999940395","stim/no_43_2_b.png","j","pattern_23","j","true","","","","4468.0999999940395","true","27","","","","","","","","","","","","","","","","",""
"","","","","","html-keyboard-response","199","912423","0.0-3.0-5.0-0.27","5c71b63c4aa8ec0001f2bfc4","A3","batch1","pattern_show_trial_num","null","<p class=block-text>Trial 28 out of 78</p>","null","","","","","","","","","","","","","","","","","","","","","","","","","",""
"","","","","","image-keyboard-response","200","914048","0.0-3.0-5.0-1.27","5c71b63c4aa8ec0001f2bfc4","A3","batch1","pattern_response","1623.0999999940395","stim/yes_33_dia_w1_w.png","f","pattern_56","f","true","","","","1623.0999999940395","true","28","","","","","","","","","","","","","","","","",""
"","","","","","html-keyboard-response","201","915359","0.0-3.0-5.0-0.28","5c71b63c4aa8ec0001f2bfc4","A3","batch1","pattern_show_trial_num","null","<p class=block-text>Trial 29 out of 78</p>","null","","","","","","","","","","","","","","","","","","","","","","","","","",""
"","","","","","image-keyboard-response","202","916234","0.0-3.0-5.0-1.28","5c71b63c4aa8ec0001f2bfc4","A3","batch1","pattern_response","874","stim/yes_36_ver_w1_w.png","f","pattern_58","f","true","","","","874","true","29","","","","","","","","","","","","","","","","",""
"","","","","","html-keyboard-response","203","917551","0.0-3.0-5.0-0.29","5c71b63c4aa8ec0001f2bfc4","A3","batch1","pattern_show_trial_num","null","<p class=block-text>Trial 30 out of 78</p>","null","","","","","","","","","","","","","","","","","","","","","","","","","",""
"","","","","","image-keyboard-response","204","921424","0.0-3.0-5.0-1.29","5c71b63c4aa8ec0001f2bfc4","A3","batch1","pattern_response","3871.7999999821186","stim/no_37_2_w.png","j","pattern_19","j","true","","","","3871.7999999821186","true","30","","","","","","","","","","","","","","","","",""
"","","","","","html-keyboard-response","205","922734","0.0-3.0-5.0-0.30","5c71b63c4aa8ec0001f2bfc4","A3","batch1","pattern_show_trial_num","null","<p class=block-text>Trial 31 out of 78</p>","null","","","","","","","","","","","","","","","","","","","","","","","","","",""
"","","","","","image-keyboard-response","206","926988","0.0-3.0-5.0-1.30","5c71b63c4aa8ec0001f2bfc4","A3","batch1","pattern_response","4252","stim/no_30_1_b.png","j","pattern_13","j","true","","","","4252","true","31","","","","","","","","","","","","","","","","",""
"","","","","","html-keyboard-response","207","928303","0.0-3.0-5.0-0.31","5c71b63c4aa8ec0001f2bfc4","A3","batch1","pattern_show_trial_num","null","<p class=block-text>Trial 32 out of 78</p>","null","","","","","","","","","","","","","","","","","","","","","","","","","",""
"","","","","","image-keyboard-response","208","929845","0.0-3.0-5.0-1.31","5c71b63c4aa8ec0001f2bfc4","A3","batch1","pattern_response","1540.9000000059605","stim/yes_37_hor_w1_w.png","f","pattern_60","f","true","","","","1540.9000000059605","true","32","","","","","","","","","","","","","","","","",""
"","","","","","html-keyboard-response","209","931159","0.0-3.0-5.0-0.32","5c71b63c4aa8ec0001f2bfc4","A3","batch1","pattern_show_trial_num","null","<p class=block-text>Trial 33 out of 78</p>","null","","","","","","","","","","","","","","","","","","","","","","","","","",""
"","","","","","image-keyboard-response","210","932490","0.0-3.0-5.0-1.32","5c71b63c4aa8ec0001f2bfc4","A3","batch1","pattern_response","1329.3999999761581","stim/yes_49_hor_w1_b.png","f","pattern_70","f","true","","","","1329.3999999761581","true","33","","","","","","","","","","","","","","","","",""
"","","","","","html-keyboard-response","211","933807","0.0-3.0-5.0-0.33","5c71b63c4aa8ec0001f2bfc4","A3","batch1","pattern_show_trial_num","null","<p class=block-text>Trial 34 out of 78</p>","null","","","","","","","","","","","","","","","","","","","","","","","","","",""
"","","","","","image-keyboard-response","212","936917","0.0-3.0-5.0-1.33","5c71b63c4aa8ec0001f2bfc4","A3","batch1","pattern_response","3108.9000000059605","stim/no_39_1_w.png","j","pattern_21","j","true","","","","3108.9000000059605","true","34","","","","","","","","","","","","","","","","",""
"","","","","","html-keyboard-response","213","938232","0.0-3.0-5.0-0.34","5c71b63c4aa8ec0001f2bfc4","A3","batch1","pattern_show_trial_num","null","<p class=block-text>Trial 35 out of 78</p>","null","","","","","","","","","","","","","","","","","","","","","","","","","",""
"","","","","","image-keyboard-response","214","941645","0.0-3.0-5.0-1.34","5c71b63c4aa8ec0001f2bfc4","A3","batch1","pattern_response","3411.800000011921","stim/no_28_2.png","j","pattern_11","j","true","","","","3411.800000011921","true","35","","","","","","","","","","","","","","","","",""
"","","","","","html-keyboard-response","215","942958","0.0-3.0-5.0-0.35","5c71b63c4aa8ec0001f2bfc4","A3","batch1","pattern_show_trial_num","null","<p class=block-text>Trial 36 out of 78</p>","null","","","","","","","","","","","","","","","","","","","","","","","","","",""
"","","","","","image-keyboard-response","216","948262","0.0-3.0-5.0-1.35","5c71b63c4aa8ec0001f2bfc4","A3","batch1","pattern_response","5302.4000000059605","stim/no_25_1_b.png","j","pattern_09","j","true","","","","5302.4000000059605","true","36","","","","","","","","","","","","","","","","",""
"","","","","","html-keyboard-response","217","949575","0.0-3.0-5.0-0.36","5c71b63c4aa8ec0001f2bfc4","A3","batch1","pattern_show_trial_num","null","<p class=block-text>Trial 37 out of 78</p>","null","","","","","","","","","","","","","","","","","","","","","","","","","",""
"","","","","","image-keyboard-response","218","950505","0.0-3.0-5.0-1.36","5c71b63c4aa8ec0001f2bfc4","A3","batch1","pattern_response","928.5","stim/yes_39_hor_w1_w.png","f","pattern_62","f","true","","","","928.5","true","37","","","","","","","","","","","","","","","","",""
"","","","","","html-keyboard-response","219","951816","0.0-3.0-5.0-0.37","5c71b63c4aa8ec0001f2bfc4","A3","batch1","pattern_show_trial_num","null","<p class=block-text>Trial 38 out of 78</p>","null","","","","","","","","","","","","","","","","","","","","","","","","","",""
"","","","","","image-keyboard-response","220","952937","0.0-3.0-5.0-1.37","5c71b63c4aa8ec0001f2bfc4","A3","batch1","pattern_response","1120.2000000178814","stim/yes_17_ver_b1_b.png","f","pattern_46","f","true","","","","1120.2000000178814","true","38","","","","","","","","","","","","","","","","",""
"","","","","","html-keyboard-response","221","954248","0.0-3.0-5.0-0.38","5c71b63c4aa8ec0001f2bfc4","A3","batch1","pattern_show_trial_num","null","<p class=block-text>Trial 39 out of 78</p>","null","","","","","","","","","","","","","","","","","","","","","","","","","",""
"","","","","","image-keyboard-response","222","955492","0.0-3.0-5.0-1.38","5c71b63c4aa8ec0001f2bfc4","A3","batch1","pattern_response","1242.9000000059605","stim/no_18_1_b.png","j","pattern_05","j","true","","","","1242.9000000059605","true","39","","","","","","","","","","","","","","","","",""
"","","","","","image-keyboard-response","223","957244","0.0-3.0-6.0","5c71b63c4aa8ec0001f2bfc4","A3","batch1","attention_check","1244.2999999821186","stim/empty_board.png","j","","j","true","","","","","","","500","[""f"",""j""]","","","","","","","","","","","","","","",""
"","","","","","html-keyboard-response","224","958046","0.0-3.0-7.0-0.0","5c71b63c4aa8ec0001f2bfc4","A3","batch1","pattern_show_trial_num","null","<p class=block-text>Trial 40 out of 78</p>","null","","","","","","","","","","","","","","","","","","","","","","","","","",""
"","","","","","image-keyboard-response","225","959620","0.0-3.0-7.0-1.0","5c71b63c4aa8ec0001f2bfc4","A3","batch1","pattern_response","1571.5","stim/yes_45_hor_b2_b.png","f","pattern_67","f","true","","","","1571.5","true","40","","","","","","","","","","","","","","","","",""
"","","","","","html-keyboard-response","226","960935","0.0-3.0-7.0-0.1","5c71b63c4aa8ec0001f2bfc4","A3","batch1","pattern_show_trial_num","null","<p class=block-text>Trial 41 out of 78</p>","null","","","","","","","","","","","","","","","","","","","","","","","","","",""
"","","","","","image-keyboard-response","227","962027","0.0-3.0-7.0-1.1","5c71b63c4aa8ec0001f2bfc4","A3","batch1","pattern_response","1090.199999988079","stim/yes_55_hor_w1_w.png","f","pattern_75","f","true","","","","1090.199999988079","true","41","","","","","","","","","","","","","","","","",""
"","","","","","html-keyboard-response","228","963342","0.0-3.0-7.0-0.2","5c71b63c4aa8ec0001f2bfc4","A3","batch1","pattern_show_trial_num","null","<p class=block-text>Trial 42 out of 78</p>","null","","","","","","","","","","","","","","","","","","","","","","","","","",""
"","","","","","image-keyboard-response","229","965120","0.0-3.0-7.0-1.2","5c71b63c4aa8ec0001f2bfc4","A3","batch1","pattern_response","1777.0999999940395","stim/yes_31_hor_b1.png","f","pattern_55","f","true","","","","1777.0999999940395","true","42","","","","","","","","","","","","","","","","",""
"","","","","","html-keyboard-response","230","966432","0.0-3.0-7.0-0.3","5c71b63c4aa8ec0001f2bfc4","A3","batch1","pattern_show_trial_num","null","<p class=block-text>Trial 43 out of 78</p>","null","","","","","","","","","","","","","","","","","","","","","","","","","",""
"","","","","","image-keyboard-response","231","969356","0.0-3.0-7.0-1.3","5c71b63c4aa8ec0001f2bfc4","A3","batch1","pattern_response","2923.2000000178814","stim/no_29_1_b.png","j","pattern_12","j","true","","","","2923.2000000178814","true","43","","","","","","","","","","","","","","","","",""
"","","","","","html-keyboard-response","232","970672","0.0-3.0-7.0-0.4","5c71b63c4aa8ec0001f2bfc4","A3","batch1","pattern_show_trial_num","null","<p class=block-text>Trial 44 out of 78</p>","null","","","","","","","","","","","","","","","","","","","","","","","","","",""
"","","","","","image-keyboard-response","233","978766","0.0-3.0-7.0-1.4","5c71b63c4aa8ec0001f2bfc4","A3","batch1","pattern_response","8092.200000017881","stim/no_62_1_w.png","j","pattern_36","j","true","","","","8092.200000017881","true","44","","","","","","","","","","","","","","","","",""
"","","","","","html-keyboard-response","234","980080","0.0-3.0-7.0-0.5","5c71b63c4aa8ec0001f2bfc4","A3","batch1","pattern_show_trial_num","null","<p class=block-text>Trial 45 out of 78</p>","null","","","","","","","","","","","","","","","","","","","","","","","","","",""
"","","","","","image-keyboard-response","235","980924","0.0-3.0-7.0-1.5","5c71b63c4aa8ec0001f2bfc4","A3","batch1","pattern_response","842.8000000119209","stim/no_20_1_w.png","j","pattern_06","j","true","","","","842.8000000119209","true","45","","","","","","","","","","","","","","","","",""
"","","","","","html-keyboard-response","236","982240","0.0-3.0-7.0-0.6","5c71b63c4aa8ec0001f2bfc4","A3","batch1","pattern_show_trial_num","null","<p class=block-text>Trial 46 out of 78</p>","null","","","","","","","","","","","","","","","","","","","","","","","","","",""
"","","","","","image-keyboard-response","237","984740","0.0-3.0-7.0-1.6","5c71b63c4aa8ec0001f2bfc4","A3","batch1","pattern_response","2499.300000011921","stim/no_34_1_b.png","j","pattern_16","j","true","","","","2499.300000011921","true","46","","","","","","","","","","","","","","","","",""
"","","","","","html-keyboard-response","238","986056","0.0-3.0-7.0-0.7","5c71b63c4aa8ec0001f2bfc4","A3","batch1","pattern_show_trial_num","null","<p class=block-text>Trial 47 out of 78</p>","null","","","","","","","","","","","","","","","","","","","","","","","","","",""
"","","","","","image-keyboard-response","239","987398","0.0-3.0-7.0-1.7","5c71b63c4aa8ec0001f2bfc4","A3","batch1","pattern_response","1340.4000000059605","stim/no_23_1.png","j","pattern_08","j","true","","","","1340.4000000059605","true","47","","","","","","","","","","","","","","","","",""
"","","","","","html-keyboard-response","240","988711","0.0-3.0-7.0-0.8","5c71b63c4aa8ec0001f2bfc4","A3","batch1","pattern_show_trial_num","null","<p class=block-text>Trial 48 out of 78</p>","null","","","","","","","","","","","","","","","","","","","","","","","","","",""
"","","","","","image-keyboard-response","241","993588","0.0-3.0-7.0-1.8","5c71b63c4aa8ec0001f2bfc4","A3","batch1","pattern_response","4874.600000023842","stim/yes_50_dia_w1.png","j","pattern_71","f","false","","","","4874.600000023842","false","47","","","","","","","","","","","","","","","","",""
"","","","","","html-keyboard-response","242","994903","0.0-3.0-7.0-0.9","5c71b63c4aa8ec0001f2bfc4","A3","batch1","pattern_show_trial_num","null","<p class=block-text>Trial 49 out of 78</p>","null","","","","","","","","","","","","","","","","","","","","","","","","","",""
"","","","","","image-keyboard-response","243","999635","0.0-3.0-7.0-1.9","5c71b63c4aa8ec0001f2bfc4","A3","batch1","pattern_response","4730.199999988079","stim/no_46_1_b.png","j","pattern_26","j","true","","","","4730.199999988079","true","48","","","","","","","","","","","","","","","","",""
"","","","","","html-keyboard-response","244","1000951","0.0-3.0-7.0-0.10","5c71b63c4aa8ec0001f2bfc4","A3","batch1","pattern_show_trial_num","null","<p class=block-text>Trial 50 out of 78</p>","null","","","","","","","","","","","","","","","","","","","","","","","","","",""
"","","","","","image-keyboard-response","245","1006672","0.0-3.0-7.0-1.10","5c71b63c4aa8ec0001f2bfc4","A3","batch1","pattern_response","5718.699999988079","stim/no_52_1.png","j","pattern_32","j","true","","","","5718.699999988079","true","49","","","","","","","","","","","","","","","","",""
"","","","","","html-keyboard-response","246","1007984","0.0-3.0-7.0-0.11","5c71b63c4aa8ec0001f2bfc4","A3","batch1","pattern_show_trial_num","null","<p class=block-text>Trial 51 out of 78</p>","null","","","","","","","","","","","","","","","","","","","","","","","","","",""
"","","","","","image-keyboard-response","247","1011314","0.0-3.0-7.0-1.11","5c71b63c4aa8ec0001f2bfc4","A3","batch1","pattern_response","3328.4000000059605","stim/no_13_2_b.png","j","pattern_02","j","true","","","","3328.4000000059605","true","50","","","","","","","","","","","","","","","","",""
"","","","","","html-keyboard-response","248","1012622","0.0-3.0-7.0-0.12","5c71b63c4aa8ec0001f2bfc4","A3","batch1","pattern_show_trial_num","null","<p class=block-text>Trial 52 out of 78</p>","null","","","","","","","","","","","","","","","","","","","","","","","","","",""
"","","","","","image-keyboard-response","249","1014601","0.0-3.0-7.0-1.12","5c71b63c4aa8ec0001f2bfc4","A3","batch1","pattern_response","1977.199999988079","stim/yes_35_dia_b1.png","f","pattern_57","f","true","","","","1977.199999988079","true","51","","","","","","","","","","","","","","","","",""
"","","","","","html-keyboard-response","250","1015911","0.0-3.0-7.0-0.13","5c71b63c4aa8ec0001f2bfc4","A3","batch1","pattern_show_trial_num","null","<p class=block-text>Trial 53 out of 78</p>","null","","","","","","","","","","","","","","","","","","","","","","","","","",""
"","","","","","image-keyboard-response","251","1017158","0.0-3.0-7.0-1.13","5c71b63c4aa8ec0001f2bfc4","A3","batch1","pattern_response","1245.699999988079","stim/yes_29_ver_w1.png","f","pattern_53","f","true","","","","1245.699999988079","true","52","","","","","","","","","","","","","","","","",""
"","","","","","html-keyboard-response","252","1018471","0.0-3.0-7.0-0.14","5c71b63c4aa8ec0001f2bfc4","A3","batch1","pattern_show_trial_num","null","<p class=block-text>Trial 54 out of 78</p>","null","","","","","","","","","","","","","","","","","","","","","","","","","",""
"","","","","","image-keyboard-response","253","1021374","0.0-3.0-7.0-1.14","5c71b63c4aa8ec0001f2bfc4","A3","batch1","pattern_response","2901","stim/yes_40_dia_b1_b.png","f","pattern_63","f","true","","","","2901","true","53","","","","","","","","","","","","","","","","",""
"","","","","","html-keyboard-response","254","1022686","0.0-3.0-7.0-0.15","5c71b63c4aa8ec0001f2bfc4","A3","batch1","pattern_show_trial_num","null","<p class=block-text>Trial 55 out of 78</p>","null","","","","","","","","","","","","","","","","","","","","","","","","","",""
"","","","","","image-keyboard-response","255","1024834","0.0-3.0-7.0-1.15","5c71b63c4aa8ec0001f2bfc4","A3","batch1","pattern_response","2145.5999999940395","stim/yes_38_hor_b1_b.png","f","pattern_61","f","true","","","","2145.5999999940395","true","54","","","","","","","","","","","","","","","","",""
"","","","","","html-keyboard-response","256","1026144","0.0-3.0-7.0-0.16","5c71b63c4aa8ec0001f2bfc4","A3","batch1","pattern_show_trial_num","null","<p class=block-text>Trial 56 out of 78</p>","null","","","","","","","","","","","","","","","","","","","","","","","","","",""
"","","","","","image-keyboard-response","257","1028205","0.0-3.0-7.0-1.16","5c71b63c4aa8ec0001f2bfc4","A3","batch1","pattern_response","2059.4000000059605","stim/no_42_1_w.png","j","pattern_22","j","true","","","","2059.4000000059605","true","55","","","","","","","","","","","","","","","","",""
"","","","","","html-keyboard-response","258","1029520","0.0-3.0-7.0-0.17","5c71b63c4aa8ec0001f2bfc4","A3","batch1","pattern_show_trial_num","null","<p class=block-text>Trial 57 out of 78</p>","null","","","","","","","","","","","","","","","","","","","","","","","","","",""
"","","","","","image-keyboard-response","259","1034347","0.0-3.0-7.0-1.17","5c71b63c4aa8ec0001f2bfc4","A3","batch1","pattern_response","4825.399999976158","stim/no_55_1_w.png","j","pattern_34","j","true","","","","4825.399999976158","true","56","","","","","","","","","","","","","","","","",""
"","","","","","html-keyboard-response","260","1035664","0.0-3.0-7.0-0.18","5c71b63c4aa8ec0001f2bfc4","A3","batch1","pattern_show_trial_num","null","<p class=block-text>Trial 58 out of 78</p>","null","","","","","","","","","","","","","","","","","","","","","","","","","",""
"","","","","","image-keyboard-response","261","1037528","0.0-3.0-7.0-1.18","5c71b63c4aa8ec0001f2bfc4","A3","batch1","pattern_response","1862.9000000059605","stim/yes_52_ver_w1.png","f","pattern_73","f","true","","","","1862.9000000059605","true","57","","","","","","","","","","","","","","","","",""
"","","","","","html-keyboard-response","262","1038840","0.0-3.0-7.0-0.19","5c71b63c4aa8ec0001f2bfc4","A3","batch1","pattern_show_trial_num","null","<p class=block-text>Trial 59 out of 78</p>","null","","","","","","","","","","","","","","","","","","","","","","","","","",""
"","","","","","image-keyboard-response","263","1039713","0.0-3.0-7.0-1.19","5c71b63c4aa8ec0001f2bfc4","A3","batch1","pattern_response","871.8000000119209","stim/yes_25_hor_b1_b.png","f","pattern_49","f","true","","","","871.8000000119209","true","58","","","","","","","","","","","","","","","","",""
"","","","","","html-keyboard-response","264","1041024","0.0-3.0-7.0-0.20","5c71b63c4aa8ec0001f2bfc4","A3","batch1","pattern_show_trial_num","null","<p class=block-text>Trial 60 out of 78</p>","null","","","","","","","","","","","","","","","","","","","","","","","","","",""
"","","","","","image-keyboard-response","265","1045605","0.0-3.0-7.0-1.20","5c71b63c4aa8ec0001f2bfc4","A3","batch1","pattern_response","4579.0999999940395","stim/no_48_1_w.png","j","pattern_28","j","true","","","","4579.0999999940395","true","59","","","","","","","","","","","","","","","","",""
"","","","","","html-keyboard-response","266","1046920","0.0-3.0-7.0-0.21","5c71b63c4aa8ec0001f2bfc4","A3","batch1","pattern_show_trial_num","null","<p class=block-text>Trial 61 out of 78</p>","null","","","","","","","","","","","","","","","","","","","","","","","","","",""
"","","","","","image-keyboard-response","267","1047864","0.0-3.0-7.0-1.21","5c71b63c4aa8ec0001f2bfc4","A3","batch1","pattern_response","942","stim/yes_28_ver_b1.png","f","pattern_51","f","true","","","","942","true","60","","","","","","","","","","","","","","","","",""
"","","","","","html-keyboard-response","268","1049174","0.0-3.0-7.0-0.22","5c71b63c4aa8ec0001f2bfc4","A3","batch1","pattern_show_trial_num","null","<p class=block-text>Trial 62 out of 78</p>","null","","","","","","","","","","","","","","","","","","","","","","","","","",""
"","","","","","image-keyboard-response","269","1050960","0.0-3.0-7.0-1.22","5c71b63c4aa8ec0001f2bfc4","A3","batch1","pattern_response","1783.9000000059605","stim/yes_60_ver_b1_b.png","f","pattern_77","f","true","","","","1783.9000000059605","true","61","","","","","","","","","","","","","","","","",""
"","","","","","html-keyboard-response","270","1052272","0.0-3.0-7.0-0.23","5c71b63c4aa8ec0001f2bfc4","A3","batch1","pattern_show_trial_num","null","<p class=block-text>Trial 63 out of 78</p>","null","","","","","","","","","","","","","","","","","","","","","","","","","",""
"","","","","","image-keyboard-response","271","1052986","0.0-3.0-7.0-1.23","5c71b63c4aa8ec0001f2bfc4","A3","batch1","pattern_response","712.5999999940395","stim/yes_14_hor_b1_w.png","f","pattern_43","f","true","","","","712.5999999940395","true","62","","","","","","","","","","","","","","","","",""
"","","","","","html-keyboard-response","272","1054294","0.0-3.0-7.0-0.24","5c71b63c4aa8ec0001f2bfc4","A3","batch1","pattern_show_trial_num","null","<p class=block-text>Trial 64 out of 78</p>","null","","","","","","","","","","","","","","","","","","","","","","","","","",""
"","","","","","image-keyboard-response","273","1055421","0.0-3.0-7.0-1.24","5c71b63c4aa8ec0001f2bfc4","A3","batch1","pattern_response","1125.699999988079","stim/yes_43_ver_w1_w.png","f","pattern_65","f","true","","","","1125.699999988079","true","63","","","","","","","","","","","","","","","","",""
"","","","","","html-keyboard-response","274","1056735","0.0-3.0-7.0-0.25","5c71b63c4aa8ec0001f2bfc4","A3","batch1","pattern_show_trial_num","null","<p class=block-text>Trial 65 out of 78</p>","null","","","","","","","","","","","","","","","","","","","","","","","","","",""
"","","","","","image-keyboard-response","275","1062557","0.0-3.0-7.0-1.25","5c71b63c4aa8ec0001f2bfc4","A3","batch1","pattern_response","5820.4000000059605","stim/no_70_2.png","j","pattern_40","j","true","","","","5820.4000000059605","true","64","","","","","","","","","","","","","","","","",""
"","","","","","html-keyboard-response","276","1063872","0.0-3.0-7.0-0.26","5c71b63c4aa8ec0001f2bfc4","A3","batch1","pattern_show_trial_num","null","<p class=block-text>Trial 66 out of 78</p>","null","","","","","","","","","","","","","","","","","","","","","","","","","",""
"","","","","","image-keyboard-response","277","1066225","0.0-3.0-7.0-1.26","5c71b63c4aa8ec0001f2bfc4","A3","batch1","pattern_response","2351.0999999940395","stim/yes_37_dia_w1.png","f","pattern_59","f","true","","","","2351.0999999940395","true","65","","","","","","","","","","","","","","","","",""
"","","","","","html-keyboard-response","278","1067536","0.0-3.0-7.0-0.27","5c71b63c4aa8ec0001f2bfc4","A3","batch1","pattern_show_trial_num","null","<p class=block-text>Trial 67 out of 78</p>","null","","","","","","","","","","","","","","","","","","","","","","","","","",""
"","","","","","image-keyboard-response","279","1070396","0.0-3.0-7.0-1.27","5c71b63c4aa8ec0001f2bfc4","A3","batch1","pattern_response","2858.0999999940395","stim/no_32_1_w.png","j","pattern_14","j","true","","","","2858.0999999940395","true","66","","","","","","","","","","","","","","","","",""
"","","","","","html-keyboard-response","280","1071712","0.0-3.0-7.0-0.28","5c71b63c4aa8ec0001f2bfc4","A3","batch1","pattern_show_trial_num","null","<p class=block-text>Trial 68 out of 78</p>","null","","","","","","","","","","","","","","","","","","","","","","","","","",""
"","","","","","image-keyboard-response","281","1073041","0.0-3.0-7.0-1.28","5c71b63c4aa8ec0001f2bfc4","A3","batch1","pattern_response","1327.4000000059605","stim/yes_67_hor_b1.png","f","pattern_79","f","true","","","","1327.4000000059605","true","67","","","","","","","","","","","","","","","","",""
"","","","","","html-keyboard-response","282","1074352","0.0-3.0-7.0-0.29","5c71b63c4aa8ec0001f2bfc4","A3","batch1","pattern_show_trial_num","null","<p class=block-text>Trial 69 out of 78</p>","null","","","","","","","","","","","","","","","","","","","","","","","","","",""
"","","","","","image-keyboard-response","283","1075299","0.0-3.0-7.0-1.29","5c71b63c4aa8ec0001f2bfc4","A3","batch1","pattern_response","945.3000000119209","stim/no_36_2_w.png","f","pattern_18","j","false","","","","945.3000000119209","false","67","","","","","","","","","","","","","","","","",""
"","","","","","html-keyboard-response","284","1076616","0.0-3.0-7.0-0.30","5c71b63c4aa8ec0001f2bfc4","A3","batch1","pattern_show_trial_num","null","<p class=block-text>Trial 70 out of 78</p>","null","","","","","","","","","","","","","","","","","","","","","","","","","",""
"","","","","","image-keyboard-response","285","1077428","0.0-3.0-7.0-1.30","5c71b63c4aa8ec0001f2bfc4","A3","batch1","pattern_response","810","stim/yes_22_ver_w1.png","f","pattern_47","f","true","","","","810","true","68","","","","","","","","","","","","","","","","",""
"","","","","","html-keyboard-response","286","1078744","0.0-3.0-7.0-0.31","5c71b63c4aa8ec0001f2bfc4","A3","batch1","pattern_show_trial_num","null","<p class=block-text>Trial 71 out of 78</p>","null","","","","","","","","","","","","","","","","","","","","","","","","","",""
"","","","","","image-keyboard-response","287","1083109","0.0-3.0-7.0-1.31","5c71b63c4aa8ec0001f2bfc4","A3","batch1","pattern_response","4363.5","stim/no_38_1_b.png","j","pattern_20","j","true","","","","4363.5","true","69","","","","","","","","","","","","","","","","",""
"","","","","","html-keyboard-response","288","1084424","0.0-3.0-7.0-0.32","5c71b63c4aa8ec0001f2bfc4","A3","batch1","pattern_show_trial_num","null","<p class=block-text>Trial 72 out of 78</p>","null","","","","","","","","","","","","","","","","","","","","","","","","","",""
"","","","","","image-keyboard-response","289","1086135","0.0-3.0-7.0-1.32","5c71b63c4aa8ec0001f2bfc4","A3","batch1","pattern_response","1709.800000011921","stim/yes_17_dia_w1.png","f","pattern_45","f","true","","","","1709.800000011921","true","70","","","","","","","","","","","","","","","","",""
"","","","","","html-keyboard-response","290","1087448","0.0-3.0-7.0-0.33","5c71b63c4aa8ec0001f2bfc4","A3","batch1","pattern_show_trial_num","null","<p class=block-text>Trial 73 out of 78</p>","null","","","","","","","","","","","","","","","","","","","","","","","","","",""
"","","","","","image-keyboard-response","291","1088796","0.0-3.0-7.0-1.33","5c71b63c4aa8ec0001f2bfc4","A3","batch1","pattern_response","1347","stim/no_17_1_w.png","j","pattern_04","j","true","","","","1347","true","71","","","","","","","","","","","","","","","","",""
"","","","","","html-keyboard-response","292","1090111","0.0-3.0-7.0-0.34","5c71b63c4aa8ec0001f2bfc4","A3","batch1","pattern_show_trial_num","null","<p class=block-text>Trial 74 out of 78</p>","null","","","","","","","","","","","","","","","","","","","","","","","","","",""
"","","","","","image-keyboard-response","293","1091932","0.0-3.0-7.0-1.34","5c71b63c4aa8ec0001f2bfc4","A3","batch1","pattern_response","1820.300000011921","stim/yes_48_dia_w1_w.png","f","pattern_69","f","true","","","","1820.300000011921","true","72","","","","","","","","","","","","","","","","",""
"","","","","","html-keyboard-response","294","1093248","0.0-3.0-7.0-0.35","5c71b63c4aa8ec0001f2bfc4","A3","batch1","pattern_show_trial_num","null","<p class=block-text>Trial 75 out of 78</p>","null","","","","","","","","","","","","","","","","","","","","","","","","","",""
"","","","","","image-keyboard-response","295","1096857","0.0-3.0-7.0-1.35","5c71b63c4aa8ec0001f2bfc4","A3","batch1","pattern_response","3606.600000023842","stim/no_50_1.png","j","pattern_30","j","true","","","","3606.600000023842","true","73","","","","","","","","","","","","","","","","",""
"","","","","","html-keyboard-response","296","1098168","0.0-3.0-7.0-0.36","5c71b63c4aa8ec0001f2bfc4","A3","batch1","pattern_show_trial_num","null","<p class=block-text>Trial 76 out of 78</p>","null","","","","","","","","","","","","","","","","","","","","","","","","","",""
"","","","","","image-keyboard-response","297","1105348","0.0-3.0-7.0-1.36","5c71b63c4aa8ec0001f2bfc4","A3","batch1","pattern_response","7177.800000011921","stim/no_65_1_b.png","f","pattern_38","j","false","","","","7177.800000011921","false","73","","","","","","","","","","","","","","","","",""
"","","","","","html-keyboard-response","298","1106664","0.0-3.0-7.0-0.37","5c71b63c4aa8ec0001f2bfc4","A3","batch1","pattern_show_trial_num","null","<p class=block-text>Trial 77 out of 78</p>","null","","","","","","","","","","","","","","","","","","","","","","","","","",""
"","","","","","image-keyboard-response","299","1108182","0.0-3.0-7.0-1.37","5c71b63c4aa8ec0001f2bfc4","A3","batch1","pattern_response","1516.5","stim/no_26_1_w.png","f","pattern_10","j","false","","","","1516.5","false","73","","","","","","","","","","","","","","","","",""
"","","","","","html-keyboard-response","300","1109495","0.0-3.0-7.0-0.38","5c71b63c4aa8ec0001f2bfc4","A3","batch1","pattern_show_trial_num","null","<p class=block-text>Trial 78 out of 78</p>","null","","","","","","","","","","","","","","","","","","","","","","","","","",""
"","","","","","image-keyboard-response","301","1113942","0.0-3.0-7.0-1.38","5c71b63c4aa8ec0001f2bfc4","A3","batch1","pattern_response","4445.5","stim/no_44_1.png","j","pattern_24","j","true","","","","4445.5","true","74","","","","","","","","","","","","","","","","",""
"","","","","","html-button-response","302","1122835","0.0-3.0-8.0","5c71b63c4aa8ec0001f2bfc4","A3","batch1","","8381.199999988079","<p class = block-text>This concludes the 4-in-a-row detection game.Thank you for your responses!<br>
            You responded correctly on 95% of the trials.<br>
            When you are ready, press ""Continue"" button to continue </p>","0","","","","","","","","","","","","","","","","","","","","","","","","","",""
"true","","","","","fullscreen","303","1124873","0.0-4.0-0.0","5c71b63c4aa8ec0001f2bfc4","A3","batch1","","","","","","","","","","","","","","","","","","","","","","","","","","","","","",""
"","","","","","instructions","304","1143789","0.0-4.0-1.0-0.0-0.0","5c71b63c4aa8ec0001f2bfc4","A3","batch1","tol-instructions","18914.80000001192","","","","","","","","[{""page_index"":0,""viewing_time"":4862.800000011921},{""page_index"":1,""viewing_time"":3950.5},{""page_index"":2,""viewing_time"":2076.5},{""page_index"":3,""viewing_time"":3170},{""page_index"":4,""viewing_time"":1838.699999988079},{""page_index"":5,""viewing_time"":1184},{""page_index"":6,""viewing_time"":1831.800000011921}]","","","","","","","","","","","","","","","","","","","",""
"","","","","","html-button-response","305","1144486","0.0-4.0-1.0-1.0-0.0","5c71b63c4aa8ec0001f2bfc4","A3","batch1","tol_enter_quiz","694.0999999940395","<p class=block-text> Let's answer a few questions <br>","0","","","","","","","","","","","","","","","","","","","","","","","","","",""
"","","","","","html-button-response","306","1147163","0.0-4.0-1.0-1.0-1.0","5c71b63c4aa8ec0001f2bfc4","A3","batch1","tol_quiz","2672.800000011921","<p class = block-text>True or False: You can only move the ball on top of a peg. <br></p>","1","","","false","","","","","","","","","","","","","","","","","","","","","","",""
"","","","","","html-button-response","307","1148163","0.0-4.0-1.0-1.0-2.0","5c71b63c4aa8ec0001f2bfc4","A3","batch1","tol_quiz_feedback","997.8000000119209","<p class = block-text>Incorrect. Remember, you can only move the ball on top of a peg.</p>","0","","","","","","","","","","","","","","","","","","","","","","","","","",""
"","","","","","html-button-response","308","1149986","0.0-4.0-1.0-1.0-3.0","5c71b63c4aa8ec0001f2bfc4","A3","batch1","tol_quiz","1821.2999999821186","<p class = block-text>True or False: You should try to match your board with the target board with fewest moves possible. <br></p>","0","","","true","","","","","","","","","","","","","","","","","","","","","","",""
"","","","","","html-button-response","309","1150595","0.0-4.0-1.0-1.0-4.0","5c71b63c4aa8ec0001f2bfc4","A3","batch1","tol_quiz_feedback","607.4000000059605","<p class = block-text>Correct! </p>","0","","","","","","","","","","","","","","","","","","","","","","","","","",""
"","","","","","html-button-response","310","1151283","0.0-4.0-1.0-2.0-0.0","5c71b63c4aa8ec0001f2bfc4","A3","batch1","","686.9000000059605","<p class = block-text>You made too many incorrect choices.</p><p class = block-text>You will now repeat the instructions and quiz</p>","0","","","","","","","","","","","","","","","","","","","","","","","","","",""
"","","","","","instructions","311","1159298","0.0-4.0-1.1-0.1-0.1","5c71b63c4aa8ec0001f2bfc4","A3","batch1","tol-instructions","8013","","","","","","","","[{""page_index"":0,""viewing_time"":968.8000000119209},{""page_index"":1,""viewing_time"":526.3000000119209},{""page_index"":2,""viewing_time"":1779.7999999821186},{""page_index"":3,""viewing_time"":820.5999999940395},{""page_index"":4,""viewing_time"":1075.7000000178814},{""page_index"":5,""viewing_time"":1339.7999999821186},{""page_index"":6,""viewing_time"":1501.7000000178814}]","","","","","","","","","","","","","","","","","","","",""
"","","","","","html-button-response","312","1160088","0.0-4.0-1.1-1.1-0.1","5c71b63c4aa8ec0001f2bfc4","A3","batch1","tol_enter_quiz","788.1999999880791","<p class=block-text> Let's answer a few questions <br>","0","","","","","","","","","","","","","","","","","","","","","","","","","",""
"","","","","","html-button-response","313","1162708","0.0-4.0-1.1-1.1-1.1","5c71b63c4aa8ec0001f2bfc4","A3","batch1","tol_quiz","2617.800000011921","<p class = block-text>True or False: You can only move the ball on top of a peg. <br></p>","0","","","true","","","","","","","","","","","","","","","","","","","","","","",""
"","","","","","html-button-response","314","1163520","0.0-4.0-1.1-1.1-2.1","5c71b63c4aa8ec0001f2bfc4","A3","batch1","tol_quiz_feedback","810.5999999940395","<p class = block-text>Correct! You can only move the ball on top of a peg.</p>","0","","","","","","","","","","","","","","","","","","","","","","","","","",""
"","","","","","html-button-response","315","1164990","0.0-4.0-1.1-1.1-3.1","5c71b63c4aa8ec0001f2bfc4","A3","batch1","tol_quiz","1468.5","<p class = block-text>True or False: You should try to match your board with the target board with fewest moves possible. <br></p>","0","","","true","","","","","","","","","","","","","","","","","","","","","","",""
"","","","","","html-button-response","316","1165663","0.0-4.0-1.1-1.1-4.1","5c71b63c4aa8ec0001f2bfc4","A3","batch1","tol_quiz_feedback","671.7999999821186","<p class = block-text>Correct! </p>","0","","","","","","","","","","","","","","","","","","","","","","","","","",""
"","","","","","html-button-response","317","1166261","0.0-4.0-2.0","5c71b63c4aa8ec0001f2bfc4","A3","batch1","","595.8000000119209","<p class=block-text> Now that you've understood the game, let's practice a few easier examples before we start!<br> <br>","0","","","","","","","","","","","","","","","","","","","","","","","","","",""
"","","","","","single-stim-button","318","1170187","0.0-4.0-3.0-0.0","5c71b63c4aa8ec0001f2bfc4","A3","batch1","tol_practice","3924","","","","","","","","","","","","","","tol_peg_2","3924","3924","0","[[1,2,0],[0,0],[0]]","1","[[1,2,0],[0,0],[3]]","practice","3924","","","","","",""
"","","","","","single-stim-button","319","1171148","0.0-4.0-3.0-1.0","5c71b63c4aa8ec0001f2bfc4","A3","batch1","tol_practice","960","","","","","","","","","","","","","","tol_peg_3","960","960","0","[[1,2,0],[0,0],[3]]","1","[[1,2,0],[0,0],[3]]","practice","960","","","","","",""
"","","","","","poldrack-single-stim","320","1172153","0.0-4.0-4.0","5c71b63c4aa8ec0001f2bfc4","A3","batch1","tol_feedback","-1","","","","","true","","","","","","","","","","1000","1000","500","","","","","","-1","none","true","","0",""
"","","","","","single-stim-button","321","1174767","0.0-4.0-5.0-0.0","5c71b63c4aa8ec0001f2bfc4","A3","batch1","tol_practice","2610","","","","","","","","","","","","","","tol_peg_1","2610","2610","0","[[1,0,0],[3,0],[0]]","2","[[0,0,0],[3,1],[2]]","practice","2610","","","","","",""
"","","","","","single-stim-button","322","1175640","0.0-4.0-5.0-1.0","5c71b63c4aa8ec0001f2bfc4","A3","batch1","tol_practice","871","","","","","","","","","","","","","","tol_peg_3","871","871","0","[[1,0,0],[3,0],[2]]","2","[[0,0,0],[3,1],[2]]","practice","871","","","","","",""
"","","","","","single-stim-button","323","1176314","0.0-4.0-5.1-0.1","5c71b63c4aa8ec0001f2bfc4","A3","batch1","tol_practice","673","","","","","","","","","","","","","","tol_peg_1","673","673","0","[[0,0,0],[3,0],[2]]","3","[[0,0,0],[3,1],[2]]","practice","673","","","","","",""
"","","","","","single-stim-button","324","1176912","0.0-4.0-5.1-1.1","5c71b63c4aa8ec0001f2bfc4","A3","batch1","tol_practice","597","","","","","","","","","","","","","","tol_peg_2","597","597","0","[[0,0,0],[3,1],[2]]","3","[[0,0,0],[3,1],[2]]","practice","597","","","","","",""
"","","","","","poldrack-single-stim","325","1177920","0.0-4.0-6.0","5c71b63c4aa8ec0001f2bfc4","A3","batch1","tol_feedback","-1","","","","","true","","","","","","","","","","1000","1000","500","","","","","","-1","none","true","","0",""
"","","","","","single-stim-button","326","1180412","0.0-4.0-7.0-0.0","5c71b63c4aa8ec0001f2bfc4","A3","batch1","tol_practice","2491","","","","","","","","","","","","","","tol_peg_2","2491","2491","0","[[1,2,0],[0,0],[0]]","4","[[1,0,0],[2,0],[3]]","practice","2491","","","","","",""
"","","","","","single-stim-button","327","1181051","0.0-4.0-7.0-1.0","5c71b63c4aa8ec0001f2bfc4","A3","batch1","tol_practice","637","","","","","","","","","","","","","","tol_peg_3","637","637","0","[[1,2,0],[0,0],[3]]","4","[[1,0,0],[2,0],[3]]","practice","637","","","","","",""
"","","","","","single-stim-button","328","1181634","0.0-4.0-7.1-0.1","5c71b63c4aa8ec0001f2bfc4","A3","batch1","tol_practice","582","","","","","","","","","","","","","","tol_peg_1","582","582","0","[[1,0,0],[0,0],[3]]","5","[[1,0,0],[2,0],[3]]","practice","582","","","","","",""
"","","","","","single-stim-button","329","1182349","0.0-4.0-7.1-1.1","5c71b63c4aa8ec0001f2bfc4","A3","batch1","tol_practice","713","","","","","","","","","","","","","","tol_peg_2","713","713","0","[[1,0,0],[2,0],[3]]","5","[[1,0,0],[2,0],[3]]","practice","713","","","","","",""
"","","","","","poldrack-single-stim","330","1183352","0.0-4.0-8.0","5c71b63c4aa8ec0001f2bfc4","A3","batch1","tol_feedback","-1","","","","","true","","","","","","","","","","1000","1000","500","","","","","","-1","none","true","","0",""
"","","","","","html-button-response","331","1184417","0.0-4.0-9.0","5c71b63c4aa8ec0001f2bfc4","A3","batch1","tol_instruction","1063.2999999821186","<div class = centerbox><p class = center-block-text>Great job! You are done with practice trials<br>You are about to start official trials.<br> <br> Problem <strong>1</strong> out of 25 problems</p></div>","0","","","","","","","","","","","","","","","","","","","","","","","","","",""
"","","","","","single-stim-button","332","1187490","0.0-4.0-10.0-0.0","5c71b63c4aa8ec0001f2bfc4","A3","batch1","tol_tohand","2063","","","","","","","","","","","","","","tol_peg_1","2063","2063","0","[[1,0,0],[3,0],[0]]","1","[[1,3,0],[2,0],[0]]","0","0","","","","","","3"
"","","","","","single-stim-button","333","1188712","0.0-4.0-10.0-1.0","5c71b63c4aa8ec0001f2bfc4","A3","batch1","tol_toboard","1221","","","","","","","","","","","","","","tol_peg_3","1221","1221","0","[[1,0,0],[3,0],[2]]","1","[[1,3,0],[2,0],[0]]","0","0","","","","","","3"
"","","","","","single-stim-button","334","1189237","0.0-4.0-10.1-0.1","5c71b63c4aa8ec0001f2bfc4","A3","batch1","tol_tohand","524","","","","","","","","","","","","","","tol_peg_2","524","524","0","[[1,0,0],[0,0],[2]]","2","[[1,3,0],[2,0],[0]]","0","0","","","","","","3"
"","","","","","single-stim-button","335","1189829","0.0-4.0-10.1-1.1","5c71b63c4aa8ec0001f2bfc4","A3","batch1","tol_toboard","591","","","","","","","","","","","","","","tol_peg_1","591","591","0","[[1,3,0],[0,0],[2]]","2","[[1,3,0],[2,0],[0]]","0","0","","","","","","3"
"","","","","","single-stim-button","336","1190600","0.0-4.0-10.2-0.2","5c71b63c4aa8ec0001f2bfc4","A3","batch1","tol_tohand","770","","","","","","","","","","","","","","tol_peg_3","770","770","0","[[1,3,0],[0,0],[0]]","3","[[1,3,0],[2,0],[0]]","0","0","","","","","","3"
"","","","","","single-stim-button","337","1191265","0.0-4.0-10.2-1.2","5c71b63c4aa8ec0001f2bfc4","A3","batch1","tol_toboard","664","","","","","","","","","","","","","","tol_peg_2","664","664","0","[[1,3,0],[2,0],[0]]","3","[[1,3,0],[2,0],[0]]","0","0","","","","","","3"
"","","","","","poldrack-single-stim","338","1192272","0.0-4.0-11.0","5c71b63c4aa8ec0001f2bfc4","A3","batch1","tol_feedback","-1","","","","","true","","","","","","","","","","1000","1000","500","","","","","","-1","none","true","2063","3357",""
"","","","","","html-button-response","339","1193302","0.0-4.0-12.0","5c71b63c4aa8ec0001f2bfc4","A3","batch1","tol_trial_num","1028.0999999940395","<div class = centerbox><p class = center-block-text>problem <strong>2</strong> out of 25 problems</p></div>","0","","","","","","","","","","","","","","","","","","","","","","","","","",""
"","","","","","single-stim-button","340","1196092","0.0-4.0-13.0-0.0","5c71b63c4aa8ec0001f2bfc4","A3","batch1","tol_tohand","2788","","","","","","","","","","","","","","tol_peg_1","2788","2788","0","[[1,0,0],[3,0],[0]]","1","[[2,1,3],[0,0],[0]]","1","0","","","","","","5"
"","","","","","single-stim-button","341","1203640","0.0-4.0-13.0-1.0","5c71b63c4aa8ec0001f2bfc4","A3","batch1","tol_toboard","7548","","","","","","","","","","","","","","tol_peg_2","7548","7548","0","[[1,0,0],[3,2],[0]]","1","[[2,1,3],[0,0],[0]]","1","0","","","","","","5"
"","","","","","single-stim-button","342","1204284","0.0-4.0-13.1-0.1","5c71b63c4aa8ec0001f2bfc4","A3","batch1","tol_tohand","642","","","","","","","","","","","","","","tol_peg_1","642","642","0","[[0,0,0],[3,2],[0]]","2","[[2,1,3],[0,0],[0]]","1","0","","","","","","5"
"","","","","","single-stim-button","343","1204945","0.0-4.0-13.1-1.1","5c71b63c4aa8ec0001f2bfc4","A3","batch1","tol_toboard","660","","","","","","","","","","","","","","tol_peg_3","660","660","0","[[0,0,0],[3,2],[1]]","2","[[2,1,3],[0,0],[0]]","1","0","","","","","","5"
"","","","","","single-stim-button","344","1205857","0.0-4.0-13.2-0.2","5c71b63c4aa8ec0001f2bfc4","A3","batch1","tol_tohand","910","","","","","","","","","","","","","","tol_peg_2","910","910","0","[[0,0,0],[3,0],[1]]","3","[[2,1,3],[0,0],[0]]","1","0","","","","","","5"
"","","","","","single-stim-button","345","1206374","0.0-4.0-13.2-1.2","5c71b63c4aa8ec0001f2bfc4","A3","batch1","tol_toboard","516","","","","","","","","","","","","","","tol_peg_1","516","516","0","[[2,0,0],[3,0],[1]]","3","[[2,1,3],[0,0],[0]]","1","0","","","","","","5"
