"success","timeout","failed_images","failed_audio","failed_video","trial_type","trial_index","time_elapsed","internal_node_id","subject_id","study_id","session_id","view_history","rt","stimulus","response","task","correct","answer","item","fiar_detect_rt","fiar_detect_correct","total_correct_fiar_detect","post_trial_gap","choices","mouse_click","stim_duration","block_duration","timing_post_trial","current_position","tol_num_moves_made","tol_target","tol_problem_id","tol_rt","key_press","possible_responses","tol_correct","preplanning","tol_rt_per_trial","tol_min_moves","spm_correct","spm_rt"
"true","false","[]","[]","[]","preload","0","1425","0.0-0.0","5c79608452e62f00169b1fe6","A3","batch1","","","","","","","","","","","","","","","","","","","","","","","","","","","","","",""
"true","","","","","fullscreen","1","31141","0.0-1.0-0.0","5c79608452e62f00169b1fe6","A3","batch1","","","","","","","","","","","","","","","","","","","","","","","","","","","","","",""
"true","","","","","fullscreen","2","35643","0.0-2.0-0.0","5c79608452e62f00169b1fe6","A3","batch1","","","","","","","","","","","","","","","","","","","","","","","","","","","","","",""
"","","","","","instructions","3","59050","0.0-2.0-1.0-0.0","5c79608452e62f00169b1fe6","A3","batch1","[{""page_index"":0,""viewing_time"":15371.299999952316},{""page_index"":1,""viewing_time"":8031.5}]","23403.600000023842","","","","","","","","","","","","","","","","","","","","","","","","","","","",""
"","","","","","html-button-response","4","60266","0.0-2.0-1.0-1.0-0.0","5c79608452e62f00169b1fe6","A3","batch1","","1214.2999999523163","<p class=block-text> Let's answer a few questions <br>","0","pattern_enter_quiz","","","","","","","","","","","","","","","","","","","","","","","","",""
"","","","","","html-button-response","5","63072","0.0-2.0-1.0-1.0-1.0","5c79608452e62f00169b1fe6","A3","batch1","","2803.5","<p class = block-text>True or False: You will have as much time as you want to make each choice. <br></p>","1","pattern_quiz","true","","","","","","","","","","","","","","","","","","","","","","","",""
"","","","","","html-button-response","6","64730","0.0-2.0-1.0-1.0-2.0","5c79608452e62f00169b1fe6","A3","batch1","","1654.8999999761581","<p class = block-text>Correct! You should make your choice <strong> as fast as you can</strong>.</p>","0","pattern_quiz_feedback","","","","","","","","","","","","","","","","","","","","","","","","",""
"","","","","","html-button-response","7","70391","0.0-2.0-1.0-1.0-3.0","5c79608452e62f00169b1fe6","A3","batch1","","5658.900000095367","<p class = block-text>True or False: You will look for 4 pieces in black or white color connected in a row either horizontally, vertically or diagonally. <br></p>","0","pattern_quiz","true","","","","","","","","","","","","","","","","","","","","","","","",""
"","","","","","html-button-response","8","71586","0.0-2.0-1.0-1.0-4.0","5c79608452e62f00169b1fe6","A3","batch1","","1193","<p class = block-text>Correct! </p>","0","pattern_quiz_feedback","","","","","","","","","","","","","","","","","","","","","","","","",""
"","","","","","html-button-response","9","74317","0.0-2.0-2.0","5c79608452e62f00169b1fe6","A3","batch1","","2726.399999976158","<p class=block-text> Now that you've understood the game, let's do a few practice trials before we start!<br> <br>","0","pattern_enter_practice","","","","","","","","","","","","","","","","","","","","","","","","",""
"","","","","","image-keyboard-response","10","75592","0.0-2.0-3.0-0.0","5c79608452e62f00169b1fe6","A3","batch1","","1268.8999999761581","stim/prac_yes_16_ver_w1.png","f","pattern_practice","true","f","","","","","","","","","","","","","","","","","","","","","","",""
"","","","","","html-keyboard-response","11","76606","0.0-2.0-3.0-1.0","5c79608452e62f00169b1fe6","A3","batch1","","null","<p style=""font-size:30px;color:green;"">Correct!</p>","null","pattern_feedback","","","","","","","","","","","","","","","","","","","","","","","","",""
"","","","","","image-keyboard-response","12","77848","0.0-2.0-3.0-0.1","5c79608452e62f00169b1fe6","A3","batch1","","1240.6000000238419","stim/prac_yes_20_dia_b1.png","j","pattern_practice","false","f","","","","","","","","","","","","","","","","","","","","","","",""
"","","","","","html-keyboard-response","13","78861","0.0-2.0-3.0-1.1","5c79608452e62f00169b1fe6","A3","batch1","","null","<p style=""font-size:30px;color:red;"">Wrong.</p>","null","pattern_feedback","","","","","","","","","","","","","","","","","","","","","","","","",""
"","","","","","image-keyboard-response","14","79806","0.0-2.0-3.0-0.2","5c79608452e62f00169b1fe6","A3","batch1","","941","stim/prac_yes_18_hor_w1.png","f","pattern_practice","true","f","","","","","","","","","","","","","","","","","","","","","","",""
"","","","","","html-keyboard-response","15","80830","0.0-2.0-3.0-1.2","5c79608452e62f00169b1fe6","A3","batch1","","null","<p style=""font-size:30px;color:green;"">Correct!</p>","null","pattern_feedback","","","","","","","","","","","","","","","","","","","","","","","","",""
"","","","","","image-keyboard-response","16","82240","0.0-2.0-3.0-0.3","5c79608452e62f00169b1fe6","A3","batch1","","1406.5999999046326","stim/prac_no_18_1.png","j","pattern_practice","true","j","","","","","","","","","","","","","","","","","","","","","","",""
"","","","","","html-keyboard-response","17","83262","0.0-2.0-3.0-1.3","5c79608452e62f00169b1fe6","A3","batch1","","null","<p style=""font-size:30px;color:green;"">Correct!</p>","null","pattern_feedback","","","","","","","","","","","","","","","","","","","","","","","","",""
"","","","","","image-keyboard-response","18","84604","0.0-2.0-3.0-0.4","5c79608452e62f00169b1fe6","A3","batch1","","1336.6000000238419","stim/prac_no_16_1.png","j","pattern_practice","true","j","","","","","","","","","","","","","","","","","","","","","","",""
"","","","","","html-keyboard-response","19","85621","0.0-2.0-3.0-1.4","5c79608452e62f00169b1fe6","A3","batch1","","null","<p style=""font-size:30px;color:green;"">Correct!</p>","null","pattern_feedback","","","","","","","","","","","","","","","","","","","","","","","","",""
"","","","","","html-button-response","20","88913","0.0-2.0-4.0","5c79608452e62f00169b1fe6","A3","batch1","","3290.4000000953674","<p class=block-text> Good job! You are done with practice trials!<br>
        You responded correctly on 80% of the trials.<br>
        Press the button below to start official trials. Now you won't see any feedback about your response</p>","0","pattern_enter_official_trials","","","","","","","","","","","","","","","","","","","","","","","","",""
"","","","","","html-keyboard-response","21","89721","0.0-2.0-5.0-0.0","5c79608452e62f00169b1fe6","A3","batch1","","null","<p class=block-text>Trial 1 out of 78</p>","null","pattern_show_trial_num","","","","","","","","","","","","","","","","","","","","","","","","",""
"","","","","","image-keyboard-response","22","92225","0.0-2.0-5.0-1.0","5c79608452e62f00169b1fe6","A3","batch1","","2502.399999976158","stim/no_45_1_w.png","j","pattern_response","true","j","pattern_25","2502.399999976158","true","1","","","","","","","","","","","","","","","","","","",""
"","","","","","html-keyboard-response","23","93537","0.0-2.0-5.0-0.1","5c79608452e62f00169b1fe6","A3","batch1","","null","<p class=block-text>Trial 2 out of 78</p>","null","pattern_show_trial_num","","","","","","","","","","","","","","","","","","","","","","","","",""
"","","","","","image-keyboard-response","24","94660","0.0-2.0-5.0-1.1","5c79608452e62f00169b1fe6","A3","batch1","","1118","stim/yes_29_hor_b1_b.png","f","pattern_response","true","f","pattern_52","1118","true","2","","","","","","","","","","","","","","","","","","",""
"","","","","","html-keyboard-response","25","95971","0.0-2.0-5.0-0.2","5c79608452e62f00169b1fe6","A3","batch1","","null","<p class=block-text>Trial 3 out of 78</p>","null","pattern_show_trial_num","","","","","","","","","","","","","","","","","","","","","","","","",""
"","","","","","image-keyboard-response","26","97795","0.0-2.0-5.0-1.2","5c79608452e62f00169b1fe6","A3","batch1","","1819.3999999761581","stim/yes_51_dia_b1.png","j","pattern_response","false","f","pattern_72","1819.3999999761581","false","2","","","","","","","","","","","","","","","","","","",""
"","","","","","html-keyboard-response","27","99110","0.0-2.0-5.0-0.3","5c79608452e62f00169b1fe6","A3","batch1","","null","<p class=block-text>Trial 4 out of 78</p>","null","pattern_show_trial_num","","","","","","","","","","","","","","","","","","","","","","","","",""
"","","","","","image-keyboard-response","28","100796","0.0-2.0-5.0-1.3","5c79608452e62f00169b1fe6","A3","batch1","","1682.2999999523163","stim/yes_44_ver_w1_w.png","f","pattern_response","true","f","pattern_66","1682.2999999523163","true","3","","","","","","","","","","","","","","","","","","",""
"","","","","","html-keyboard-response","29","102109","0.0-2.0-5.0-0.4","5c79608452e62f00169b1fe6","A3","batch1","","null","<p class=block-text>Trial 5 out of 78</p>","null","pattern_show_trial_num","","","","","","","","","","","","","","","","","","","","","","","","",""
"","","","","","image-keyboard-response","30","103889","0.0-2.0-5.0-1.4","5c79608452e62f00169b1fe6","A3","batch1","","1777.6999999284744","stim/no_25_1_b.png","j","pattern_response","true","j","pattern_09","1777.6999999284744","true","4","","","","","","","","","","","","","","","","","","",""
"","","","","","html-keyboard-response","31","105206","0.0-2.0-5.0-0.5","5c79608452e62f00169b1fe6","A3","batch1","","null","<p class=block-text>Trial 6 out of 78</p>","null","pattern_show_trial_num","","","","","","","","","","","","","","","","","","","","","","","","",""
"","","","","","image-keyboard-response","32","107946","0.0-2.0-5.0-1.5","5c79608452e62f00169b1fe6","A3","batch1","","2736.899999976158","stim/yes_49_hor_w1_b.png","j","pattern_response","false","f","pattern_70","2736.899999976158","false","4","","","","","","","","","","","","","","","","","","",""
"","","","","","html-keyboard-response","33","109260","0.0-2.0-5.0-0.6","5c79608452e62f00169b1fe6","A3","batch1","","null","<p class=block-text>Trial 7 out of 78</p>","null","pattern_show_trial_num","","","","","","","","","","","","","","","","","","","","","","","","",""
"","","","","","image-keyboard-response","34","110145","0.0-2.0-5.0-1.6","5c79608452e62f00169b1fe6","A3","batch1","","882.8000000715256","stim/yes_15_dia_b1u_b.png","f","pattern_response","true","f","pattern_44","882.8000000715256","true","5","","","","","","","","","","","","","","","","","","",""
"","","","","","html-keyboard-response","35","111459","0.0-2.0-5.0-0.7","5c79608452e62f00169b1fe6","A3","batch1","","null","<p class=block-text>Trial 8 out of 78</p>","null","pattern_show_trial_num","","","","","","","","","","","","","","","","","","","","","","","","",""
"","","","","","image-keyboard-response","36","113862","0.0-2.0-5.0-1.7","5c79608452e62f00169b1fe6","A3","batch1","","2399","stim/no_47_1_b.png","j","pattern_response","true","j","pattern_27","2399","true","6","","","","","","","","","","","","","","","","","","",""
"","","","","","html-keyboard-response","37","115179","0.0-2.0-5.0-0.8","5c79608452e62f00169b1fe6","A3","batch1","","null","<p class=block-text>Trial 9 out of 78</p>","null","pattern_show_trial_num","","","","","","","","","","","","","","","","","","","","","","","","",""
"","","","","","image-keyboard-response","38","118230","0.0-2.0-5.0-1.8","5c79608452e62f00169b1fe6","A3","batch1","","3047.6999999284744","stim/yes_53_ver_b1_b.png","f","pattern_response","true","f","pattern_74","3047.6999999284744","true","7","","","","","","","","","","","","","","","","","","",""
"","","","","","html-keyboard-response","39","119548","0.0-2.0-5.0-0.9","5c79608452e62f00169b1fe6","A3","batch1","","null","<p class=block-text>Trial 10 out of 78</p>","null","pattern_show_trial_num","","","","","","","","","","","","","","","","","","","","","","","","",""
"","","","","","image-keyboard-response","40","120763","0.0-2.0-5.0-1.9","5c79608452e62f00169b1fe6","A3","batch1","","1211.6999999284744","stim/yes_39_hor_w1_w.png","f","pattern_response","true","f","pattern_62","1211.6999999284744","true","8","","","","","","","","","","","","","","","","","","",""
"","","","","","html-keyboard-response","41","122074","0.0-2.0-5.0-0.10","5c79608452e62f00169b1fe6","A3","batch1","","null","<p class=block-text>Trial 11 out of 78</p>","null","pattern_show_trial_num","","","","","","","","","","","","","","","","","","","","","","","","",""
"","","","","","image-keyboard-response","42","122812","0.0-2.0-5.0-1.10","5c79608452e62f00169b1fe6","A3","batch1","","732.8999999761581","stim/yes_36_ver_w1_w.png","f","pattern_response","true","f","pattern_58","732.8999999761581","true","9","","","","","","","","","","","","","","","","","","",""
"","","","","","html-keyboard-response","43","124133","0.0-2.0-5.0-0.11","5c79608452e62f00169b1fe6","A3","batch1","","null","<p class=block-text>Trial 12 out of 78</p>","null","pattern_show_trial_num","","","","","","","","","","","","","","","","","","","","","","","","",""
"","","","","","image-keyboard-response","44","127729","0.0-2.0-5.0-1.11","5c79608452e62f00169b1fe6","A3","batch1","","3594.3000000715256","stim/no_67_1.png","j","pattern_response","true","j","pattern_39","3594.3000000715256","true","10","","","","","","","","","","","","","","","","","","",""
"","","","","","html-keyboard-response","45","129042","0.0-2.0-5.0-0.12","5c79608452e62f00169b1fe6","A3","batch1","","null","<p class=block-text>Trial 13 out of 78</p>","null","pattern_show_trial_num","","","","","","","","","","","","","","","","","","","","","","","","",""
"","","","","","image-keyboard-response","46","131130","0.0-2.0-5.0-1.12","5c79608452e62f00169b1fe6","A3","batch1","","2083.399999976158","stim/yes_33_dia_w1_w.png","j","pattern_response","false","f","pattern_56","2083.399999976158","false","10","","","","","","","","","","","","","","","","","","",""
"","","","","","html-keyboard-response","47","132446","0.0-2.0-5.0-0.13","5c79608452e62f00169b1fe6","A3","batch1","","null","<p class=block-text>Trial 14 out of 78</p>","null","pattern_show_trial_num","","","","","","","","","","","","","","","","","","","","","","","","",""
"","","","","","image-keyboard-response","48","134337","0.0-2.0-5.0-1.13","5c79608452e62f00169b1fe6","A3","batch1","","1887.1000000238419","stim/no_49_2_b.png","j","pattern_response","true","j","pattern_29","1887.1000000238419","true","11","","","","","","","","","","","","","","","","","","",""
"","","","","","html-keyboard-response","49","135649","0.0-2.0-5.0-0.14","5c79608452e62f00169b1fe6","A3","batch1","","null","<p class=block-text>Trial 15 out of 78</p>","null","pattern_show_trial_num","","","","","","","","","","","","","","","","","","","","","","","","",""
"","","","","","image-keyboard-response","50","138499","0.0-2.0-5.0-1.14","5c79608452e62f00169b1fe6","A3","batch1","","2846","stim/yes_37_hor_w1_w.png","f","pattern_response","true","f","pattern_60","2846","true","12","","","","","","","","","","","","","","","","","","",""
"","","","","","html-keyboard-response","51","139814","0.0-2.0-5.0-0.15","5c79608452e62f00169b1fe6","A3","batch1","","null","<p class=block-text>Trial 16 out of 78</p>","null","pattern_show_trial_num","","","","","","","","","","","","","","","","","","","","","","","","",""
"","","","","","image-keyboard-response","52","141529","0.0-2.0-5.0-1.15","5c79608452e62f00169b1fe6","A3","batch1","","1711.7999999523163","stim/no_18_1_b.png","j","pattern_response","true","j","pattern_05","1711.7999999523163","true","13","","","","","","","","","","","","","","","","","","",""
"","","","","","html-keyboard-response","53","142846","0.0-2.0-5.0-0.16","5c79608452e62f00169b1fe6","A3","batch1","","null","<p class=block-text>Trial 17 out of 78</p>","null","pattern_show_trial_num","","","","","","","","","","","","","","","","","","","","","","","","",""
"","","","","","image-keyboard-response","54","143981","0.0-2.0-5.0-1.16","5c79608452e62f00169b1fe6","A3","batch1","","1132.1000000238419","stim/yes_17_ver_b1_b.png","f","pattern_response","true","f","pattern_46","1132.1000000238419","true","14","","","","","","","","","","","","","","","","","","",""
"","","","","","html-keyboard-response","55","145297","0.0-2.0-5.0-0.17","5c79608452e62f00169b1fe6","A3","batch1","","null","<p class=block-text>Trial 18 out of 78</p>","null","pattern_show_trial_num","","","","","","","","","","","","","","","","","","","","","","","","",""
"","","","","","image-keyboard-response","56","148315","0.0-2.0-5.0-1.17","5c79608452e62f00169b1fe6","A3","batch1","","3017.3000000715256","stim/yes_42_dia_w1_w.png","j","pattern_response","false","f","pattern_64","3017.3000000715256","false","14","","","","","","","","","","","","","","","","","","",""
"","","","","","html-keyboard-response","57","149625","0.0-2.0-5.0-0.18","5c79608452e62f00169b1fe6","A3","batch1","","null","<p class=block-text>Trial 19 out of 78</p>","null","pattern_show_trial_num","","","","","","","","","","","","","","","","","","","","","","","","",""
"","","","","","image-keyboard-response","58","151560","0.0-2.0-5.0-1.18","5c79608452e62f00169b1fe6","A3","batch1","","1931.1000000238419","stim/no_33_1_b.png","j","pattern_response","true","j","pattern_15","1931.1000000238419","true","15","","","","","","","","","","","","","","","","","","",""
"","","","","","html-keyboard-response","59","152874","0.0-2.0-5.0-0.19","5c79608452e62f00169b1fe6","A3","batch1","","null","<p class=block-text>Trial 20 out of 78</p>","null","pattern_show_trial_num","","","","","","","","","","","","","","","","","","","","","","","","",""
"","","","","","image-keyboard-response","60","154431","0.0-2.0-5.0-1.19","5c79608452e62f00169b1fe6","A3","batch1","","1553.1000000238419","stim/yes_46_ver_b1_b.png","f","pattern_response","true","f","pattern_68","1553.1000000238419","true","16","","","","","","","","","","","","","","","","","","",""
"","","","","","html-keyboard-response","61","155749","0.0-2.0-5.0-0.20","5c79608452e62f00169b1fe6","A3","batch1","","null","<p class=block-text>Trial 21 out of 78</p>","null","pattern_show_trial_num","","","","","","","","","","","","","","","","","","","","","","","","",""
"","","","","","image-keyboard-response","62","156749","0.0-2.0-5.0-1.20","5c79608452e62f00169b1fe6","A3","batch1","","998","stim/yes_23_ver_b1.png","f","pattern_response","true","f","pattern_48","998","true","17","","","","","","","","","","","","","","","","","","",""
"","","","","","html-keyboard-response","63","158069","0.0-2.0-5.0-0.21","5c79608452e62f00169b1fe6","A3","batch1","","null","<p class=block-text>Trial 22 out of 78</p>","null","pattern_show_trial_num","","","","","","","","","","","","","","","","","","","","","","","","",""
"","","","","","image-keyboard-response","64","158938","0.0-2.0-5.0-1.21","5c79608452e62f00169b1fe6","A3","batch1","","867.7000000476837","stim/yes_70_ver_b1.png","f","pattern_response","true","f","pattern_80","867.7000000476837","true","18","","","","","","","","","","","","","","","","","","",""
"","","","","","html-keyboard-response","65","160254","0.0-2.0-5.0-0.22","5c79608452e62f00169b1fe6","A3","batch1","","null","<p class=block-text>Trial 23 out of 78</p>","null","pattern_show_trial_num","","","","","","","","","","","","","","","","","","","","","","","","",""
"","","","","","image-keyboard-response","66","162868","0.0-2.0-5.0-1.22","5c79608452e62f00169b1fe6","A3","batch1","","2611.100000023842","stim/no_58_1_w.png","j","pattern_response","true","j","pattern_35","2611.100000023842","true","19","","","","","","","","","","","","","","","","","","",""
"","","","","","html-keyboard-response","67","164179","0.0-2.0-5.0-0.23","5c79608452e62f00169b1fe6","A3","batch1","","null","<p class=block-text>Trial 24 out of 78</p>","null","pattern_show_trial_num","","","","","","","","","","","","","","","","","","","","","","","","",""
"","","","","","image-keyboard-response","68","166753","0.0-2.0-5.0-1.23","5c79608452e62f00169b1fe6","A3","batch1","","2571.5","stim/no_53_1_b.png","j","pattern_response","true","j","pattern_33","2571.5","true","20","","","","","","","","","","","","","","","","","","",""
"","","","","","html-keyboard-response","69","168068","0.0-2.0-5.0-0.24","5c79608452e62f00169b1fe6","A3","batch1","","null","<p class=block-text>Trial 25 out of 78</p>","null","pattern_show_trial_num","","","","","","","","","","","","","","","","","","","","","","","","",""
"","","","","","image-keyboard-response","70","168705","0.0-2.0-5.0-1.24","5c79608452e62f00169b1fe6","A3","batch1","","634.2999999523163","stim/yes_12_hor_w1_w.png","f","pattern_response","true","f","pattern_42","634.2999999523163","true","21","","","","","","","","","","","","","","","","","","",""
"","","","","","html-keyboard-response","71","170021","0.0-2.0-5.0-0.25","5c79608452e62f00169b1fe6","A3","batch1","","null","<p class=block-text>Trial 26 out of 78</p>","null","pattern_show_trial_num","","","","","","","","","","","","","","","","","","","","","","","","",""
"","","","","","image-keyboard-response","72","171604","0.0-2.0-5.0-1.25","5c79608452e62f00169b1fe6","A3","batch1","","1580.5999999046326","stim/yes_26_dia_w2_w.png","f","pattern_response","true","f","pattern_50","1580.5999999046326","true","22","","","","","","","","","","","","","","","","","","",""
"","","","","","html-keyboard-response","73","172916","0.0-2.0-5.0-0.26","5c79608452e62f00169b1fe6","A3","batch1","","null","<p class=block-text>Trial 27 out of 78</p>","null","pattern_show_trial_num","","","","","","","","","","","","","","","","","","","","","","","","",""
"","","","","","image-keyboard-response","74","174588","0.0-2.0-5.0-1.26","5c79608452e62f00169b1fe6","A3","batch1","","1667.6999999284744","stim/no_28_2.png","j","pattern_response","true","j","pattern_11","1667.6999999284744","true","23","","","","","","","","","","","","","","","","","","",""
"","","","","","html-keyboard-response","75","175897","0.0-2.0-5.0-0.27","5c79608452e62f00169b1fe6","A3","batch1","","null","<p class=block-text>Trial 28 out of 78</p>","null","pattern_show_trial_num","","","","","","","","","","","","","","","","","","","","","","","","",""
"","","","","","image-keyboard-response","76","178406","0.0-2.0-5.0-1.27","5c79608452e62f00169b1fe6","A3","batch1","","2506","stim/yes_58_dia_w1_w.png","j","pattern_response","false","f","pattern_76","2506","false","23","","","","","","","","","","","","","","","","","","",""
"","","","","","html-keyboard-response","77","179726","0.0-2.0-5.0-0.28","5c79608452e62f00169b1fe6","A3","batch1","","null","<p class=block-text>Trial 29 out of 78</p>","null","pattern_show_trial_num","","","","","","","","","","","","","","","","","","","","","","","","",""
"","","","","","image-keyboard-response","78","181019","0.0-2.0-5.0-1.28","5c79608452e62f00169b1fe6","A3","batch1","","1290.8999999761581","stim/no_15_1_w.png","j","pattern_response","true","j","pattern_03","1290.8999999761581","true","24","","","","","","","","","","","","","","","","","","",""
"","","","","","html-keyboard-response","79","182329","0.0-2.0-5.0-0.29","5c79608452e62f00169b1fe6","A3","batch1","","null","<p class=block-text>Trial 30 out of 78</p>","null","pattern_show_trial_num","","","","","","","","","","","","","","","","","","","","","","","","",""
"","","","","","image-keyboard-response","80","185128","0.0-2.0-5.0-1.29","5c79608452e62f00169b1fe6","A3","batch1","","2794.6999999284744","stim/no_51_1.png","j","pattern_response","true","j","pattern_31","2794.6999999284744","true","25","","","","","","","","","","","","","","","","","","",""
"","","","","","html-keyboard-response","81","186444","0.0-2.0-5.0-0.30","5c79608452e62f00169b1fe6","A3","batch1","","null","<p class=block-text>Trial 31 out of 78</p>","null","pattern_show_trial_num","","","","","","","","","","","","","","","","","","","","","","","","",""
"","","","","","image-keyboard-response","82","187613","0.0-2.0-5.0-1.30","5c79608452e62f00169b1fe6","A3","batch1","","1164.9000000953674","stim/no_12_1.png","j","pattern_response","true","j","pattern_01","1164.9000000953674","true","26","","","","","","","","","","","","","","","","","","",""
"","","","","","html-keyboard-response","83","188925","0.0-2.0-5.0-0.31","5c79608452e62f00169b1fe6","A3","batch1","","null","<p class=block-text>Trial 32 out of 78</p>","null","pattern_show_trial_num","","","","","","","","","","","","","","","","","","","","","","","","",""
"","","","","","image-keyboard-response","84","190928","0.0-2.0-5.0-1.31","5c79608452e62f00169b1fe6","A3","batch1","","2000.5","stim/no_37_2_w.png","j","pattern_response","true","j","pattern_19","2000.5","true","27","","","","","","","","","","","","","","","","","","",""
"","","","","","html-keyboard-response","85","192244","0.0-2.0-5.0-0.32","5c79608452e62f00169b1fe6","A3","batch1","","null","<p class=block-text>Trial 33 out of 78</p>","null","pattern_show_trial_num","","","","","","","","","","","","","","","","","","","","","","","","",""
"","","","","","image-keyboard-response","86","196031","0.0-2.0-5.0-1.32","5c79608452e62f00169b1fe6","A3","batch1","","3782.7999999523163","stim/yes_63_dia_b1.png","j","pattern_response","false","f","pattern_78","3782.7999999523163","false","27","","","","","","","","","","","","","","","","","","",""
"","","","","","html-keyboard-response","87","197361","0.0-2.0-5.0-0.33","5c79608452e62f00169b1fe6","A3","batch1","","null","<p class=block-text>Trial 34 out of 78</p>","null","pattern_show_trial_num","","","","","","","","","","","","","","","","","","","","","","","","",""
"","","","","","image-keyboard-response","88","199827","0.0-2.0-5.0-1.33","5c79608452e62f00169b1fe6","A3","batch1","","2464.0999999046326","stim/no_43_2_b.png","j","pattern_response","true","j","pattern_23","2464.0999999046326","true","28","","","","","","","","","","","","","","","","","","",""
"","","","","","html-keyboard-response","89","201137","0.0-2.0-5.0-0.34","5c79608452e62f00169b1fe6","A3","batch1","","null","<p class=block-text>Trial 35 out of 78</p>","null","pattern_show_trial_num","","","","","","","","","","","","","","","","","","","","","","","","",""
"","","","","","image-keyboard-response","90","203616","0.0-2.0-5.0-1.34","5c79608452e62f00169b1fe6","A3","batch1","","2470.7999999523163","stim/no_36_1_b.png","j","pattern_response","true","j","pattern_17","2470.7999999523163","true","29","","","","","","","","","","","","","","","","","","",""
"","","","","","html-keyboard-response","91","204934","0.0-2.0-5.0-0.35","5c79608452e62f00169b1fe6","A3","batch1","","null","<p class=block-text>Trial 36 out of 78</p>","null","pattern_show_trial_num","","","","","","","","","","","","","","","","","","","","","","","","",""
"","","","","","image-keyboard-response","92","205955","0.0-2.0-5.0-1.35","5c79608452e62f00169b1fe6","A3","batch1","","1018.4000000953674","stim/yes_30_ver_b1_b.png","f","pattern_response","true","f","pattern_54","1018.4000000953674","true","30","","","","","","","","","","","","","","","","","","",""
"","","","","","html-keyboard-response","93","207269","0.0-2.0-5.0-0.36","5c79608452e62f00169b1fe6","A3","batch1","","null","<p class=block-text>Trial 37 out of 78</p>","null","pattern_show_trial_num","","","","","","","","","","","","","","","","","","","","","","","","",""
"","","","","","image-keyboard-response","94","210134","0.0-2.0-5.0-1.36","5c79608452e62f00169b1fe6","A3","batch1","","2861.1999999284744","stim/no_39_1_w.png","j","pattern_response","true","j","pattern_21","2861.1999999284744","true","31","","","","","","","","","","","","","","","","","","",""
"","","","","","html-keyboard-response","95","211448","0.0-2.0-5.0-0.37","5c79608452e62f00169b1fe6","A3","batch1","","null","<p class=block-text>Trial 38 out of 78</p>","null","pattern_show_trial_num","","","","","","","","","","","","","","","","","","","","","","","","",""
"","","","","","image-keyboard-response","96","212702","0.0-2.0-5.0-1.37","5c79608452e62f00169b1fe6","A3","batch1","","1252.5","stim/no_22_1_b.png","j","pattern_response","true","j","pattern_07","1252.5","true","32","","","","","","","","","","","","","","","","","","",""
"","","","","","html-keyboard-response","97","214018","0.0-2.0-5.0-0.38","5c79608452e62f00169b1fe6","A3","batch1","","null","<p class=block-text>Trial 39 out of 78</p>","null","pattern_show_trial_num","","","","","","","","","","","","","","","","","","","","","","","","",""
"","","","","","image-keyboard-response","98","215569","0.0-2.0-5.0-1.38","5c79608452e62f00169b1fe6","A3","batch1","","1548.3999999761581","stim/no_30_1_b.png","j","pattern_response","true","j","pattern_13","1548.3999999761581","true","33","","","","","","","","","","","","","","","","","","",""
"","","","","","image-keyboard-response","99","218455","0.0-2.0-6.0","5c79608452e62f00169b1fe6","A3","batch1","","2376.5","stim/empty_board.png","j","attention_check","true","j","","","","","500","[""f"",""j""]","","","","","","","","","","","","","","","","",""
"","","","","","html-keyboard-response","100","219269","0.0-2.0-7.0-0.0","5c79608452e62f00169b1fe6","A3","batch1","","null","<p class=block-text>Trial 40 out of 78</p>","null","pattern_show_trial_num","","","","","","","","","","","","","","","","","","","","","","","","",""
"","","","","","image-keyboard-response","101","221148","0.0-2.0-7.0-1.0","5c79608452e62f00169b1fe6","A3","batch1","","1875.1000000238419","stim/no_36_2_w.png","j","pattern_response","true","j","pattern_18","1875.1000000238419","true","34","","","","","","","","","","","","","","","","","","",""
"","","","","","html-keyboard-response","102","222458","0.0-2.0-7.0-0.1","5c79608452e62f00169b1fe6","A3","batch1","","null","<p class=block-text>Trial 41 out of 78</p>","null","pattern_show_trial_num","","","","","","","","","","","","","","","","","","","","","","","","",""
"","","","","","image-keyboard-response","103","224769","0.0-2.0-7.0-1.1","5c79608452e62f00169b1fe6","A3","batch1","","2309.0999999046326","stim/no_46_1_b.png","j","pattern_response","true","j","pattern_26","2309.0999999046326","true","35","","","","","","","","","","","","","","","","","","",""
"","","","","","html-keyboard-response","104","226086","0.0-2.0-7.0-0.2","5c79608452e62f00169b1fe6","A3","batch1","","null","<p class=block-text>Trial 42 out of 78</p>","null","pattern_show_trial_num","","","","","","","","","","","","","","","","","","","","","","","","",""
"","","","","","image-keyboard-response","105","229222","0.0-2.0-7.0-1.2","5c79608452e62f00169b1fe6","A3","batch1","","3133.2000000476837","stim/yes_48_dia_w1_w.png","f","pattern_response","true","f","pattern_69","3133.2000000476837","true","36","","","","","","","","","","","","","","","","","","",""
"","","","","","html-keyboard-response","106","230537","0.0-2.0-7.0-0.3","5c79608452e62f00169b1fe6","A3","batch1","","null","<p class=block-text>Trial 43 out of 78</p>","null","pattern_show_trial_num","","","","","","","","","","","","","","","","","","","","","","","","",""
"","","","","","image-keyboard-response","107","233408","0.0-2.0-7.0-1.3","5c79608452e62f00169b1fe6","A3","batch1","","2868.5","stim/no_42_1_w.png","j","pattern_response","true","j","pattern_22","2868.5","true","37","","","","","","","","","","","","","","","","","","",""
"","","","","","html-keyboard-response","108","234722","0.0-2.0-7.0-0.4","5c79608452e62f00169b1fe6","A3","batch1","","null","<p class=block-text>Trial 44 out of 78</p>","null","pattern_show_trial_num","","","","","","","","","","","","","","","","","","","","","","","","",""
"","","","","","image-keyboard-response","109","238864","0.0-2.0-7.0-1.4","5c79608452e62f00169b1fe6","A3","batch1","","4138","stim/no_70_2.png","j","pattern_response","true","j","pattern_40","4138","true","38","","","","","","","","","","","","","","","","","","",""
"","","","","","html-keyboard-response","110","240179","0.0-2.0-7.0-0.5","5c79608452e62f00169b1fe6","A3","batch1","","null","<p class=block-text>Trial 45 out of 78</p>","null","pattern_show_trial_num","","","","","","","","","","","","","","","","","","","","","","","","",""
"","","","","","image-keyboard-response","111","243007","0.0-2.0-7.0-1.5","5c79608452e62f00169b1fe6","A3","batch1","","2822.1999999284744","stim/no_44_1.png","j","pattern_response","true","j","pattern_24","2822.1999999284744","true","39","","","","","","","","","","","","","","","","","","",""
"","","","","","html-keyboard-response","112","244318","0.0-2.0-7.0-0.6","5c79608452e62f00169b1fe6","A3","batch1","","null","<p class=block-text>Trial 46 out of 78</p>","null","pattern_show_trial_num","","","","","","","","","","","","","","","","","","","","","","","","",""
"","","","","","image-keyboard-response","113","246531","0.0-2.0-7.0-1.6","5c79608452e62f00169b1fe6","A3","batch1","","2208.2000000476837","stim/yes_37_dia_w1.png","f","pattern_response","true","f","pattern_59","2208.2000000476837","true","40","","","","","","","","","","","","","","","","","","",""
"","","","","","html-keyboard-response","114","247842","0.0-2.0-7.0-0.7","5c79608452e62f00169b1fe6","A3","batch1","","null","<p class=block-text>Trial 47 out of 78</p>","null","pattern_show_trial_num","","","","","","","","","","","","","","","","","","","","","","","","",""
"","","","","","image-keyboard-response","115","250771","0.0-2.0-7.0-1.7","5c79608452e62f00169b1fe6","A3","batch1","","2924.3000000715256","stim/no_34_1_b.png","j","pattern_response","true","j","pattern_16","2924.3000000715256","true","41","","","","","","","","","","","","","","","","","","",""
"","","","","","html-keyboard-response","116","252084","0.0-2.0-7.0-0.8","5c79608452e62f00169b1fe6","A3","batch1","","null","<p class=block-text>Trial 48 out of 78</p>","null","pattern_show_trial_num","","","","","","","","","","","","","","","","","","","","","","","","",""
"","","","","","image-keyboard-response","117","253935","0.0-2.0-7.0-1.8","5c79608452e62f00169b1fe6","A3","batch1","","1844.6000000238419","stim/yes_31_hor_b1.png","j","pattern_response","false","f","pattern_55","1844.6000000238419","false","41","","","","","","","","","","","","","","","","","","",""
"","","","","","html-keyboard-response","118","255253","0.0-2.0-7.0-0.9","5c79608452e62f00169b1fe6","A3","batch1","","null","<p class=block-text>Trial 49 out of 78</p>","null","pattern_show_trial_num","","","","","","","","","","","","","","","","","","","","","","","","",""
"","","","","","image-keyboard-response","119","257202","0.0-2.0-7.0-1.9","5c79608452e62f00169b1fe6","A3","batch1","","1944.3000000715256","stim/yes_45_hor_b2_b.png","f","pattern_response","true","f","pattern_67","1944.3000000715256","true","42","","","","","","","","","","","","","","","","","","",""
"","","","","","html-keyboard-response","120","258520","0.0-2.0-7.0-0.10","5c79608452e62f00169b1fe6","A3","batch1","","null","<p class=block-text>Trial 50 out of 78</p>","null","pattern_show_trial_num","","","","","","","","","","","","","","","","","","","","","","","","",""
"","","","","","image-keyboard-response","121","259826","0.0-2.0-7.0-1.10","5c79608452e62f00169b1fe6","A3","batch1","","1301","stim/yes_40_dia_b1_b.png","f","pattern_response","true","f","pattern_63","1301","true","43","","","","","","","","","","","","","","","","","","",""
"","","","","","html-keyboard-response","122","261139","0.0-2.0-7.0-0.11","5c79608452e62f00169b1fe6","A3","batch1","","null","<p class=block-text>Trial 51 out of 78</p>","null","pattern_show_trial_num","","","","","","","","","","","","","","","","","","","","","","","","",""
"","","","","","image-keyboard-response","123","262843","0.0-2.0-7.0-1.11","5c79608452e62f00169b1fe6","A3","batch1","","1700.7000000476837","stim/no_26_1_w.png","j","pattern_response","true","j","pattern_10","1700.7000000476837","true","44","","","","","","","","","","","","","","","","","","",""
"","","","","","html-keyboard-response","124","264159","0.0-2.0-7.0-0.12","5c79608452e62f00169b1fe6","A3","batch1","","null","<p class=block-text>Trial 52 out of 78</p>","null","pattern_show_trial_num","","","","","","","","","","","","","","","","","","","","","","","","",""
"","","","","","image-keyboard-response","125","266049","0.0-2.0-7.0-1.12","5c79608452e62f00169b1fe6","A3","batch1","","1887.5","stim/yes_38_hor_b1_b.png","f","pattern_response","true","f","pattern_61","1887.5","true","45","","","","","","","","","","","","","","","","","","",""
"","","","","","html-keyboard-response","126","267364","0.0-2.0-7.0-0.13","5c79608452e62f00169b1fe6","A3","batch1","","null","<p class=block-text>Trial 53 out of 78</p>","null","pattern_show_trial_num","","","","","","","","","","","","","","","","","","","","","","","","",""
"","","","","","image-keyboard-response","127","270374","0.0-2.0-7.0-1.13","5c79608452e62f00169b1fe6","A3","batch1","","3008","stim/no_38_1_b.png","j","pattern_response","true","j","pattern_20","3008","true","46","","","","","","","","","","","","","","","","","","",""
"","","","","","html-keyboard-response","128","271689","0.0-2.0-7.0-0.14","5c79608452e62f00169b1fe6","A3","batch1","","null","<p class=block-text>Trial 54 out of 78</p>","null","pattern_show_trial_num","","","","","","","","","","","","","","","","","","","","","","","","",""
"","","","","","image-keyboard-response","129","273593","0.0-2.0-7.0-1.14","5c79608452e62f00169b1fe6","A3","batch1","","1900.7000000476837","stim/yes_29_ver_w1.png","f","pattern_response","true","f","pattern_53","1900.7000000476837","true","47","","","","","","","","","","","","","","","","","","",""
"","","","","","html-keyboard-response","130","274908","0.0-2.0-7.0-0.15","5c79608452e62f00169b1fe6","A3","batch1","","null","<p class=block-text>Trial 55 out of 78</p>","null","pattern_show_trial_num","","","","","","","","","","","","","","","","","","","","","","","","",""
"","","","","","image-keyboard-response","131","276256","0.0-2.0-7.0-1.15","5c79608452e62f00169b1fe6","A3","batch1","","1345.5","stim/no_20_1_w.png","j","pattern_response","true","j","pattern_06","1345.5","true","48","","","","","","","","","","","","","","","","","","",""
"","","","","","html-keyboard-response","132","277574","0.0-2.0-7.0-0.16","5c79608452e62f00169b1fe6","A3","batch1","","null","<p class=block-text>Trial 56 out of 78</p>","null","pattern_show_trial_num","","","","","","","","","","","","","","","","","","","","","","","","",""
"","","","","","image-keyboard-response","133","280536","0.0-2.0-7.0-1.16","5c79608452e62f00169b1fe6","A3","batch1","","2957.5","stim/no_23_1.png","j","pattern_response","true","j","pattern_08","2957.5","true","49","","","","","","","","","","","","","","","","","","",""
"","","","","","html-keyboard-response","134","281854","0.0-2.0-7.0-0.17","5c79608452e62f00169b1fe6","A3","batch1","","null","<p class=block-text>Trial 57 out of 78</p>","null","pattern_show_trial_num","","","","","","","","","","","","","","","","","","","","","","","","",""
"","","","","","image-keyboard-response","135","284560","0.0-2.0-7.0-1.17","5c79608452e62f00169b1fe6","A3","batch1","","2703.3000000715256","stim/no_32_1_w.png","j","pattern_response","true","j","pattern_14","2703.3000000715256","true","50","","","","","","","","","","","","","","","","","","",""
"","","","","","html-keyboard-response","136","285876","0.0-2.0-7.0-0.18","5c79608452e62f00169b1fe6","A3","batch1","","null","<p class=block-text>Trial 58 out of 78</p>","null","pattern_show_trial_num","","","","","","","","","","","","","","","","","","","","","","","","",""
"","","","","","image-keyboard-response","137","289497","0.0-2.0-7.0-1.18","5c79608452e62f00169b1fe6","A3","batch1","","3618.7999999523163","stim/no_52_1.png","j","pattern_response","true","j","pattern_32","3618.7999999523163","true","51","","","","","","","","","","","","","","","","","","",""
"","","","","","html-keyboard-response","138","290815","0.0-2.0-7.0-0.19","5c79608452e62f00169b1fe6","A3","batch1","","null","<p class=block-text>Trial 59 out of 78</p>","null","pattern_show_trial_num","","","","","","","","","","","","","","","","","","","","","","","","",""
"","","","","","image-keyboard-response","139","295171","0.0-2.0-7.0-1.19","5c79608452e62f00169b1fe6","A3","batch1","","4351.600000023842","stim/yes_50_dia_w1.png","j","pattern_response","false","f","pattern_71","4351.600000023842","false","51","","","","","","","","","","","","","","","","","","",""
"","","","","","html-keyboard-response","140","296486","0.0-2.0-7.0-0.20","5c79608452e62f00169b1fe6","A3","batch1","","null","<p class=block-text>Trial 60 out of 78</p>","null","pattern_show_trial_num","","","","","","","","","","","","","","","","","","","","","","","","",""
"","","","","","image-keyboard-response","141","298254","0.0-2.0-7.0-1.20","5c79608452e62f00169b1fe6","A3","batch1","","1763.6999999284744","stim/no_17_1_w.png","j","pattern_response","true","j","pattern_04","1763.6999999284744","true","52","","","","","","","","","","","","","","","","","","",""
"","","","","","html-keyboard-response","142","299563","0.0-2.0-7.0-0.21","5c79608452e62f00169b1fe6","A3","batch1","","null","<p class=block-text>Trial 61 out of 78</p>","null","pattern_show_trial_num","","","","","","","","","","","","","","","","","","","","","","","","",""
"","","","","","image-keyboard-response","143","300370","0.0-2.0-7.0-1.21","5c79608452e62f00169b1fe6","A3","batch1","","803.7999999523163","stim/yes_17_dia_w1.png","f","pattern_response","true","f","pattern_45","803.7999999523163","true","53","","","","","","","","","","","","","","","","","","",""
"","","","","","html-keyboard-response","144","301686","0.0-2.0-7.0-0.22","5c79608452e62f00169b1fe6","A3","batch1","","null","<p class=block-text>Trial 62 out of 78</p>","null","pattern_show_trial_num","","","","","","","","","","","","","","","","","","","","","","","","",""
"","","","","","image-keyboard-response","145","303621","0.0-2.0-7.0-1.22","5c79608452e62f00169b1fe6","A3","batch1","","1931.1000000238419","stim/no_29_1_b.png","j","pattern_response","true","j","pattern_12","1931.1000000238419","true","54","","","","","","","","","","","","","","","","","","",""
"","","","","","html-keyboard-response","146","304935","0.0-2.0-7.0-0.23","5c79608452e62f00169b1fe6","A3","batch1","","null","<p class=block-text>Trial 63 out of 78</p>","null","pattern_show_trial_num","","","","","","","","","","","","","","","","","","","","","","","","",""
"","","","","","image-keyboard-response","147","308236","0.0-2.0-7.0-1.23","5c79608452e62f00169b1fe6","A3","batch1","","3298.600000023842","stim/no_62_1_w.png","j","pattern_response","true","j","pattern_36","3298.600000023842","true","55","","","","","","","","","","","","","","","","","","",""
"","","","","","html-keyboard-response","148","309547","0.0-2.0-7.0-0.24","5c79608452e62f00169b1fe6","A3","batch1","","null","<p class=block-text>Trial 64 out of 78</p>","null","pattern_show_trial_num","","","","","","","","","","","","","","","","","","","","","","","","",""
"","","","","","image-keyboard-response","149","310426","0.0-2.0-7.0-1.24","5c79608452e62f00169b1fe6","A3","batch1","","876.5","stim/yes_22_ver_w1.png","f","pattern_response","true","f","pattern_47","876.5","true","56","","","","","","","","","","","","","","","","","","",""
"","","","","","html-keyboard-response","150","311744","0.0-2.0-7.0-0.25","5c79608452e62f00169b1fe6","A3","batch1","","null","<p class=block-text>Trial 65 out of 78</p>","null","pattern_show_trial_num","","","","","","","","","","","","","","","","","","","","","","","","",""
"","","","","","image-keyboard-response","151","312638","0.0-2.0-7.0-1.25","5c79608452e62f00169b1fe6","A3","batch1","","889.8999999761581","stim/no_13_2_b.png","j","pattern_response","true","j","pattern_02","889.8999999761581","true","57","","","","","","","","","","","","","","","","","","",""
"","","","","","html-keyboard-response","152","313952","0.0-2.0-7.0-0.26","5c79608452e62f00169b1fe6","A3","batch1","","null","<p class=block-text>Trial 66 out of 78</p>","null","pattern_show_trial_num","","","","","","","","","","","","","","","","","","","","","","","","",""
"","","","","","image-keyboard-response","153","315208","0.0-2.0-7.0-1.26","5c79608452e62f00169b1fe6","A3","batch1","","1252.7000000476837","stim/yes_67_hor_b1.png","f","pattern_response","true","f","pattern_79","1252.7000000476837","true","58","","","","","","","","","","","","","","","","","","",""
"","","","","","html-keyboard-response","154","316526","0.0-2.0-7.0-0.27","5c79608452e62f00169b1fe6","A3","batch1","","null","<p class=block-text>Trial 67 out of 78</p>","null","pattern_show_trial_num","","","","","","","","","","","","","","","","","","","","","","","","",""
"","","","","","image-keyboard-response","155","319416","0.0-2.0-7.0-1.27","5c79608452e62f00169b1fe6","A3","batch1","","2887.600000023842","stim/yes_60_ver_b1_b.png","j","pattern_response","false","f","pattern_77","2887.600000023842","false","58","","","","","","","","","","","","","","","","","","",""
"","","","","","html-keyboard-response","156","320735","0.0-2.0-7.0-0.28","5c79608452e62f00169b1fe6","A3","batch1","","null","<p class=block-text>Trial 68 out of 78</p>","null","pattern_show_trial_num","","","","","","","","","","","","","","","","","","","","","","","","",""
"","","","","","image-keyboard-response","157","321974","0.0-2.0-7.0-1.28","5c79608452e62f00169b1fe6","A3","batch1","","1235.0999999046326","stim/yes_43_ver_w1_w.png","f","pattern_response","true","f","pattern_65","1235.0999999046326","true","59","","","","","","","","","","","","","","","","","","",""
"","","","","","html-keyboard-response","158","323283","0.0-2.0-7.0-0.29","5c79608452e62f00169b1fe6","A3","batch1","","null","<p class=block-text>Trial 69 out of 78</p>","null","pattern_show_trial_num","","","","","","","","","","","","","","","","","","","","","","","","",""
"","","","","","image-keyboard-response","159","324639","0.0-2.0-7.0-1.29","5c79608452e62f00169b1fe6","A3","batch1","","1352.2999999523163","stim/yes_52_ver_w1.png","f","pattern_response","true","f","pattern_73","1352.2999999523163","true","60","","","","","","","","","","","","","","","","","","",""
"","","","","","html-keyboard-response","160","325976","0.0-2.0-7.0-0.30","5c79608452e62f00169b1fe6","A3","batch1","","null","<p class=block-text>Trial 70 out of 78</p>","null","pattern_show_trial_num","","","","","","","","","","","","","","","","","","","","","","","","",""
"","","","","","image-keyboard-response","161","329040","0.0-2.0-7.0-1.30","5c79608452e62f00169b1fe6","A3","batch1","","3060.899999976158","stim/no_50_1.png","j","pattern_response","true","j","pattern_30","3060.899999976158","true","61","","","","","","","","","","","","","","","","","","",""
"","","","","","html-keyboard-response","162","330354","0.0-2.0-7.0-0.31","5c79608452e62f00169b1fe6","A3","batch1","","null","<p class=block-text>Trial 71 out of 78</p>","null","pattern_show_trial_num","","","","","","","","","","","","","","","","","","","","","","","","",""
"","","","","","image-keyboard-response","163","332546","0.0-2.0-7.0-1.31","5c79608452e62f00169b1fe6","A3","batch1","","2189.600000023842","stim/yes_35_dia_b1.png","f","pattern_response","true","f","pattern_57","2189.600000023842","true","62","","","","","","","","","","","","","","","","","","",""
"","","","","","html-keyboard-response","164","333862","0.0-2.0-7.0-0.32","5c79608452e62f00169b1fe6","A3","batch1","","null","<p class=block-text>Trial 72 out of 78</p>","null","pattern_show_trial_num","","","","","","","","","","","","","","","","","","","","","","","","",""
"","","","","","image-keyboard-response","165","336986","0.0-2.0-7.0-1.32","5c79608452e62f00169b1fe6","A3","batch1","","3118.7000000476837","stim/no_55_1_w.png","j","pattern_response","true","j","pattern_34","3118.7000000476837","true","63","","","","","","","","","","","","","","","","","","",""
"","","","","","html-keyboard-response","166","338303","0.0-2.0-7.0-0.33","5c79608452e62f00169b1fe6","A3","batch1","","null","<p class=block-text>Trial 73 out of 78</p>","null","pattern_show_trial_num","","","","","","","","","","","","","","","","","","","","","","","","",""
"","","","","","image-keyboard-response","167","339142","0.0-2.0-7.0-1.33","5c79608452e62f00169b1fe6","A3","batch1","","835.6999999284744","stim/yes_25_hor_b1_b.png","f","pattern_response","true","f","pattern_49","835.6999999284744","true","64","","","","","","","","","","","","","","","","","","",""
"","","","","","html-keyboard-response","168","340455","0.0-2.0-7.0-0.34","5c79608452e62f00169b1fe6","A3","batch1","","null","<p class=block-text>Trial 74 out of 78</p>","null","pattern_show_trial_num","","","","","","","","","","","","","","","","","","","","","","","","",""
"","","","","","image-keyboard-response","169","344453","0.0-2.0-7.0-1.34","5c79608452e62f00169b1fe6","A3","batch1","","3993.6999999284744","stim/no_65_1_b.png","j","pattern_response","true","j","pattern_38","3993.6999999284744","true","65","","","","","","","","","","","","","","","","","","",""
"","","","","","html-keyboard-response","170","345765","0.0-2.0-7.0-0.35","5c79608452e62f00169b1fe6","A3","batch1","","null","<p class=block-text>Trial 75 out of 78</p>","null","pattern_show_trial_num","","","","","","","","","","","","","","","","","","","","","","","","",""
"","","","","","image-keyboard-response","171","346786","0.0-2.0-7.0-1.35","5c79608452e62f00169b1fe6","A3","batch1","","1016.5999999046326","stim/yes_55_hor_w1_w.png","f","pattern_response","true","f","pattern_75","1016.5999999046326","true","66","","","","","","","","","","","","","","","","","","",""
"","","","","","html-keyboard-response","172","348100","0.0-2.0-7.0-0.36","5c79608452e62f00169b1fe6","A3","batch1","","null","<p class=block-text>Trial 76 out of 78</p>","null","pattern_show_trial_num","","","","","","","","","","","","","","","","","","","","","","","","",""
"","","","","","image-keyboard-response","173","349041","0.0-2.0-7.0-1.36","5c79608452e62f00169b1fe6","A3","batch1","","937.3000000715256","stim/yes_28_ver_b1.png","f","pattern_response","true","f","pattern_51","937.3000000715256","true","67","","","","","","","","","","","","","","","","","","",""
"","","","","","html-keyboard-response","174","350355","0.0-2.0-7.0-0.37","5c79608452e62f00169b1fe6","A3","batch1","","null","<p class=block-text>Trial 77 out of 78</p>","null","pattern_show_trial_num","","","","","","","","","","","","","","","","","","","","","","","","",""
"","","","","","image-keyboard-response","175","351031","0.0-2.0-7.0-1.37","5c79608452e62f00169b1fe6","A3","batch1","","672.1000000238419","stim/yes_14_hor_b1_w.png","f","pattern_response","true","f","pattern_43","672.1000000238419","true","68","","","","","","","","","","","","","","","","","","",""
"","","","","","html-keyboard-response","176","352341","0.0-2.0-7.0-0.38","5c79608452e62f00169b1fe6","A3","batch1","","null","<p class=block-text>Trial 78 out of 78</p>","null","pattern_show_trial_num","","","","","","","","","","","","","","","","","","","","","","","","",""
"","","","","","image-keyboard-response","177","356082","0.0-2.0-7.0-1.38","5c79608452e62f00169b1fe6","A3","batch1","","3740","stim/no_48_1_w.png","j","pattern_response","true","j","pattern_28","3740","true","69","","","","","","","","","","","","","","","","","","",""
"","","","","","html-button-response","178","358938","0.0-2.0-8.0","5c79608452e62f00169b1fe6","A3","batch1","","2343.899999976158","<p class = block-text>This concludes the 4-in-a-row detection game.Thank you for your responses!<br>
            You responded correctly on 88% of the trials.<br>
            When you are ready, press ""Continue"" button to continue </p>","0","","","","","","","","","","","","","","","","","","","","","","","","","",""
"true","","","","","fullscreen","179","361405","0.0-3.0-0.0","5c79608452e62f00169b1fe6","A3","batch1","","","","","","","","","","","","","","","","","","","","","","","","","","","","","",""
"","","","","","instructions","180","437143","0.0-3.0-1.0-0.0-0.0","5c79608452e62f00169b1fe6","A3","batch1","[{""page_index"":0,""viewing_time"":12742.600000023842},{""page_index"":1,""viewing_time"":5617},{""page_index"":2,""viewing_time"":8798},{""page_index"":3,""viewing_time"":10089.200000047684},{""page_index"":4,""viewing_time"":12463.899999976158},{""page_index"":5,""viewing_time"":21882.100000023842},{""page_index"":6,""viewing_time"":4143}]","75737.20000004768","","","tol-instructions","","","","","","","","","","","","","","","","","","","","","","","","",""
"","","","","","html-button-response","181","438151","0.0-3.0-1.0-1.0-0.0","5c79608452e62f00169b1fe6","A3","batch1","","1004.3999999761581","<p class=block-text> Let's answer a few questions <br>","0","tol_enter_quiz","","","","","","","","","","","","","","","","","","","","","","","","",""
"","","","","","html-button-response","182","446250","0.0-3.0-1.0-1.0-1.0","5c79608452e62f00169b1fe6","A3","batch1","","8095.200000047684","<p class = block-text>True or False: You can only move the ball on top of a peg. <br></p>","0","tol_quiz","true","","","","","","","","","","","","","","","","","","","","","","","",""
"","","","","","html-button-response","183","447600","0.0-3.0-1.0-1.0-2.0","5c79608452e62f00169b1fe6","A3","batch1","","1345.8000000715256","<p class = block-text>Correct! You can only move the ball on top of a peg.</p>","0","tol_quiz_feedback","","","","","","","","","","","","","","","","","","","","","","","","",""
"","","","","","html-button-response","184","451971","0.0-3.0-1.0-1.0-3.0","5c79608452e62f00169b1fe6","A3","batch1","","4368.899999976158","<p class = block-text>True or False: You should try to match your board with the target board with fewest moves possible. <br></p>","0","tol_quiz","true","","","","","","","","","","","","","","","","","","","","","","","",""
"","","","","","html-button-response","185","452798","0.0-3.0-1.0-1.0-4.0","5c79608452e62f00169b1fe6","A3","batch1","","824.2999999523163","<p class = block-text>Correct! </p>","0","tol_quiz_feedback","","","","","","","","","","","","","","","","","","","","","","","","",""
"","","","","","html-button-response","186","454063","0.0-3.0-2.0","5c79608452e62f00169b1fe6","A3","batch1","","1262.5","<p class=block-text> Now that you've understood the game, let's practice a few easier examples before we start!<br> <br>","0","","","","","","","","","","","","","","","","","","","","","","","","","",""
"","","","","","single-stim-button","187","457032","0.0-3.0-3.0-0.0","5c79608452e62f00169b1fe6","A3","batch1","","2967","","","tol_practice","","","","","","","","","tol_peg_2","2967","2967","0","[[1,2,0],[0,0],[0]]","1","[[1,2,0],[0,0],[3]]","practice","2967","","","","","","","",""
"","","","","","single-stim-button","188","458114","0.0-3.0-3.0-1.0","5c79608452e62f00169b1fe6","A3","batch1","","1082","","","tol_practice","","","","","","","","","tol_peg_3","1082","1082","0","[[1,2,0],[0,0],[3]]","1","[[1,2,0],[0,0],[3]]","practice","1082","","","","","","","",""
"","","","","","poldrack-single-stim","189","459127","0.0-3.0-4.0","5c79608452e62f00169b1fe6","A3","batch1","","-1","","","tol_feedback","true","","","","","","","","","1000","1000","500","","","","","","-1","none","true","","0","","",""
"","","","","","single-stim-button","190","462476","0.0-3.0-5.0-0.0","5c79608452e62f00169b1fe6","A3","batch1","","3347","","","tol_practice","","","","","","","","","tol_peg_1","3347","3347","0","[[1,0,0],[3,0],[0]]","2","[[0,0,0],[3,1],[2]]","practice","3347","","","","","","","",""
"","","","","","single-stim-button","191","463495","0.0-3.0-5.0-1.0","5c79608452e62f00169b1fe6","A3","batch1","","1017","","","tol_practice","","","","","","","","","tol_peg_3","1017","1017","0","[[1,0,0],[3,0],[2]]","2","[[0,0,0],[3,1],[2]]","practice","1017","","","","","","","",""
"","","","","","single-stim-button","192","464224","0.0-3.0-5.1-0.1","5c79608452e62f00169b1fe6","A3","batch1","","728","","","tol_practice","","","","","","","","","tol_peg_1","728","728","0","[[0,0,0],[3,0],[2]]","3","[[0,0,0],[3,1],[2]]","practice","728","","","","","","","",""
"","","","","","single-stim-button","193","465152","0.0-3.0-5.1-1.1","5c79608452e62f00169b1fe6","A3","batch1","","926","","","tol_practice","","","","","","","","","tol_peg_2","926","926","0","[[0,0,0],[3,1],[2]]","3","[[0,0,0],[3,1],[2]]","practice","926","","","","","","","",""
"","","","","","poldrack-single-stim","194","466160","0.0-3.0-6.0","5c79608452e62f00169b1fe6","A3","batch1","","-1","","","tol_feedback","true","","","","","","","","","1000","1000","500","","","","","","-1","none","true","","0","","",""
"","","","","","single-stim-button","195","468255","0.0-3.0-7.0-0.0","5c79608452e62f00169b1fe6","A3","batch1","","2093","","","tol_practice","","","","","","","","","tol_peg_2","2093","2093","0","[[1,2,0],[0,0],[0]]","4","[[1,0,0],[2,0],[3]]","practice","2093","","","","","","","",""
"","","","","","single-stim-button","196","469349","0.0-3.0-7.0-1.0","5c79608452e62f00169b1fe6","A3","batch1","","1092","","","tol_practice","","","","","","","","","tol_peg_3","1092","1092","0","[[1,2,0],[0,0],[3]]","4","[[1,0,0],[2,0],[3]]","practice","1092","","","","","","","",""
"","","","","","single-stim-button","197","470200","0.0-3.0-7.1-0.1","5c79608452e62f00169b1fe6","A3","batch1","","849","","","tol_practice","","","","","","","","","tol_peg_1","849","849","0","[[1,0,0],[0,0],[3]]","5","[[1,0,0],[2,0],[3]]","practice","849","","","","","","","",""
"","","","","","single-stim-button","198","471107","0.0-3.0-7.1-1.1","5c79608452e62f00169b1fe6","A3","batch1","","906","","","tol_practice","","","","","","","","","tol_peg_2","906","906","0","[[1,0,0],[2,0],[3]]","5","[[1,0,0],[2,0],[3]]","practice","906","","","","","","","",""
"","","","","","poldrack-single-stim","199","472120","0.0-3.0-8.0","5c79608452e62f00169b1fe6","A3","batch1","","-1","","","tol_feedback","true","","","","","","","","","1000","1000","500","","","","","","-1","none","true","","0","","",""
"","","","","","html-button-response","200","475242","0.0-3.0-9.0","5c79608452e62f00169b1fe6","A3","batch1","","3120.3000000715256","<div class = centerbox><p class = center-block-text>Great job! You are done with practice trials<br>You are about to start official trials.<br> <br> Problem <strong>1</strong> out of 25 problems</p></div>","0","tol_instruction","","","","","","","","","","","","","","","","","","","","","","","","",""
"","","","","","single-stim-button","201","478691","0.0-3.0-10.0-0.0","5c79608452e62f00169b1fe6","A3","batch1","","2435","","","tol_tohand","","","","","","","","","tol_peg_1","2435","2435","0","[[1,0,0],[3,0],[0]]","1","[[1,3,0],[2,0],[0]]","0","0","","","","","","3","",""
"","","","","","single-stim-button","202","479571","0.0-3.0-10.0-1.0","5c79608452e62f00169b1fe6","A3","batch1","","877","","","tol_toboard","","","","","","","","","tol_peg_3","877","877","0","[[1,0,0],[3,0],[2]]","1","[[1,3,0],[2,0],[0]]","0","0","","","","","","3","",""
"","","","","","single-stim-button","203","480217","0.0-3.0-10.1-0.1","5c79608452e62f00169b1fe6","A3","batch1","","644","","","tol_tohand","","","","","","","","","tol_peg_2","644","644","0","[[1,0,0],[0,0],[2]]","2","[[1,3,0],[2,0],[0]]","0","0","","","","","","3","",""
"","","","","","single-stim-button","204","481323","0.0-3.0-10.1-1.1","5c79608452e62f00169b1fe6","A3","batch1","","1105","","","tol_toboard","","","","","","","","","tol_peg_1","1105","1105","0","[[1,3,0],[0,0],[2]]","2","[[1,3,0],[2,0],[0]]","0","0","","","","","","3","",""
"","","","","","single-stim-button","205","482276","0.0-3.0-10.2-0.2","5c79608452e62f00169b1fe6","A3","batch1","","951","","","tol_tohand","","","","","","","","","tol_peg_3","951","951","0","[[1,3,0],[0,0],[0]]","3","[[1,3,0],[2,0],[0]]","0","0","","","","","","3","",""
"","","","","","single-stim-button","206","483126","0.0-3.0-10.2-1.2","5c79608452e62f00169b1fe6","A3","batch1","","848","","","tol_toboard","","","","","","","","","tol_peg_2","848","848","0","[[1,3,0],[2,0],[0]]","3","[[1,3,0],[2,0],[0]]","0","0","","","","","","3","",""
"","","","","","poldrack-single-stim","207","484137","0.0-3.0-11.0","5c79608452e62f00169b1fe6","A3","batch1","","-1","","","tol_feedback","true","","","","","","","","","1000","1000","500","","","","","","-1","none","true","2435","4030","","",""
"","","","","","html-button-response","208","485838","0.0-3.0-12.0","5c79608452e62f00169b1fe6","A3","batch1","","1698.2000000476837","<div class = centerbox><p class = center-block-text>problem <strong>2</strong> out of 25 problems</p></div>","0","tol_trial_num","","","","","","","","","","","","","","","","","","","","","","","","",""
"","","","","","single-stim-button","209","488967","0.0-3.0-13.0-0.0","5c79608452e62f00169b1fe6","A3","batch1","","3128","","","tol_tohand","","","","","","","","","tol_peg_1","3128","3128","0","[[1,0,0],[3,0],[0]]","1","[[2,1,3],[0,0],[0]]","1","0","","","","","","5","",""
"","","","","","single-stim-button","210","492064","0.0-3.0-13.0-1.0","5c79608452e62f00169b1fe6","A3","batch1","","3094","","","tol_toboard","","","","","","","","","tol_peg_2","3094","3094","0","[[1,0,0],[3,2],[0]]","1","[[2,1,3],[0,0],[0]]","1","0","","","","","","5","",""
"","","","","","single-stim-button","211","492882","0.0-3.0-13.1-0.1","5c79608452e62f00169b1fe6","A3","batch1","","817","","","tol_tohand","","","","","","","","","tol_peg_1","817","817","0","[[0,0,0],[3,2],[0]]","2","[[2,1,3],[0,0],[0]]","1","0","","","","","","5","",""
"","","","","","single-stim-button","212","493859","0.0-3.0-13.1-1.1","5c79608452e62f00169b1fe6","A3","batch1","","977","","","tol_toboard","","","","","","","","","tol_peg_3","977","977","0","[[0,0,0],[3,2],[1]]","2","[[2,1,3],[0,0],[0]]","1","0","","","","","","5","",""
"","","","","","single-stim-button","213","494586","0.0-3.0-13.2-0.2","5c79608452e62f00169b1fe6","A3","batch1","","725","","","tol_tohand","","","","","","","","","tol_peg_2","725","725","0","[[0,0,0],[3,0],[1]]","3","[[2,1,3],[0,0],[0]]","1","0","","","","","","5","",""
"","","","","","single-stim-button","214","495363","0.0-3.0-13.2-1.2","5c79608452e62f00169b1fe6","A3","batch1","","776","","","tol_toboard","","","","","","","","","tol_peg_1","776","776","0","[[2,0,0],[3,0],[1]]","3","[[2,1,3],[0,0],[0]]","1","0","","","","","","5","",""
"","","","","","single-stim-button","215","496075","0.0-3.0-13.3-0.3","5c79608452e62f00169b1fe6","A3","batch1","","710","","","tol_tohand","","","","","","","","","tol_peg_3","710","710","0","[[2,0,0],[3,0],[0]]","4","[[2,1,3],[0,0],[0]]","1","0","","","","","","5","",""
"","","","","","single-stim-button","216","496807","0.0-3.0-13.3-1.3","5c79608452e62f00169b1fe6","A3","batch1","","731","","","tol_toboard","","","","","","","","","tol_peg_1","731","731","0","[[2,1,0],[3,0],[0]]","4","[[2,1,3],[0,0],[0]]","1","0","","","","","","5","",""
"","","","","","single-stim-button","217","497558","0.0-3.0-13.4-0.4","5c79608452e62f00169b1fe6","A3","batch1","","749","","","tol_tohand","","","","","","","","","tol_peg_2","749","749","0","[[2,1,0],[0,0],[0]]","5","[[2,1,3],[0,0],[0]]","1","0","","","","","","5","",""
"","","","","","single-stim-button","218","498700","0.0-3.0-13.4-1.4","5c79608452e62f00169b1fe6","A3","batch1","","1141","","","tol_toboard","","","","","","","","","tol_peg_1","1141","1141","0","[[2,1,3],[0,0],[0]]","5","[[2,1,3],[0,0],[0]]","1","0","","","","","","5","",""
"","","","","","poldrack-single-stim","219","499712","0.0-3.0-14.0","5c79608452e62f00169b1fe6","A3","batch1","","-1","","","tol_feedback","true","","","","","","","","","1000","1000","500","","","","","","-1","none","true","3128","6129","","",""
"","","","","","html-button-response","220","503517","0.0-3.0-15.0","5c79608452e62f00169b1fe6","A3","batch1","","3803.6999999284744","<div class = centerbox><p class = center-block-text>problem <strong>3</strong> out of 25 problems</p></div>","0","tol_trial_num","","","","","","","","","","","","","","","","","","","","","","","","",""
"","","","","","single-stim-button","221","506090","0.0-3.0-16.0-0.0","5c79608452e62f00169b1fe6","A3","batch1","","2571","","","tol_tohand","","","","","","","","","tol_peg_1","2571","2571","0","[[2,0,0],[0,0],[1]]","1","[[1,2,0],[3,0],[0]]","2","0","","","","","","4","",""
"","","","","","single-stim-button","222","506971","0.0-3.0-16.0-1.0","5c79608452e62f00169b1fe6","A3","batch1","","880","","","tol_toboard","","","","","","","","","tol_peg_2","880","880","0","[[2,0,0],[3,0],[1]]","1","[[1,2,0],[3,0],[0]]","2","0","","","","","","4","",""
"","","","","","single-stim-button","223","508078","0.0-3.0-16.1-0.1","5c79608452e62f00169b1fe6","A3","batch1","","1105","","","tol_tohand","","","","","","","","","tol_peg_1","1105","1105","0","[[0,0,0],[3,0],[1]]","2","[[1,2,0],[3,0],[0]]","2","0","","","","","","4","",""
"","","","","","single-stim-button","224","509231","0.0-3.0-16.1-1.1","5c79608452e62f00169b1fe6","A3","batch1","","1152","","","tol_toboard","","","","","","","","","tol_peg_2","1152","1152","0","[[0,0,0],[3,2],[1]]","2","[[1,2,0],[3,0],[0]]","2","0","","","","","","4","",""
"","","","","","single-stim-button","225","509900","0.0-3.0-16.2-0.2","5c79608452e62f00169b1fe6","A3","batch1","","668","","","tol_tohand","","","","","","","","","tol_peg_3","668","668","0","[[0,0,0],[3,2],[0]]","3","[[1,2,0],[3,0],[0]]","2","0","","","","","","4","",""
"","","","","","single-stim-button","226","510849","0.0-3.0-16.2-1.2","5c79608452e62f00169b1fe6","A3","batch1","","949","","","tol_toboard","","","","","","","","","tol_peg_1","949","949","0","[[1,0,0],[3,2],[0]]","3","[[1,2,0],[3,0],[0]]","2","0","","","","","","4","",""
"","","","","","single-stim-button","227","511518","0.0-3.0-16.3-0.3","5c79608452e62f00169b1fe6","A3","batch1","","669","","","tol_tohand","","","","","","","","","tol_peg_2","669","669","0","[[1,0,0],[3,0],[0]]","4","[[1,2,0],[3,0],[0]]","2","0","","","","","","4","",""
"","","","","","single-stim-button","228","512231","0.0-3.0-16.3-1.3","5c79608452e62f00169b1fe6","A3","batch1","","713","","","tol_toboard","","","","","","","","","tol_peg_1","713","713","0","[[1,2,0],[3,0],[0]]","4","[[1,2,0],[3,0],[0]]","2","0","","","","","","4","",""
"","","","","","poldrack-single-stim","229","513237","0.0-3.0-17.0","5c79608452e62f00169b1fe6","A3","batch1","","-1","","","tol_feedback","true","","","","","","","","","1000","1000","500","","","","","","-1","none","true","2571","5013","","",""
"","","","","","html-button-response","230","514396","0.0-3.0-18.0","5c79608452e62f00169b1fe6","A3","batch1","","1156.2999999523163","<div class = centerbox><p class = center-block-text>problem <strong>4</strong> out of 25 problems</p></div>","0","tol_trial_num","","","","","","","","","","","","","","","","","","","","","","","","",""
"","","","","","single-stim-button","231","517658","0.0-3.0-19.0-0.0","5c79608452e62f00169b1fe6","A3","batch1","","3261","","","tol_tohand","","","","","","","","","tol_peg_2","3261","3261","0","[[3,0,0],[2,0],[0]]","1","[[3,0,0],[1,0],[2]]","3","0","","","","","","3","",""
"","","","","","single-stim-button","232","518293","0.0-3.0-19.0-1.0","5c79608452e62f00169b1fe6","A3","batch1","","632","","","tol_toboard","","","","","","","","","tol_peg_1","632","632","0","[[3,1,0],[2,0],[0]]","1","[[3,0,0],[1,0],[2]]","3","0","","","","","","3","",""
"","","","","","single-stim-button","233","518943","0.0-3.0-19.1-0.1","5c79608452e62f00169b1fe6","A3","batch1","","648","","","tol_tohand","","","","","","","","","tol_peg_2","648","648","0","[[3,1,0],[0,0],[0]]","2","[[3,0,0],[1,0],[2]]","3","0","","","","","","3","",""
"","","","","","single-stim-button","234","519616","0.0-3.0-19.1-1.1","5c79608452e62f00169b1fe6","A3","batch1","","672","","","tol_toboard","","","","","","","","","tol_peg_3","672","672","0","[[3,1,0],[0,0],[2]]","2","[[3,0,0],[1,0],[2]]","3","0","","","","","","3","",""
"","","","","","single-stim-button","235","520407","0.0-3.0-19.2-0.2","5c79608452e62f00169b1fe6","A3","batch1","","790","","","tol_tohand","","","","","","","","","tol_peg_1","790","790","0","[[3,0,0],[0,0],[2]]","3","[[3,0,0],[1,0],[2]]","3","0","","","","","","3","",""
"","","","","","single-stim-button","236","521183","0.0-3.0-19.2-1.2","5c79608452e62f00169b1fe6","A3","batch1","","775","","","tol_toboard","","","","","","","","","tol_peg_2","775","775","0","[[3,0,0],[1,0],[2]]","3","[[3,0,0],[1,0],[2]]","3","0","","","","","","3","",""
"","","","","","poldrack-single-stim","237","522193","0.0-3.0-20.0","5c79608452e62f00169b1fe6","A3","batch1","","-1","","","tol_feedback","true","","","","","","","","","1000","1000","500","","","","","","-1","none","true","3261","4699","","",""
"","","","","","html-button-response","238","523566","0.0-3.0-21.0","5c79608452e62f00169b1fe6","A3","batch1","","1370.9000000953674","<div class = centerbox><p class = center-block-text>problem <strong>5</strong> out of 25 problems</p></div>","0","tol_trial_num","","","","","","","","","","","","","","","","","","","","","","","","",""
"","","","","","single-stim-button","239","527943","0.0-3.0-22.0-0.0","5c79608452e62f00169b1fe6","A3","batch1","","4376","","","tol_tohand","","","","","","","","","tol_peg_3","4376","4376","0","[[1,0,0],[2,0],[0]]","1","[[0,0,0],[1,2],[3]]","4","0","","","","","","7","",""
"","","","","","single-stim-button","240","529269","0.0-3.0-22.0-1.0","5c79608452e62f00169b1fe6","A3","batch1","","1324","","","tol_toboard","","","","","","","","","tol_peg_1","1324","1324","0","[[1,3,0],[2,0],[0]]","1","[[0,0,0],[1,2],[3]]","4","0","","","","","","7","",""
"","","","","","single-stim-button","241","530476","0.0-3.0-22.1-0.1","5c79608452e62f00169b1fe6","A3","batch1","","1206","","","tol_tohand","","","","","","","","","tol_peg_2","1206","1206","0","[[1,3,0],[0,0],[0]]","2","[[0,0,0],[1,2],[3]]","4","0","","","","","","7","",""
"","","","","","single-stim-button","242","536093","0.0-3.0-22.1-1.1","5c79608452e62f00169b1fe6","A3","batch1","","5617","","","tol_toboard","","","","","","","","","tol_peg_3","5617","5617","0","[[1,3,0],[0,0],[2]]","2","[[0,0,0],[1,2],[3]]","4","0","","","","","","7","",""
"","","","","","single-stim-button","243","538146","0.0-3.0-22.2-0.2","5c79608452e62f00169b1fe6","A3","batch1","","2051","","","tol_tohand","","","","","","","","","tol_peg_1","2051","2051","0","[[1,0,0],[0,0],[2]]","3","[[0,0,0],[1,2],[3]]","4","0","","","","","","7","",""
"","","","","","single-stim-button","244","539393","0.0-3.0-22.2-1.2","5c79608452e62f00169b1fe6","A3","batch1","","1245","","","tol_toboard","","","","","","","","","tol_peg_2","1245","1245","0","[[1,0,0],[3,0],[2]]","3","[[0,0,0],[1,2],[3]]","4","0","","","","","","7","",""
"","","","","","single-stim-button","245","542919","0.0-3.0-22.3-0.3","5c79608452e62f00169b1fe6","A3","batch1","","3525","","","tol_tohand","","","","","","","","","tol_peg_1","3525","3525","0","[[0,0,0],[3,0],[2]]","4","[[0,0,0],[1,2],[3]]","4","0","","","","","","7","",""
"","","","","","single-stim-button","246","543758","0.0-3.0-22.3-1.3","5c79608452e62f00169b1fe6","A3","batch1","","838","","","tol_toboard","","","","","","","","","tol_peg_2","838","838","0","[[0,0,0],[3,1],[2]]","4","[[0,0,0],[1,2],[3]]","4","0","","","","","","7","",""
"","","","","","single-stim-button","247","545516","0.0-3.0-22.4-0.4","5c79608452e62f00169b1fe6","A3","batch1","","1757","","","tol_tohand","","","","","","","","","tol_peg_3","1757","1757","0","[[0,0,0],[3,1],[0]]","5","[[0,0,0],[1,2],[3]]","4","0","","","","","","7","",""
"","","","","","single-stim-button","248","546704","0.0-3.0-22.4-1.4","5c79608452e62f00169b1fe6","A3","batch1","","1186","","","tol_toboard","","","","","","","","","tol_peg_1","1186","1186","0","[[2,0,0],[3,1],[0]]","5","[[0,0,0],[1,2],[3]]","4","0","","","","","","7","",""
"","","","","","single-stim-button","249","547801","0.0-3.0-22.5-0.5","5c79608452e62f00169b1fe6","A3","batch1","","1095","","","tol_tohand","","","","","","","","","tol_peg_2","1095","1095","0","[[2,0,0],[3,0],[0]]","6","[[0,0,0],[1,2],[3]]","4","0","","","","","","7","",""
"","","","","","single-stim-button","250","548521","0.0-3.0-22.5-1.5","5c79608452e62f00169b1fe6","A3","batch1","","718","","","tol_toboard","","","","","","","","","tol_peg_3","718","718","0","[[2,0,0],[3,0],[1]]","6","[[0,0,0],[1,2],[3]]","4","0","","","","","","7","",""
"","","","","","single-stim-button","251","549309","0.0-3.0-22.6-0.6","5c79608452e62f00169b1fe6","A3","batch1","","785","","","tol_tohand","","","","","","","","","tol_peg_2","785","785","0","[[2,0,0],[0,0],[1]]","7","[[0,0,0],[1,2],[3]]","4","0","","","","","","7","",""
"","","","","","single-stim-button","252","550159","0.0-3.0-22.6-1.6","5c79608452e62f00169b1fe6","A3","batch1","","848","","","tol_toboard","","","","","","","","","tol_peg_1","848","848","0","[[2,3,0],[0,0],[1]]","7","[[0,0,0],[1,2],[3]]","4","0","","","","","","7","",""
"","","","","","single-stim-button","253","550933","0.0-3.0-22.7-0.7","5c79608452e62f00169b1fe6","A3","batch1","","772","","","tol_tohand","","","","","","","","","tol_peg_3","772","772","0","[[2,3,0],[0,0],[0]]","8","[[0,0,0],[1,2],[3]]","4","0","","","","","","7","",""
"","","","","","single-stim-button","254","551992","0.0-3.0-22.7-1.7","5c79608452e62f00169b1fe6","A3","batch1","","1058","","","tol_toboard","","","","","","","","","tol_peg_2","1058","1058","0","[[2,3,0],[1,0],[0]]","8","[[0,0,0],[1,2],[3]]","4","0","","","","","","7","",""
"","","","","","single-stim-button","255","552702","0.0-3.0-22.8-0.8","5c79608452e62f00169b1fe6","A3","batch1","","709","","","tol_tohand","","","","","","","","","tol_peg_1","709","709","0","[[2,0,0],[1,0],[0]]","9","[[0,0,0],[1,2],[3]]","4","0","","","","","","7","",""
"","","","","","single-stim-button","256","553511","0.0-3.0-22.8-1.8","5c79608452e62f00169b1fe6","A3","batch1","","808","","","tol_toboard","","","","","","","","","tol_peg_3","808","808","0","[[2,0,0],[1,0],[3]]","9","[[0,0,0],[1,2],[3]]","4","0","","","","","","7","",""
"","","","","","single-stim-button","257","554120","0.0-3.0-22.9-0.9","5c79608452e62f00169b1fe6","A3","batch1","","608","","","tol_tohand","","","","","","","","","tol_peg_1","608","608","0","[[0,0,0],[1,0],[3]]","10","[[0,0,0],[1,2],[3]]","4","0","","","","","","7","",""
"","","","","","single-stim-button","258","554793","0.0-3.0-22.9-1.9","5c79608452e62f00169b1fe6","A3","batch1","","671","","","tol_toboard","","","","","","","","","tol_peg_2","671","671","0","[[0,0,0],[1,2],[3]]","10","[[0,0,0],[1,2],[3]]","4","0","","","","","","7","",""
"","","","","","poldrack-single-stim","259","555800","0.0-3.0-23.0","5c79608452e62f00169b1fe6","A3","batch1","","-1","","","tol_feedback","true","","","","","","","","","1000","1000","500","","","","","","-1","none","true","4376","16884","","",""
"","","","","","html-button-response","260","556988","0.0-3.0-24.0","5c79608452e62f00169b1fe6","A3","batch1","","1185.1999999284744","<div class = centerbox><p class = center-block-text>problem <strong>6</strong> out of 25 problems</p></div>","0","tol_trial_num","","","","","","","","","","","","","","","","","","","","","","","","",""
"","","","","","single-stim-button","261","564026","0.0-3.0-25.0-0.0","5c79608452e62f00169b1fe6","A3","batch1","","7036","","","tol_tohand","","","","","","","","","tol_peg_3","7036","7036","0","[[0,0,0],[1,2],[0]]","1","[[1,0,0],[2,3],[0]]","5","0","","","","","","6","",""
"","","","","","single-stim-button","262","565110","0.0-3.0-25.0-1.0","5c79608452e62f00169b1fe6","A3","batch1","","1082","","","tol_toboard","","","","","","","","","tol_peg_1","1082","1082","0","[[3,0,0],[1,2],[0]]","1","[[1,0,0],[2,3],[0]]","5","0","","","","","","6","",""
"","","","","","single-stim-button","263","566076","0.0-3.0-25.1-0.1","5c79608452e62f00169b1fe6","A3","batch1","","964","","","tol_tohand","","","","","","","","","tol_peg_2","964","964","0","[[3,0,0],[1,0],[0]]","2","[[1,0,0],[2,3],[0]]","5","0","","","","","","6","",""
"","","","","","single-stim-button","264","567055","0.0-3.0-25.1-1.1","5c79608452e62f00169b1fe6","A3","batch1","","977","","","tol_toboard","","","","","","","","","tol_peg_3","977","977","0","[[3,0,0],[1,0],[2]]","2","[[1,0,0],[2,3],[0]]","5","0","","","","","","6","",""
"","","","","","single-stim-button","265","567667","0.0-3.0-25.2-0.2","5c79608452e62f00169b1fe6","A3","batch1","","611","","","tol_tohand","","","","","","","","","tol_peg_2","611","611","0","[[3,0,0],[0,0],[2]]","3","[[1,0,0],[2,3],[0]]","5","0","","","","","","6","",""
"","","","","","single-stim-button","266","568387","0.0-3.0-25.2-1.2","5c79608452e62f00169b1fe6","A3","batch1","","719","","","tol_toboard","","","","","","","","","tol_peg_1","719","719","0","[[3,1,0],[0,0],[2]]","3","[[1,0,0],[2,3],[0]]","5","0","","","","","","6","",""
"","","","","","single-stim-button","267","569184","0.0-3.0-25.3-0.3","5c79608452e62f00169b1fe6","A3","batch1","","796","","","tol_tohand","","","","","","","","","tol_peg_3","796","796","0","[[3,1,0],[0,0],[0]]","4","[[1,0,0],[2,3],[0]]","5","0","","","","","","6","",""
"","","","","","single-stim-button","268","570061","0.0-3.0-25.3-1.3","5c79608452e62f00169b1fe6","A3","batch1","","875","","","tol_toboard","","","","","","","","","tol_peg_2","875","875","0","[[3,1,0],[2,0],[0]]","4","[[1,0,0],[2,3],[0]]","5","0","","","","","","6","",""
"","","","","","single-stim-button","269","570820","0.0-3.0-25.4-0.4","5c79608452e62f00169b1fe6","A3","batch1","","758","","","tol_tohand","","","","","","","","","tol_peg_1","758","758","0","[[3,0,0],[2,0],[0]]","5","[[1,0,0],[2,3],[0]]","5","0","","","","","","6","",""
"","","","","","single-stim-button","270","571554","0.0-3.0-25.4-1.4","5c79608452e62f00169b1fe6","A3","batch1","","733","","","tol_toboard","","","","","","","","","tol_peg_3","733","733","0","[[3,0,0],[2,0],[1]]","5","[[1,0,0],[2,3],[0]]","5","0","","","","","","6","",""
"","","","","","single-stim-button","271","572237","0.0-3.0-25.5-0.5","5c79608452e62f00169b1fe6","A3","batch1","","681","","","tol_tohand","","","","","","","","","tol_peg_1","681","681","0","[[0,0,0],[2,0],[1]]","6","[[1,0,0],[2,3],[0]]","5","0","","","","","","6","",""
"","","","","","single-stim-button","272","573100","0.0-3.0-25.5-1.5","5c79608452e62f00169b1fe6","A3","batch1","","863","","","tol_toboard","","","","","","","","","tol_peg_2","863","863","0","[[0,0,0],[2,3],[1]]","6","[[1,0,0],[2,3],[0]]","5","0","","","","","","6","",""
"","","","","","single-stim-button","273","573721","0.0-3.0-25.6-0.6","5c79608452e62f00169b1fe6","A3","batch1","","620","","","tol_tohand","","","","","","","","","tol_peg_3","620","620","0","[[0,0,0],[2,3],[0]]","7","[[1,0,0],[2,3],[0]]","5","0","","","","","","6","",""
"","","","","","single-stim-button","274","574554","0.0-3.0-25.6-1.6","5c79608452e62f00169b1fe6","A3","batch1","","831","","","tol_toboard","","","","","","","","","tol_peg_1","831","831","0","[[1,0,0],[2,3],[0]]","7","[[1,0,0],[2,3],[0]]","5","0","","","","","","6","",""
"","","","","","poldrack-single-stim","275","575566","0.0-3.0-26.0","5c79608452e62f00169b1fe6","A3","batch1","","-1","","","tol_feedback","true","","","","","","","","","1000","1000","500","","","","","","-1","none","true","7036","11466","","",""
"","","","","","html-button-response","276","576590","0.0-3.0-27.0","5c79608452e62f00169b1fe6","A3","batch1","","1022.2999999523163","<div class = centerbox><p class = center-block-text>problem <strong>7</strong> out of 25 problems</p></div>","0","tol_trial_num","","","","","","","","","","","","","","","","","","","","","","","","",""
"","","","","","single-stim-button","277","582751","0.0-3.0-28.0-0.0","5c79608452e62f00169b1fe6","A3","batch1","","6159","","","tol_tohand","","","","","","","","","tol_peg_1","6159","6159","0","[[2,0,0],[0,0],[3]]","1","[[1,2,0],[3,0],[0]]","6","0","","","","","","5","",""
"","","","","","single-stim-button","278","584877","0.0-3.0-28.0-1.0","5c79608452e62f00169b1fe6","A3","batch1","","2124","","","tol_toboard","","","","","","","","","tol_peg_2","2124","2124","0","[[2,0,0],[1,0],[3]]","1","[[1,2,0],[3,0],[0]]","6","0","","","","","","5","",""
"","","","","","single-stim-button","279","588532","0.0-3.0-28.1-0.1","5c79608452e62f00169b1fe6","A3","batch1","","3653","","","tol_tohand","","","","","","","","","tol_peg_3","3653","3653","0","[[2,0,0],[1,0],[0]]","2","[[1,2,0],[3,0],[0]]","6","0","","","","","","5","",""
"","","","","","single-stim-button","280","589291","0.0-3.0-28.1-1.1","5c79608452e62f00169b1fe6","A3","batch1","","757","","","tol_toboard","","","","","","","","","tol_peg_1","757","757","0","[[2,3,0],[1,0],[0]]","2","[[1,2,0],[3,0],[0]]","6","0","","","","","","5","",""
"","","","","","single-stim-button","281","589882","0.0-3.0-28.2-0.2","5c79608452e62f00169b1fe6","A3","batch1","","589","","","tol_tohand","","","","","","","","","tol_peg_2","589","589","0","[[2,3,0],[0,0],[0]]","3","[[1,2,0],[3,0],[0]]","6","0","","","","","","5","",""
"","","","","","single-stim-button","282","590542","0.0-3.0-28.2-1.2","5c79608452e62f00169b1fe6","A3","batch1","","659","","","tol_toboard","","","","","","","","","tol_peg_3","659","659","0","[[2,3,0],[0,0],[1]]","3","[[1,2,0],[3,0],[0]]","6","0","","","","","","5","",""
"","","","","","single-stim-button","283","591374","0.0-3.0-28.3-0.3","5c79608452e62f00169b1fe6","A3","batch1","","831","","","tol_tohand","","","","","","","","","tol_peg_1","831","831","0","[[2,0,0],[0,0],[1]]","4","[[1,2,0],[3,0],[0]]","6","0","","","","","","5","",""
"","","","","","single-stim-button","284","592574","0.0-3.0-28.3-1.3","5c79608452e62f00169b1fe6","A3","batch1","","1198","","","tol_toboard","","","","","","","","","tol_peg_2","1198","1198","0","[[2,0,0],[3,0],[1]]","4","[[1,2,0],[3,0],[0]]","6","0","","","","","","5","",""
"","","","","","single-stim-button","285","593147","0.0-3.0-28.4-0.4","5c79608452e62f00169b1fe6","A3","batch1","","571","","","tol_tohand","","","","","","","","","tol_peg_1","571","571","0","[[0,0,0],[3,0],[1]]","5","[[1,2,0],[3,0],[0]]","6","0","","","","","","5","",""
"","","","","","single-stim-button","286","593874","0.0-3.0-28.4-1.4","5c79608452e62f00169b1fe6","A3","batch1","","726","","","tol_toboard","","","","","","","","","tol_peg_2","726","726","0","[[0,0,0],[3,2],[1]]","5","[[1,2,0],[3,0],[0]]","6","0","","","","","","5","",""
"","","","","","single-stim-button","287","594684","0.0-3.0-28.5-0.5","5c79608452e62f00169b1fe6","A3","batch1","","808","","","tol_tohand","","","","","","","","","tol_peg_3","808","808","0","[[0,0,0],[3,2],[0]]","6","[[1,2,0],[3,0],[0]]","6","0","","","","","","5","",""
"","","","","","single-stim-button","288","595415","0.0-3.0-28.5-1.5","5c79608452e62f00169b1fe6","A3","batch1","","731","","","tol_toboard","","","","","","","","","tol_peg_1","731","731","0","[[1,0,0],[3,2],[0]]","6","[[1,2,0],[3,0],[0]]","6","0","","","","","","5","",""
"","","","","","single-stim-button","289","596025","0.0-3.0-28.6-0.6","5c79608452e62f00169b1fe6","A3","batch1","","609","","","tol_tohand","","","","","","","","","tol_peg_2","609","609","0","[[1,0,0],[3,0],[0]]","7","[[1,2,0],[3,0],[0]]","6","0","","","","","","5","",""
"","","","","","single-stim-button","290","596631","0.0-3.0-28.6-1.6","5c79608452e62f00169b1fe6","A3","batch1","","604","","","tol_toboard","","","","","","","","","tol_peg_1","604","604","0","[[1,2,0],[3,0],[0]]","7","[[1,2,0],[3,0],[0]]","6","0","","","","","","5","",""
"","","","","","poldrack-single-stim","291","597635","0.0-3.0-29.0","5c79608452e62f00169b1fe6","A3","batch1","","-1","","","tol_feedback","true","","","","","","","","","1000","1000","500","","","","","","-1","none","true","6159","13220","","",""
"","","","","","html-button-response","292","598767","0.0-3.0-30.0","5c79608452e62f00169b1fe6","A3","batch1","","1130.2999999523163","<div class = centerbox><p class = center-block-text>problem <strong>8</strong> out of 25 problems</p></div>","0","tol_trial_num","","","","","","","","","","","","","","","","","","","","","","","","",""
"","","","","","single-stim-button","293","606183","0.0-3.0-31.0-0.0","5c79608452e62f00169b1fe6","A3","batch1","","7414","","","tol_tohand","","","","","","","","","tol_peg_3","7414","7414","0","[[0,0,0],[2,3],[0]]","1","[[1,2,0],[3,0],[0]]","7","0","","","","","","4","",""
"","","","","","single-stim-button","294","607390","0.0-3.0-31.0-1.0","5c79608452e62f00169b1fe6","A3","batch1","","1204","","","tol_toboard","","","","","","","","","tol_peg_1","1204","1204","0","[[1,0,0],[2,3],[0]]","1","[[1,2,0],[3,0],[0]]","7","0","","","","","","4","",""
"","","","","","single-stim-button","295","608007","0.0-3.0-31.1-0.1","5c79608452e62f00169b1fe6","A3","batch1","","616","","","tol_tohand","","","","","","","","","tol_peg_2","616","616","0","[[1,0,0],[2,0],[0]]","2","[[1,2,0],[3,0],[0]]","7","0","","","","","","4","",""
"","","","","","single-stim-button","296","608691","0.0-3.0-31.1-1.1","5c79608452e62f00169b1fe6","A3","batch1","","683","","","tol_toboard","","","","","","","","","tol_peg_1","683","683","0","[[1,3,0],[2,0],[0]]","2","[[1,2,0],[3,0],[0]]","7","0","","","","","","4","",""
"","","","","","single-stim-button","297","609350","0.0-3.0-31.2-0.2","5c79608452e62f00169b1fe6","A3","batch1","","658","","","tol_tohand","","","","","","","","","tol_peg_2","658","658","0","[[1,3,0],[0,0],[0]]","3","[[1,2,0],[3,0],[0]]","7","0","","","","","","4","",""
"","","","","","single-stim-button","298","610217","0.0-3.0-31.2-1.2","5c79608452e62f00169b1fe6","A3","batch1","","867","","","tol_toboard","","","","","","","","","tol_peg_3","867","867","0","[[1,3,0],[0,0],[2]]","3","[[1,2,0],[3,0],[0]]","7","0","","","","","","4","",""
"","","","","","single-stim-button","299","611000","0.0-3.0-31.3-0.3","5c79608452e62f00169b1fe6","A3","batch1","","782","","","tol_tohand","","","","","","","","","tol_peg_1","782","782","0","[[1,0,0],[0,0],[2]]","4","[[1,2,0],[3,0],[0]]","7","0","","","","","","4","",""
"","","","","","single-stim-button","300","611624","0.0-3.0-31.3-1.3","5c79608452e62f00169b1fe6","A3","batch1","","623","","","tol_toboard","","","","","","","","","tol_peg_2","623","623","0","[[1,0,0],[3,0],[2]]","4","[[1,2,0],[3,0],[0]]","7","0","","","","","","4","",""
"","","","","","single-stim-button","301","612255","0.0-3.0-31.4-0.4","5c79608452e62f00169b1fe6","A3","batch1","","630","","","tol_tohand","","","","","","","","","tol_peg_3","630","630","0","[[1,0,0],[3,0],[0]]","5","[[1,2,0],[3,0],[0]]","7","0","","","","","","4","",""
"","","","","","single-stim-button","302","613068","0.0-3.0-31.4-1.4","5c79608452e62f00169b1fe6","A3","batch1","","812","","","tol_toboard","","","","","","","","","tol_peg_1","812","812","0","[[1,2,0],[3,0],[0]]","5","[[1,2,0],[3,0],[0]]","7","0","","","","","","4","",""
"","","","","","poldrack-single-stim","303","614073","0.0-3.0-32.0","5c79608452e62f00169b1fe6","A3","batch1","","-1","","","tol_feedback","true","","","","","","","","","1000","1000","500","","","","","","-1","none","true","7414","10100","","",""
"","","","","","html-button-response","304","614911","0.0-3.0-33.0","5c79608452e62f00169b1fe6","A3","batch1","","835.7999999523163","<div class = centerbox><p class = center-block-text>problem <strong>9</strong> out of 25 problems</p></div>","0","tol_trial_num","","","","","","","","","","","","","","","","","","","","","","","","",""
"","","","","","single-stim-button","305","621236","0.0-3.0-34.0-0.0","5c79608452e62f00169b1fe6","A3","batch1","","6323","","","tol_tohand","","","","","","","","","tol_peg_3","6323","6323","0","[[3,2,0],[0,0],[0]]","1","[[2,1,0],[3,0],[0]]","8","0","","","","","","6","",""
"","","","","","single-stim-button","306","621897","0.0-3.0-34.0-1.0","5c79608452e62f00169b1fe6","A3","batch1","","660","","","tol_toboard","","","","","","","","","tol_peg_2","660","660","0","[[3,2,0],[1,0],[0]]","1","[[2,1,0],[3,0],[0]]","8","0","","","","","","6","",""
"","","","","","single-stim-button","307","622490","0.0-3.0-34.1-0.1","5c79608452e62f00169b1fe6","A3","batch1","","592","","","tol_tohand","","","","","","","","","tol_peg_1","592","592","0","[[3,0,0],[1,0],[0]]","2","[[2,1,0],[3,0],[0]]","8","0","","","","","","6","",""
"","","","","","single-stim-button","308","623367","0.0-3.0-34.1-1.1","5c79608452e62f00169b1fe6","A3","batch1","","875","","","tol_toboard","","","","","","","","","tol_peg_3","875","875","0","[[3,0,0],[1,0],[2]]","2","[[2,1,0],[3,0],[0]]","8","0","","","","","","6","",""
"","","","","","single-stim-button","309","624009","0.0-3.0-34.2-0.2","5c79608452e62f00169b1fe6","A3","batch1","","641","","","tol_tohand","","","","","","","","","tol_peg_1","641","641","0","[[0,0,0],[1,0],[2]]","3","[[2,1,0],[3,0],[0]]","8","0","","","","","","6","",""
"","","","","","single-stim-button","310","625153","0.0-3.0-34.2-1.2","5c79608452e62f00169b1fe6","A3","batch1","","1141","","","tol_toboard","","","","","","","","","tol_peg_2","1141","1141","0","[[0,0,0],[1,3],[2]]","3","[[2,1,0],[3,0],[0]]","8","0","","","","","","6","",""
"","","","","","single-stim-button","311","625808","0.0-3.0-34.3-0.3","5c79608452e62f00169b1fe6","A3","batch1","","655","","","tol_tohand","","","","","","","","","tol_peg_3","655","655","0","[[0,0,0],[1,3],[0]]","4","[[2,1,0],[3,0],[0]]","8","0","","","","","","6","",""
"","","","","","single-stim-button","312","626561","0.0-3.0-34.3-1.3","5c79608452e62f00169b1fe6","A3","batch1","","752","","","tol_toboard","","","","","","","","","tol_peg_1","752","752","0","[[2,0,0],[1,3],[0]]","4","[[2,1,0],[3,0],[0]]","8","0","","","","","","6","",""
"","","","","","single-stim-button","313","627113","0.0-3.0-34.4-0.4","5c79608452e62f00169b1fe6","A3","batch1","","550","","","tol_tohand","","","","","","","","","tol_peg_2","550","550","0","[[2,0,0],[1,0],[0]]","5","[[2,1,0],[3,0],[0]]","8","0","","","","","","6","",""
"","","","","","single-stim-button","314","627939","0.0-3.0-34.4-1.4","5c79608452e62f00169b1fe6","A3","batch1","","824","","","tol_toboard","","","","","","","","","tol_peg_3","824","824","0","[[2,0,0],[1,0],[3]]","5","[[2,1,0],[3,0],[0]]","8","0","","","","","","6","",""
"","","","","","single-stim-button","315","628574","0.0-3.0-34.5-0.5","5c79608452e62f00169b1fe6","A3","batch1","","634","","","tol_tohand","","","","","","","","","tol_peg_2","634","634","0","[[2,0,0],[0,0],[3]]","6","[[2,1,0],[3,0],[0]]","8","0","","","","","","6","",""
"","","","","","single-stim-button","316","629360","0.0-3.0-34.5-1.5","5c79608452e62f00169b1fe6","A3","batch1","","784","","","tol_toboard","","","","","","","","","tol_peg_1","784","784","0","[[2,1,0],[0,0],[3]]","6","[[2,1,0],[3,0],[0]]","8","0","","","","","","6","",""
"","","","","","single-stim-button","317","632998","0.0-3.0-34.6-0.6","5c79608452e62f00169b1fe6","A3","batch1","","3637","","","tol_tohand","","","","","","","","","tol_peg_3","3637","3637","0","[[2,1,0],[0,0],[0]]","7","[[2,1,0],[3,0],[0]]","8","0","","","","","","6","",""
"","","","","","single-stim-button","318","633600","0.0-3.0-34.6-1.6","5c79608452e62f00169b1fe6","A3","batch1","","601","","","tol_toboard","","","","","","","","","tol_peg_2","601","601","0","[[2,1,0],[3,0],[0]]","7","[[2,1,0],[3,0],[0]]","8","0","","","","","","6","",""
"","","","","","poldrack-single-stim","319","634607","0.0-3.0-35.0","5c79608452e62f00169b1fe6","A3","batch1","","-1","","","tol_feedback","true","","","","","","","","","1000","1000","500","","","","","","-1","none","true","6323","13032","","",""
"","","","","","html-button-response","320","635928","0.0-3.0-36.0","5c79608452e62f00169b1fe6","A3","batch1","","1319.3000000715256","<div class = centerbox><p class = center-block-text>problem <strong>10</strong> out of 25 problems</p></div>","0","tol_trial_num","","","","","","","","","","","","","","","","","","","","","","","","",""
"","","","","","single-stim-button","321","640487","0.0-3.0-37.0-0.0","5c79608452e62f00169b1fe6","A3","batch1","","4557","","","tol_tohand","","","","","","","","","tol_peg_2","4557","4557","0","[[3,0,0],[0,0],[2]]","1","[[3,0,0],[2,1],[0]]","9","0","","","","","","3","",""
"","","","","","single-stim-button","322","641349","0.0-3.0-37.0-1.0","5c79608452e62f00169b1fe6","A3","batch1","","862","","","tol_toboard","","","","","","","","","tol_peg_1","862","862","0","[[3,1,0],[0,0],[2]]","1","[[3,0,0],[2,1],[0]]","9","0","","","","","","3","",""
"","","","","","single-stim-button","323","642040","0.0-3.0-37.1-0.1","5c79608452e62f00169b1fe6","A3","batch1","","690","","","tol_tohand","","","","","","","","","tol_peg_3","690","690","0","[[3,1,0],[0,0],[0]]","2","[[3,0,0],[2,1],[0]]","9","0","","","","","","3","",""
"","","","","","single-stim-button","324","642817","0.0-3.0-37.1-1.1","5c79608452e62f00169b1fe6","A3","batch1","","775","","","tol_toboard","","","","","","","","","tol_peg_2","775","775","0","[[3,1,0],[2,0],[0]]","2","[[3,0,0],[2,1],[0]]","9","0","","","","","","3","",""
"","","","","","single-stim-button","325","643491","0.0-3.0-37.2-0.2","5c79608452e62f00169b1fe6","A3","batch1","","673","","","tol_tohand","","","","","","","","","tol_peg_1","673","673","0","[[3,0,0],[2,0],[0]]","3","[[3,0,0],[2,1],[0]]","9","0","","","","","","3","",""
"","","","","","single-stim-button","326","644154","0.0-3.0-37.2-1.2","5c79608452e62f00169b1fe6","A3","batch1","","661","","","tol_toboard","","","","","","","","","tol_peg_2","661","661","0","[[3,0,0],[2,1],[0]]","3","[[3,0,0],[2,1],[0]]","9","0","","","","","","3","",""
"","","","","","poldrack-single-stim","327","645158","0.0-3.0-38.0","5c79608452e62f00169b1fe6","A3","batch1","","-1","","","tol_feedback","true","","","","","","","","","1000","1000","500","","","","","","-1","none","true","4557","5920","","",""
"","","","","","html-button-response","328","646391","0.0-3.0-39.0","5c79608452e62f00169b1fe6","A3","batch1","","1230.6000000238419","<div class = centerbox><p class = center-block-text>problem <strong>11</strong> out of 25 problems</p></div>","0","tol_trial_num","","","","","","","","","","","","","","","","","","","","","","","","",""
"","","","","","single-stim-button","329","653824","0.0-3.0-40.0-0.0","5c79608452e62f00169b1fe6","A3","batch1","","7431","","","tol_tohand","","","","","","","","","tol_peg_2","7431","7431","0","[[1,2,0],[0,0],[0]]","1","[[2,0,0],[1,3],[0]]","10","0","","","","","","6","",""
"","","","","","single-stim-button","330","654558","0.0-3.0-40.0-1.0","5c79608452e62f00169b1fe6","A3","batch1","","731","","","tol_toboard","","","","","","","","","tol_peg_3","731","731","0","[[1,2,0],[0,0],[3]]","1","[[2,0,0],[1,3],[0]]","10","0","","","","","","6","",""
"","","","","","single-stim-button","331","656926","0.0-3.0-40.1-0.1","5c79608452e62f00169b1fe6","A3","batch1","","2366","","","tol_tohand","","","","","","","","","tol_peg_1","2366","2366","0","[[1,0,0],[0,0],[3]]","2","[[2,0,0],[1,3],[0]]","10","0","","","","","","6","",""
"","","","","","single-stim-button","332","657979","0.0-3.0-40.1-1.1","5c79608452e62f00169b1fe6","A3","batch1","","1051","","","tol_toboard","","","","","","","","","tol_peg_2","1051","1051","0","[[1,0,0],[2,0],[3]]","2","[[2,0,0],[1,3],[0]]","10","0","","","","","","6","",""
"","","","","","single-stim-button","333","659267","0.0-3.0-40.2-0.2","5c79608452e62f00169b1fe6","A3","batch1","","1285","","","tol_tohand","","","","","","","","","tol_peg_1","1285","1285","0","[[0,0,0],[2,0],[3]]","3","[[2,0,0],[1,3],[0]]","10","0","","","","","","6","",""
"","","","","","single-stim-button","334","663726","0.0-3.0-40.2-1.2","5c79608452e62f00169b1fe6","A3","batch1","","4457","","","tol_toboard","","","","","","","","","tol_peg_2","4457","4457","0","[[0,0,0],[2,1],[3]]","3","[[2,0,0],[1,3],[0]]","10","0","","","","","","6","",""
"","","","","","single-stim-button","335","664576","0.0-3.0-40.3-0.3","5c79608452e62f00169b1fe6","A3","batch1","","849","","","tol_tohand","","","","","","","","","tol_peg_3","849","849","0","[[0,0,0],[2,1],[0]]","4","[[2,0,0],[1,3],[0]]","10","0","","","","","","6","",""
"","","","","","single-stim-button","336","665340","0.0-3.0-40.3-1.3","5c79608452e62f00169b1fe6","A3","batch1","","763","","","tol_toboard","","","","","","","","","tol_peg_1","763","763","0","[[3,0,0],[2,1],[0]]","4","[[2,0,0],[1,3],[0]]","10","0","","","","","","6","",""
"","","","","","single-stim-button","337","665899","0.0-3.0-40.4-0.4","5c79608452e62f00169b1fe6","A3","batch1","","557","","","tol_tohand","","","","","","","","","tol_peg_2","557","557","0","[[3,0,0],[2,0],[0]]","5","[[2,0,0],[1,3],[0]]","10","0","","","","","","6","",""
"","","","","","single-stim-button","338","666767","0.0-3.0-40.4-1.4","5c79608452e62f00169b1fe6","A3","batch1","","867","","","tol_toboard","","","","","","","","","tol_peg_3","867","867","0","[[3,0,0],[2,0],[1]]","5","[[2,0,0],[1,3],[0]]","10","0","","","","","","6","",""
"","","","","","single-stim-button","339","667711","0.0-3.0-40.5-0.5","5c79608452e62f00169b1fe6","A3","batch1","","943","","","tol_tohand","","","","","","","","","tol_peg_2","943","943","0","[[3,0,0],[0,0],[1]]","6","[[2,0,0],[1,3],[0]]","10","0","","","","","","6","",""
"","","","","","single-stim-button","340","668434","0.0-3.0-40.5-1.5","5c79608452e62f00169b1fe6","A3","batch1","","722","","","tol_toboard","","","","","","","","","tol_peg_1","722","722","0","[[3,2,0],[0,0],[1]]","6","[[2,0,0],[1,3],[0]]","10","0","","","","","","6","",""
"","","","","","single-stim-button","341","670198","0.0-3.0-40.6-0.6","5c79608452e62f00169b1fe6","A3","batch1","","1762","","","tol_tohand","","","","","","","","","tol_peg_3","1762","1762","0","[[3,2,0],[0,0],[0]]","7","[[2,0,0],[1,3],[0]]","10","0","","","","","","6","",""
"","","","","","single-stim-button","342","670985","0.0-3.0-40.6-1.6","5c79608452e62f00169b1fe6","A3","batch1","","785","","","tol_toboard","","","","","","","","","tol_peg_2","785","785","0","[[3,2,0],[1,0],[0]]","7","[[2,0,0],[1,3],[0]]","10","0","","","","","","6","",""
"","","","","","single-stim-button","343","671830","0.0-3.0-40.7-0.7","5c79608452e62f00169b1fe6","A3","batch1","","844","","","tol_tohand","","","","","","","","","tol_peg_1","844","844","0","[[3,0,0],[1,0],[0]]","8","[[2,0,0],[1,3],[0]]","10","0","","","","","","6","",""
"","","","","","single-stim-button","344","672684","0.0-3.0-40.7-1.7","5c79608452e62f00169b1fe6","A3","batch1","","852","","","tol_toboard","","","","","","","","","tol_peg_3","852","852","0","[[3,0,0],[1,0],[2]]","8","[[2,0,0],[1,3],[0]]","10","0","","","","","","6","",""
"","","","","","single-stim-button","345","674003","0.0-3.0-40.8-0.8","5c79608452e62f00169b1fe6","A3","batch1","","1318","","","tol_tohand","","","","","","","","","tol_peg_1","1318","1318","0","[[0,0,0],[1,0],[2]]","9","[[2,0,0],[1,3],[0]]","10","0","","","","","","6","",""
"","","","","","single-stim-button","346","674642","0.0-3.0-40.8-1.8","5c79608452e62f00169b1fe6","A3","batch1","","638","","","tol_toboard","","","","","","","","","tol_peg_2","638","638","0","[[0,0,0],[1,3],[2]]","9","[[2,0,0],[1,3],[0]]","10","0","","","","","","6","",""
"","","","","","single-stim-button","347","675267","0.0-3.0-40.9-0.9","5c79608452e62f00169b1fe6","A3","batch1","","623","","","tol_tohand","","","","","","","","","tol_peg_3","623","623","0","[[0,0,0],[1,3],[0]]","10","[[2,0,0],[1,3],[0]]","10","0","","","","","","6","",""
"","","","","","single-stim-button","348","676028","0.0-3.0-40.9-1.9","5c79608452e62f00169b1fe6","A3","batch1","","760","","","tol_toboard","","","","","","","","","tol_peg_1","760","760","0","[[2,0,0],[1,3],[0]]","10","[[2,0,0],[1,3],[0]]","10","0","","","","","","6","",""
"","","","","","poldrack-single-stim","349","677041","0.0-3.0-41.0","5c79608452e62f00169b1fe6","A3","batch1","","-1","","","tol_feedback","true","","","","","","","","","1000","1000","500","","","","","","-1","none","true","7431","17978","","",""
