"success","timeout","failed_images","failed_audio","failed_video","trial_type","trial_index","time_elapsed","internal_node_id","subject_id","study_id","session_id","view_history","rt","stimulus","response","task","correct","answer","item","fiar_detect_rt","fiar_detect_correct","total_correct_fiar_detect","post_trial_gap","choices","mouse_click","stim_duration","block_duration","timing_post_trial","current_position","tol_num_moves_made","tol_target","tol_problem_id","tol_rt","key_press","possible_responses","tol_correct","preplanning","tol_rt_per_trial","tol_min_moves","spm_correct","spm_rt"
"true","false","[]","[]","[]","preload","0","5737","0.0-0.0","5c82d0ac51b0e00015cbd2fc","F1","batch6","","","","","","","","","","","","","","","","","","","","","","","","","","","","","",""
"true","","","","","fullscreen","1","18025","0.0-1.0-0.0","5c82d0ac51b0e00015cbd2fc","F1","batch6","","","","","","","","","","","","","","","","","","","","","","","","","","","","","",""
"true","","","","","fullscreen","2","22033","0.0-2.0-0.0","5c82d0ac51b0e00015cbd2fc","F1","batch6","","","","","","","","","","","","","","","","","","","","","","","","","","","","","",""
"","","","","","instructions","3","52662","0.0-2.0-1.0-0.0","5c82d0ac51b0e00015cbd2fc","F1","batch6","[{""page_index"":0,""viewing_time"":9775.5},{""page_index"":1,""viewing_time"":20852.90000000596}]","30628.60000000894","","","","","","","","","","","","","","","","","","","","","","","","","","","",""
"","","","","","html-button-response","4","61987","0.0-2.0-1.0-1.0-0.0","5c82d0ac51b0e00015cbd2fc","F1","batch6","","9324.300000011921","<p class=block-text> Let's answer a few questions <br>","0","pattern_enter_quiz","","","","","","","","","","","","","","","","","","","","","","","","",""
"","","","","","html-button-response","5","65749","0.0-2.0-1.0-1.0-1.0","5c82d0ac51b0e00015cbd2fc","F1","batch6","","3761.199999988079","<p class = block-text>True or False: You will have as much time as you want to make each choice. <br></p>","1","pattern_quiz","true","","","","","","","","","","","","","","","","","","","","","","","",""
"","","","","","html-button-response","6","67281","0.0-2.0-1.0-1.0-2.0","5c82d0ac51b0e00015cbd2fc","F1","batch6","","1531","<p class = block-text>Correct! You should make your choice <strong> as fast as you can</strong>.</p>","0","pattern_quiz_feedback","","","","","","","","","","","","","","","","","","","","","","","","",""
"","","","","","html-button-response","7","70282","0.0-2.0-1.0-1.0-3.0","5c82d0ac51b0e00015cbd2fc","F1","batch6","","2999.7999999970198","<p class = block-text>True or False: You will look for 4 pieces in black or white color connected in a row either horizontally, vertically or diagonally. <br></p>","0","pattern_quiz","true","","","","","","","","","","","","","","","","","","","","","","","",""
"","","","","","html-button-response","8","71413","0.0-2.0-1.0-1.0-4.0","5c82d0ac51b0e00015cbd2fc","F1","batch6","","1130.0999999940395","<p class = block-text>Correct! </p>","0","pattern_quiz_feedback","","","","","","","","","","","","","","","","","","","","","","","","",""
"","","","","","html-button-response","9","121029","0.0-2.0-2.0","5c82d0ac51b0e00015cbd2fc","F1","batch6","","49614.79999999702","<p class=block-text> Now that you've understood the game, let's do a few practice trials before we start!<br> <br>","0","pattern_enter_practice","","","","","","","","","","","","","","","","","","","","","","","","",""
"","","","","","image-keyboard-response","10","124228","0.0-2.0-3.0-0.0","5c82d0ac51b0e00015cbd2fc","F1","batch6","","3192.4000000059605","stim/prac_yes_16_ver_w1.png","f","pattern_practice","true","f","","","","","","","","","","","","","","","","","","","","","","",""
"","","","","","html-keyboard-response","11","125251","0.0-2.0-3.0-1.0","5c82d0ac51b0e00015cbd2fc","F1","batch6","","null","<p style=""font-size:30px;color:green;"">Correct!</p>","null","pattern_feedback","","","","","","","","","","","","","","","","","","","","","","","","",""
"","","","","","image-keyboard-response","12","126970","0.0-2.0-3.0-0.1","5c82d0ac51b0e00015cbd2fc","F1","batch6","","1717","stim/prac_no_16_1.png","j","pattern_practice","true","j","","","","","","","","","","","","","","","","","","","","","","",""
"","","","","","html-keyboard-response","13","127993","0.0-2.0-3.0-1.1","5c82d0ac51b0e00015cbd2fc","F1","batch6","","null","<p style=""font-size:30px;color:green;"">Correct!</p>","null","pattern_feedback","","","","","","","","","","","","","","","","","","","","","","","","",""
"","","","","","image-keyboard-response","14","128800","0.0-2.0-3.0-0.2","5c82d0ac51b0e00015cbd2fc","F1","batch6","","805.5","stim/prac_yes_18_hor_w1.png","f","pattern_practice","true","f","","","","","","","","","","","","","","","","","","","","","","",""
"","","","","","html-keyboard-response","15","129818","0.0-2.0-3.0-1.2","5c82d0ac51b0e00015cbd2fc","F1","batch6","","null","<p style=""font-size:30px;color:green;"">Correct!</p>","null","pattern_feedback","","","","","","","","","","","","","","","","","","","","","","","","",""
"","","","","","image-keyboard-response","16","131298","0.0-2.0-3.0-0.3","5c82d0ac51b0e00015cbd2fc","F1","batch6","","1478.4000000059605","stim/prac_yes_20_dia_b1.png","f","pattern_practice","true","f","","","","","","","","","","","","","","","","","","","","","","",""
"","","","","","html-keyboard-response","17","132313","0.0-2.0-3.0-1.3","5c82d0ac51b0e00015cbd2fc","F1","batch6","","null","<p style=""font-size:30px;color:green;"">Correct!</p>","null","pattern_feedback","","","","","","","","","","","","","","","","","","","","","","","","",""
"","","","","","image-keyboard-response","18","133625","0.0-2.0-3.0-0.4","5c82d0ac51b0e00015cbd2fc","F1","batch6","","1309.2000000029802","stim/prac_no_18_1.png","j","pattern_practice","true","j","","","","","","","","","","","","","","","","","","","","","","",""
"","","","","","html-keyboard-response","19","134639","0.0-2.0-3.0-1.4","5c82d0ac51b0e00015cbd2fc","F1","batch6","","null","<p style=""font-size:30px;color:green;"">Correct!</p>","null","pattern_feedback","","","","","","","","","","","","","","","","","","","","","","","","",""
"","","","","","html-button-response","20","145993","0.0-2.0-4.0","5c82d0ac51b0e00015cbd2fc","F1","batch6","","11352","<p class=block-text> Good job! You are done with practice trials!<br>
        You responded correctly on 100% of the trials.<br>
        Press the button below to start official trials. Now you won't see any feedback about your response</p>","0","pattern_enter_official_trials","","","","","","","","","","","","","","","","","","","","","","","","",""
"","","","","","html-keyboard-response","21","146804","0.0-2.0-5.0-0.0","5c82d0ac51b0e00015cbd2fc","F1","batch6","","null","<p class=block-text>Trial 1 out of 78</p>","null","pattern_show_trial_num","","","","","","","","","","","","","","","","","","","","","","","","",""
"","","","","","image-keyboard-response","22","153306","0.0-2.0-5.0-1.0","5c82d0ac51b0e00015cbd2fc","F1","batch6","","6498.5","stim/no_39_1_w.png","j","pattern_response","true","j","pattern_21","6498.5","true","1","","","","","","","","","","","","","","","","","","",""
"","","","","","html-keyboard-response","23","154613","0.0-2.0-5.0-0.1","5c82d0ac51b0e00015cbd2fc","F1","batch6","","null","<p class=block-text>Trial 2 out of 78</p>","null","pattern_show_trial_num","","","","","","","","","","","","","","","","","","","","","","","","",""
"","","","","","image-keyboard-response","24","160009","0.0-2.0-5.0-1.1","5c82d0ac51b0e00015cbd2fc","F1","batch6","","5393.79999999702","stim/no_58_1_w.png","j","pattern_response","true","j","pattern_35","5393.79999999702","true","2","","","","","","","","","","","","","","","","","","",""
"","","","","","html-keyboard-response","25","161317","0.0-2.0-5.0-0.2","5c82d0ac51b0e00015cbd2fc","F1","batch6","","null","<p class=block-text>Trial 3 out of 78</p>","null","pattern_show_trial_num","","","","","","","","","","","","","","","","","","","","","","","","",""
"","","","","","image-keyboard-response","26","162338","0.0-2.0-5.0-1.2","5c82d0ac51b0e00015cbd2fc","F1","batch6","","1017.3999999910593","stim/yes_36_ver_w1_w.png","f","pattern_response","true","f","pattern_58","1017.3999999910593","true","3","","","","","","","","","","","","","","","","","","",""
"","","","","","html-keyboard-response","27","163657","0.0-2.0-5.0-0.3","5c82d0ac51b0e00015cbd2fc","F1","batch6","","null","<p class=block-text>Trial 4 out of 78</p>","null","pattern_show_trial_num","","","","","","","","","","","","","","","","","","","","","","","","",""
"","","","","","image-keyboard-response","28","165861","0.0-2.0-5.0-1.3","5c82d0ac51b0e00015cbd2fc","F1","batch6","","2201.6000000089407","stim/yes_63_dia_b1.png","f","pattern_response","true","f","pattern_78","2201.6000000089407","true","4","","","","","","","","","","","","","","","","","","",""
"","","","","","html-keyboard-response","29","167173","0.0-2.0-5.0-0.4","5c82d0ac51b0e00015cbd2fc","F1","batch6","","null","<p class=block-text>Trial 5 out of 78</p>","null","pattern_show_trial_num","","","","","","","","","","","","","","","","","","","","","","","","",""
"","","","","","image-keyboard-response","30","174000","0.0-2.0-5.0-1.4","5c82d0ac51b0e00015cbd2fc","F1","batch6","","6825.5","stim/yes_53_ver_b1_b.png","f","pattern_response","true","f","pattern_74","6825.5","true","5","","","","","","","","","","","","","","","","","","",""
"","","","","","html-keyboard-response","31","175316","0.0-2.0-5.0-0.5","5c82d0ac51b0e00015cbd2fc","F1","batch6","","null","<p class=block-text>Trial 6 out of 78</p>","null","pattern_show_trial_num","","","","","","","","","","","","","","","","","","","","","","","","",""
"","","","","","image-keyboard-response","32","177141","0.0-2.0-5.0-1.5","5c82d0ac51b0e00015cbd2fc","F1","batch6","","1821.7999999970198","stim/yes_23_ver_b1.png","f","pattern_response","true","f","pattern_48","1821.7999999970198","true","6","","","","","","","","","","","","","","","","","","",""
"","","","","","html-keyboard-response","33","178458","0.0-2.0-5.0-0.6","5c82d0ac51b0e00015cbd2fc","F1","batch6","","null","<p class=block-text>Trial 7 out of 78</p>","null","pattern_show_trial_num","","","","","","","","","","","","","","","","","","","","","","","","",""
"","","","","","image-keyboard-response","34","183335","0.0-2.0-5.0-1.6","5c82d0ac51b0e00015cbd2fc","F1","batch6","","4875.5","stim/no_53_1_b.png","j","pattern_response","true","j","pattern_33","4875.5","true","7","","","","","","","","","","","","","","","","","","",""
"","","","","","html-keyboard-response","35","184643","0.0-2.0-5.0-0.7","5c82d0ac51b0e00015cbd2fc","F1","batch6","","null","<p class=block-text>Trial 8 out of 78</p>","null","pattern_show_trial_num","","","","","","","","","","","","","","","","","","","","","","","","",""
"","","","","","image-keyboard-response","36","187410","0.0-2.0-5.0-1.7","5c82d0ac51b0e00015cbd2fc","F1","batch6","","2763.2999999970198","stim/no_30_1_b.png","j","pattern_response","true","j","pattern_13","2763.2999999970198","true","8","","","","","","","","","","","","","","","","","","",""
"","","","","","html-keyboard-response","37","188730","0.0-2.0-5.0-0.8","5c82d0ac51b0e00015cbd2fc","F1","batch6","","null","<p class=block-text>Trial 9 out of 78</p>","null","pattern_show_trial_num","","","","","","","","","","","","","","","","","","","","","","","","",""
"","","","","","image-keyboard-response","38","192550","0.0-2.0-5.0-1.8","5c82d0ac51b0e00015cbd2fc","F1","batch6","","3816.4000000059605","stim/no_51_1.png","j","pattern_response","true","j","pattern_31","3816.4000000059605","true","9","","","","","","","","","","","","","","","","","","",""
"","","","","","html-keyboard-response","39","193865","0.0-2.0-5.0-0.9","5c82d0ac51b0e00015cbd2fc","F1","batch6","","null","<p class=block-text>Trial 10 out of 78</p>","null","pattern_show_trial_num","","","","","","","","","","","","","","","","","","","","","","","","",""
"","","","","","image-keyboard-response","40","196725","0.0-2.0-5.0-1.9","5c82d0ac51b0e00015cbd2fc","F1","batch6","","2856.199999988079","stim/no_22_1_b.png","j","pattern_response","true","j","pattern_07","2856.199999988079","true","10","","","","","","","","","","","","","","","","","","",""
"","","","","","html-keyboard-response","41","198042","0.0-2.0-5.0-0.10","5c82d0ac51b0e00015cbd2fc","F1","batch6","","null","<p class=block-text>Trial 11 out of 78</p>","null","pattern_show_trial_num","","","","","","","","","","","","","","","","","","","","","","","","",""
"","","","","","image-keyboard-response","42","199196","0.0-2.0-5.0-1.10","5c82d0ac51b0e00015cbd2fc","F1","batch6","","1150.7999999970198","stim/yes_39_hor_w1_w.png","f","pattern_response","true","f","pattern_62","1150.7999999970198","true","11","","","","","","","","","","","","","","","","","","",""
"","","","","","html-keyboard-response","43","200508","0.0-2.0-5.0-0.11","5c82d0ac51b0e00015cbd2fc","F1","batch6","","null","<p class=block-text>Trial 12 out of 78</p>","null","pattern_show_trial_num","","","","","","","","","","","","","","","","","","","","","","","","",""
"","","","","","image-keyboard-response","44","201565","0.0-2.0-5.0-1.11","5c82d0ac51b0e00015cbd2fc","F1","batch6","","1053.7000000029802","stim/yes_70_ver_b1.png","f","pattern_response","true","f","pattern_80","1053.7000000029802","true","12","","","","","","","","","","","","","","","","","","",""
"","","","","","html-keyboard-response","45","202882","0.0-2.0-5.0-0.12","5c82d0ac51b0e00015cbd2fc","F1","batch6","","null","<p class=block-text>Trial 13 out of 78</p>","null","pattern_show_trial_num","","","","","","","","","","","","","","","","","","","","","","","","",""
"","","","","","image-keyboard-response","46","203949","0.0-2.0-5.0-1.12","5c82d0ac51b0e00015cbd2fc","F1","batch6","","1064.7999999970198","stim/no_12_1.png","j","pattern_response","true","j","pattern_01","1064.7999999970198","true","13","","","","","","","","","","","","","","","","","","",""
"","","","","","html-keyboard-response","47","205265","0.0-2.0-5.0-0.13","5c82d0ac51b0e00015cbd2fc","F1","batch6","","null","<p class=block-text>Trial 14 out of 78</p>","null","pattern_show_trial_num","","","","","","","","","","","","","","","","","","","","","","","","",""
"","","","","","image-keyboard-response","48","206300","0.0-2.0-5.0-1.13","5c82d0ac51b0e00015cbd2fc","F1","batch6","","1033.0999999940395","stim/yes_17_ver_b1_b.png","f","pattern_response","true","f","pattern_46","1033.0999999940395","true","14","","","","","","","","","","","","","","","","","","",""
"","","","","","html-keyboard-response","49","207619","0.0-2.0-5.0-0.14","5c82d0ac51b0e00015cbd2fc","F1","batch6","","null","<p class=block-text>Trial 15 out of 78</p>","null","pattern_show_trial_num","","","","","","","","","","","","","","","","","","","","","","","","",""
"","","","","","image-keyboard-response","50","208610","0.0-2.0-5.0-1.14","5c82d0ac51b0e00015cbd2fc","F1","batch6","","989.5999999940395","stim/yes_26_dia_w2_w.png","f","pattern_response","true","f","pattern_50","989.5999999940395","true","15","","","","","","","","","","","","","","","","","","",""
"","","","","","html-keyboard-response","51","209920","0.0-2.0-5.0-0.15","5c82d0ac51b0e00015cbd2fc","F1","batch6","","null","<p class=block-text>Trial 16 out of 78</p>","null","pattern_show_trial_num","","","","","","","","","","","","","","","","","","","","","","","","",""
"","","","","","image-keyboard-response","52","214209","0.0-2.0-5.0-1.15","5c82d0ac51b0e00015cbd2fc","F1","batch6","","4286.800000011921","stim/no_45_1_w.png","j","pattern_response","true","j","pattern_25","4286.800000011921","true","16","","","","","","","","","","","","","","","","","","",""
"","","","","","html-keyboard-response","53","215514","0.0-2.0-5.0-0.16","5c82d0ac51b0e00015cbd2fc","F1","batch6","","null","<p class=block-text>Trial 17 out of 78</p>","null","pattern_show_trial_num","","","","","","","","","","","","","","","","","","","","","","","","",""
"","","","","","image-keyboard-response","54","216245","0.0-2.0-5.0-1.16","5c82d0ac51b0e00015cbd2fc","F1","batch6","","730.2999999970198","stim/yes_29_hor_b1_b.png","f","pattern_response","true","f","pattern_52","730.2999999970198","true","17","","","","","","","","","","","","","","","","","","",""
"","","","","","html-keyboard-response","55","217555","0.0-2.0-5.0-0.17","5c82d0ac51b0e00015cbd2fc","F1","batch6","","null","<p class=block-text>Trial 18 out of 78</p>","null","pattern_show_trial_num","","","","","","","","","","","","","","","","","","","","","","","","",""
"","","","","","image-keyboard-response","56","219590","0.0-2.0-5.0-1.17","5c82d0ac51b0e00015cbd2fc","F1","batch6","","2032.699999988079","stim/no_37_2_w.png","j","pattern_response","true","j","pattern_19","2032.699999988079","true","18","","","","","","","","","","","","","","","","","","",""
"","","","","","html-keyboard-response","57","220902","0.0-2.0-5.0-0.18","5c82d0ac51b0e00015cbd2fc","F1","batch6","","null","<p class=block-text>Trial 19 out of 78</p>","null","pattern_show_trial_num","","","","","","","","","","","","","","","","","","","","","","","","",""
"","","","","","image-keyboard-response","58","223030","0.0-2.0-5.0-1.18","5c82d0ac51b0e00015cbd2fc","F1","batch6","","2125.2000000029802","stim/no_25_1_b.png","j","pattern_response","true","j","pattern_09","2125.2000000029802","true","19","","","","","","","","","","","","","","","","","","",""
"","","","","","html-keyboard-response","59","224338","0.0-2.0-5.0-0.19","5c82d0ac51b0e00015cbd2fc","F1","batch6","","null","<p class=block-text>Trial 20 out of 78</p>","null","pattern_show_trial_num","","","","","","","","","","","","","","","","","","","","","","","","",""
"","","","","","image-keyboard-response","60","225133","0.0-2.0-5.0-1.19","5c82d0ac51b0e00015cbd2fc","F1","batch6","","793.5","stim/yes_12_hor_w1_w.png","f","pattern_response","true","f","pattern_42","793.5","true","20","","","","","","","","","","","","","","","","","","",""
"","","","","","html-keyboard-response","61","226441","0.0-2.0-5.0-0.20","5c82d0ac51b0e00015cbd2fc","F1","batch6","","null","<p class=block-text>Trial 21 out of 78</p>","null","pattern_show_trial_num","","","","","","","","","","","","","","","","","","","","","","","","",""
"","","","","","image-keyboard-response","62","231553","0.0-2.0-5.0-1.20","5c82d0ac51b0e00015cbd2fc","F1","batch6","","5108.899999991059","stim/no_67_1.png","j","pattern_response","true","j","pattern_39","5108.899999991059","true","21","","","","","","","","","","","","","","","","","","",""
"","","","","","html-keyboard-response","63","232873","0.0-2.0-5.0-0.21","5c82d0ac51b0e00015cbd2fc","F1","batch6","","null","<p class=block-text>Trial 22 out of 78</p>","null","pattern_show_trial_num","","","","","","","","","","","","","","","","","","","","","","","","",""
"","","","","","image-keyboard-response","64","235780","0.0-2.0-5.0-1.21","5c82d0ac51b0e00015cbd2fc","F1","batch6","","2904.2999999970198","stim/no_49_2_b.png","j","pattern_response","true","j","pattern_29","2904.2999999970198","true","22","","","","","","","","","","","","","","","","","","",""
"","","","","","html-keyboard-response","65","237104","0.0-2.0-5.0-0.22","5c82d0ac51b0e00015cbd2fc","F1","batch6","","null","<p class=block-text>Trial 23 out of 78</p>","null","pattern_show_trial_num","","","","","","","","","","","","","","","","","","","","","","","","",""
"","","","","","image-keyboard-response","66","237876","0.0-2.0-5.0-1.22","5c82d0ac51b0e00015cbd2fc","F1","batch6","","770.6999999880791","stim/yes_30_ver_b1_b.png","f","pattern_response","true","f","pattern_54","770.6999999880791","true","23","","","","","","","","","","","","","","","","","","",""
"","","","","","html-keyboard-response","67","239198","0.0-2.0-5.0-0.23","5c82d0ac51b0e00015cbd2fc","F1","batch6","","null","<p class=block-text>Trial 24 out of 78</p>","null","pattern_show_trial_num","","","","","","","","","","","","","","","","","","","","","","","","",""
"","","","","","image-keyboard-response","68","240383","0.0-2.0-5.0-1.23","5c82d0ac51b0e00015cbd2fc","F1","batch6","","1184.4000000059605","stim/no_18_1_b.png","j","pattern_response","true","j","pattern_05","1184.4000000059605","true","24","","","","","","","","","","","","","","","","","","",""
"","","","","","html-keyboard-response","69","241690","0.0-2.0-5.0-0.24","5c82d0ac51b0e00015cbd2fc","F1","batch6","","null","<p class=block-text>Trial 25 out of 78</p>","null","pattern_show_trial_num","","","","","","","","","","","","","","","","","","","","","","","","",""
"","","","","","image-keyboard-response","70","243138","0.0-2.0-5.0-1.24","5c82d0ac51b0e00015cbd2fc","F1","batch6","","1447.1000000089407","stim/yes_51_dia_b1.png","j","pattern_response","false","f","pattern_72","1447.1000000089407","false","24","","","","","","","","","","","","","","","","","","",""
"","","","","","html-keyboard-response","71","244444","0.0-2.0-5.0-0.25","5c82d0ac51b0e00015cbd2fc","F1","batch6","","null","<p class=block-text>Trial 26 out of 78</p>","null","pattern_show_trial_num","","","","","","","","","","","","","","","","","","","","","","","","",""
"","","","","","image-keyboard-response","72","245757","0.0-2.0-5.0-1.25","5c82d0ac51b0e00015cbd2fc","F1","batch6","","1311.2999999970198","stim/yes_33_dia_w1_w.png","f","pattern_response","true","f","pattern_56","1311.2999999970198","true","25","","","","","","","","","","","","","","","","","","",""
"","","","","","html-keyboard-response","73","247075","0.0-2.0-5.0-0.26","5c82d0ac51b0e00015cbd2fc","F1","batch6","","null","<p class=block-text>Trial 27 out of 78</p>","null","pattern_show_trial_num","","","","","","","","","","","","","","","","","","","","","","","","",""
"","","","","","image-keyboard-response","74","248804","0.0-2.0-5.0-1.26","5c82d0ac51b0e00015cbd2fc","F1","batch6","","1725.3999999910593","stim/no_15_1_w.png","j","pattern_response","true","j","pattern_03","1725.3999999910593","true","26","","","","","","","","","","","","","","","","","","",""
"","","","","","html-keyboard-response","75","250108","0.0-2.0-5.0-0.27","5c82d0ac51b0e00015cbd2fc","F1","batch6","","null","<p class=block-text>Trial 28 out of 78</p>","null","pattern_show_trial_num","","","","","","","","","","","","","","","","","","","","","","","","",""
"","","","","","image-keyboard-response","76","253357","0.0-2.0-5.0-1.27","5c82d0ac51b0e00015cbd2fc","F1","batch6","","3246.2999999970198","stim/no_36_1_b.png","j","pattern_response","true","j","pattern_17","3246.2999999970198","true","27","","","","","","","","","","","","","","","","","","",""
"","","","","","html-keyboard-response","77","254672","0.0-2.0-5.0-0.28","5c82d0ac51b0e00015cbd2fc","F1","batch6","","null","<p class=block-text>Trial 29 out of 78</p>","null","pattern_show_trial_num","","","","","","","","","","","","","","","","","","","","","","","","",""
"","","","","","image-keyboard-response","78","257577","0.0-2.0-5.0-1.28","5c82d0ac51b0e00015cbd2fc","F1","batch6","","2901.4000000059605","stim/no_43_2_b.png","j","pattern_response","true","j","pattern_23","2901.4000000059605","true","28","","","","","","","","","","","","","","","","","","",""
"","","","","","html-keyboard-response","79","258894","0.0-2.0-5.0-0.29","5c82d0ac51b0e00015cbd2fc","F1","batch6","","null","<p class=block-text>Trial 30 out of 78</p>","null","pattern_show_trial_num","","","","","","","","","","","","","","","","","","","","","","","","",""
"","","","","","image-keyboard-response","80","260962","0.0-2.0-5.0-1.29","5c82d0ac51b0e00015cbd2fc","F1","batch6","","2065","stim/no_33_1_b.png","j","pattern_response","true","j","pattern_15","2065","true","29","","","","","","","","","","","","","","","","","","",""
"","","","","","html-keyboard-response","81","262273","0.0-2.0-5.0-0.30","5c82d0ac51b0e00015cbd2fc","F1","batch6","","null","<p class=block-text>Trial 31 out of 78</p>","null","pattern_show_trial_num","","","","","","","","","","","","","","","","","","","","","","","","",""
"","","","","","image-keyboard-response","82","264274","0.0-2.0-5.0-1.30","5c82d0ac51b0e00015cbd2fc","F1","batch6","","1999.5","stim/yes_37_hor_w1_w.png","f","pattern_response","true","f","pattern_60","1999.5","true","30","","","","","","","","","","","","","","","","","","",""
"","","","","","html-keyboard-response","83","265592","0.0-2.0-5.0-0.31","5c82d0ac51b0e00015cbd2fc","F1","batch6","","null","<p class=block-text>Trial 32 out of 78</p>","null","pattern_show_trial_num","","","","","","","","","","","","","","","","","","","","","","","","",""
"","","","","","image-keyboard-response","84","268175","0.0-2.0-5.0-1.31","5c82d0ac51b0e00015cbd2fc","F1","batch6","","2579.4000000059605","stim/no_28_2.png","j","pattern_response","true","j","pattern_11","2579.4000000059605","true","31","","","","","","","","","","","","","","","","","","",""
"","","","","","html-keyboard-response","85","269482","0.0-2.0-5.0-0.32","5c82d0ac51b0e00015cbd2fc","F1","batch6","","null","<p class=block-text>Trial 33 out of 78</p>","null","pattern_show_trial_num","","","","","","","","","","","","","","","","","","","","","","","","",""
"","","","","","image-keyboard-response","86","270311","0.0-2.0-5.0-1.32","5c82d0ac51b0e00015cbd2fc","F1","batch6","","825.7999999970198","stim/yes_15_dia_b1u_b.png","f","pattern_response","true","f","pattern_44","825.7999999970198","true","32","","","","","","","","","","","","","","","","","","",""
"","","","","","html-keyboard-response","87","271633","0.0-2.0-5.0-0.33","5c82d0ac51b0e00015cbd2fc","F1","batch6","","null","<p class=block-text>Trial 34 out of 78</p>","null","pattern_show_trial_num","","","","","","","","","","","","","","","","","","","","","","","","",""
"","","","","","image-keyboard-response","88","275999","0.0-2.0-5.0-1.33","5c82d0ac51b0e00015cbd2fc","F1","batch6","","4364.70000000298","stim/yes_44_ver_w1_w.png","j","pattern_response","false","f","pattern_66","4364.70000000298","false","32","","","","","","","","","","","","","","","","","","",""
"","","","","","html-keyboard-response","89","277319","0.0-2.0-5.0-0.34","5c82d0ac51b0e00015cbd2fc","F1","batch6","","null","<p class=block-text>Trial 35 out of 78</p>","null","pattern_show_trial_num","","","","","","","","","","","","","","","","","","","","","","","","",""
"","","","","","image-keyboard-response","90","278572","0.0-2.0-5.0-1.34","5c82d0ac51b0e00015cbd2fc","F1","batch6","","1251.699999988079","stim/yes_46_ver_b1_b.png","f","pattern_response","true","f","pattern_68","1251.699999988079","true","33","","","","","","","","","","","","","","","","","","",""
"","","","","","html-keyboard-response","91","279891","0.0-2.0-5.0-0.35","5c82d0ac51b0e00015cbd2fc","F1","batch6","","null","<p class=block-text>Trial 36 out of 78</p>","null","pattern_show_trial_num","","","","","","","","","","","","","","","","","","","","","","","","",""
"","","","","","image-keyboard-response","92","281184","0.0-2.0-5.0-1.35","5c82d0ac51b0e00015cbd2fc","F1","batch6","","1290.8999999910593","stim/yes_49_hor_w1_b.png","f","pattern_response","true","f","pattern_70","1290.8999999910593","true","34","","","","","","","","","","","","","","","","","","",""
"","","","","","html-keyboard-response","93","282491","0.0-2.0-5.0-0.36","5c82d0ac51b0e00015cbd2fc","F1","batch6","","null","<p class=block-text>Trial 37 out of 78</p>","null","pattern_show_trial_num","","","","","","","","","","","","","","","","","","","","","","","","",""
"","","","","","image-keyboard-response","94","284391","0.0-2.0-5.0-1.36","5c82d0ac51b0e00015cbd2fc","F1","batch6","","1899.5999999940395","stim/yes_42_dia_w1_w.png","f","pattern_response","true","f","pattern_64","1899.5999999940395","true","35","","","","","","","","","","","","","","","","","","",""
"","","","","","html-keyboard-response","95","285697","0.0-2.0-5.0-0.37","5c82d0ac51b0e00015cbd2fc","F1","batch6","","null","<p class=block-text>Trial 38 out of 78</p>","null","pattern_show_trial_num","","","","","","","","","","","","","","","","","","","","","","","","",""
"","","","","","image-keyboard-response","96","289499","0.0-2.0-5.0-1.37","5c82d0ac51b0e00015cbd2fc","F1","batch6","","3799.7999999970198","stim/yes_58_dia_w1_w.png","j","pattern_response","false","f","pattern_76","3799.7999999970198","false","35","","","","","","","","","","","","","","","","","","",""
"","","","","","html-keyboard-response","97","290805","0.0-2.0-5.0-0.38","5c82d0ac51b0e00015cbd2fc","F1","batch6","","null","<p class=block-text>Trial 39 out of 78</p>","null","pattern_show_trial_num","","","","","","","","","","","","","","","","","","","","","","","","",""
"","","","","","image-keyboard-response","98","293727","0.0-2.0-5.0-1.38","5c82d0ac51b0e00015cbd2fc","F1","batch6","","2918.8999999910593","stim/no_47_1_b.png","j","pattern_response","true","j","pattern_27","2918.8999999910593","true","36","","","","","","","","","","","","","","","","","","",""
"","","","","","image-keyboard-response","99","296475","0.0-2.0-6.0","5c82d0ac51b0e00015cbd2fc","F1","batch6","","2232.7999999970198","stim/empty_board.png","j","attention_check","true","j","","","","","500","[""f"",""j""]","","","","","","","","","","","","","","","","",""
"","","","","","html-keyboard-response","100","297291","0.0-2.0-7.0-0.0","5c82d0ac51b0e00015cbd2fc","F1","batch6","","null","<p class=block-text>Trial 40 out of 78</p>","null","pattern_show_trial_num","","","","","","","","","","","","","","","","","","","","","","","","",""
"","","","","","image-keyboard-response","101","300067","0.0-2.0-7.0-1.0","5c82d0ac51b0e00015cbd2fc","F1","batch6","","2772.5","stim/yes_31_hor_b1.png","f","pattern_response","true","f","pattern_55","2772.5","true","37","","","","","","","","","","","","","","","","","","",""
"","","","","","html-keyboard-response","102","301377","0.0-2.0-7.0-0.1","5c82d0ac51b0e00015cbd2fc","F1","batch6","","null","<p class=block-text>Trial 41 out of 78</p>","null","pattern_show_trial_num","","","","","","","","","","","","","","","","","","","","","","","","",""
"","","","","","image-keyboard-response","103","305289","0.0-2.0-7.0-1.1","5c82d0ac51b0e00015cbd2fc","F1","batch6","","3911.9000000059605","stim/no_29_1_b.png","j","pattern_response","true","j","pattern_12","3911.9000000059605","true","38","","","","","","","","","","","","","","","","","","",""
"","","","","","html-keyboard-response","104","306605","0.0-2.0-7.0-0.2","5c82d0ac51b0e00015cbd2fc","F1","batch6","","null","<p class=block-text>Trial 42 out of 78</p>","null","pattern_show_trial_num","","","","","","","","","","","","","","","","","","","","","","","","",""
"","","","","","image-keyboard-response","105","309488","0.0-2.0-7.0-1.2","5c82d0ac51b0e00015cbd2fc","F1","batch6","","2879.2999999970198","stim/yes_37_dia_w1.png","j","pattern_response","false","f","pattern_59","2879.2999999970198","false","38","","","","","","","","","","","","","","","","","","",""
"","","","","","html-keyboard-response","106","310803","0.0-2.0-7.0-0.3","5c82d0ac51b0e00015cbd2fc","F1","batch6","","null","<p class=block-text>Trial 43 out of 78</p>","null","pattern_show_trial_num","","","","","","","","","","","","","","","","","","","","","","","","",""
"","","","","","image-keyboard-response","107","314177","0.0-2.0-7.0-1.3","5c82d0ac51b0e00015cbd2fc","F1","batch6","","3370.9000000059605","stim/no_44_1.png","j","pattern_response","true","j","pattern_24","3370.9000000059605","true","39","","","","","","","","","","","","","","","","","","",""
"","","","","","html-keyboard-response","108","315498","0.0-2.0-7.0-0.4","5c82d0ac51b0e00015cbd2fc","F1","batch6","","null","<p class=block-text>Trial 44 out of 78</p>","null","pattern_show_trial_num","","","","","","","","","","","","","","","","","","","","","","","","",""
"","","","","","image-keyboard-response","109","318861","0.0-2.0-7.0-1.4","5c82d0ac51b0e00015cbd2fc","F1","batch6","","3362.7000000029802","stim/no_62_1_w.png","j","pattern_response","true","j","pattern_36","3362.7000000029802","true","40","","","","","","","","","","","","","","","","","","",""
"","","","","","html-keyboard-response","110","320173","0.0-2.0-7.0-0.5","5c82d0ac51b0e00015cbd2fc","F1","batch6","","null","<p class=block-text>Trial 45 out of 78</p>","null","pattern_show_trial_num","","","","","","","","","","","","","","","","","","","","","","","","",""
"","","","","","image-keyboard-response","111","322065","0.0-2.0-7.0-1.5","5c82d0ac51b0e00015cbd2fc","F1","batch6","","1891","stim/no_26_1_w.png","j","pattern_response","true","j","pattern_10","1891","true","41","","","","","","","","","","","","","","","","","","",""
"","","","","","html-keyboard-response","112","323380","0.0-2.0-7.0-0.6","5c82d0ac51b0e00015cbd2fc","F1","batch6","","null","<p class=block-text>Trial 46 out of 78</p>","null","pattern_show_trial_num","","","","","","","","","","","","","","","","","","","","","","","","",""
"","","","","","image-keyboard-response","113","324424","0.0-2.0-7.0-1.6","5c82d0ac51b0e00015cbd2fc","F1","batch6","","1042.300000011921","stim/yes_17_dia_w1.png","f","pattern_response","true","f","pattern_45","1042.300000011921","true","42","","","","","","","","","","","","","","","","","","",""
"","","","","","html-keyboard-response","114","325730","0.0-2.0-7.0-0.7","5c82d0ac51b0e00015cbd2fc","F1","batch6","","null","<p class=block-text>Trial 47 out of 78</p>","null","pattern_show_trial_num","","","","","","","","","","","","","","","","","","","","","","","","",""
"","","","","","image-keyboard-response","115","327960","0.0-2.0-7.0-1.7","5c82d0ac51b0e00015cbd2fc","F1","batch6","","2227.9000000059605","stim/yes_67_hor_b1.png","f","pattern_response","true","f","pattern_79","2227.9000000059605","true","43","","","","","","","","","","","","","","","","","","",""
"","","","","","html-keyboard-response","116","329272","0.0-2.0-7.0-0.8","5c82d0ac51b0e00015cbd2fc","F1","batch6","","null","<p class=block-text>Trial 48 out of 78</p>","null","pattern_show_trial_num","","","","","","","","","","","","","","","","","","","","","","","","",""
"","","","","","image-keyboard-response","117","330381","0.0-2.0-7.0-1.8","5c82d0ac51b0e00015cbd2fc","F1","batch6","","1105.5","stim/no_17_1_w.png","j","pattern_response","true","j","pattern_04","1105.5","true","44","","","","","","","","","","","","","","","","","","",""
"","","","","","html-keyboard-response","118","331701","0.0-2.0-7.0-0.9","5c82d0ac51b0e00015cbd2fc","F1","batch6","","null","<p class=block-text>Trial 49 out of 78</p>","null","pattern_show_trial_num","","","","","","","","","","","","","","","","","","","","","","","","",""
"","","","","","image-keyboard-response","119","335066","0.0-2.0-7.0-1.9","5c82d0ac51b0e00015cbd2fc","F1","batch6","","3363.0999999940395","stim/yes_60_ver_b1_b.png","f","pattern_response","true","f","pattern_77","3363.0999999940395","true","45","","","","","","","","","","","","","","","","","","",""
"","","","","","html-keyboard-response","120","336383","0.0-2.0-7.0-0.10","5c82d0ac51b0e00015cbd2fc","F1","batch6","","null","<p class=block-text>Trial 50 out of 78</p>","null","pattern_show_trial_num","","","","","","","","","","","","","","","","","","","","","","","","",""
"","","","","","image-keyboard-response","121","337826","0.0-2.0-7.0-1.10","5c82d0ac51b0e00015cbd2fc","F1","batch6","","1440","stim/yes_25_hor_b1_b.png","f","pattern_response","true","f","pattern_49","1440","true","46","","","","","","","","","","","","","","","","","","",""
"","","","","","html-keyboard-response","122","339137","0.0-2.0-7.0-0.11","5c82d0ac51b0e00015cbd2fc","F1","batch6","","null","<p class=block-text>Trial 51 out of 78</p>","null","pattern_show_trial_num","","","","","","","","","","","","","","","","","","","","","","","","",""
"","","","","","image-keyboard-response","123","341429","0.0-2.0-7.0-1.11","5c82d0ac51b0e00015cbd2fc","F1","batch6","","2288.7999999970198","stim/no_42_1_w.png","j","pattern_response","true","j","pattern_22","2288.7999999970198","true","47","","","","","","","","","","","","","","","","","","",""
"","","","","","html-keyboard-response","124","342737","0.0-2.0-7.0-0.12","5c82d0ac51b0e00015cbd2fc","F1","batch6","","null","<p class=block-text>Trial 52 out of 78</p>","null","pattern_show_trial_num","","","","","","","","","","","","","","","","","","","","","","","","",""
"","","","","","image-keyboard-response","125","343694","0.0-2.0-7.0-1.12","5c82d0ac51b0e00015cbd2fc","F1","batch6","","955.0999999940395","stim/yes_14_hor_b1_w.png","f","pattern_response","true","f","pattern_43","955.0999999940395","true","48","","","","","","","","","","","","","","","","","","",""
"","","","","","html-keyboard-response","126","345010","0.0-2.0-7.0-0.13","5c82d0ac51b0e00015cbd2fc","F1","batch6","","null","<p class=block-text>Trial 53 out of 78</p>","null","pattern_show_trial_num","","","","","","","","","","","","","","","","","","","","","","","","",""
"","","","","","image-keyboard-response","127","346448","0.0-2.0-7.0-1.13","5c82d0ac51b0e00015cbd2fc","F1","batch6","","1436.5","stim/no_20_1_w.png","j","pattern_response","true","j","pattern_06","1436.5","true","49","","","","","","","","","","","","","","","","","","",""
"","","","","","html-keyboard-response","128","347765","0.0-2.0-7.0-0.14","5c82d0ac51b0e00015cbd2fc","F1","batch6","","null","<p class=block-text>Trial 54 out of 78</p>","null","pattern_show_trial_num","","","","","","","","","","","","","","","","","","","","","","","","",""
"","","","","","image-keyboard-response","129","350968","0.0-2.0-7.0-1.14","5c82d0ac51b0e00015cbd2fc","F1","batch6","","3201.7999999970198","stim/no_50_1.png","j","pattern_response","true","j","pattern_30","3201.7999999970198","true","50","","","","","","","","","","","","","","","","","","",""
"","","","","","html-keyboard-response","130","352285","0.0-2.0-7.0-0.15","5c82d0ac51b0e00015cbd2fc","F1","batch6","","null","<p class=block-text>Trial 55 out of 78</p>","null","pattern_show_trial_num","","","","","","","","","","","","","","","","","","","","","","","","",""
"","","","","","image-keyboard-response","131","354685","0.0-2.0-7.0-1.15","5c82d0ac51b0e00015cbd2fc","F1","batch6","","2398.5","stim/no_48_1_w.png","j","pattern_response","true","j","pattern_28","2398.5","true","51","","","","","","","","","","","","","","","","","","",""
"","","","","","html-keyboard-response","132","355996","0.0-2.0-7.0-0.16","5c82d0ac51b0e00015cbd2fc","F1","batch6","","null","<p class=block-text>Trial 56 out of 78</p>","null","pattern_show_trial_num","","","","","","","","","","","","","","","","","","","","","","","","",""
"","","","","","image-keyboard-response","133","358698","0.0-2.0-7.0-1.16","5c82d0ac51b0e00015cbd2fc","F1","batch6","","2699.2999999970198","stim/no_55_1_w.png","j","pattern_response","true","j","pattern_34","2699.2999999970198","true","52","","","","","","","","","","","","","","","","","","",""
"","","","","","html-keyboard-response","134","360007","0.0-2.0-7.0-0.17","5c82d0ac51b0e00015cbd2fc","F1","batch6","","null","<p class=block-text>Trial 57 out of 78</p>","null","pattern_show_trial_num","","","","","","","","","","","","","","","","","","","","","","","","",""
"","","","","","image-keyboard-response","135","360984","0.0-2.0-7.0-1.17","5c82d0ac51b0e00015cbd2fc","F1","batch6","","974","stim/yes_29_ver_w1.png","f","pattern_response","true","f","pattern_53","974","true","53","","","","","","","","","","","","","","","","","","",""
"","","","","","html-keyboard-response","136","362299","0.0-2.0-7.0-0.18","5c82d0ac51b0e00015cbd2fc","F1","batch6","","null","<p class=block-text>Trial 58 out of 78</p>","null","pattern_show_trial_num","","","","","","","","","","","","","","","","","","","","","","","","",""
"","","","","","image-keyboard-response","137","363395","0.0-2.0-7.0-1.18","5c82d0ac51b0e00015cbd2fc","F1","batch6","","1093.7000000029802","stim/yes_43_ver_w1_w.png","f","pattern_response","true","f","pattern_65","1093.7000000029802","true","54","","","","","","","","","","","","","","","","","","",""
"","","","","","html-keyboard-response","138","364702","0.0-2.0-7.0-0.19","5c82d0ac51b0e00015cbd2fc","F1","batch6","","null","<p class=block-text>Trial 59 out of 78</p>","null","pattern_show_trial_num","","","","","","","","","","","","","","","","","","","","","","","","",""
"","","","","","image-keyboard-response","139","365795","0.0-2.0-7.0-1.19","5c82d0ac51b0e00015cbd2fc","F1","batch6","","1091.699999988079","stim/yes_55_hor_w1_w.png","f","pattern_response","true","f","pattern_75","1091.699999988079","true","55","","","","","","","","","","","","","","","","","","",""
"","","","","","html-keyboard-response","140","367116","0.0-2.0-7.0-0.20","5c82d0ac51b0e00015cbd2fc","F1","batch6","","null","<p class=block-text>Trial 60 out of 78</p>","null","pattern_show_trial_num","","","","","","","","","","","","","","","","","","","","","","","","",""
"","","","","","image-keyboard-response","141","369412","0.0-2.0-7.0-1.20","5c82d0ac51b0e00015cbd2fc","F1","batch6","","2292.6000000089407","stim/no_34_1_b.png","j","pattern_response","true","j","pattern_16","2292.6000000089407","true","56","","","","","","","","","","","","","","","","","","",""
"","","","","","html-keyboard-response","142","370727","0.0-2.0-7.0-0.21","5c82d0ac51b0e00015cbd2fc","F1","batch6","","null","<p class=block-text>Trial 61 out of 78</p>","null","pattern_show_trial_num","","","","","","","","","","","","","","","","","","","","","","","","",""
"","","","","","image-keyboard-response","143","371436","0.0-2.0-7.0-1.21","5c82d0ac51b0e00015cbd2fc","F1","batch6","","709","stim/no_13_2_b.png","f","pattern_response","false","j","pattern_02","709","false","56","","","","","","","","","","","","","","","","","","",""
"","","","","","html-keyboard-response","144","372755","0.0-2.0-7.0-0.22","5c82d0ac51b0e00015cbd2fc","F1","batch6","","null","<p class=block-text>Trial 62 out of 78</p>","null","pattern_show_trial_num","","","","","","","","","","","","","","","","","","","","","","","","",""
"","","","","","image-keyboard-response","145","375862","0.0-2.0-7.0-1.22","5c82d0ac51b0e00015cbd2fc","F1","batch6","","3104.7000000029802","stim/yes_35_dia_b1.png","f","pattern_response","true","f","pattern_57","3104.7000000029802","true","57","","","","","","","","","","","","","","","","","","",""
"","","","","","html-keyboard-response","146","377174","0.0-2.0-7.0-0.23","5c82d0ac51b0e00015cbd2fc","F1","batch6","","null","<p class=block-text>Trial 63 out of 78</p>","null","pattern_show_trial_num","","","","","","","","","","","","","","","","","","","","","","","","",""
"","","","","","image-keyboard-response","147","378293","0.0-2.0-7.0-1.23","5c82d0ac51b0e00015cbd2fc","F1","batch6","","1117","stim/yes_22_ver_w1.png","f","pattern_response","true","f","pattern_47","1117","true","58","","","","","","","","","","","","","","","","","","",""
"","","","","","html-keyboard-response","148","379605","0.0-2.0-7.0-0.24","5c82d0ac51b0e00015cbd2fc","F1","batch6","","null","<p class=block-text>Trial 64 out of 78</p>","null","pattern_show_trial_num","","","","","","","","","","","","","","","","","","","","","","","","",""
"","","","","","image-keyboard-response","149","381960","0.0-2.0-7.0-1.24","5c82d0ac51b0e00015cbd2fc","F1","batch6","","2353.2000000029802","stim/yes_40_dia_b1_b.png","f","pattern_response","true","f","pattern_63","2353.2000000029802","true","59","","","","","","","","","","","","","","","","","","",""
"","","","","","html-keyboard-response","150","383276","0.0-2.0-7.0-0.25","5c82d0ac51b0e00015cbd2fc","F1","batch6","","null","<p class=block-text>Trial 65 out of 78</p>","null","pattern_show_trial_num","","","","","","","","","","","","","","","","","","","","","","","","",""
"","","","","","image-keyboard-response","151","387406","0.0-2.0-7.0-1.25","5c82d0ac51b0e00015cbd2fc","F1","batch6","","4128.70000000298","stim/no_52_1.png","j","pattern_response","true","j","pattern_32","4128.70000000298","true","60","","","","","","","","","","","","","","","","","","",""
"","","","","","html-keyboard-response","152","388722","0.0-2.0-7.0-0.26","5c82d0ac51b0e00015cbd2fc","F1","batch6","","null","<p class=block-text>Trial 66 out of 78</p>","null","pattern_show_trial_num","","","","","","","","","","","","","","","","","","","","","","","","",""
"","","","","","image-keyboard-response","153","393260","0.0-2.0-7.0-1.26","5c82d0ac51b0e00015cbd2fc","F1","batch6","","4535","stim/no_65_1_b.png","j","pattern_response","true","j","pattern_38","4535","true","61","","","","","","","","","","","","","","","","","","",""
"","","","","","html-keyboard-response","154","394573","0.0-2.0-7.0-0.27","5c82d0ac51b0e00015cbd2fc","F1","batch6","","null","<p class=block-text>Trial 67 out of 78</p>","null","pattern_show_trial_num","","","","","","","","","","","","","","","","","","","","","","","","",""
"","","","","","image-keyboard-response","155","397632","0.0-2.0-7.0-1.27","5c82d0ac51b0e00015cbd2fc","F1","batch6","","3055.0999999940395","stim/no_46_1_b.png","j","pattern_response","true","j","pattern_26","3055.0999999940395","true","62","","","","","","","","","","","","","","","","","","",""
"","","","","","html-keyboard-response","156","398948","0.0-2.0-7.0-0.28","5c82d0ac51b0e00015cbd2fc","F1","batch6","","null","<p class=block-text>Trial 68 out of 78</p>","null","pattern_show_trial_num","","","","","","","","","","","","","","","","","","","","","","","","",""
"","","","","","image-keyboard-response","157","402716","0.0-2.0-7.0-1.28","5c82d0ac51b0e00015cbd2fc","F1","batch6","","3766.7000000029802","stim/yes_50_dia_w1.png","j","pattern_response","false","f","pattern_71","3766.7000000029802","false","62","","","","","","","","","","","","","","","","","","",""
"","","","","","html-keyboard-response","158","404030","0.0-2.0-7.0-0.29","5c82d0ac51b0e00015cbd2fc","F1","batch6","","null","<p class=block-text>Trial 69 out of 78</p>","null","pattern_show_trial_num","","","","","","","","","","","","","","","","","","","","","","","","",""
"","","","","","image-keyboard-response","159","407010","0.0-2.0-7.0-1.29","5c82d0ac51b0e00015cbd2fc","F1","batch6","","2977.300000011921","stim/no_36_2_w.png","j","pattern_response","true","j","pattern_18","2977.300000011921","true","63","","","","","","","","","","","","","","","","","","",""
"","","","","","html-keyboard-response","160","408319","0.0-2.0-7.0-0.30","5c82d0ac51b0e00015cbd2fc","F1","batch6","","null","<p class=block-text>Trial 70 out of 78</p>","null","pattern_show_trial_num","","","","","","","","","","","","","","","","","","","","","","","","",""
"","","","","","image-keyboard-response","161","411123","0.0-2.0-7.0-1.30","5c82d0ac51b0e00015cbd2fc","F1","batch6","","2801.7000000029802","stim/yes_48_dia_w1_w.png","f","pattern_response","true","f","pattern_69","2801.7000000029802","true","64","","","","","","","","","","","","","","","","","","",""
"","","","","","html-keyboard-response","162","412434","0.0-2.0-7.0-0.31","5c82d0ac51b0e00015cbd2fc","F1","batch6","","null","<p class=block-text>Trial 71 out of 78</p>","null","pattern_show_trial_num","","","","","","","","","","","","","","","","","","","","","","","","",""
"","","","","","image-keyboard-response","163","414939","0.0-2.0-7.0-1.31","5c82d0ac51b0e00015cbd2fc","F1","batch6","","2502.2000000029802","stim/no_32_1_w.png","j","pattern_response","true","j","pattern_14","2502.2000000029802","true","65","","","","","","","","","","","","","","","","","","",""
"","","","","","html-keyboard-response","164","416261","0.0-2.0-7.0-0.32","5c82d0ac51b0e00015cbd2fc","F1","batch6","","null","<p class=block-text>Trial 72 out of 78</p>","null","pattern_show_trial_num","","","","","","","","","","","","","","","","","","","","","","","","",""
"","","","","","image-keyboard-response","165","421045","0.0-2.0-7.0-1.32","5c82d0ac51b0e00015cbd2fc","F1","batch6","","4780.199999988079","stim/no_70_2.png","j","pattern_response","true","j","pattern_40","4780.199999988079","true","66","","","","","","","","","","","","","","","","","","",""
"","","","","","html-keyboard-response","166","422356","0.0-2.0-7.0-0.33","5c82d0ac51b0e00015cbd2fc","F1","batch6","","null","<p class=block-text>Trial 73 out of 78</p>","null","pattern_show_trial_num","","","","","","","","","","","","","","","","","","","","","","","","",""
"","","","","","image-keyboard-response","167","423962","0.0-2.0-7.0-1.33","5c82d0ac51b0e00015cbd2fc","F1","batch6","","1602.7999999970198","stim/no_23_1.png","j","pattern_response","true","j","pattern_08","1602.7999999970198","true","67","","","","","","","","","","","","","","","","","","",""
"","","","","","html-keyboard-response","168","425276","0.0-2.0-7.0-0.34","5c82d0ac51b0e00015cbd2fc","F1","batch6","","null","<p class=block-text>Trial 74 out of 78</p>","null","pattern_show_trial_num","","","","","","","","","","","","","","","","","","","","","","","","",""
"","","","","","image-keyboard-response","169","426262","0.0-2.0-7.0-1.34","5c82d0ac51b0e00015cbd2fc","F1","batch6","","984.6000000089407","stim/yes_28_ver_b1.png","f","pattern_response","true","f","pattern_51","984.6000000089407","true","68","","","","","","","","","","","","","","","","","","",""
"","","","","","html-keyboard-response","170","427585","0.0-2.0-7.0-0.35","5c82d0ac51b0e00015cbd2fc","F1","batch6","","null","<p class=block-text>Trial 75 out of 78</p>","null","pattern_show_trial_num","","","","","","","","","","","","","","","","","","","","","","","","",""
"","","","","","image-keyboard-response","171","429565","0.0-2.0-7.0-1.35","5c82d0ac51b0e00015cbd2fc","F1","batch6","","1977.3999999910593","stim/yes_45_hor_b2_b.png","f","pattern_response","true","f","pattern_67","1977.3999999910593","true","69","","","","","","","","","","","","","","","","","","",""
"","","","","","html-keyboard-response","172","430877","0.0-2.0-7.0-0.36","5c82d0ac51b0e00015cbd2fc","F1","batch6","","null","<p class=block-text>Trial 76 out of 78</p>","null","pattern_show_trial_num","","","","","","","","","","","","","","","","","","","","","","","","",""
"","","","","","image-keyboard-response","173","431811","0.0-2.0-7.0-1.36","5c82d0ac51b0e00015cbd2fc","F1","batch6","","932.1000000089407","stim/yes_38_hor_b1_b.png","f","pattern_response","true","f","pattern_61","932.1000000089407","true","70","","","","","","","","","","","","","","","","","","",""
"","","","","","html-keyboard-response","174","433120","0.0-2.0-7.0-0.37","5c82d0ac51b0e00015cbd2fc","F1","batch6","","null","<p class=block-text>Trial 77 out of 78</p>","null","pattern_show_trial_num","","","","","","","","","","","","","","","","","","","","","","","","",""
"","","","","","image-keyboard-response","175","434618","0.0-2.0-7.0-1.37","5c82d0ac51b0e00015cbd2fc","F1","batch6","","1495.5","stim/yes_52_ver_w1.png","f","pattern_response","true","f","pattern_73","1495.5","true","71","","","","","","","","","","","","","","","","","","",""
"","","","","","html-keyboard-response","176","435934","0.0-2.0-7.0-0.38","5c82d0ac51b0e00015cbd2fc","F1","batch6","","null","<p class=block-text>Trial 78 out of 78</p>","null","pattern_show_trial_num","","","","","","","","","","","","","","","","","","","","","","","","",""
"","","","","","image-keyboard-response","177","438288","0.0-2.0-7.0-1.38","5c82d0ac51b0e00015cbd2fc","F1","batch6","","2351.7000000029802","stim/no_38_1_b.png","j","pattern_response","true","j","pattern_20","2351.7000000029802","true","72","","","","","","","","","","","","","","","","","","",""
"","","","","","html-button-response","178","463391","0.0-2.0-8.0","5c82d0ac51b0e00015cbd2fc","F1","batch6","","24590.5","<p class = block-text>This concludes the 4-in-a-row detection game.Thank you for your responses!<br>
            You responded correctly on 92% of the trials.<br>
            When you are ready, press ""Continue"" button to continue </p>","0","","","","","","","","","","","","","","","","","","","","","","","","","",""
"true","","","","","fullscreen","179","466207","0.0-3.0-0.0","5c82d0ac51b0e00015cbd2fc","F1","batch6","","","","","","","","","","","","","","","","","","","","","","","","","","","","","",""
"","","","","","instructions","180","514532","0.0-3.0-1.0-0.0-0.0","5c82d0ac51b0e00015cbd2fc","F1","batch6","[{""page_index"":0,""viewing_time"":7321.0999999940395},{""page_index"":1,""viewing_time"":6850},{""page_index"":2,""viewing_time"":3745.300000011921},{""page_index"":3,""viewing_time"":8245.699999988079},{""page_index"":4,""viewing_time"":5613.9000000059605},{""page_index"":5,""viewing_time"":13656},{""page_index"":6,""viewing_time"":2891}]","48323.20000000298","","","tol-instructions","","","","","","","","","","","","","","","","","","","","","","","","",""
"","","","","","html-button-response","181","515625","0.0-3.0-1.0-1.0-0.0","5c82d0ac51b0e00015cbd2fc","F1","batch6","","1093.2999999970198","<p class=block-text> Let's answer a few questions <br>","0","tol_enter_quiz","","","","","","","","","","","","","","","","","","","","","","","","",""
"","","","","","html-button-response","182","518656","0.0-3.0-1.0-1.0-1.0","5c82d0ac51b0e00015cbd2fc","F1","batch6","","3029.6000000089407","<p class = block-text>True or False: You can only move the ball on top of a peg. <br></p>","0","tol_quiz","true","","","","","","","","","","","","","","","","","","","","","","","",""
"","","","","","html-button-response","183","520477","0.0-3.0-1.0-1.0-2.0","5c82d0ac51b0e00015cbd2fc","F1","batch6","","1820.7000000029802","<p class = block-text>Correct! You can only move the ball on top of a peg.</p>","0","tol_quiz_feedback","","","","","","","","","","","","","","","","","","","","","","","","",""
"","","","","","html-button-response","184","522846","0.0-3.0-1.0-1.0-3.0","5c82d0ac51b0e00015cbd2fc","F1","batch6","","2367.4000000059605","<p class = block-text>True or False: You should try to match your board with the target board with fewest moves possible. <br></p>","0","tol_quiz","true","","","","","","","","","","","","","","","","","","","","","","","",""
"","","","","","html-button-response","185","523706","0.0-3.0-1.0-1.0-4.0","5c82d0ac51b0e00015cbd2fc","F1","batch6","","859.3999999910593","<p class = block-text>Correct! </p>","0","tol_quiz_feedback","","","","","","","","","","","","","","","","","","","","","","","","",""
"","","","","","html-button-response","186","525153","0.0-3.0-2.0","5c82d0ac51b0e00015cbd2fc","F1","batch6","","1445.7000000029802","<p class=block-text> Now that you've understood the game, let's practice a few easier examples before we start!<br> <br>","0","","","","","","","","","","","","","","","","","","","","","","","","","",""
"","","","","","single-stim-button","187","527235","0.0-3.0-3.0-0.0","5c82d0ac51b0e00015cbd2fc","F1","batch6","","2082","","","tol_practice","","","","","","","","","tol_peg_2","2082","2082","0","[[1,2,0],[0,0],[0]]","1","[[1,2,0],[0,0],[3]]","practice","2082","","","","","","","",""
"","","","","","single-stim-button","188","528330","0.0-3.0-3.0-1.0","5c82d0ac51b0e00015cbd2fc","F1","batch6","","1094","","","tol_practice","","","","","","","","","tol_peg_3","1094","1094","0","[[1,2,0],[0,0],[3]]","1","[[1,2,0],[0,0],[3]]","practice","1094","","","","","","","",""
"","","","","","poldrack-single-stim","189","529332","0.0-3.0-4.0","5c82d0ac51b0e00015cbd2fc","F1","batch6","","-1","","","tol_feedback","true","","","","","","","","","1000","1000","500","","","","","","-1","none","true","","0","","",""
"","","","","","single-stim-button","190","532422","0.0-3.0-5.0-0.0","5c82d0ac51b0e00015cbd2fc","F1","batch6","","3090","","","tol_practice","","","","","","","","","tol_peg_1","3090","3090","0","[[1,0,0],[3,0],[0]]","2","[[0,0,0],[3,1],[2]]","practice","3090","","","","","","","",""
"","","","","","single-stim-button","191","533649","0.0-3.0-5.0-1.0","5c82d0ac51b0e00015cbd2fc","F1","batch6","","1225","","","tol_practice","","","","","","","","","tol_peg_3","1225","1225","0","[[1,0,0],[3,0],[2]]","2","[[0,0,0],[3,1],[2]]","practice","1225","","","","","","","",""
"","","","","","single-stim-button","192","534911","0.0-3.0-5.1-0.1","5c82d0ac51b0e00015cbd2fc","F1","batch6","","1262","","","tol_practice","","","","","","","","","tol_peg_1","1262","1262","0","[[0,0,0],[3,0],[2]]","3","[[0,0,0],[3,1],[2]]","practice","1262","","","","","","","",""
"","","","","","single-stim-button","193","535762","0.0-3.0-5.1-1.1","5c82d0ac51b0e00015cbd2fc","F1","batch6","","850","","","tol_practice","","","","","","","","","tol_peg_2","850","850","0","[[0,0,0],[3,1],[2]]","3","[[0,0,0],[3,1],[2]]","practice","850","","","","","","","",""
"","","","","","poldrack-single-stim","194","536763","0.0-3.0-6.0","5c82d0ac51b0e00015cbd2fc","F1","batch6","","-1","","","tol_feedback","true","","","","","","","","","1000","1000","500","","","","","","-1","none","true","","0","","",""
"","","","","","single-stim-button","195","539917","0.0-3.0-7.0-0.0","5c82d0ac51b0e00015cbd2fc","F1","batch6","","3152","","","tol_practice","","","","","","","","","tol_peg_2","3152","3152","0","[[1,2,0],[0,0],[0]]","4","[[1,0,0],[2,0],[3]]","practice","3152","","","","","","","",""
"","","","","","single-stim-button","196","540718","0.0-3.0-7.0-1.0","5c82d0ac51b0e00015cbd2fc","F1","batch6","","800","","","tol_practice","","","","","","","","","tol_peg_3","800","800","0","[[1,2,0],[0,0],[3]]","4","[[1,0,0],[2,0],[3]]","practice","800","","","","","","","",""
"","","","","","single-stim-button","197","541366","0.0-3.0-7.1-0.1","5c82d0ac51b0e00015cbd2fc","F1","batch6","","647","","","tol_practice","","","","","","","","","tol_peg_1","647","647","0","[[1,0,0],[0,0],[3]]","5","[[1,0,0],[2,0],[3]]","practice","647","","","","","","","",""
"","","","","","single-stim-button","198","542099","0.0-3.0-7.1-1.1","5c82d0ac51b0e00015cbd2fc","F1","batch6","","733","","","tol_practice","","","","","","","","","tol_peg_2","733","733","0","[[1,0,0],[2,0],[3]]","5","[[1,0,0],[2,0],[3]]","practice","733","","","","","","","",""
"","","","","","poldrack-single-stim","199","543102","0.0-3.0-8.0","5c82d0ac51b0e00015cbd2fc","F1","batch6","","-1","","","tol_feedback","true","","","","","","","","","1000","1000","500","","","","","","-1","none","true","","0","","",""
"","","","","","html-button-response","200","545582","0.0-3.0-9.0","5c82d0ac51b0e00015cbd2fc","F1","batch6","","2479.5999999940395","<div class = centerbox><p class = center-block-text>Great job! You are done with practice trials<br>You are about to start official trials.<br> <br> Problem <strong>1</strong> out of 25 problems</p></div>","0","tol_instruction","","","","","","","","","","","","","","","","","","","","","","","","",""
"","","","","","single-stim-button","201","550343","0.0-3.0-10.0-0.0","5c82d0ac51b0e00015cbd2fc","F1","batch6","","3758","","","tol_tohand","","","","","","","","","tol_peg_1","3758","3758","0","[[1,0,0],[3,0],[0]]","1","[[1,3,0],[2,0],[0]]","0","0","","","","","","3","",""
"","","","","","single-stim-button","202","555522","0.0-3.0-10.0-1.0","5c82d0ac51b0e00015cbd2fc","F1","batch6","","5179","","","tol_toboard","","","","","","","","","tol_peg_3","5179","5179","0","[[1,0,0],[3,0],[2]]","1","[[1,3,0],[2,0],[0]]","0","0","","","","","","3","",""
"","","","","","single-stim-button","203","556644","0.0-3.0-10.1-0.1","5c82d0ac51b0e00015cbd2fc","F1","batch6","","1120","","","tol_tohand","","","","","","","","","tol_peg_2","1120","1120","0","[[1,0,0],[0,0],[2]]","2","[[1,3,0],[2,0],[0]]","0","0","","","","","","3","",""
"","","","","","single-stim-button","204","557345","0.0-3.0-10.1-1.1","5c82d0ac51b0e00015cbd2fc","F1","batch6","","701","","","tol_toboard","","","","","","","","","tol_peg_1","701","701","0","[[1,3,0],[0,0],[2]]","2","[[1,3,0],[2,0],[0]]","0","0","","","","","","3","",""
"","","","","","single-stim-button","205","557942","0.0-3.0-10.2-0.2","5c82d0ac51b0e00015cbd2fc","F1","batch6","","596","","","tol_tohand","","","","","","","","","tol_peg_3","596","596","0","[[1,3,0],[0,0],[0]]","3","[[1,3,0],[2,0],[0]]","0","0","","","","","","3","",""
"","","","","","single-stim-button","206","558612","0.0-3.0-10.2-1.2","5c82d0ac51b0e00015cbd2fc","F1","batch6","","669","","","tol_toboard","","","","","","","","","tol_peg_2","669","669","0","[[1,3,0],[2,0],[0]]","3","[[1,3,0],[2,0],[0]]","0","0","","","","","","3","",""
"","","","","","poldrack-single-stim","207","559613","0.0-3.0-11.0","5c82d0ac51b0e00015cbd2fc","F1","batch6","","-1","","","tol_feedback","true","","","","","","","","","1000","1000","500","","","","","","-1","none","true","3758","5474","","",""
"","","","","","html-button-response","208","560555","0.0-3.0-12.0","5c82d0ac51b0e00015cbd2fc","F1","batch6","","940.5","<div class = centerbox><p class = center-block-text>problem <strong>2</strong> out of 25 problems</p></div>","0","tol_trial_num","","","","","","","","","","","","","","","","","","","","","","","","",""
"","","","","","single-stim-button","209","564666","0.0-3.0-13.0-0.0","5c82d0ac51b0e00015cbd2fc","F1","batch6","","4111","","","tol_tohand","","","","","","","","","tol_peg_1","4111","4111","0","[[1,0,0],[3,0],[0]]","1","[[2,1,3],[0,0],[0]]","1","0","","","","","","5","",""
"","","","","","single-stim-button","210","566176","0.0-3.0-13.0-1.0","5c82d0ac51b0e00015cbd2fc","F1","batch6","","1508","","","tol_toboard","","","","","","","","","tol_peg_3","1508","1508","0","[[1,0,0],[3,0],[2]]","1","[[2,1,3],[0,0],[0]]","1","0","","","","","","5","",""
"","","","","","single-stim-button","211","566708","0.0-3.0-13.1-0.1","5c82d0ac51b0e00015cbd2fc","F1","batch6","","532","","","tol_tohand","","","","","","","","","tol_peg_1","532","532","0","[[0,0,0],[3,0],[2]]","2","[[2,1,3],[0,0],[0]]","1","0","","","","","","5","",""
"","","","","","single-stim-button","212","567488","0.0-3.0-13.1-1.1","5c82d0ac51b0e00015cbd2fc","F1","batch6","","779","","","tol_toboard","","","","","","","","","tol_peg_2","779","779","0","[[0,0,0],[3,1],[2]]","2","[[2,1,3],[0,0],[0]]","1","0","","","","","","5","",""
"","","","","","single-stim-button","213","568273","0.0-3.0-13.2-0.2","5c82d0ac51b0e00015cbd2fc","F1","batch6","","784","","","tol_tohand","","","","","","","","","tol_peg_3","784","784","0","[[0,0,0],[3,1],[0]]","3","[[2,1,3],[0,0],[0]]","1","0","","","","","","5","",""
"","","","","","single-stim-button","214","569261","0.0-3.0-13.2-1.2","5c82d0ac51b0e00015cbd2fc","F1","batch6","","988","","","tol_toboard","","","","","","","","","tol_peg_1","988","988","0","[[2,0,0],[3,1],[0]]","3","[[2,1,3],[0,0],[0]]","1","0","","","","","","5","",""
"","","","","","single-stim-button","215","570010","0.0-3.0-13.3-0.3","5c82d0ac51b0e00015cbd2fc","F1","batch6","","747","","","tol_tohand","","","","","","","","","tol_peg_2","747","747","0","[[2,0,0],[3,0],[0]]","4","[[2,1,3],[0,0],[0]]","1","0","","","","","","5","",""
"","","","","","single-stim-button","216","570927","0.0-3.0-13.3-1.3","5c82d0ac51b0e00015cbd2fc","F1","batch6","","916","","","tol_toboard","","","","","","","","","tol_peg_1","916","916","0","[[2,1,0],[3,0],[0]]","4","[[2,1,3],[0,0],[0]]","1","0","","","","","","5","",""
"","","","","","single-stim-button","217","571520","0.0-3.0-13.4-0.4","5c82d0ac51b0e00015cbd2fc","F1","batch6","","593","","","tol_tohand","","","","","","","","","tol_peg_2","593","593","0","[[2,1,0],[0,0],[0]]","5","[[2,1,3],[0,0],[0]]","1","0","","","","","","5","",""
"","","","","","single-stim-button","218","572117","0.0-3.0-13.4-1.4","5c82d0ac51b0e00015cbd2fc","F1","batch6","","595","","","tol_toboard","","","","","","","","","tol_peg_1","595","595","0","[[2,1,3],[0,0],[0]]","5","[[2,1,3],[0,0],[0]]","1","0","","","","","","5","",""
"","","","","","poldrack-single-stim","219","573124","0.0-3.0-14.0","5c82d0ac51b0e00015cbd2fc","F1","batch6","","-1","","","tol_feedback","true","","","","","","","","","1000","1000","500","","","","","","-1","none","true","4111","6767","","",""
"","","","","","html-button-response","220","574324","0.0-3.0-15.0","5c82d0ac51b0e00015cbd2fc","F1","batch6","","1199.0999999940395","<div class = centerbox><p class = center-block-text>problem <strong>3</strong> out of 25 problems</p></div>","0","tol_trial_num","","","","","","","","","","","","","","","","","","","","","","","","",""
"","","","","","single-stim-button","221","579609","0.0-3.0-16.0-0.0","5c82d0ac51b0e00015cbd2fc","F1","batch6","","5284","","","tol_tohand","","","","","","","","","tol_peg_1","5284","5284","0","[[2,0,0],[0,0],[1]]","1","[[1,2,0],[3,0],[0]]","2","0","","","","","","4","",""
"","","","","","single-stim-button","222","581660","0.0-3.0-16.0-1.0","5c82d0ac51b0e00015cbd2fc","F1","batch6","","2050","","","tol_toboard","","","","","","","","","tol_peg_2","2050","2050","0","[[2,0,0],[3,0],[1]]","1","[[1,2,0],[3,0],[0]]","2","0","","","","","","4","",""
"","","","","","single-stim-button","223","582858","0.0-3.0-16.1-0.1","5c82d0ac51b0e00015cbd2fc","F1","batch6","","1198","","","tol_tohand","","","","","","","","","tol_peg_1","1198","1198","0","[[0,0,0],[3,0],[1]]","2","[[1,2,0],[3,0],[0]]","2","0","","","","","","4","",""
"","","","","","single-stim-button","224","583526","0.0-3.0-16.1-1.1","5c82d0ac51b0e00015cbd2fc","F1","batch6","","667","","","tol_toboard","","","","","","","","","tol_peg_2","667","667","0","[[0,0,0],[3,2],[1]]","2","[[1,2,0],[3,0],[0]]","2","0","","","","","","4","",""
"","","","","","single-stim-button","225","584089","0.0-3.0-16.2-0.2","5c82d0ac51b0e00015cbd2fc","F1","batch6","","562","","","tol_tohand","","","","","","","","","tol_peg_3","562","562","0","[[0,0,0],[3,2],[0]]","3","[[1,2,0],[3,0],[0]]","2","0","","","","","","4","",""
"","","","","","single-stim-button","226","585067","0.0-3.0-16.2-1.2","5c82d0ac51b0e00015cbd2fc","F1","batch6","","978","","","tol_toboard","","","","","","","","","tol_peg_1","978","978","0","[[1,0,0],[3,2],[0]]","3","[[1,2,0],[3,0],[0]]","2","0","","","","","","4","",""
"","","","","","single-stim-button","227","585647","0.0-3.0-16.3-0.3","5c82d0ac51b0e00015cbd2fc","F1","batch6","","580","","","tol_tohand","","","","","","","","","tol_peg_2","580","580","0","[[1,0,0],[3,0],[0]]","4","[[1,2,0],[3,0],[0]]","2","0","","","","","","4","",""
"","","","","","single-stim-button","228","586150","0.0-3.0-16.3-1.3","5c82d0ac51b0e00015cbd2fc","F1","batch6","","501","","","tol_toboard","","","","","","","","","tol_peg_1","501","501","0","[[1,2,0],[3,0],[0]]","4","[[1,2,0],[3,0],[0]]","2","0","","","","","","4","",""
"","","","","","poldrack-single-stim","229","587152","0.0-3.0-17.0","5c82d0ac51b0e00015cbd2fc","F1","batch6","","-1","","","tol_feedback","true","","","","","","","","","1000","1000","500","","","","","","-1","none","true","5284","7624","","",""
"","","","","","html-button-response","230","588497","0.0-3.0-18.0","5c82d0ac51b0e00015cbd2fc","F1","batch6","","1343.7000000029802","<div class = centerbox><p class = center-block-text>problem <strong>4</strong> out of 25 problems</p></div>","0","tol_trial_num","","","","","","","","","","","","","","","","","","","","","","","","",""
"","","","","","single-stim-button","231","591408","0.0-3.0-19.0-0.0","5c82d0ac51b0e00015cbd2fc","F1","batch6","","2910","","","tol_tohand","","","","","","","","","tol_peg_2","2910","2910","0","[[3,0,0],[2,0],[0]]","1","[[3,0,0],[1,0],[2]]","3","0","","","","","","3","",""
"","","","","","single-stim-button","232","592263","0.0-3.0-19.0-1.0","5c82d0ac51b0e00015cbd2fc","F1","batch6","","855","","","tol_toboard","","","","","","","","","tol_peg_3","855","855","0","[[3,0,0],[2,0],[1]]","1","[[3,0,0],[1,0],[2]]","3","0","","","","","","3","",""
"","","","","","single-stim-button","233","592834","0.0-3.0-19.1-0.1","5c82d0ac51b0e00015cbd2fc","F1","batch6","","571","","","tol_tohand","","","","","","","","","tol_peg_2","571","571","0","[[3,0,0],[0,0],[1]]","2","[[3,0,0],[1,0],[2]]","3","0","","","","","","3","",""
"","","","","","single-stim-button","234","593540","0.0-3.0-19.1-1.1","5c82d0ac51b0e00015cbd2fc","F1","batch6","","706","","","tol_toboard","","","","","","","","","tol_peg_1","706","706","0","[[3,2,0],[0,0],[1]]","2","[[3,0,0],[1,0],[2]]","3","0","","","","","","3","",""
"","","","","","single-stim-button","235","594143","0.0-3.0-19.2-0.2","5c82d0ac51b0e00015cbd2fc","F1","batch6","","602","","","tol_tohand","","","","","","","","","tol_peg_3","602","602","0","[[3,2,0],[0,0],[0]]","3","[[3,0,0],[1,0],[2]]","3","0","","","","","","3","",""
"","","","","","single-stim-button","236","594766","0.0-3.0-19.2-1.2","5c82d0ac51b0e00015cbd2fc","F1","batch6","","622","","","tol_toboard","","","","","","","","","tol_peg_2","622","622","0","[[3,2,0],[1,0],[0]]","3","[[3,0,0],[1,0],[2]]","3","0","","","","","","3","",""
"","","","","","single-stim-button","237","595861","0.0-3.0-19.3-0.3","5c82d0ac51b0e00015cbd2fc","F1","batch6","","1094","","","tol_tohand","","","","","","","","","tol_peg_1","1094","1094","0","[[3,0,0],[1,0],[0]]","4","[[3,0,0],[1,0],[2]]","3","0","","","","","","3","",""
"","","","","","single-stim-button","238","596563","0.0-3.0-19.3-1.3","5c82d0ac51b0e00015cbd2fc","F1","batch6","","701","","","tol_toboard","","","","","","","","","tol_peg_3","701","701","0","[[3,0,0],[1,0],[2]]","4","[[3,0,0],[1,0],[2]]","3","0","","","","","","3","",""
"","","","","","poldrack-single-stim","239","597566","0.0-3.0-20.0","5c82d0ac51b0e00015cbd2fc","F1","batch6","","-1","","","tol_feedback","true","","","","","","","","","1000","1000","500","","","","","","-1","none","true","2910","5177","","",""
"","","","","","html-button-response","240","599335","0.0-3.0-21.0","5c82d0ac51b0e00015cbd2fc","F1","batch6","","1767.8999999910593","<div class = centerbox><p class = center-block-text>problem <strong>5</strong> out of 25 problems</p></div>","0","tol_trial_num","","","","","","","","","","","","","","","","","","","","","","","","",""
"","","","","","single-stim-button","241","606013","0.0-3.0-22.0-0.0","5c82d0ac51b0e00015cbd2fc","F1","batch6","","6678","","","tol_tohand","","","","","","","","","tol_peg_3","6678","6678","0","[[1,0,0],[2,0],[0]]","1","[[0,0,0],[1,2],[3]]","4","0","","","","","","7","",""
"","","","","","single-stim-button","242","606708","0.0-3.0-22.0-1.0","5c82d0ac51b0e00015cbd2fc","F1","batch6","","694","","","tol_toboard","","","","","","","","","tol_peg_1","694","694","0","[[1,3,0],[2,0],[0]]","1","[[0,0,0],[1,2],[3]]","4","0","","","","","","7","",""
"","","","","","single-stim-button","243","607381","0.0-3.0-22.1-0.1","5c82d0ac51b0e00015cbd2fc","F1","batch6","","672","","","tol_tohand","","","","","","","","","tol_peg_2","672","672","0","[[1,3,0],[0,0],[0]]","2","[[0,0,0],[1,2],[3]]","4","0","","","","","","7","",""
"","","","","","single-stim-button","244","608043","0.0-3.0-22.1-1.1","5c82d0ac51b0e00015cbd2fc","F1","batch6","","661","","","tol_toboard","","","","","","","","","tol_peg_3","661","661","0","[[1,3,0],[0,0],[2]]","2","[[0,0,0],[1,2],[3]]","4","0","","","","","","7","",""
"","","","","","single-stim-button","245","608741","0.0-3.0-22.2-0.2","5c82d0ac51b0e00015cbd2fc","F1","batch6","","698","","","tol_tohand","","","","","","","","","tol_peg_1","698","698","0","[[1,0,0],[0,0],[2]]","3","[[0,0,0],[1,2],[3]]","4","0","","","","","","7","",""
"","","","","","single-stim-button","246","609472","0.0-3.0-22.2-1.2","5c82d0ac51b0e00015cbd2fc","F1","batch6","","730","","","tol_toboard","","","","","","","","","tol_peg_2","730","730","0","[[1,0,0],[3,0],[2]]","3","[[0,0,0],[1,2],[3]]","4","0","","","","","","7","",""
"","","","","","single-stim-button","247","613906","0.0-3.0-22.3-0.3","5c82d0ac51b0e00015cbd2fc","F1","batch6","","4434","","","tol_tohand","","","","","","","","","tol_peg_3","4434","4434","0","[[1,0,0],[3,0],[0]]","4","[[0,0,0],[1,2],[3]]","4","0","","","","","","7","",""
"","","","","","single-stim-button","248","614575","0.0-3.0-22.3-1.3","5c82d0ac51b0e00015cbd2fc","F1","batch6","","667","","","tol_toboard","","","","","","","","","tol_peg_2","667","667","0","[[1,0,0],[3,2],[0]]","4","[[0,0,0],[1,2],[3]]","4","0","","","","","","7","",""
"","","","","","single-stim-button","249","616520","0.0-3.0-22.4-0.4","5c82d0ac51b0e00015cbd2fc","F1","batch6","","1944","","","tol_tohand","","","","","","","","","tol_peg_1","1944","1944","0","[[0,0,0],[3,2],[0]]","5","[[0,0,0],[1,2],[3]]","4","0","","","","","","7","",""
"","","","","","single-stim-button","250","617185","0.0-3.0-22.4-1.4","5c82d0ac51b0e00015cbd2fc","F1","batch6","","665","","","tol_toboard","","","","","","","","","tol_peg_3","665","665","0","[[0,0,0],[3,2],[1]]","5","[[0,0,0],[1,2],[3]]","4","0","","","","","","7","",""
"","","","","","single-stim-button","251","619428","0.0-3.0-22.5-0.5","5c82d0ac51b0e00015cbd2fc","F1","batch6","","2241","","","tol_tohand","","","","","","","","","tol_peg_2","2241","2241","0","[[0,0,0],[3,0],[1]]","6","[[0,0,0],[1,2],[3]]","4","0","","","","","","7","",""
"","","","","","single-stim-button","252","620133","0.0-3.0-22.5-1.5","5c82d0ac51b0e00015cbd2fc","F1","batch6","","704","","","tol_toboard","","","","","","","","","tol_peg_1","704","704","0","[[2,0,0],[3,0],[1]]","6","[[0,0,0],[1,2],[3]]","4","0","","","","","","7","",""
"","","","","","single-stim-button","253","623043","0.0-3.0-22.6-0.6","5c82d0ac51b0e00015cbd2fc","F1","batch6","","2910","","","tol_tohand","","","","","","","","","tol_peg_2","2910","2910","0","[[2,0,0],[0,0],[1]]","7","[[0,0,0],[1,2],[3]]","4","0","","","","","","7","",""
"","","","","","single-stim-button","254","623582","0.0-3.0-22.6-1.6","5c82d0ac51b0e00015cbd2fc","F1","batch6","","537","","","tol_toboard","","","","","","","","","tol_peg_1","537","537","0","[[2,3,0],[0,0],[1]]","7","[[0,0,0],[1,2],[3]]","4","0","","","","","","7","",""
"","","","","","single-stim-button","255","624094","0.0-3.0-22.7-0.7","5c82d0ac51b0e00015cbd2fc","F1","batch6","","512","","","tol_tohand","","","","","","","","","tol_peg_3","512","512","0","[[2,3,0],[0,0],[0]]","8","[[0,0,0],[1,2],[3]]","4","0","","","","","","7","",""
"","","","","","single-stim-button","256","624793","0.0-3.0-22.7-1.7","5c82d0ac51b0e00015cbd2fc","F1","batch6","","698","","","tol_toboard","","","","","","","","","tol_peg_2","698","698","0","[[2,3,0],[1,0],[0]]","8","[[0,0,0],[1,2],[3]]","4","0","","","","","","7","",""
"","","","","","single-stim-button","257","625457","0.0-3.0-22.8-0.8","5c82d0ac51b0e00015cbd2fc","F1","batch6","","664","","","tol_tohand","","","","","","","","","tol_peg_1","664","664","0","[[2,0,0],[1,0],[0]]","9","[[0,0,0],[1,2],[3]]","4","0","","","","","","7","",""
"","","","","","single-stim-button","258","626001","0.0-3.0-22.8-1.8","5c82d0ac51b0e00015cbd2fc","F1","batch6","","544","","","tol_toboard","","","","","","","","","tol_peg_3","544","544","0","[[2,0,0],[1,0],[3]]","9","[[0,0,0],[1,2],[3]]","4","0","","","","","","7","",""
"","","","","","single-stim-button","259","626550","0.0-3.0-22.9-0.9","5c82d0ac51b0e00015cbd2fc","F1","batch6","","547","","","tol_tohand","","","","","","","","","tol_peg_1","547","547","0","[[0,0,0],[1,0],[3]]","10","[[0,0,0],[1,2],[3]]","4","0","","","","","","7","",""
"","","","","","single-stim-button","260","626879","0.0-3.0-22.9-1.9","5c82d0ac51b0e00015cbd2fc","F1","batch6","","329","","","tol_toboard","","","","","","","","","tol_peg_2","329","329","0","[[0,0,0],[1,2],[3]]","10","[[0,0,0],[1,2],[3]]","4","0","","","","","","7","",""
"","","","","","poldrack-single-stim","261","627887","0.0-3.0-23.0","5c82d0ac51b0e00015cbd2fc","F1","batch6","","-1","","","tol_feedback","true","","","","","","","","","1000","1000","500","","","","","","-1","none","true","6678","21300","","",""
"","","","","","html-button-response","262","630431","0.0-3.0-24.0","5c82d0ac51b0e00015cbd2fc","F1","batch6","","2542.2999999970198","<div class = centerbox><p class = center-block-text>problem <strong>6</strong> out of 25 problems</p></div>","0","tol_trial_num","","","","","","","","","","","","","","","","","","","","","","","","",""
"","","","","","single-stim-button","263","636551","0.0-3.0-25.0-0.0","5c82d0ac51b0e00015cbd2fc","F1","batch6","","6120","","","tol_tohand","","","","","","","","","tol_peg_2","6120","6120","0","[[0,0,0],[1,0],[3]]","1","[[1,0,0],[2,3],[0]]","5","0","","","","","","6","",""
"","","","","","single-stim-button","264","637153","0.0-3.0-25.0-1.0","5c82d0ac51b0e00015cbd2fc","F1","batch6","","601","","","tol_toboard","","","","","","","","","tol_peg_1","601","601","0","[[2,0,0],[1,0],[3]]","1","[[1,0,0],[2,3],[0]]","5","0","","","","","","6","",""
"","","","","","single-stim-button","265","641200","0.0-3.0-25.1-0.1","5c82d0ac51b0e00015cbd2fc","F1","batch6","","4047","","","tol_tohand","","","","","","","","","tol_peg_2","4047","4047","0","[[2,0,0],[0,0],[3]]","2","[[1,0,0],[2,3],[0]]","5","0","","","","","","6","",""
"","","","","","single-stim-button","266","642411","0.0-3.0-25.1-1.1","5c82d0ac51b0e00015cbd2fc","F1","batch6","","1210","","","tol_toboard","","","","","","","","","tol_peg_1","1210","1210","0","[[2,1,0],[0,0],[3]]","2","[[1,0,0],[2,3],[0]]","5","0","","","","","","6","",""
"","","","","","single-stim-button","267","644447","0.0-3.0-25.2-0.2","5c82d0ac51b0e00015cbd2fc","F1","batch6","","2035","","","tol_tohand","","","","","","","","","tol_peg_3","2035","2035","0","[[2,1,0],[0,0],[0]]","3","[[1,0,0],[2,3],[0]]","5","0","","","","","","6","",""
"","","","","","single-stim-button","268","645107","0.0-3.0-25.2-1.2","5c82d0ac51b0e00015cbd2fc","F1","batch6","","660","","","tol_toboard","","","","","","","","","tol_peg_2","660","660","0","[[2,1,0],[3,0],[0]]","3","[[1,0,0],[2,3],[0]]","5","0","","","","","","6","",""
"","","","","","single-stim-button","269","645648","0.0-3.0-25.3-0.3","5c82d0ac51b0e00015cbd2fc","F1","batch6","","539","","","tol_tohand","","","","","","","","","tol_peg_1","539","539","0","[[2,0,0],[3,0],[0]]","4","[[1,0,0],[2,3],[0]]","5","0","","","","","","6","",""
"","","","","","single-stim-button","270","646565","0.0-3.0-25.3-1.3","5c82d0ac51b0e00015cbd2fc","F1","batch6","","916","","","tol_toboard","","","","","","","","","tol_peg_3","916","916","0","[[2,0,0],[3,0],[1]]","4","[[1,0,0],[2,3],[0]]","5","0","","","","","","6","",""
"","","","","","single-stim-button","271","652072","0.0-3.0-25.4-0.4","5c82d0ac51b0e00015cbd2fc","F1","batch6","","5506","","","tol_tohand","","","","","","","","","tol_peg_1","5506","5506","0","[[0,0,0],[3,0],[1]]","5","[[1,0,0],[2,3],[0]]","5","0","","","","","","6","",""
"","","","","","single-stim-button","272","652517","0.0-3.0-25.4-1.4","5c82d0ac51b0e00015cbd2fc","F1","batch6","","444","","","tol_toboard","","","","","","","","","tol_peg_2","444","444","0","[[0,0,0],[3,2],[1]]","5","[[1,0,0],[2,3],[0]]","5","0","","","","","","6","",""
"","","","","","single-stim-button","273","654724","0.0-3.0-25.5-0.5","5c82d0ac51b0e00015cbd2fc","F1","batch6","","2206","","","tol_tohand","","","","","","","","","tol_peg_3","2206","2206","0","[[0,0,0],[3,2],[0]]","6","[[1,0,0],[2,3],[0]]","5","0","","","","","","6","",""
"","","","","","single-stim-button","274","655642","0.0-3.0-25.5-1.5","5c82d0ac51b0e00015cbd2fc","F1","batch6","","918","","","tol_toboard","","","","","","","","","tol_peg_1","918","918","0","[[1,0,0],[3,2],[0]]","6","[[1,0,0],[2,3],[0]]","5","0","","","","","","6","",""
"","","","","","single-stim-button","275","657728","0.0-3.0-25.6-0.6","5c82d0ac51b0e00015cbd2fc","F1","batch6","","2085","","","tol_tohand","","","","","","","","","tol_peg_2","2085","2085","0","[[1,0,0],[3,0],[0]]","7","[[1,0,0],[2,3],[0]]","5","0","","","","","","6","",""
"","","","","","single-stim-button","276","658476","0.0-3.0-25.6-1.6","5c82d0ac51b0e00015cbd2fc","F1","batch6","","747","","","tol_toboard","","","","","","","","","tol_peg_3","747","747","0","[[1,0,0],[3,0],[2]]","7","[[1,0,0],[2,3],[0]]","5","0","","","","","","6","",""
"","","","","","single-stim-button","277","658979","0.0-3.0-25.7-0.7","5c82d0ac51b0e00015cbd2fc","F1","batch6","","503","","","tol_tohand","","","","","","","","","tol_peg_2","503","503","0","[[1,0,0],[0,0],[2]]","8","[[1,0,0],[2,3],[0]]","5","0","","","","","","6","",""
"","","","","","single-stim-button","278","659432","0.0-3.0-25.7-1.7","5c82d0ac51b0e00015cbd2fc","F1","batch6","","451","","","tol_toboard","","","","","","","","","tol_peg_1","451","451","0","[[1,3,0],[0,0],[2]]","8","[[1,0,0],[2,3],[0]]","5","0","","","","","","6","",""
"","","","","","single-stim-button","279","660048","0.0-3.0-25.8-0.8","5c82d0ac51b0e00015cbd2fc","F1","batch6","","616","","","tol_tohand","","","","","","","","","tol_peg_3","616","616","0","[[1,3,0],[0,0],[0]]","9","[[1,0,0],[2,3],[0]]","5","0","","","","","","6","",""
"","","","","","single-stim-button","280","660777","0.0-3.0-25.8-1.8","5c82d0ac51b0e00015cbd2fc","F1","batch6","","727","","","tol_toboard","","","","","","","","","tol_peg_2","727","727","0","[[1,3,0],[2,0],[0]]","9","[[1,0,0],[2,3],[0]]","5","0","","","","","","6","",""
"","","","","","single-stim-button","281","661216","0.0-3.0-25.9-0.9","5c82d0ac51b0e00015cbd2fc","F1","batch6","","439","","","tol_tohand","","","","","","","","","tol_peg_1","439","439","0","[[1,0,0],[2,0],[0]]","10","[[1,0,0],[2,3],[0]]","5","0","","","","","","6","",""
"","","","","","single-stim-button","282","662123","0.0-3.0-25.9-1.9","5c82d0ac51b0e00015cbd2fc","F1","batch6","","906","","","tol_toboard","","","","","","","","","tol_peg_2","906","906","0","[[1,0,0],[2,3],[0]]","10","[[1,0,0],[2,3],[0]]","5","0","","","","","","6","",""
"","","","","","poldrack-single-stim","283","663125","0.0-3.0-26.0","5c82d0ac51b0e00015cbd2fc","F1","batch6","","-1","","","tol_feedback","true","","","","","","","","","1000","1000","500","","","","","","-1","none","true","6120","24096","","",""
"","","","","","html-button-response","284","664558","0.0-3.0-27.0","5c82d0ac51b0e00015cbd2fc","F1","batch6","","1431.4000000059605","<div class = centerbox><p class = center-block-text>problem <strong>7</strong> out of 25 problems</p></div>","0","tol_trial_num","","","","","","","","","","","","","","","","","","","","","","","","",""
"","","","","","single-stim-button","285","668002","0.0-3.0-28.0-0.0","5c82d0ac51b0e00015cbd2fc","F1","batch6","","3443","","","tol_tohand","","","","","","","","","tol_peg_1","3443","3443","0","[[2,0,0],[0,0],[3]]","1","[[1,2,0],[3,0],[0]]","6","0","","","","","","5","",""
"","","","","","single-stim-button","286","672174","0.0-3.0-28.0-1.0","5c82d0ac51b0e00015cbd2fc","F1","batch6","","4172","","","tol_toboard","","","","","","","","","tol_peg_2","4172","4172","0","[[2,0,0],[1,0],[3]]","1","[[1,2,0],[3,0],[0]]","6","0","","","","","","5","",""
"","","","","","single-stim-button","287","673214","0.0-3.0-28.1-0.1","5c82d0ac51b0e00015cbd2fc","F1","batch6","","1039","","","tol_tohand","","","","","","","","","tol_peg_1","1039","1039","0","[[0,0,0],[1,0],[3]]","2","[[1,2,0],[3,0],[0]]","6","0","","","","","","5","",""
"","","","","","single-stim-button","288","673764","0.0-3.0-28.1-1.1","5c82d0ac51b0e00015cbd2fc","F1","batch6","","549","","","tol_toboard","","","","","","","","","tol_peg_2","549","549","0","[[0,0,0],[1,2],[3]]","2","[[1,2,0],[3,0],[0]]","6","0","","","","","","5","",""
"","","","","","single-stim-button","289","680132","0.0-3.0-28.2-0.2","5c82d0ac51b0e00015cbd2fc","F1","batch6","","6367","","","tol_tohand","","","","","","","","","tol_peg_3","6367","6367","0","[[0,0,0],[1,2],[0]]","3","[[1,2,0],[3,0],[0]]","6","0","","","","","","5","",""
"","","","","","single-stim-button","290","680803","0.0-3.0-28.2-1.2","5c82d0ac51b0e00015cbd2fc","F1","batch6","","670","","","tol_toboard","","","","","","","","","tol_peg_1","670","670","0","[[3,0,0],[1,2],[0]]","3","[[1,2,0],[3,0],[0]]","6","0","","","","","","5","",""
"","","","","","single-stim-button","291","681595","0.0-3.0-28.3-0.3","5c82d0ac51b0e00015cbd2fc","F1","batch6","","792","","","tol_tohand","","","","","","","","","tol_peg_2","792","792","0","[[3,0,0],[1,0],[0]]","4","[[1,2,0],[3,0],[0]]","6","0","","","","","","5","",""
"","","","","","single-stim-button","292","682116","0.0-3.0-28.3-1.3","5c82d0ac51b0e00015cbd2fc","F1","batch6","","521","","","tol_toboard","","","","","","","","","tol_peg_1","521","521","0","[[3,2,0],[1,0],[0]]","4","[[1,2,0],[3,0],[0]]","6","0","","","","","","5","",""
"","","","","","single-stim-button","293","682584","0.0-3.0-28.4-0.4","5c82d0ac51b0e00015cbd2fc","F1","batch6","","466","","","tol_tohand","","","","","","","","","tol_peg_2","466","466","0","[[3,2,0],[0,0],[0]]","5","[[1,2,0],[3,0],[0]]","6","0","","","","","","5","",""
"","","","","","single-stim-button","294","683080","0.0-3.0-28.4-1.4","5c82d0ac51b0e00015cbd2fc","F1","batch6","","496","","","tol_toboard","","","","","","","","","tol_peg_3","496","496","0","[[3,2,0],[0,0],[1]]","5","[[1,2,0],[3,0],[0]]","6","0","","","","","","5","",""
"","","","","","single-stim-button","295","685265","0.0-3.0-28.5-0.5","5c82d0ac51b0e00015cbd2fc","F1","batch6","","2184","","","tol_tohand","","","","","","","","","tol_peg_1","2184","2184","0","[[3,0,0],[0,0],[1]]","6","[[1,2,0],[3,0],[0]]","6","0","","","","","","5","",""
"","","","","","single-stim-button","296","688010","0.0-3.0-28.5-1.5","5c82d0ac51b0e00015cbd2fc","F1","batch6","","2744","","","tol_toboard","","","","","","","","","tol_peg_2","2744","2744","0","[[3,0,0],[2,0],[1]]","6","[[1,2,0],[3,0],[0]]","6","0","","","","","","5","",""
"","","","","","single-stim-button","297","688584","0.0-3.0-28.6-0.6","5c82d0ac51b0e00015cbd2fc","F1","batch6","","573","","","tol_tohand","","","","","","","","","tol_peg_1","573","573","0","[[0,0,0],[2,0],[1]]","7","[[1,2,0],[3,0],[0]]","6","0","","","","","","5","",""
"","","","","","single-stim-button","298","689053","0.0-3.0-28.6-1.6","5c82d0ac51b0e00015cbd2fc","F1","batch6","","467","","","tol_toboard","","","","","","","","","tol_peg_2","467","467","0","[[0,0,0],[2,3],[1]]","7","[[1,2,0],[3,0],[0]]","6","0","","","","","","5","",""
"","","","","","single-stim-button","299","689605","0.0-3.0-28.7-0.7","5c82d0ac51b0e00015cbd2fc","F1","batch6","","552","","","tol_tohand","","","","","","","","","tol_peg_3","552","552","0","[[0,0,0],[2,3],[0]]","8","[[1,2,0],[3,0],[0]]","6","0","","","","","","5","",""
"","","","","","single-stim-button","300","690314","0.0-3.0-28.7-1.7","5c82d0ac51b0e00015cbd2fc","F1","batch6","","709","","","tol_toboard","","","","","","","","","tol_peg_1","709","709","0","[[1,0,0],[2,3],[0]]","8","[[1,2,0],[3,0],[0]]","6","0","","","","","","5","",""
"","","","","","single-stim-button","301","690766","0.0-3.0-28.8-0.8","5c82d0ac51b0e00015cbd2fc","F1","batch6","","450","","","tol_tohand","","","","","","","","","tol_peg_2","450","450","0","[[1,0,0],[2,0],[0]]","9","[[1,2,0],[3,0],[0]]","6","0","","","","","","5","",""
"","","","","","single-stim-button","302","691198","0.0-3.0-28.8-1.8","5c82d0ac51b0e00015cbd2fc","F1","batch6","","431","","","tol_toboard","","","","","","","","","tol_peg_3","431","431","0","[[1,0,0],[2,0],[3]]","9","[[1,2,0],[3,0],[0]]","6","0","","","","","","5","",""
"","","","","","single-stim-button","303","691564","0.0-3.0-28.9-0.9","5c82d0ac51b0e00015cbd2fc","F1","batch6","","366","","","tol_tohand","","","","","","","","","tol_peg_2","366","366","0","[[1,0,0],[0,0],[3]]","10","[[1,2,0],[3,0],[0]]","6","0","","","","","","5","",""
"","","","","","single-stim-button","304","692005","0.0-3.0-28.9-1.9","5c82d0ac51b0e00015cbd2fc","F1","batch6","","440","","","tol_toboard","","","","","","","","","tol_peg_1","440","440","0","[[1,2,0],[0,0],[3]]","10","[[1,2,0],[3,0],[0]]","6","0","","","","","","5","",""
"","","","","","single-stim-button","305","692438","0.0-3.0-28.10-0.10","5c82d0ac51b0e00015cbd2fc","F1","batch6","","432","","","tol_tohand","","","","","","","","","tol_peg_3","432","432","0","[[1,2,0],[0,0],[0]]","11","[[1,2,0],[3,0],[0]]","6","0","","","","","","5","",""
"","","","","","single-stim-button","306","692954","0.0-3.0-28.10-1.10","5c82d0ac51b0e00015cbd2fc","F1","batch6","","515","","","tol_toboard","","","","","","","","","tol_peg_2","515","515","0","[[1,2,0],[3,0],[0]]","11","[[1,2,0],[3,0],[0]]","6","0","","","","","","5","",""
"","","","","","poldrack-single-stim","307","693969","0.0-3.0-29.0","5c82d0ac51b0e00015cbd2fc","F1","batch6","","-1","","","tol_feedback","true","","","","","","","","","1000","1000","500","","","","","","-1","none","true","3443","16664","","",""
"","","","","","html-button-response","308","694890","0.0-3.0-30.0","5c82d0ac51b0e00015cbd2fc","F1","batch6","","919.9000000059605","<div class = centerbox><p class = center-block-text>problem <strong>8</strong> out of 25 problems</p></div>","0","tol_trial_num","","","","","","","","","","","","","","","","","","","","","","","","",""
"","","","","","single-stim-button","309","697039","0.0-3.0-31.0-0.0","5c82d0ac51b0e00015cbd2fc","F1","batch6","","2148","","","tol_tohand","","","","","","","","","tol_peg_3","2148","2148","0","[[0,0,0],[2,3],[0]]","1","[[1,2,0],[3,0],[0]]","7","0","","","","","","4","",""
"","","","","","single-stim-button","310","697720","0.0-3.0-31.0-1.0","5c82d0ac51b0e00015cbd2fc","F1","batch6","","681","","","tol_toboard","","","","","","","","","tol_peg_1","681","681","0","[[1,0,0],[2,3],[0]]","1","[[1,2,0],[3,0],[0]]","7","0","","","","","","4","",""
"","","","","","single-stim-button","311","698231","0.0-3.0-31.1-0.1","5c82d0ac51b0e00015cbd2fc","F1","batch6","","510","","","tol_tohand","","","","","","","","","tol_peg_2","510","510","0","[[1,0,0],[2,0],[0]]","2","[[1,2,0],[3,0],[0]]","7","0","","","","","","4","",""
"","","","","","single-stim-button","312","698666","0.0-3.0-31.1-1.1","5c82d0ac51b0e00015cbd2fc","F1","batch6","","435","","","tol_toboard","","","","","","","","","tol_peg_3","435","435","0","[[1,0,0],[2,0],[3]]","2","[[1,2,0],[3,0],[0]]","7","0","","","","","","4","",""
"","","","","","single-stim-button","313","699131","0.0-3.0-31.2-0.2","5c82d0ac51b0e00015cbd2fc","F1","batch6","","464","","","tol_tohand","","","","","","","","","tol_peg_2","464","464","0","[[1,0,0],[0,0],[3]]","3","[[1,2,0],[3,0],[0]]","7","0","","","","","","4","",""
"","","","","","single-stim-button","314","699681","0.0-3.0-31.2-1.2","5c82d0ac51b0e00015cbd2fc","F1","batch6","","549","","","tol_toboard","","","","","","","","","tol_peg_1","549","549","0","[[1,2,0],[0,0],[3]]","3","[[1,2,0],[3,0],[0]]","7","0","","","","","","4","",""
"","","","","","single-stim-button","315","700161","0.0-3.0-31.3-0.3","5c82d0ac51b0e00015cbd2fc","F1","batch6","","480","","","tol_tohand","","","","","","","","","tol_peg_3","480","480","0","[[1,2,0],[0,0],[0]]","4","[[1,2,0],[3,0],[0]]","7","0","","","","","","4","",""
"","","","","","single-stim-button","316","700572","0.0-3.0-31.3-1.3","5c82d0ac51b0e00015cbd2fc","F1","batch6","","409","","","tol_toboard","","","","","","","","","tol_peg_2","409","409","0","[[1,2,0],[3,0],[0]]","4","[[1,2,0],[3,0],[0]]","7","0","","","","","","4","",""
"","","","","","poldrack-single-stim","317","701573","0.0-3.0-32.0","5c82d0ac51b0e00015cbd2fc","F1","batch6","","-1","","","tol_feedback","true","","","","","","","","","1000","1000","500","","","","","","-1","none","true","2148","3602","","",""
"","","","","","html-button-response","318","703764","0.0-3.0-33.0","5c82d0ac51b0e00015cbd2fc","F1","batch6","","2189.9000000059605","<div class = centerbox><p class = center-block-text>problem <strong>9</strong> out of 25 problems</p></div>","0","tol_trial_num","","","","","","","","","","","","","","","","","","","","","","","","",""
"","","","","","single-stim-button","319","711503","0.0-3.0-34.0-0.0","5c82d0ac51b0e00015cbd2fc","F1","batch6","","7739","","","tol_tohand","","","","","","","","","tol_peg_1","7739","7739","0","[[3,0,0],[0,0],[1]]","1","[[2,1,0],[3,0],[0]]","8","0","","","","","","6","",""
"","","","","","single-stim-button","320","712203","0.0-3.0-34.0-1.0","5c82d0ac51b0e00015cbd2fc","F1","batch6","","698","","","tol_toboard","","","","","","","","","tol_peg_2","698","698","0","[[3,0,0],[2,0],[1]]","1","[[2,1,0],[3,0],[0]]","8","0","","","","","","6","",""
"","","","","","single-stim-button","321","713563","0.0-3.0-34.1-0.1","5c82d0ac51b0e00015cbd2fc","F1","batch6","","1359","","","tol_tohand","","","","","","","","","tol_peg_1","1359","1359","0","[[0,0,0],[2,0],[1]]","2","[[2,1,0],[3,0],[0]]","8","0","","","","","","6","",""
"","","","","","single-stim-button","322","718179","0.0-3.0-34.1-1.1","5c82d0ac51b0e00015cbd2fc","F1","batch6","","4616","","","tol_toboard","","","","","","","","","tol_peg_2","4616","4616","0","[[0,0,0],[2,3],[1]]","2","[[2,1,0],[3,0],[0]]","8","0","","","","","","6","",""
"","","","","","single-stim-button","323","719098","0.0-3.0-34.2-0.2","5c82d0ac51b0e00015cbd2fc","F1","batch6","","919","","","tol_tohand","","","","","","","","","tol_peg_3","919","919","0","[[0,0,0],[2,3],[0]]","3","[[2,1,0],[3,0],[0]]","8","0","","","","","","6","",""
"","","","","","single-stim-button","324","719771","0.0-3.0-34.2-1.2","5c82d0ac51b0e00015cbd2fc","F1","batch6","","671","","","tol_toboard","","","","","","","","","tol_peg_1","671","671","0","[[1,0,0],[2,3],[0]]","3","[[2,1,0],[3,0],[0]]","8","0","","","","","","6","",""
"","","","","","single-stim-button","325","720517","0.0-3.0-34.3-0.3","5c82d0ac51b0e00015cbd2fc","F1","batch6","","746","","","tol_tohand","","","","","","","","","tol_peg_2","746","746","0","[[1,0,0],[2,0],[0]]","4","[[2,1,0],[3,0],[0]]","8","0","","","","","","6","",""
"","","","","","single-stim-button","326","722030","0.0-3.0-34.3-1.3","5c82d0ac51b0e00015cbd2fc","F1","batch6","","1513","","","tol_toboard","","","","","","","","","tol_peg_1","1513","1513","0","[[1,3,0],[2,0],[0]]","4","[[2,1,0],[3,0],[0]]","8","0","","","","","","6","",""
"","","","","","single-stim-button","327","722640","0.0-3.0-34.4-0.4","5c82d0ac51b0e00015cbd2fc","F1","batch6","","609","","","tol_tohand","","","","","","","","","tol_peg_2","609","609","0","[[1,3,0],[0,0],[0]]","5","[[2,1,0],[3,0],[0]]","8","0","","","","","","6","",""
"","","","","","single-stim-button","328","723115","0.0-3.0-34.4-1.4","5c82d0ac51b0e00015cbd2fc","F1","batch6","","475","","","tol_toboard","","","","","","","","","tol_peg_3","475","475","0","[[1,3,0],[0,0],[2]]","5","[[2,1,0],[3,0],[0]]","8","0","","","","","","6","",""
"","","","","","single-stim-button","329","724080","0.0-3.0-34.5-0.5","5c82d0ac51b0e00015cbd2fc","F1","batch6","","963","","","tol_tohand","","","","","","","","","tol_peg_1","963","963","0","[[1,0,0],[0,0],[2]]","6","[[2,1,0],[3,0],[0]]","8","0","","","","","","6","",""
"","","","","","single-stim-button","330","724894","0.0-3.0-34.5-1.5","5c82d0ac51b0e00015cbd2fc","F1","batch6","","814","","","tol_toboard","","","","","","","","","tol_peg_2","814","814","0","[[1,0,0],[3,0],[2]]","6","[[2,1,0],[3,0],[0]]","8","0","","","","","","6","",""
"","","","","","single-stim-button","331","725861","0.0-3.0-34.6-0.6","5c82d0ac51b0e00015cbd2fc","F1","batch6","","965","","","tol_tohand","","","","","","","","","tol_peg_1","965","965","0","[[0,0,0],[3,0],[2]]","7","[[2,1,0],[3,0],[0]]","8","0","","","","","","6","",""
"","","","","","single-stim-button","332","726334","0.0-3.0-34.6-1.6","5c82d0ac51b0e00015cbd2fc","F1","batch6","","473","","","tol_toboard","","","","","","","","","tol_peg_2","473","473","0","[[0,0,0],[3,1],[2]]","7","[[2,1,0],[3,0],[0]]","8","0","","","","","","6","",""
"","","","","","single-stim-button","333","726771","0.0-3.0-34.7-0.7","5c82d0ac51b0e00015cbd2fc","F1","batch6","","437","","","tol_tohand","","","","","","","","","tol_peg_3","437","437","0","[[0,0,0],[3,1],[0]]","8","[[2,1,0],[3,0],[0]]","8","0","","","","","","6","",""
"","","","","","single-stim-button","334","727266","0.0-3.0-34.7-1.7","5c82d0ac51b0e00015cbd2fc","F1","batch6","","495","","","tol_toboard","","","","","","","","","tol_peg_1","495","495","0","[[2,0,0],[3,1],[0]]","8","[[2,1,0],[3,0],[0]]","8","0","","","","","","6","",""
"","","","","","single-stim-button","335","727720","0.0-3.0-34.8-0.8","5c82d0ac51b0e00015cbd2fc","F1","batch6","","453","","","tol_tohand","","","","","","","","","tol_peg_2","453","453","0","[[2,0,0],[3,0],[0]]","9","[[2,1,0],[3,0],[0]]","8","0","","","","","","6","",""
"","","","","","single-stim-button","336","728216","0.0-3.0-34.8-1.8","5c82d0ac51b0e00015cbd2fc","F1","batch6","","496","","","tol_toboard","","","","","","","","","tol_peg_1","496","496","0","[[2,1,0],[3,0],[0]]","9","[[2,1,0],[3,0],[0]]","8","0","","","","","","6","",""
"","","","","","poldrack-single-stim","337","729222","0.0-3.0-35.0","5c82d0ac51b0e00015cbd2fc","F1","batch6","","-1","","","tol_feedback","true","","","","","","","","","1000","1000","500","","","","","","-1","none","true","7739","14190","","",""
"","","","","","html-button-response","338","730128","0.0-3.0-36.0","5c82d0ac51b0e00015cbd2fc","F1","batch6","","904.9000000059605","<div class = centerbox><p class = center-block-text>problem <strong>10</strong> out of 25 problems</p></div>","0","tol_trial_num","","","","","","","","","","","","","","","","","","","","","","","","",""
"","","","","","single-stim-button","339","735729","0.0-3.0-37.0-0.0","5c82d0ac51b0e00015cbd2fc","F1","batch6","","5600","","","tol_tohand","","","","","","","","","tol_peg_2","5600","5600","0","[[3,0,0],[0,0],[2]]","1","[[3,0,0],[2,1],[0]]","9","0","","","","","","3","",""
"","","","","","single-stim-button","340","736336","0.0-3.0-37.0-1.0","5c82d0ac51b0e00015cbd2fc","F1","batch6","","606","","","tol_toboard","","","","","","","","","tol_peg_1","606","606","0","[[3,1,0],[0,0],[2]]","1","[[3,0,0],[2,1],[0]]","9","0","","","","","","3","",""
"","","","","","single-stim-button","341","736801","0.0-3.0-37.1-0.1","5c82d0ac51b0e00015cbd2fc","F1","batch6","","464","","","tol_tohand","","","","","","","","","tol_peg_3","464","464","0","[[3,1,0],[0,0],[0]]","2","[[3,0,0],[2,1],[0]]","9","0","","","","","","3","",""
"","","","","","single-stim-button","342","737245","0.0-3.0-37.1-1.1","5c82d0ac51b0e00015cbd2fc","F1","batch6","","444","","","tol_toboard","","","","","","","","","tol_peg_2","444","444","0","[[3,1,0],[2,0],[0]]","2","[[3,0,0],[2,1],[0]]","9","0","","","","","","3","",""
"","","","","","single-stim-button","343","737694","0.0-3.0-37.2-0.2","5c82d0ac51b0e00015cbd2fc","F1","batch6","","448","","","tol_tohand","","","","","","","","","tol_peg_1","448","448","0","[[3,0,0],[2,0],[0]]","3","[[3,0,0],[2,1],[0]]","9","0","","","","","","3","",""
"","","","","","single-stim-button","344","738020","0.0-3.0-37.2-1.2","5c82d0ac51b0e00015cbd2fc","F1","batch6","","325","","","tol_toboard","","","","","","","","","tol_peg_2","325","325","0","[[3,0,0],[2,1],[0]]","3","[[3,0,0],[2,1],[0]]","9","0","","","","","","3","",""
"","","","","","poldrack-single-stim","345","739023","0.0-3.0-38.0","5c82d0ac51b0e00015cbd2fc","F1","batch6","","-1","","","tol_feedback","true","","","","","","","","","1000","1000","500","","","","","","-1","none","true","5600","6512","","",""
"","","","","","html-button-response","346","739886","0.0-3.0-39.0","5c82d0ac51b0e00015cbd2fc","F1","batch6","","862.6000000089407","<div class = centerbox><p class = center-block-text>problem <strong>11</strong> out of 25 problems</p></div>","0","tol_trial_num","","","","","","","","","","","","","","","","","","","","","","","","",""
"","","","","","single-stim-button","347","744194","0.0-3.0-40.0-0.0","5c82d0ac51b0e00015cbd2fc","F1","batch6","","4308","","","tol_tohand","","","","","","","","","tol_peg_1","4308","4308","0","[[1,0,0],[3,0],[0]]","1","[[2,0,0],[1,3],[0]]","10","0","","","","","","6","",""
"","","","","","single-stim-button","348","744875","0.0-3.0-40.0-1.0","5c82d0ac51b0e00015cbd2fc","F1","batch6","","681","","","tol_toboard","","","","","","","","","tol_peg_2","681","681","0","[[1,0,0],[3,2],[0]]","1","[[2,0,0],[1,3],[0]]","10","0","","","","","","6","",""
"","","","","","single-stim-button","349","746469","0.0-3.0-40.1-0.1","5c82d0ac51b0e00015cbd2fc","F1","batch6","","1594","","","tol_tohand","","","","","","","","","tol_peg_1","1594","1594","0","[[0,0,0],[3,2],[0]]","2","[[2,0,0],[1,3],[0]]","10","0","","","","","","6","",""
