"success","timeout","failed_images","failed_audio","failed_video","trial_type","trial_index","time_elapsed","internal_node_id","subject_id","study_id","session_id","view_history","rt","task","stimulus","response","correct","mouse_click","stim_duration","block_duration","timing_post_trial","current_position","tol_num_moves_made","tol_target","tol_problem_id","tol_rt","key_press","possible_responses","tol_correct","preplanning","tol_rt_per_trial","tol_min_moves","answer","item","fiar_detect_rt","fiar_detect_correct","total_correct_fiar_detect","post_trial_gap","choices","spm_correct","spm_rt"
"true","false","[]","[]","[]","preload","0","2988","0.0-0.0","5c89b77c65b4d70001b40ac3","A3","batch1","","","","","","","","","","","","","","","","","","","","","","","","","","","","","",""
"true","","","","","fullscreen","1","13624","0.0-1.0-0.0","5c89b77c65b4d70001b40ac3","A3","batch1","","","","","","","","","","","","","","","","","","","","","","","","","","","","","",""
"true","","","","","fullscreen","2","15971","0.0-2.0-0.0","5c89b77c65b4d70001b40ac3","A3","batch1","","","","","","","","","","","","","","","","","","","","","","","","","","","","","",""
"","","","","","instructions","3","52816","0.0-2.0-1.0-0.0-0.0","5c89b77c65b4d70001b40ac3","A3","batch1","[{""page_index"":0,""viewing_time"":11992.10000000149},{""page_index"":1,""viewing_time"":6023.199999999255},{""page_index"":2,""viewing_time"":2430.900000002235},{""page_index"":3,""viewing_time"":3493.89999999851},{""page_index"":4,""viewing_time"":1705.800000000745},{""page_index"":5,""viewing_time"":8033.5},{""page_index"":6,""viewing_time"":3165}]","36845","tol-instructions","","","","","","","","","","","","","","","","","","","","","","","","","","",""
"","","","","","html-button-response","4","53681","0.0-2.0-1.0-1.0-0.0","5c89b77c65b4d70001b40ac3","A3","batch1","","862.5","tol_enter_quiz","<p class=block-text> Let's answer a few questions <br>","0","","","","","","","","","","","","","","","","","","","","","","","","",""
"","","","","","html-button-response","5","62340","0.0-2.0-1.0-1.0-1.0","5c89b77c65b4d70001b40ac3","A3","batch1","","8656.699999999255","tol_quiz","<p class = block-text>True or False: You can only move the ball on top of a peg. <br></p>","0","true","","","","","","","","","","","","","","","","","","","","","","","",""
"","","","","","html-button-response","6","63083","0.0-2.0-1.0-1.0-2.0","5c89b77c65b4d70001b40ac3","A3","batch1","","739.9000000022352","tol_quiz_feedback","<p class = block-text>Correct! You can only move the ball on top of a peg.</p>","0","","","","","","","","","","","","","","","","","","","","","","","","",""
"","","","","","html-button-response","7","65061","0.0-2.0-1.0-1.0-3.0","5c89b77c65b4d70001b40ac3","A3","batch1","","1976.6000000014901","tol_quiz","<p class = block-text>True or False: You should try to match your board with the target board with fewest moves possible. <br></p>","0","true","","","","","","","","","","","","","","","","","","","","","","","",""
"","","","","","html-button-response","8","65613","0.0-2.0-1.0-1.0-4.0","5c89b77c65b4d70001b40ac3","A3","batch1","","549.9000000022352","tol_quiz_feedback","<p class = block-text>Correct! </p>","0","","","","","","","","","","","","","","","","","","","","","","","","",""
"","","","","","html-button-response","9","66783","0.0-2.0-2.0","5c89b77c65b4d70001b40ac3","A3","batch1","","1167.6000000014901","","<p class=block-text> Now that you've understood the game, let's practice a few easier examples before we start!<br> <br>","0","","","","","","","","","","","","","","","","","","","","","","","","",""
"","","","","","single-stim-button","10","69158","0.0-2.0-3.0-0.0","5c89b77c65b4d70001b40ac3","A3","batch1","","2372","tol_practice","","","","tol_peg_2","2372","2372","0","[[1,2,0],[0,0],[0]]","1","[[1,2,0],[0,0],[3]]","practice","2372","","","","","","","","","","","","","","",""
"","","","","","single-stim-button","11","70171","0.0-2.0-3.0-1.0","5c89b77c65b4d70001b40ac3","A3","batch1","","1011","tol_practice","","","","tol_peg_3","1011","1011","0","[[1,2,0],[0,0],[3]]","1","[[1,2,0],[0,0],[3]]","practice","1011","","","","","","","","","","","","","","",""
"","","","","","poldrack-single-stim","12","71178","0.0-2.0-4.0","5c89b77c65b4d70001b40ac3","A3","batch1","","-1","tol_feedback","","","true","","1000","1000","500","","","","","","-1","none","true","","0","","","","","","","","","",""
"","","","","","single-stim-button","13","73549","0.0-2.0-5.0-0.0","5c89b77c65b4d70001b40ac3","A3","batch1","","2369","tol_practice","","","","tol_peg_1","2369","2369","0","[[1,0,0],[3,0],[0]]","2","[[0,0,0],[3,1],[2]]","practice","2369","","","","","","","","","","","","","","",""
"","","","","","single-stim-button","14","74768","0.0-2.0-5.0-1.0","5c89b77c65b4d70001b40ac3","A3","batch1","","1217","tol_practice","","","","tol_peg_3","1217","1217","0","[[1,0,0],[3,0],[2]]","2","[[0,0,0],[3,1],[2]]","practice","1217","","","","","","","","","","","","","","",""
"","","","","","single-stim-button","15","75444","0.0-2.0-5.1-0.1","5c89b77c65b4d70001b40ac3","A3","batch1","","674","tol_practice","","","","tol_peg_1","674","674","0","[[0,0,0],[3,0],[2]]","3","[[0,0,0],[3,1],[2]]","practice","674","","","","","","","","","","","","","","",""
"","","","","","single-stim-button","16","75889","0.0-2.0-5.1-1.1","5c89b77c65b4d70001b40ac3","A3","batch1","","443","tol_practice","","","","tol_peg_2","443","443","0","[[0,0,0],[3,1],[2]]","3","[[0,0,0],[3,1],[2]]","practice","443","","","","","","","","","","","","","","",""
"","","","","","poldrack-single-stim","17","76896","0.0-2.0-6.0","5c89b77c65b4d70001b40ac3","A3","batch1","","-1","tol_feedback","","","true","","1000","1000","500","","","","","","-1","none","true","","0","","","","","","","","","",""
"","","","","","single-stim-button","18","78979","0.0-2.0-7.0-0.0","5c89b77c65b4d70001b40ac3","A3","batch1","","2082","tol_practice","","","","tol_peg_2","2082","2082","0","[[1,2,0],[0,0],[0]]","4","[[1,0,0],[2,0],[3]]","practice","2082","","","","","","","","","","","","","","",""
"","","","","","single-stim-button","19","79655","0.0-2.0-7.0-1.0","5c89b77c65b4d70001b40ac3","A3","batch1","","674","tol_practice","","","","tol_peg_3","674","674","0","[[1,2,0],[0,0],[3]]","4","[[1,0,0],[2,0],[3]]","practice","674","","","","","","","","","","","","","","",""
"","","","","","single-stim-button","20","80421","0.0-2.0-7.1-0.1","5c89b77c65b4d70001b40ac3","A3","batch1","","764","tol_practice","","","","tol_peg_1","764","764","0","[[1,0,0],[0,0],[3]]","5","[[1,0,0],[2,0],[3]]","practice","764","","","","","","","","","","","","","","",""
"","","","","","single-stim-button","21","81031","0.0-2.0-7.1-1.1","5c89b77c65b4d70001b40ac3","A3","batch1","","608","tol_practice","","","","tol_peg_2","608","608","0","[[1,0,0],[2,0],[3]]","5","[[1,0,0],[2,0],[3]]","practice","608","","","","","","","","","","","","","","",""
"","","","","","poldrack-single-stim","22","82043","0.0-2.0-8.0","5c89b77c65b4d70001b40ac3","A3","batch1","","-1","tol_feedback","","","true","","1000","1000","500","","","","","","-1","none","true","","0","","","","","","","","","",""
"","","","","","html-button-response","23","83569","0.0-2.0-9.0","5c89b77c65b4d70001b40ac3","A3","batch1","","1524.5999999977648","tol_instruction","<div class = centerbox><p class = center-block-text>Great job! You are done with practice trials<br>You are about to start official trials.<br> <br> Problem <strong>1</strong> out of 25 problems</p></div>","0","","","","","","","","","","","","","","","","","","","","","","","","",""
"","","","","","single-stim-button","24","86412","0.0-2.0-10.0-0.0","5c89b77c65b4d70001b40ac3","A3","batch1","","1835","tol_tohand","","","","tol_peg_1","1835","1835","0","[[1,0,0],[3,0],[0]]","1","[[1,3,0],[2,0],[0]]","0","0","","","","","","3","","","","","","","","",""
"","","","","","single-stim-button","25","88424","0.0-2.0-10.0-1.0","5c89b77c65b4d70001b40ac3","A3","batch1","","2010","tol_toboard","","","","tol_peg_3","2010","2010","0","[[1,0,0],[3,0],[2]]","1","[[1,3,0],[2,0],[0]]","0","0","","","","","","3","","","","","","","","",""
"","","","","","single-stim-button","26","89074","0.0-2.0-10.1-0.1","5c89b77c65b4d70001b40ac3","A3","batch1","","649","tol_tohand","","","","tol_peg_2","649","649","0","[[1,0,0],[0,0],[2]]","2","[[1,3,0],[2,0],[0]]","0","0","","","","","","3","","","","","","","","",""
"","","","","","single-stim-button","27","89906","0.0-2.0-10.1-1.1","5c89b77c65b4d70001b40ac3","A3","batch1","","831","tol_toboard","","","","tol_peg_1","831","831","0","[[1,3,0],[0,0],[2]]","2","[[1,3,0],[2,0],[0]]","0","0","","","","","","3","","","","","","","","",""
"","","","","","single-stim-button","28","90525","0.0-2.0-10.2-0.2","5c89b77c65b4d70001b40ac3","A3","batch1","","617","tol_tohand","","","","tol_peg_3","617","617","0","[[1,3,0],[0,0],[0]]","3","[[1,3,0],[2,0],[0]]","0","0","","","","","","3","","","","","","","","",""
"","","","","","single-stim-button","29","91002","0.0-2.0-10.2-1.2","5c89b77c65b4d70001b40ac3","A3","batch1","","477","tol_toboard","","","","tol_peg_2","477","477","0","[[1,3,0],[2,0],[0]]","3","[[1,3,0],[2,0],[0]]","0","0","","","","","","3","","","","","","","","",""
"","","","","","poldrack-single-stim","30","92010","0.0-2.0-11.0","5c89b77c65b4d70001b40ac3","A3","batch1","","-1","tol_feedback","","","true","","1000","1000","500","","","","","","-1","none","true","1835","3101","","","","","","","","","",""
"","","","","","html-button-response","31","92972","0.0-2.0-12.0","5c89b77c65b4d70001b40ac3","A3","batch1","","959.1000000014901","tol_trial_num","<div class = centerbox><p class = center-block-text>problem <strong>2</strong> out of 25 problems</p></div>","0","","","","","","","","","","","","","","","","","","","","","","","","",""
"","","","","","single-stim-button","32","96326","0.0-2.0-13.0-0.0","5c89b77c65b4d70001b40ac3","A3","batch1","","3353","tol_tohand","","","","tol_peg_1","3353","3353","0","[[1,0,0],[3,0],[0]]","1","[[2,1,3],[0,0],[0]]","1","0","","","","","","5","","","","","","","","",""
"","","","","","single-stim-button","33","98527","0.0-2.0-13.0-1.0","5c89b77c65b4d70001b40ac3","A3","batch1","","2199","tol_toboard","","","","tol_peg_3","2199","2199","0","[[1,0,0],[3,0],[2]]","1","[[2,1,3],[0,0],[0]]","1","0","","","","","","5","","","","","","","","",""
"","","","","","single-stim-button","34","108144","0.0-2.0-13.1-0.1","5c89b77c65b4d70001b40ac3","A3","batch1","","9617","tol_tohand","","","","tol_peg_1","9617","9617","0","[[0,0,0],[3,0],[2]]","2","[[2,1,3],[0,0],[0]]","1","0","","","","","","5","","","","","","","","",""
"","","","","","single-stim-button","35","108994","0.0-2.0-13.1-1.1","5c89b77c65b4d70001b40ac3","A3","batch1","","848","tol_toboard","","","","tol_peg_2","848","848","0","[[0,0,0],[3,1],[2]]","2","[[2,1,3],[0,0],[0]]","1","0","","","","","","5","","","","","","","","",""
"","","","","","single-stim-button","36","110007","0.0-2.0-13.2-0.2","5c89b77c65b4d70001b40ac3","A3","batch1","","1012","tol_tohand","","","","tol_peg_2","1012","1012","0","[[0,0,0],[3,0],[2]]","3","[[2,1,3],[0,0],[0]]","1","0","","","","","","5","","","","","","","","",""
"","","","","","single-stim-button","37","111517","0.0-2.0-13.2-1.2","5c89b77c65b4d70001b40ac3","A3","batch1","","1508","tol_toboard","","","","tol_peg_2","1508","1508","0","[[0,0,0],[3,1],[2]]","3","[[2,1,3],[0,0],[0]]","1","0","","","","","","5","","","","","","","","",""
"","","","","","single-stim-button","38","112348","0.0-2.0-13.3-0.3","5c89b77c65b4d70001b40ac3","A3","batch1","","830","tol_tohand","","","","tol_peg_3","830","830","0","[[0,0,0],[3,1],[0]]","4","[[2,1,3],[0,0],[0]]","1","0","","","","","","5","","","","","","","","",""
"","","","","","single-stim-button","39","113980","0.0-2.0-13.3-1.3","5c89b77c65b4d70001b40ac3","A3","batch1","","1631","tol_toboard","","","","tol_peg_1","1631","1631","0","[[2,0,0],[3,1],[0]]","4","[[2,1,3],[0,0],[0]]","1","0","","","","","","5","","","","","","","","",""
"","","","","","single-stim-button","40","114804","0.0-2.0-13.4-0.4","5c89b77c65b4d70001b40ac3","A3","batch1","","822","tol_tohand","","","","tol_peg_2","822","822","0","[[2,0,0],[3,0],[0]]","5","[[2,1,3],[0,0],[0]]","1","0","","","","","","5","","","","","","","","",""
"","","","","","single-stim-button","41","115694","0.0-2.0-13.4-1.4","5c89b77c65b4d70001b40ac3","A3","batch1","","889","tol_toboard","","","","tol_peg_1","889","889","0","[[2,1,0],[3,0],[0]]","5","[[2,1,3],[0,0],[0]]","1","0","","","","","","5","","","","","","","","",""
"","","","","","single-stim-button","42","116188","0.0-2.0-13.5-0.5","5c89b77c65b4d70001b40ac3","A3","batch1","","493","tol_tohand","","","","tol_peg_2","493","493","0","[[2,1,0],[0,0],[0]]","6","[[2,1,3],[0,0],[0]]","1","0","","","","","","5","","","","","","","","",""
"","","","","","single-stim-button","43","116593","0.0-2.0-13.5-1.5","5c89b77c65b4d70001b40ac3","A3","batch1","","403","tol_toboard","","","","tol_peg_1","403","403","0","[[2,1,3],[0,0],[0]]","6","[[2,1,3],[0,0],[0]]","1","0","","","","","","5","","","","","","","","",""
"","","","","","poldrack-single-stim","44","117601","0.0-2.0-14.0","5c89b77c65b4d70001b40ac3","A3","batch1","","-1","tol_feedback","","","true","","1000","1000","500","","","","","","-1","none","true","3353","16127","","","","","","","","","",""
"","","","","","html-button-response","45","118430","0.0-2.0-15.0","5c89b77c65b4d70001b40ac3","A3","batch1","","827.8999999985099","tol_trial_num","<div class = centerbox><p class = center-block-text>problem <strong>3</strong> out of 25 problems</p></div>","0","","","","","","","","","","","","","","","","","","","","","","","","",""
"","","","","","single-stim-button","46","121010","0.0-2.0-16.0-0.0","5c89b77c65b4d70001b40ac3","A3","batch1","","2578","tol_tohand","","","","tol_peg_1","2578","2578","0","[[2,0,0],[0,0],[1]]","1","[[1,2,0],[3,0],[0]]","2","0","","","","","","4","","","","","","","","",""
"","","","","","single-stim-button","47","121892","0.0-2.0-16.0-1.0","5c89b77c65b4d70001b40ac3","A3","batch1","","881","tol_toboard","","","","tol_peg_2","881","881","0","[[2,0,0],[3,0],[1]]","1","[[1,2,0],[3,0],[0]]","2","0","","","","","","4","","","","","","","","",""
"","","","","","single-stim-button","48","124357","0.0-2.0-16.1-0.1","5c89b77c65b4d70001b40ac3","A3","batch1","","2463","tol_tohand","","","","tol_peg_1","2463","2463","0","[[0,0,0],[3,0],[1]]","2","[[1,2,0],[3,0],[0]]","2","0","","","","","","4","","","","","","","","",""
"","","","","","single-stim-button","49","124818","0.0-2.0-16.1-1.1","5c89b77c65b4d70001b40ac3","A3","batch1","","460","tol_toboard","","","","tol_peg_2","460","460","0","[[0,0,0],[3,2],[1]]","2","[[1,2,0],[3,0],[0]]","2","0","","","","","","4","","","","","","","","",""
"","","","","","single-stim-button","50","125272","0.0-2.0-16.2-0.2","5c89b77c65b4d70001b40ac3","A3","batch1","","452","tol_tohand","","","","tol_peg_3","452","452","0","[[0,0,0],[3,2],[0]]","3","[[1,2,0],[3,0],[0]]","2","0","","","","","","4","","","","","","","","",""
"","","","","","single-stim-button","51","125882","0.0-2.0-16.2-1.2","5c89b77c65b4d70001b40ac3","A3","batch1","","609","tol_toboard","","","","tol_peg_1","609","609","0","[[1,0,0],[3,2],[0]]","3","[[1,2,0],[3,0],[0]]","2","0","","","","","","4","","","","","","","","",""
"","","","","","single-stim-button","52","126689","0.0-2.0-16.3-0.3","5c89b77c65b4d70001b40ac3","A3","batch1","","807","tol_tohand","","","","tol_peg_2","807","807","0","[[1,0,0],[3,0],[0]]","4","[[1,2,0],[3,0],[0]]","2","0","","","","","","4","","","","","","","","",""
"","","","","","single-stim-button","53","127044","0.0-2.0-16.3-1.3","5c89b77c65b4d70001b40ac3","A3","batch1","","353","tol_toboard","","","","tol_peg_1","353","353","0","[[1,2,0],[3,0],[0]]","4","[[1,2,0],[3,0],[0]]","2","0","","","","","","4","","","","","","","","",""
"","","","","","poldrack-single-stim","54","128054","0.0-2.0-17.0","5c89b77c65b4d70001b40ac3","A3","batch1","","-1","tol_feedback","","","true","","1000","1000","500","","","","","","-1","none","true","2578","6300","","","","","","","","","",""
"","","","","","html-button-response","55","128978","0.0-2.0-18.0","5c89b77c65b4d70001b40ac3","A3","batch1","","923.2000000029802","tol_trial_num","<div class = centerbox><p class = center-block-text>problem <strong>4</strong> out of 25 problems</p></div>","0","","","","","","","","","","","","","","","","","","","","","","","","",""
"","","","","","single-stim-button","56","131386","0.0-2.0-19.0-0.0","5c89b77c65b4d70001b40ac3","A3","batch1","","2407","tol_tohand","","","","tol_peg_2","2407","2407","0","[[3,0,0],[2,0],[0]]","1","[[3,0,0],[1,0],[2]]","3","0","","","","","","3","","","","","","","","",""
"","","","","","single-stim-button","57","132763","0.0-2.0-19.0-1.0","5c89b77c65b4d70001b40ac3","A3","batch1","","1376","tol_toboard","","","","tol_peg_1","1376","1376","0","[[3,1,0],[2,0],[0]]","1","[[3,0,0],[1,0],[2]]","3","0","","","","","","3","","","","","","","","",""
"","","","","","single-stim-button","58","133678","0.0-2.0-19.1-0.1","5c89b77c65b4d70001b40ac3","A3","batch1","","914","tol_tohand","","","","tol_peg_2","914","914","0","[[3,1,0],[0,0],[0]]","2","[[3,0,0],[1,0],[2]]","3","0","","","","","","3","","","","","","","","",""
"","","","","","single-stim-button","59","134131","0.0-2.0-19.1-1.1","5c89b77c65b4d70001b40ac3","A3","batch1","","451","tol_toboard","","","","tol_peg_3","451","451","0","[[3,1,0],[0,0],[2]]","2","[[3,0,0],[1,0],[2]]","3","0","","","","","","3","","","","","","","","",""
"","","","","","single-stim-button","60","134832","0.0-2.0-19.2-0.2","5c89b77c65b4d70001b40ac3","A3","batch1","","699","tol_tohand","","","","tol_peg_1","699","699","0","[[3,0,0],[0,0],[2]]","3","[[3,0,0],[1,0],[2]]","3","0","","","","","","3","","","","","","","","",""
"","","","","","single-stim-button","61","135474","0.0-2.0-19.2-1.2","5c89b77c65b4d70001b40ac3","A3","batch1","","642","tol_toboard","","","","tol_peg_2","642","642","0","[[3,0,0],[1,0],[2]]","3","[[3,0,0],[1,0],[2]]","3","0","","","","","","3","","","","","","","","",""
"","","","","","poldrack-single-stim","62","136479","0.0-2.0-20.0","5c89b77c65b4d70001b40ac3","A3","batch1","","-1","tol_feedback","","","true","","1000","1000","500","","","","","","-1","none","true","2407","4020","","","","","","","","","",""
"","","","","","html-button-response","63","137164","0.0-2.0-21.0","5c89b77c65b4d70001b40ac3","A3","batch1","","683.1000000014901","tol_trial_num","<div class = centerbox><p class = center-block-text>problem <strong>5</strong> out of 25 problems</p></div>","0","","","","","","","","","","","","","","","","","","","","","","","","",""
"","","","","","single-stim-button","64","148472","0.0-2.0-22.0-0.0","5c89b77c65b4d70001b40ac3","A3","batch1","","11307","tol_tohand","","","","tol_peg_2","11307","11307","0","[[1,0,0],[0,0],[3]]","1","[[0,0,0],[1,2],[3]]","4","0","","","","","","7","","","","","","","","",""
"","","","","","single-stim-button","65","156870","0.0-2.0-22.0-1.0","5c89b77c65b4d70001b40ac3","A3","batch1","","8397","tol_toboard","","","","tol_peg_2","8397","8397","0","[[1,0,0],[2,0],[3]]","1","[[0,0,0],[1,2],[3]]","4","0","","","","","","7","","","","","","","","",""
"","","","","","single-stim-button","66","158889","0.0-2.0-22.1-0.1","5c89b77c65b4d70001b40ac3","A3","batch1","","2017","tol_tohand","","","","tol_peg_3","2017","2017","0","[[1,0,0],[2,0],[0]]","2","[[0,0,0],[1,2],[3]]","4","0","","","","","","7","","","","","","","","",""
"","","","","","single-stim-button","67","160133","0.0-2.0-22.1-1.1","5c89b77c65b4d70001b40ac3","A3","batch1","","1243","tol_toboard","","","","tol_peg_1","1243","1243","0","[[1,3,0],[2,0],[0]]","2","[[0,0,0],[1,2],[3]]","4","0","","","","","","7","","","","","","","","",""
"","","","","","single-stim-button","68","160983","0.0-2.0-22.2-0.2","5c89b77c65b4d70001b40ac3","A3","batch1","","849","tol_tohand","","","","tol_peg_2","849","849","0","[[1,3,0],[0,0],[0]]","3","[[0,0,0],[1,2],[3]]","4","0","","","","","","7","","","","","","","","",""
"","","","","","single-stim-button","69","161501","0.0-2.0-22.2-1.2","5c89b77c65b4d70001b40ac3","A3","batch1","","518","tol_toboard","","","","tol_peg_3","518","518","0","[[1,3,0],[0,0],[2]]","3","[[0,0,0],[1,2],[3]]","4","0","","","","","","7","","","","","","","","",""
"","","","","","single-stim-button","70","162424","0.0-2.0-22.3-0.3","5c89b77c65b4d70001b40ac3","A3","batch1","","922","tol_tohand","","","","tol_peg_1","922","922","0","[[1,0,0],[0,0],[2]]","4","[[0,0,0],[1,2],[3]]","4","0","","","","","","7","","","","","","","","",""
"","","","","","single-stim-button","71","163240","0.0-2.0-22.3-1.3","5c89b77c65b4d70001b40ac3","A3","batch1","","814","tol_toboard","","","","tol_peg_2","814","814","0","[[1,0,0],[3,0],[2]]","4","[[0,0,0],[1,2],[3]]","4","0","","","","","","7","","","","","","","","",""
"","","","","","single-stim-button","72","163941","0.0-2.0-22.4-0.4","5c89b77c65b4d70001b40ac3","A3","batch1","","699","tol_tohand","","","","tol_peg_1","699","699","0","[[0,0,0],[3,0],[2]]","5","[[0,0,0],[1,2],[3]]","4","0","","","","","","7","","","","","","","","",""
"","","","","","single-stim-button","73","168449","0.0-2.0-22.4-1.4","5c89b77c65b4d70001b40ac3","A3","batch1","","4507","tol_toboard","","","","tol_peg_2","4507","4507","0","[[0,0,0],[3,1],[2]]","5","[[0,0,0],[1,2],[3]]","4","0","","","","","","7","","","","","","","","",""
"","","","","","single-stim-button","74","170181","0.0-2.0-22.5-0.5","5c89b77c65b4d70001b40ac3","A3","batch1","","1730","tol_tohand","","","","tol_peg_2","1730","1730","0","[[0,0,0],[3,0],[2]]","6","[[0,0,0],[1,2],[3]]","4","0","","","","","","7","","","","","","","","",""
"","","","","","single-stim-button","75","171729","0.0-2.0-22.5-1.5","5c89b77c65b4d70001b40ac3","A3","batch1","","1548","tol_toboard","","","","tol_peg_1","1548","1548","0","[[1,0,0],[3,0],[2]]","6","[[0,0,0],[1,2],[3]]","4","0","","","","","","7","","","","","","","","",""
"","","","","","single-stim-button","76","172290","0.0-2.0-22.6-0.6","5c89b77c65b4d70001b40ac3","A3","batch1","","559","tol_tohand","","","","tol_peg_2","559","559","0","[[1,0,0],[0,0],[2]]","7","[[0,0,0],[1,2],[3]]","4","0","","","","","","7","","","","","","","","",""
"","","","","","single-stim-button","77","173155","0.0-2.0-22.6-1.6","5c89b77c65b4d70001b40ac3","A3","batch1","","863","tol_toboard","","","","tol_peg_1","863","863","0","[[1,3,0],[0,0],[2]]","7","[[0,0,0],[1,2],[3]]","4","0","","","","","","7","","","","","","","","",""
"","","","","","single-stim-button","78","175125","0.0-2.0-22.7-0.7","5c89b77c65b4d70001b40ac3","A3","batch1","","1969","tol_tohand","","","","tol_peg_3","1969","1969","0","[[1,3,0],[0,0],[0]]","8","[[0,0,0],[1,2],[3]]","4","0","","","","","","7","","","","","","","","",""
"","","","","","single-stim-button","79","175916","0.0-2.0-22.7-1.7","5c89b77c65b4d70001b40ac3","A3","batch1","","790","tol_toboard","","","","tol_peg_2","790","790","0","[[1,3,0],[2,0],[0]]","8","[[0,0,0],[1,2],[3]]","4","0","","","","","","7","","","","","","","","",""
"","","","","","single-stim-button","80","176526","0.0-2.0-22.8-0.8","5c89b77c65b4d70001b40ac3","A3","batch1","","609","tol_tohand","","","","tol_peg_1","609","609","0","[[1,0,0],[2,0],[0]]","9","[[0,0,0],[1,2],[3]]","4","0","","","","","","7","","","","","","","","",""
"","","","","","single-stim-button","81","177366","0.0-2.0-22.8-1.8","5c89b77c65b4d70001b40ac3","A3","batch1","","839","tol_toboard","","","","tol_peg_2","839","839","0","[[1,0,0],[2,3],[0]]","9","[[0,0,0],[1,2],[3]]","4","0","","","","","","7","","","","","","","","",""
"","","","","","single-stim-button","82","178100","0.0-2.0-22.9-0.9","5c89b77c65b4d70001b40ac3","A3","batch1","","733","tol_tohand","","","","tol_peg_1","733","733","0","[[0,0,0],[2,3],[0]]","10","[[0,0,0],[1,2],[3]]","4","0","","","","","","7","","","","","","","","",""
"","","","","","single-stim-button","83","179056","0.0-2.0-22.9-1.9","5c89b77c65b4d70001b40ac3","A3","batch1","","954","tol_toboard","","","","tol_peg_3","954","954","0","[[0,0,0],[2,3],[1]]","10","[[0,0,0],[1,2],[3]]","4","0","","","","","","7","","","","","","","","",""
"","","","","","single-stim-button","84","179789","0.0-2.0-22.10-0.10","5c89b77c65b4d70001b40ac3","A3","batch1","","732","tol_tohand","","","","tol_peg_2","732","732","0","[[0,0,0],[2,0],[1]]","11","[[0,0,0],[1,2],[3]]","4","0","","","","","","7","","","","","","","","",""
"","","","","","single-stim-button","85","180202","0.0-2.0-22.10-1.10","5c89b77c65b4d70001b40ac3","A3","batch1","","411","tol_toboard","","","","tol_peg_1","411","411","0","[[3,0,0],[2,0],[1]]","11","[[0,0,0],[1,2],[3]]","4","0","","","","","","7","","","","","","","","",""
"","","","","","single-stim-button","86","180985","0.0-2.0-22.11-0.11","5c89b77c65b4d70001b40ac3","A3","batch1","","782","tol_tohand","","","","tol_peg_2","782","782","0","[[3,0,0],[0,0],[1]]","12","[[0,0,0],[1,2],[3]]","4","0","","","","","","7","","","","","","","","",""
"","","","","","single-stim-button","87","181571","0.0-2.0-22.11-1.11","5c89b77c65b4d70001b40ac3","A3","batch1","","584","tol_toboard","","","","tol_peg_1","584","584","0","[[3,2,0],[0,0],[1]]","12","[[0,0,0],[1,2],[3]]","4","0","","","","","","7","","","","","","","","",""
"","","","","","single-stim-button","88","182188","0.0-2.0-22.12-0.12","5c89b77c65b4d70001b40ac3","A3","batch1","","617","tol_tohand","","","","tol_peg_3","617","617","0","[[3,2,0],[0,0],[0]]","13","[[0,0,0],[1,2],[3]]","4","0","","","","","","7","","","","","","","","",""
"","","","","","single-stim-button","89","182649","0.0-2.0-22.12-1.12","5c89b77c65b4d70001b40ac3","A3","batch1","","460","tol_toboard","","","","tol_peg_2","460","460","0","[[3,2,0],[1,0],[0]]","13","[[0,0,0],[1,2],[3]]","4","0","","","","","","7","","","","","","","","",""
"","","","","","single-stim-button","90","183391","0.0-2.0-22.13-0.13","5c89b77c65b4d70001b40ac3","A3","batch1","","740","tol_tohand","","","","tol_peg_1","740","740","0","[[3,0,0],[1,0],[0]]","14","[[0,0,0],[1,2],[3]]","4","0","","","","","","7","","","","","","","","",""
"","","","","","single-stim-button","91","184051","0.0-2.0-22.13-1.13","5c89b77c65b4d70001b40ac3","A3","batch1","","658","tol_toboard","","","","tol_peg_2","658","658","0","[[3,0,0],[1,2],[0]]","14","[[0,0,0],[1,2],[3]]","4","0","","","","","","7","","","","","","","","",""
"","","","","","single-stim-button","92","184429","0.0-2.0-22.14-0.14","5c89b77c65b4d70001b40ac3","A3","batch1","","378","tol_tohand","","","","tol_peg_1","378","378","0","[[0,0,0],[1,2],[0]]","15","[[0,0,0],[1,2],[3]]","4","0","","","","","","7","","","","","","","","",""
"","","","","","single-stim-button","93","184932","0.0-2.0-22.14-1.14","5c89b77c65b4d70001b40ac3","A3","batch1","","502","tol_toboard","","","","tol_peg_3","502","502","0","[[0,0,0],[1,2],[3]]","15","[[0,0,0],[1,2],[3]]","4","0","","","","","","7","","","","","","","","",""
"","","","","","poldrack-single-stim","94","185945","0.0-2.0-23.0","5c89b77c65b4d70001b40ac3","A3","batch1","","-1","tol_feedback","","","true","","1000","1000","500","","","","","","-1","none","true","11307","24643","","","","","","","","","",""
"","","","","","html-button-response","95","186630","0.0-2.0-24.0","5c89b77c65b4d70001b40ac3","A3","batch1","","682.9000000022352","tol_trial_num","<div class = centerbox><p class = center-block-text>problem <strong>6</strong> out of 25 problems</p></div>","0","","","","","","","","","","","","","","","","","","","","","","","","",""
"","","","","","single-stim-button","96","192622","0.0-2.0-25.0-0.0","5c89b77c65b4d70001b40ac3","A3","batch1","","5990","tol_tohand","","","","tol_peg_3","5990","5990","0","[[0,0,0],[1,2],[0]]","1","[[1,0,0],[2,3],[0]]","5","0","","","","","","6","","","","","","","","",""
"","","","","","single-stim-button","97","193297","0.0-2.0-25.0-1.0","5c89b77c65b4d70001b40ac3","A3","batch1","","674","tol_toboard","","","","tol_peg_1","674","674","0","[[3,0,0],[1,2],[0]]","1","[[1,0,0],[2,3],[0]]","5","0","","","","","","6","","","","","","","","",""
"","","","","","single-stim-button","98","194137","0.0-2.0-25.1-0.1","5c89b77c65b4d70001b40ac3","A3","batch1","","839","tol_tohand","","","","tol_peg_2","839","839","0","[[3,0,0],[1,0],[0]]","2","[[1,0,0],[2,3],[0]]","5","0","","","","","","6","","","","","","","","",""
"","","","","","single-stim-button","99","194888","0.0-2.0-25.1-1.1","5c89b77c65b4d70001b40ac3","A3","batch1","","749","tol_toboard","","","","tol_peg_3","749","749","0","[[3,0,0],[1,0],[2]]","2","[[1,0,0],[2,3],[0]]","5","0","","","","","","6","","","","","","","","",""
"","","","","","single-stim-button","100","198168","0.0-2.0-25.2-0.2","5c89b77c65b4d70001b40ac3","A3","batch1","","3279","tol_tohand","","","","tol_peg_2","3279","3279","0","[[3,0,0],[0,0],[2]]","3","[[1,0,0],[2,3],[0]]","5","0","","","","","","6","","","","","","","","",""
"","","","","","single-stim-button","101","199158","0.0-2.0-25.2-1.2","5c89b77c65b4d70001b40ac3","A3","batch1","","989","tol_toboard","","","","tol_peg_1","989","989","0","[[3,1,0],[0,0],[2]]","3","[[1,0,0],[2,3],[0]]","5","0","","","","","","6","","","","","","","","",""
"","","","","","single-stim-button","102","205223","0.0-2.0-25.3-0.3","5c89b77c65b4d70001b40ac3","A3","batch1","","6064","tol_tohand","","","","tol_peg_3","6064","6064","0","[[3,1,0],[0,0],[0]]","4","[[1,0,0],[2,3],[0]]","5","0","","","","","","6","","","","","","","","",""
"","","","","","single-stim-button","103","205743","0.0-2.0-25.3-1.3","5c89b77c65b4d70001b40ac3","A3","batch1","","518","tol_toboard","","","","tol_peg_2","518","518","0","[[3,1,0],[2,0],[0]]","4","[[1,0,0],[2,3],[0]]","5","0","","","","","","6","","","","","","","","",""
"","","","","","single-stim-button","104","206361","0.0-2.0-25.4-0.4","5c89b77c65b4d70001b40ac3","A3","batch1","","617","tol_tohand","","","","tol_peg_1","617","617","0","[[3,0,0],[2,0],[0]]","5","[[1,0,0],[2,3],[0]]","5","0","","","","","","6","","","","","","","","",""
"","","","","","single-stim-button","105","206979","0.0-2.0-25.4-1.4","5c89b77c65b4d70001b40ac3","A3","batch1","","617","tol_toboard","","","","tol_peg_3","617","617","0","[[3,0,0],[2,0],[1]]","5","[[1,0,0],[2,3],[0]]","5","0","","","","","","6","","","","","","","","",""
"","","","","","single-stim-button","106","207630","0.0-2.0-25.5-0.5","5c89b77c65b4d70001b40ac3","A3","batch1","","650","tol_tohand","","","","tol_peg_1","650","650","0","[[0,0,0],[2,0],[1]]","6","[[1,0,0],[2,3],[0]]","5","0","","","","","","6","","","","","","","","",""
"","","","","","single-stim-button","107","208281","0.0-2.0-25.5-1.5","5c89b77c65b4d70001b40ac3","A3","batch1","","650","tol_toboard","","","","tol_peg_2","650","650","0","[[0,0,0],[2,3],[1]]","6","[[1,0,0],[2,3],[0]]","5","0","","","","","","6","","","","","","","","",""
"","","","","","single-stim-button","108","208735","0.0-2.0-25.6-0.6","5c89b77c65b4d70001b40ac3","A3","batch1","","452","tol_tohand","","","","tol_peg_3","452","452","0","[[0,0,0],[2,3],[0]]","7","[[1,0,0],[2,3],[0]]","5","0","","","","","","6","","","","","","","","",""
"","","","","","single-stim-button","109","209286","0.0-2.0-25.6-1.6","5c89b77c65b4d70001b40ac3","A3","batch1","","550","tol_toboard","","","","tol_peg_1","550","550","0","[[1,0,0],[2,3],[0]]","7","[[1,0,0],[2,3],[0]]","5","0","","","","","","6","","","","","","","","",""
"","","","","","poldrack-single-stim","110","210294","0.0-2.0-26.0","5c89b77c65b4d70001b40ac3","A3","batch1","","-1","tol_feedback","","","true","","1000","1000","500","","","","","","-1","none","true","5990","17891","","","","","","","","","",""
"","","","","","html-button-response","111","211074","0.0-2.0-27.0","5c89b77c65b4d70001b40ac3","A3","batch1","","778.7999999970198","tol_trial_num","<div class = centerbox><p class = center-block-text>problem <strong>7</strong> out of 25 problems</p></div>","0","","","","","","","","","","","","","","","","","","","","","","","","",""
"","","","","","single-stim-button","112","213177","0.0-2.0-28.0-0.0","5c89b77c65b4d70001b40ac3","A3","batch1","","2101","tol_tohand","","","","tol_peg_3","2101","2101","0","[[2,1,0],[0,0],[0]]","1","[[1,2,0],[3,0],[0]]","6","0","","","","","","5","","","","","","","","",""
"","","","","","single-stim-button","113","216877","0.0-2.0-28.0-1.0","5c89b77c65b4d70001b40ac3","A3","batch1","","3699","tol_toboard","","","","tol_peg_2","3699","3699","0","[[2,1,0],[3,0],[0]]","1","[[1,2,0],[3,0],[0]]","6","0","","","","","","5","","","","","","","","",""
"","","","","","single-stim-button","114","217388","0.0-2.0-28.1-0.1","5c89b77c65b4d70001b40ac3","A3","batch1","","510","tol_tohand","","","","tol_peg_1","510","510","0","[[2,0,0],[3,0],[0]]","2","[[1,2,0],[3,0],[0]]","6","0","","","","","","5","","","","","","","","",""
"","","","","","single-stim-button","115","219960","0.0-2.0-28.1-1.1","5c89b77c65b4d70001b40ac3","A3","batch1","","2570","tol_toboard","","","","tol_peg_3","2570","2570","0","[[2,0,0],[3,0],[1]]","2","[[1,2,0],[3,0],[0]]","6","0","","","","","","5","","","","","","","","",""
"","","","","","single-stim-button","116","220619","0.0-2.0-28.2-0.2","5c89b77c65b4d70001b40ac3","A3","batch1","","657","tol_tohand","","","","tol_peg_1","657","657","0","[[0,0,0],[3,0],[1]]","3","[[1,2,0],[3,0],[0]]","6","0","","","","","","5","","","","","","","","",""
"","","","","","single-stim-button","117","221089","0.0-2.0-28.2-1.2","5c89b77c65b4d70001b40ac3","A3","batch1","","469","tol_toboard","","","","tol_peg_2","469","469","0","[[0,0,0],[3,2],[1]]","3","[[1,2,0],[3,0],[0]]","6","0","","","","","","5","","","","","","","","",""
"","","","","","single-stim-button","118","221535","0.0-2.0-28.3-0.3","5c89b77c65b4d70001b40ac3","A3","batch1","","444","tol_tohand","","","","tol_peg_3","444","444","0","[[0,0,0],[3,2],[0]]","4","[[1,2,0],[3,0],[0]]","6","0","","","","","","5","","","","","","","","",""
"","","","","","single-stim-button","119","222029","0.0-2.0-28.3-1.3","5c89b77c65b4d70001b40ac3","A3","batch1","","493","tol_toboard","","","","tol_peg_1","493","493","0","[[1,0,0],[3,2],[0]]","4","[[1,2,0],[3,0],[0]]","6","0","","","","","","5","","","","","","","","",""
"","","","","","single-stim-button","120","222696","0.0-2.0-28.4-0.4","5c89b77c65b4d70001b40ac3","A3","batch1","","666","tol_tohand","","","","tol_peg_2","666","666","0","[[1,0,0],[3,0],[0]]","5","[[1,2,0],[3,0],[0]]","6","0","","","","","","5","","","","","","","","",""
"","","","","","single-stim-button","121","223084","0.0-2.0-28.4-1.4","5c89b77c65b4d70001b40ac3","A3","batch1","","386","tol_toboard","","","","tol_peg_1","386","386","0","[[1,2,0],[3,0],[0]]","5","[[1,2,0],[3,0],[0]]","6","0","","","","","","5","","","","","","","","",""
"","","","","","poldrack-single-stim","122","224094","0.0-2.0-29.0","5c89b77c65b4d70001b40ac3","A3","batch1","","-1","tol_feedback","","","true","","1000","1000","500","","","","","","-1","none","true","2101","4378","","","","","","","","","",""
"","","","","","html-button-response","123","224790","0.0-2.0-30.0","5c89b77c65b4d70001b40ac3","A3","batch1","","693.7999999970198","tol_trial_num","<div class = centerbox><p class = center-block-text>problem <strong>8</strong> out of 25 problems</p></div>","0","","","","","","","","","","","","","","","","","","","","","","","","",""
"","","","","","single-stim-button","124","227476","0.0-2.0-31.0-0.0","5c89b77c65b4d70001b40ac3","A3","batch1","","2685","tol_tohand","","","","tol_peg_3","2685","2685","0","[[0,0,0],[2,3],[0]]","1","[[1,2,0],[3,0],[0]]","7","0","","","","","","4","","","","","","","","",""
"","","","","","single-stim-button","125","228062","0.0-2.0-31.0-1.0","5c89b77c65b4d70001b40ac3","A3","batch1","","585","tol_toboard","","","","tol_peg_1","585","585","0","[[1,0,0],[2,3],[0]]","1","[[1,2,0],[3,0],[0]]","7","0","","","","","","4","","","","","","","","",""
"","","","","","single-stim-button","126","229579","0.0-2.0-31.1-0.1","5c89b77c65b4d70001b40ac3","A3","batch1","","1516","tol_tohand","","","","tol_peg_2","1516","1516","0","[[1,0,0],[2,0],[0]]","2","[[1,2,0],[3,0],[0]]","7","0","","","","","","4","","","","","","","","",""
"","","","","","single-stim-button","127","230469","0.0-2.0-31.1-1.1","5c89b77c65b4d70001b40ac3","A3","batch1","","889","tol_toboard","","","","tol_peg_3","889","889","0","[[1,0,0],[2,0],[3]]","2","[[1,2,0],[3,0],[0]]","7","0","","","","","","4","","","","","","","","",""
"","","","","","single-stim-button","128","230856","0.0-2.0-31.2-0.2","5c89b77c65b4d70001b40ac3","A3","batch1","","386","tol_tohand","","","","tol_peg_2","386","386","0","[[1,0,0],[0,0],[3]]","3","[[1,2,0],[3,0],[0]]","7","0","","","","","","4","","","","","","","","",""
"","","","","","single-stim-button","129","231219","0.0-2.0-31.2-1.2","5c89b77c65b4d70001b40ac3","A3","batch1","","361","tol_toboard","","","","tol_peg_1","361","361","0","[[1,2,0],[0,0],[3]]","3","[[1,2,0],[3,0],[0]]","7","0","","","","","","4","","","","","","","","",""
"","","","","","single-stim-button","130","231705","0.0-2.0-31.3-0.3","5c89b77c65b4d70001b40ac3","A3","batch1","","485","tol_tohand","","","","tol_peg_3","485","485","0","[[1,2,0],[0,0],[0]]","4","[[1,2,0],[3,0],[0]]","7","0","","","","","","4","","","","","","","","",""
"","","","","","single-stim-button","131","232035","0.0-2.0-31.3-1.3","5c89b77c65b4d70001b40ac3","A3","batch1","","329","tol_toboard","","","","tol_peg_2","329","329","0","[[1,2,0],[3,0],[0]]","4","[[1,2,0],[3,0],[0]]","7","0","","","","","","4","","","","","","","","",""
"","","","","","poldrack-single-stim","132","233044","0.0-2.0-32.0","5c89b77c65b4d70001b40ac3","A3","batch1","","-1","tol_feedback","","","true","","1000","1000","500","","","","","","-1","none","true","2685","5072","","","","","","","","","",""
"","","","","","html-button-response","133","233691","0.0-2.0-33.0","5c89b77c65b4d70001b40ac3","A3","batch1","","645.3999999985099","tol_trial_num","<div class = centerbox><p class = center-block-text>problem <strong>9</strong> out of 25 problems</p></div>","0","","","","","","","","","","","","","","","","","","","","","","","","",""
"","","","","","single-stim-button","134","245117","0.0-2.0-34.0-0.0","5c89b77c65b4d70001b40ac3","A3","batch1","","11425","tol_tohand","","","","tol_peg_3","11425","11425","0","[[3,2,0],[0,0],[0]]","1","[[2,1,0],[3,0],[0]]","8","0","","","","","","6","","","","","","","","",""
"","","","","","single-stim-button","135","245865","0.0-2.0-34.0-1.0","5c89b77c65b4d70001b40ac3","A3","batch1","","747","tol_toboard","","","","tol_peg_2","747","747","0","[[3,2,0],[1,0],[0]]","1","[[2,1,0],[3,0],[0]]","8","0","","","","","","6","","","","","","","","",""
"","","","","","single-stim-button","136","246336","0.0-2.0-34.1-0.1","5c89b77c65b4d70001b40ac3","A3","batch1","","471","tol_tohand","","","","tol_peg_1","471","471","0","[[3,0,0],[1,0],[0]]","2","[[2,1,0],[3,0],[0]]","8","0","","","","","","6","","","","","","","","",""
"","","","","","single-stim-button","137","247169","0.0-2.0-34.1-1.1","5c89b77c65b4d70001b40ac3","A3","batch1","","832","tol_toboard","","","","tol_peg_3","832","832","0","[[3,0,0],[1,0],[2]]","2","[[2,1,0],[3,0],[0]]","8","0","","","","","","6","","","","","","","","",""
"","","","","","single-stim-button","138","248248","0.0-2.0-34.2-0.2","5c89b77c65b4d70001b40ac3","A3","batch1","","1078","tol_tohand","","","","tol_peg_1","1078","1078","0","[[0,0,0],[1,0],[2]]","3","[[2,1,0],[3,0],[0]]","8","0","","","","","","6","","","","","","","","",""
"","","","","","single-stim-button","139","250458","0.0-2.0-34.2-1.2","5c89b77c65b4d70001b40ac3","A3","batch1","","2208","tol_toboard","","","","tol_peg_1","2208","2208","0","[[3,0,0],[1,0],[2]]","3","[[2,1,0],[3,0],[0]]","8","0","","","","","","6","","","","","","","","",""
"","","","","","single-stim-button","140","254643","0.0-2.0-34.3-0.3","5c89b77c65b4d70001b40ac3","A3","batch1","","4185","tol_tohand","","","","tol_peg_3","4185","4185","0","[[3,0,0],[1,0],[0]]","4","[[2,1,0],[3,0],[0]]","8","0","","","","","","6","","","","","","","","",""
"","","","","","single-stim-button","141","255048","0.0-2.0-34.3-1.3","5c89b77c65b4d70001b40ac3","A3","batch1","","403","tol_toboard","","","","tol_peg_2","403","403","0","[[3,0,0],[1,2],[0]]","4","[[2,1,0],[3,0],[0]]","8","0","","","","","","6","","","","","","","","",""
"","","","","","single-stim-button","142","255435","0.0-2.0-34.4-0.4","5c89b77c65b4d70001b40ac3","A3","batch1","","386","tol_tohand","","","","tol_peg_1","386","386","0","[[0,0,0],[1,2],[0]]","5","[[2,1,0],[3,0],[0]]","8","0","","","","","","6","","","","","","","","",""
"","","","","","single-stim-button","143","256326","0.0-2.0-34.4-1.4","5c89b77c65b4d70001b40ac3","A3","batch1","","889","tol_toboard","","","","tol_peg_3","889","889","0","[[0,0,0],[1,2],[3]]","5","[[2,1,0],[3,0],[0]]","8","0","","","","","","6","","","","","","","","",""
"","","","","","single-stim-button","144","256977","0.0-2.0-34.5-0.5","5c89b77c65b4d70001b40ac3","A3","batch1","","649","tol_tohand","","","","tol_peg_2","649","649","0","[[0,0,0],[1,0],[3]]","6","[[2,1,0],[3,0],[0]]","8","0","","","","","","6","","","","","","","","",""
"","","","","","single-stim-button","145","257372","0.0-2.0-34.5-1.5","5c89b77c65b4d70001b40ac3","A3","batch1","","394","tol_toboard","","","","tol_peg_1","394","394","0","[[2,0,0],[1,0],[3]]","6","[[2,1,0],[3,0],[0]]","8","0","","","","","","6","","","","","","","","",""
"","","","","","single-stim-button","146","258468","0.0-2.0-34.6-0.6","5c89b77c65b4d70001b40ac3","A3","batch1","","1095","tol_tohand","","","","tol_peg_2","1095","1095","0","[[2,0,0],[0,0],[3]]","7","[[2,1,0],[3,0],[0]]","8","0","","","","","","6","","","","","","","","",""
"","","","","","single-stim-button","147","258930","0.0-2.0-34.6-1.6","5c89b77c65b4d70001b40ac3","A3","batch1","","461","tol_toboard","","","","tol_peg_1","461","461","0","[[2,1,0],[0,0],[3]]","7","[[2,1,0],[3,0],[0]]","8","0","","","","","","6","","","","","","","","",""
"","","","","","single-stim-button","148","259523","0.0-2.0-34.7-0.7","5c89b77c65b4d70001b40ac3","A3","batch1","","591","tol_tohand","","","","tol_peg_3","591","591","0","[[2,1,0],[0,0],[0]]","8","[[2,1,0],[3,0],[0]]","8","0","","","","","","6","","","","","","","","",""
"","","","","","single-stim-button","149","259853","0.0-2.0-34.7-1.7","5c89b77c65b4d70001b40ac3","A3","batch1","","329","tol_toboard","","","","tol_peg_2","329","329","0","[[2,1,0],[3,0],[0]]","8","[[2,1,0],[3,0],[0]]","8","0","","","","","","6","","","","","","","","",""
"","","","","","poldrack-single-stim","150","260863","0.0-2.0-35.0","5c89b77c65b4d70001b40ac3","A3","batch1","","-1","tol_feedback","","","true","","1000","1000","500","","","","","","-1","none","true","11425","19880","","","","","","","","","",""
"","","","","","html-button-response","151","263858","0.0-2.0-36.0","5c89b77c65b4d70001b40ac3","A3","batch1","","2993.400000002235","tol_trial_num","<div class = centerbox><p class = center-block-text>problem <strong>10</strong> out of 25 problems</p></div>","0","","","","","","","","","","","","","","","","","","","","","","","","",""
"","","","","","single-stim-button","152","267581","0.0-2.0-37.0-0.0","5c89b77c65b4d70001b40ac3","A3","batch1","","3722","tol_tohand","","","","tol_peg_3","3722","3722","0","[[3,0,0],[1,0],[0]]","1","[[3,0,0],[2,1],[0]]","9","0","","","","","","3","","","","","","","","",""
"","","","","","single-stim-button","153","270631","0.0-2.0-37.0-1.0","5c89b77c65b4d70001b40ac3","A3","batch1","","3048","tol_toboard","","","","tol_peg_1","3048","3048","0","[[3,2,0],[1,0],[0]]","1","[[3,0,0],[2,1],[0]]","9","0","","","","","","3","","","","","","","","",""
"","","","","","single-stim-button","154","271174","0.0-2.0-37.1-0.1","5c89b77c65b4d70001b40ac3","A3","batch1","","542","tol_tohand","","","","tol_peg_2","542","542","0","[[3,2,0],[0,0],[0]]","2","[[3,0,0],[2,1],[0]]","9","0","","","","","","3","","","","","","","","",""
"","","","","","single-stim-button","155","271587","0.0-2.0-37.1-1.1","5c89b77c65b4d70001b40ac3","A3","batch1","","411","tol_toboard","","","","tol_peg_3","411","411","0","[[3,2,0],[0,0],[1]]","2","[[3,0,0],[2,1],[0]]","9","0","","","","","","3","","","","","","","","",""
"","","","","","single-stim-button","156","272141","0.0-2.0-37.2-0.2","5c89b77c65b4d70001b40ac3","A3","batch1","","552","tol_tohand","","","","tol_peg_1","552","552","0","[[3,0,0],[0,0],[1]]","3","[[3,0,0],[2,1],[0]]","9","0","","","","","","3","","","","","","","","",""
"","","","","","single-stim-button","157","272518","0.0-2.0-37.2-1.2","5c89b77c65b4d70001b40ac3","A3","batch1","","376","tol_toboard","","","","tol_peg_2","376","376","0","[[3,0,0],[2,0],[1]]","3","[[3,0,0],[2,1],[0]]","9","0","","","","","","3","","","","","","","","",""
"","","","","","single-stim-button","158","272938","0.0-2.0-37.3-0.3","5c89b77c65b4d70001b40ac3","A3","batch1","","419","tol_tohand","","","","tol_peg_3","419","419","0","[[3,0,0],[2,0],[0]]","4","[[3,0,0],[2,1],[0]]","9","0","","","","","","3","","","","","","","","",""
"","","","","","single-stim-button","159","273284","0.0-2.0-37.3-1.3","5c89b77c65b4d70001b40ac3","A3","batch1","","344","tol_toboard","","","","tol_peg_2","344","344","0","[[3,0,0],[2,1],[0]]","4","[[3,0,0],[2,1],[0]]","9","0","","","","","","3","","","","","","","","",""
"","","","","","poldrack-single-stim","160","274290","0.0-2.0-38.0","5c89b77c65b4d70001b40ac3","A3","batch1","","-1","tol_feedback","","","true","","1000","1000","500","","","","","","-1","none","true","3722","5235","","","","","","","","","",""
"","","","","","html-button-response","161","274982","0.0-2.0-39.0","5c89b77c65b4d70001b40ac3","A3","batch1","","690","tol_trial_num","<div class = centerbox><p class = center-block-text>problem <strong>11</strong> out of 25 problems</p></div>","0","","","","","","","","","","","","","","","","","","","","","","","","",""
"","","","","","single-stim-button","162","276705","0.0-2.0-40.0-0.0","5c89b77c65b4d70001b40ac3","A3","batch1","","1721","tol_tohand","","","","tol_peg_1","1721","1721","0","[[1,0,0],[3,0],[0]]","1","[[2,0,0],[1,3],[0]]","10","0","","","","","","6","","","","","","","","",""
"","","","","","single-stim-button","163","277801","0.0-2.0-40.0-1.0","5c89b77c65b4d70001b40ac3","A3","batch1","","1096","tol_toboard","","","","tol_peg_3","1096","1096","0","[[1,0,0],[3,0],[2]]","1","[[2,0,0],[1,3],[0]]","10","0","","","","","","6","","","","","","","","",""
"","","","","","single-stim-button","164","278510","0.0-2.0-40.1-0.1","5c89b77c65b4d70001b40ac3","A3","batch1","","707","tol_tohand","","","","tol_peg_2","707","707","0","[[1,0,0],[0,0],[2]]","2","[[2,0,0],[1,3],[0]]","10","0","","","","","","6","","","","","","","","",""
"","","","","","single-stim-button","165","283457","0.0-2.0-40.1-1.1","5c89b77c65b4d70001b40ac3","A3","batch1","","4947","tol_toboard","","","","tol_peg_2","4947","4947","0","[[1,0,0],[3,0],[2]]","2","[[2,0,0],[1,3],[0]]","10","0","","","","","","6","","","","","","","","",""
"","","","","","single-stim-button","166","283796","0.0-2.0-40.2-0.2","5c89b77c65b4d70001b40ac3","A3","batch1","","337","tol_tohand","","","","tol_peg_1","337","337","0","[[0,0,0],[3,0],[2]]","3","[[2,0,0],[1,3],[0]]","10","0","","","","","","6","","","","","","","","",""
"","","","","","single-stim-button","167","284142","0.0-2.0-40.2-1.2","5c89b77c65b4d70001b40ac3","A3","batch1","","345","tol_toboard","","","","tol_peg_2","345","345","0","[[0,0,0],[3,1],[2]]","3","[[2,0,0],[1,3],[0]]","10","0","","","","","","6","","","","","","","","",""
"","","","","","single-stim-button","168","284546","0.0-2.0-40.3-0.3","5c89b77c65b4d70001b40ac3","A3","batch1","","402","tol_tohand","","","","tol_peg_3","402","402","0","[[0,0,0],[3,1],[0]]","4","[[2,0,0],[1,3],[0]]","10","0","","","","","","6","","","","","","","","",""
"","","","","","single-stim-button","169","285015","0.0-2.0-40.3-1.3","5c89b77c65b4d70001b40ac3","A3","batch1","","469","tol_toboard","","","","tol_peg_1","469","469","0","[[2,0,0],[3,1],[0]]","4","[[2,0,0],[1,3],[0]]","10","0","","","","","","6","","","","","","","","",""
"","","","","","single-stim-button","170","285939","0.0-2.0-40.4-0.4","5c89b77c65b4d70001b40ac3","A3","batch1","","923","tol_tohand","","","","tol_peg_2","923","923","0","[[2,0,0],[3,0],[0]]","5","[[2,0,0],[1,3],[0]]","10","0","","","","","","6","","","","","","","","",""
"","","","","","single-stim-button","171","286688","0.0-2.0-40.4-1.4","5c89b77c65b4d70001b40ac3","A3","batch1","","747","tol_toboard","","","","tol_peg_3","747","747","0","[[2,0,0],[3,0],[1]]","5","[[2,0,0],[1,3],[0]]","10","0","","","","","","6","","","","","","","","",""
"","","","","","single-stim-button","172","287414","0.0-2.0-40.5-0.5","5c89b77c65b4d70001b40ac3","A3","batch1","","724","tol_tohand","","","","tol_peg_2","724","724","0","[[2,0,0],[0,0],[1]]","6","[[2,0,0],[1,3],[0]]","10","0","","","","","","6","","","","","","","","",""
"","","","","","single-stim-button","173","288618","0.0-2.0-40.5-1.5","5c89b77c65b4d70001b40ac3","A3","batch1","","1202","tol_toboard","","","","tol_peg_1","1202","1202","0","[[2,3,0],[0,0],[1]]","6","[[2,0,0],[1,3],[0]]","10","0","","","","","","6","","","","","","","","",""
"","","","","","single-stim-button","174","289179","0.0-2.0-40.6-0.6","5c89b77c65b4d70001b40ac3","A3","batch1","","559","tol_tohand","","","","tol_peg_3","559","559","0","[[2,3,0],[0,0],[0]]","7","[[2,0,0],[1,3],[0]]","10","0","","","","","","6","","","","","","","","",""
"","","","","","single-stim-button","175","289467","0.0-2.0-40.6-1.6","5c89b77c65b4d70001b40ac3","A3","batch1","","287","tol_toboard","","","","tol_peg_2","287","287","0","[[2,3,0],[1,0],[0]]","7","[[2,0,0],[1,3],[0]]","10","0","","","","","","6","","","","","","","","",""
"","","","","","single-stim-button","176","290390","0.0-2.0-40.7-0.7","5c89b77c65b4d70001b40ac3","A3","batch1","","923","tol_tohand","","","","tol_peg_1","923","923","0","[[2,0,0],[1,0],[0]]","8","[[2,0,0],[1,3],[0]]","10","0","","","","","","6","","","","","","","","",""
"","","","","","single-stim-button","177","290686","0.0-2.0-40.7-1.7","5c89b77c65b4d70001b40ac3","A3","batch1","","294","tol_toboard","","","","tol_peg_2","294","294","0","[[2,0,0],[1,3],[0]]","8","[[2,0,0],[1,3],[0]]","10","0","","","","","","6","","","","","","","","",""
"","","","","","poldrack-single-stim","178","291693","0.0-2.0-41.0","5c89b77c65b4d70001b40ac3","A3","batch1","","-1","tol_feedback","","","true","","1000","1000","500","","","","","","-1","none","true","1721","6296","","","","","","","","","",""
"","","","","","html-button-response","179","295215","0.0-2.0-42.0","5c89b77c65b4d70001b40ac3","A3","batch1","","3519.400000002235","tol_trial_num","<div class = centerbox><p class = center-block-text>problem <strong>12</strong> out of 25 problems</p></div>","0","","","","","","","","","","","","","","","","","","","","","","","","",""
"","","","","","single-stim-button","180","299761","0.0-2.0-43.0-0.0","5c89b77c65b4d70001b40ac3","A3","batch1","","4544","tol_tohand","","","","tol_peg_1","4544","4544","0","[[1,0,0],[3,0],[0]]","1","[[2,3,0],[0,0],[1]]","11","0","","","","","","4","","","","","","","","",""
"","","","","","single-stim-button","181","300220","0.0-2.0-43.0-1.0","5c89b77c65b4d70001b40ac3","A3","batch1","","458","tol_toboard","","","","tol_peg_2","458","458","0","[[1,0,0],[3,2],[0]]","1","[[2,3,0],[0,0],[1]]","11","0","","","","","","4","","","","","","","","",""
"","","","","","single-stim-button","182","300608","0.0-2.0-43.1-0.1","5c89b77c65b4d70001b40ac3","A3","batch1","","386","tol_tohand","","","","tol_peg_1","386","386","0","[[0,0,0],[3,2],[0]]","2","[[2,3,0],[0,0],[1]]","11","0","","","","","","4","","","","","","","","",""
"","","","","","single-stim-button","183","301300","0.0-2.0-43.1-1.1","5c89b77c65b4d70001b40ac3","A3","batch1","","691","tol_toboard","","","","tol_peg_3","691","691","0","[[0,0,0],[3,2],[1]]","2","[[2,3,0],[0,0],[1]]","11","0","","","","","","4","","","","","","","","",""
"","","","","","single-stim-button","184","302430","0.0-2.0-43.2-0.2","5c89b77c65b4d70001b40ac3","A3","batch1","","1129","tol_tohand","","","","tol_peg_2","1129","1129","0","[[0,0,0],[3,0],[1]]","3","[[2,3,0],[0,0],[1]]","11","0","","","","","","4","","","","","","","","",""
"","","","","","single-stim-button","185","302941","0.0-2.0-43.2-1.2","5c89b77c65b4d70001b40ac3","A3","batch1","","509","tol_toboard","","","","tol_peg_1","509","509","0","[[2,0,0],[3,0],[1]]","3","[[2,3,0],[0,0],[1]]","11","0","","","","","","4","","","","","","","","",""
"","","","","","single-stim-button","186","303304","0.0-2.0-43.3-0.3","5c89b77c65b4d70001b40ac3","A3","batch1","","361","tol_tohand","","","","tol_peg_2","361","361","0","[[2,0,0],[0,0],[1]]","4","[[2,3,0],[0,0],[1]]","11","0","","","","","","4","","","","","","","","",""
"","","","","","single-stim-button","187","303599","0.0-2.0-43.3-1.3","5c89b77c65b4d70001b40ac3","A3","batch1","","295","tol_toboard","","","","tol_peg_1","295","295","0","[[2,3,0],[0,0],[1]]","4","[[2,3,0],[0,0],[1]]","11","0","","","","","","4","","","","","","","","",""
"","","","","","poldrack-single-stim","188","304606","0.0-2.0-44.0","5c89b77c65b4d70001b40ac3","A3","batch1","","-1","tol_feedback","","","true","","1000","1000","500","","","","","","-1","none","true","4544","6420","","","","","","","","","",""
"","","","","","html-button-response","189","305322","0.0-2.0-45.0","5c89b77c65b4d70001b40ac3","A3","batch1","","714.1000000014901","tol_trial_num","<div class = centerbox><p class = center-block-text>problem <strong>13</strong> out of 25 problems</p></div>","0","","","","","","","","","","","","","","","","","","","","","","","","",""
"","","","","","single-stim-button","190","307086","0.0-2.0-46.0-0.0","5c89b77c65b4d70001b40ac3","A3","batch1","","1763","tol_tohand","","","","tol_peg_1","1763","1763","0","[[1,0,0],[3,0],[0]]","1","[[0,0,0],[2,3],[1]]","12","0","","","","","","4","","","","","","","","",""
"","","","","","single-stim-button","191","307589","0.0-2.0-46.0-1.0","5c89b77c65b4d70001b40ac3","A3","batch1","","501","tol_toboard","","","","tol_peg_2","501","501","0","[[1,0,0],[3,2],[0]]","1","[[0,0,0],[2,3],[1]]","12","0","","","","","","4","","","","","","","","",""
"","","","","","single-stim-button","192","308603","0.0-2.0-46.1-0.1","5c89b77c65b4d70001b40ac3","A3","batch1","","1012","tol_tohand","","","","tol_peg_1","1012","1012","0","[[0,0,0],[3,2],[0]]","2","[[0,0,0],[2,3],[1]]","12","0","","","","","","4","","","","","","","","",""
"","","","","","single-stim-button","193","309213","0.0-2.0-46.1-1.1","5c89b77c65b4d70001b40ac3","A3","batch1","","608","tol_toboard","","","","tol_peg_3","608","608","0","[[0,0,0],[3,2],[1]]","2","[[0,0,0],[2,3],[1]]","12","0","","","","","","4","","","","","","","","",""
"","","","","","single-stim-button","194","309715","0.0-2.0-46.2-0.2","5c89b77c65b4d70001b40ac3","A3","batch1","","501","tol_tohand","","","","tol_peg_2","501","501","0","[[0,0,0],[3,0],[1]]","3","[[0,0,0],[2,3],[1]]","12","0","","","","","","4","","","","","","","","",""
"","","","","","single-stim-button","195","310054","0.0-2.0-46.2-1.2","5c89b77c65b4d70001b40ac3","A3","batch1","","337","tol_toboard","","","","tol_peg_1","337","337","0","[[2,0,0],[3,0],[1]]","3","[[0,0,0],[2,3],[1]]","12","0","","","","","","4","","","","","","","","",""
"","","","","","single-stim-button","196","310820","0.0-2.0-46.3-0.3","5c89b77c65b4d70001b40ac3","A3","batch1","","765","tol_tohand","","","","tol_peg_2","765","765","0","[[2,0,0],[0,0],[1]]","4","[[0,0,0],[2,3],[1]]","12","0","","","","","","4","","","","","","","","",""
"","","","","","single-stim-button","197","311159","0.0-2.0-46.3-1.3","5c89b77c65b4d70001b40ac3","A3","batch1","","337","tol_toboard","","","","tol_peg_1","337","337","0","[[2,3,0],[0,0],[1]]","4","[[0,0,0],[2,3],[1]]","12","0","","","","","","4","","","","","","","","",""
"","","","","","single-stim-button","198","313656","0.0-2.0-46.4-0.4","5c89b77c65b4d70001b40ac3","A3","batch1","","2496","tol_tohand","","","","tol_peg_3","2496","2496","0","[[2,3,0],[0,0],[0]]","5","[[0,0,0],[2,3],[1]]","12","0","","","","","","4","","","","","","","","",""
"","","","","","single-stim-button","199","314883","0.0-2.0-46.4-1.4","5c89b77c65b4d70001b40ac3","A3","batch1","","1226","tol_toboard","","","","tol_peg_2","1226","1226","0","[[2,3,0],[1,0],[0]]","5","[[0,0,0],[2,3],[1]]","12","0","","","","","","4","","","","","","","","",""
"","","","","","single-stim-button","200","315237","0.0-2.0-46.5-0.5","5c89b77c65b4d70001b40ac3","A3","batch1","","353","tol_tohand","","","","tol_peg_1","353","353","0","[[2,0,0],[1,0],[0]]","6","[[0,0,0],[2,3],[1]]","12","0","","","","","","4","","","","","","","","",""
"","","","","","single-stim-button","201","315931","0.0-2.0-46.5-1.5","5c89b77c65b4d70001b40ac3","A3","batch1","","693","tol_toboard","","","","tol_peg_3","693","693","0","[[2,0,0],[1,0],[3]]","6","[[0,0,0],[2,3],[1]]","12","0","","","","","","4","","","","","","","","",""
"","","","","","single-stim-button","202","316565","0.0-2.0-46.6-0.6","5c89b77c65b4d70001b40ac3","A3","batch1","","633","tol_tohand","","","","tol_peg_2","633","633","0","[[2,0,0],[0,0],[3]]","7","[[0,0,0],[2,3],[1]]","12","0","","","","","","4","","","","","","","","",""
"","","","","","single-stim-button","203","318593","0.0-2.0-46.6-1.6","5c89b77c65b4d70001b40ac3","A3","batch1","","2026","tol_toboard","","","","tol_peg_2","2026","2026","0","[[2,0,0],[1,0],[3]]","7","[[0,0,0],[2,3],[1]]","12","0","","","","","","4","","","","","","","","",""
"","","","","","single-stim-button","204","319062","0.0-2.0-46.7-0.7","5c89b77c65b4d70001b40ac3","A3","batch1","","469","tol_tohand","","","","tol_peg_1","469","469","0","[[0,0,0],[1,0],[3]]","8","[[0,0,0],[2,3],[1]]","12","0","","","","","","4","","","","","","","","",""
"","","","","","single-stim-button","205","319425","0.0-2.0-46.7-1.7","5c89b77c65b4d70001b40ac3","A3","batch1","","362","tol_toboard","","","","tol_peg_2","362","362","0","[[0,0,0],[1,2],[3]]","8","[[0,0,0],[2,3],[1]]","12","0","","","","","","4","","","","","","","","",""
"","","","","","single-stim-button","206","321437","0.0-2.0-46.8-0.8","5c89b77c65b4d70001b40ac3","A3","batch1","","2010","tol_tohand","","","","tol_peg_2","2010","2010","0","[[0,0,0],[1,0],[3]]","9","[[0,0,0],[2,3],[1]]","12","0","","","","","","4","","","","","","","","",""
"","","","","","single-stim-button","207","323539","0.0-2.0-46.8-1.8","5c89b77c65b4d70001b40ac3","A3","batch1","","2101","tol_toboard","","","","tol_peg_1","2101","2101","0","[[2,0,0],[1,0],[3]]","9","[[0,0,0],[2,3],[1]]","12","0","","","","","","4","","","","","","","","",""
"","","","","","single-stim-button","208","324272","0.0-2.0-46.9-0.9","5c89b77c65b4d70001b40ac3","A3","batch1","","731","tol_tohand","","","","tol_peg_3","731","731","0","[[2,0,0],[1,0],[0]]","10","[[0,0,0],[2,3],[1]]","12","0","","","","","","4","","","","","","","","",""
"","","","","","single-stim-button","209","325022","0.0-2.0-46.9-1.9","5c89b77c65b4d70001b40ac3","A3","batch1","","750","tol_toboard","","","","tol_peg_2","750","750","0","[[2,0,0],[1,3],[0]]","10","[[0,0,0],[2,3],[1]]","12","0","","","","","","4","","","","","","","","",""
"","","","","","single-stim-button","210","325384","0.0-2.0-46.10-0.10","5c89b77c65b4d70001b40ac3","A3","batch1","","361","tol_tohand","","","","tol_peg_1","361","361","0","[[0,0,0],[1,3],[0]]","11","[[0,0,0],[2,3],[1]]","12","0","","","","","","4","","","","","","","","",""
"","","","","","single-stim-button","211","325954","0.0-2.0-46.10-1.10","5c89b77c65b4d70001b40ac3","A3","batch1","","568","tol_toboard","","","","tol_peg_3","568","568","0","[[0,0,0],[1,3],[2]]","11","[[0,0,0],[2,3],[1]]","12","0","","","","","","4","","","","","","","","",""
"","","","","","single-stim-button","212","326836","0.0-2.0-46.11-0.11","5c89b77c65b4d70001b40ac3","A3","batch1","","881","tol_tohand","","","","tol_peg_2","881","881","0","[[0,0,0],[1,0],[2]]","12","[[0,0,0],[2,3],[1]]","12","0","","","","","","4","","","","","","","","",""
"","","","","","single-stim-button","213","327182","0.0-2.0-46.11-1.11","5c89b77c65b4d70001b40ac3","A3","batch1","","345","tol_toboard","","","","tol_peg_1","345","345","0","[[3,0,0],[1,0],[2]]","12","[[0,0,0],[2,3],[1]]","12","0","","","","","","4","","","","","","","","",""
"","","","","","single-stim-button","214","327841","0.0-2.0-46.12-0.12","5c89b77c65b4d70001b40ac3","A3","batch1","","657","tol_tohand","","","","tol_peg_2","657","657","0","[[3,0,0],[0,0],[2]]","13","[[0,0,0],[2,3],[1]]","12","0","","","","","","4","","","","","","","","",""
"","","","","","single-stim-button","215","328171","0.0-2.0-46.12-1.12","5c89b77c65b4d70001b40ac3","A3","batch1","","329","tol_toboard","","","","tol_peg_1","329","329","0","[[3,1,0],[0,0],[2]]","13","[[0,0,0],[2,3],[1]]","12","0","","","","","","4","","","","","","","","",""
"","","","","","single-stim-button","216","328996","0.0-2.0-46.13-0.13","5c89b77c65b4d70001b40ac3","A3","batch1","","824","tol_tohand","","","","tol_peg_3","824","824","0","[[3,1,0],[0,0],[0]]","14","[[0,0,0],[2,3],[1]]","12","0","","","","","","4","","","","","","","","",""
"","","","","","single-stim-button","217","329325","0.0-2.0-46.13-1.13","5c89b77c65b4d70001b40ac3","A3","batch1","","328","tol_toboard","","","","tol_peg_2","328","328","0","[[3,1,0],[2,0],[0]]","14","[[0,0,0],[2,3],[1]]","12","0","","","","","","4","","","","","","","","",""
"","","","","","single-stim-button","218","329910","0.0-2.0-46.14-0.14","5c89b77c65b4d70001b40ac3","A3","batch1","","584","tol_tohand","","","","tol_peg_1","584","584","0","[[3,0,0],[2,0],[0]]","15","[[0,0,0],[2,3],[1]]","12","0","","","","","","4","","","","","","","","",""
"","","","","","single-stim-button","219","330463","0.0-2.0-46.14-1.14","5c89b77c65b4d70001b40ac3","A3","batch1","","551","tol_toboard","","","","tol_peg_3","551","551","0","[[3,0,0],[2,0],[1]]","15","[[0,0,0],[2,3],[1]]","12","0","","","","","","4","","","","","","","","",""
"","","","","","single-stim-button","220","331790","0.0-2.0-46.15-0.15","5c89b77c65b4d70001b40ac3","A3","batch1","","1325","tol_tohand","","","","tol_peg_1","1325","1325","0","[[0,0,0],[2,0],[1]]","16","[[0,0,0],[2,3],[1]]","12","0","","","","","","4","","","","","","","","",""
"","","","","","single-stim-button","221","332077","0.0-2.0-46.15-1.15","5c89b77c65b4d70001b40ac3","A3","batch1","","286","tol_toboard","","","","tol_peg_2","286","286","0","[[0,0,0],[2,3],[1]]","16","[[0,0,0],[2,3],[1]]","12","0","","","","","","4","","","","","","","","",""
"","","","","","poldrack-single-stim","222","333086","0.0-2.0-47.0","5c89b77c65b4d70001b40ac3","A3","batch1","","-1","tol_feedback","","","true","","1000","1000","500","","","","","","-1","none","true","1763","15365","","","","","","","","","",""
"","","","","","html-button-response","223","335836","0.0-2.0-48.0","5c89b77c65b4d70001b40ac3","A3","batch1","","2748.39999999851","attention_check","<p class = block-text>How many balls are in your board<br></p>","1","true","","","","","","","","","","","","","","","","","","","","","","","",""
"","","","","","html-button-response","224","336826","0.0-2.0-49.0","5c89b77c65b4d70001b40ac3","A3","batch1","","987.1000000014901","tol_trial_num","<div class = centerbox><p class = center-block-text>problem <strong>14</strong> out of 25 problems</p></div>","0","","","","","","","","","","","","","","","","","","","","","","","","",""
"","","","","","single-stim-button","225","340479","0.0-2.0-50.0-0.0","5c89b77c65b4d70001b40ac3","A3","batch1","","3652","tol_tohand","","","","tol_peg_1","3652","3652","0","[[2,0,0],[3,0],[0]]","1","[[1,2,0],[3,0],[0]]","13","0","","","","","","4","","","","","","","","",""
"","","","","","single-stim-button","226","343883","0.0-2.0-50.0-1.0","5c89b77c65b4d70001b40ac3","A3","batch1","","3403","tol_toboard","","","","tol_peg_3","3403","3403","0","[[2,0,0],[3,0],[1]]","1","[[1,2,0],[3,0],[0]]","13","0","","","","","","4","","","","","","","","",""
"","","","","","single-stim-button","227","344487","0.0-2.0-50.1-0.1","5c89b77c65b4d70001b40ac3","A3","batch1","","602","tol_tohand","","","","tol_peg_1","602","602","0","[[0,0,0],[3,0],[1]]","2","[[1,2,0],[3,0],[0]]","13","0","","","","","","4","","","","","","","","",""
"","","","","","single-stim-button","228","344847","0.0-2.0-50.1-1.1","5c89b77c65b4d70001b40ac3","A3","batch1","","360","tol_toboard","","","","tol_peg_2","360","360","0","[[0,0,0],[3,2],[1]]","2","[[1,2,0],[3,0],[0]]","13","0","","","","","","4","","","","","","","","",""
"","","","","","single-stim-button","229","345391","0.0-2.0-50.2-0.2","5c89b77c65b4d70001b40ac3","A3","batch1","","543","tol_tohand","","","","tol_peg_3","543","543","0","[[0,0,0],[3,2],[0]]","3","[[1,2,0],[3,0],[0]]","13","0","","","","","","4","","","","","","","","",""
"","","","","","single-stim-button","230","346364","0.0-2.0-50.2-1.2","5c89b77c65b4d70001b40ac3","A3","batch1","","971","tol_toboard","","","","tol_peg_1","971","971","0","[[1,0,0],[3,2],[0]]","3","[[1,2,0],[3,0],[0]]","13","0","","","","","","4","","","","","","","","",""
"","","","","","single-stim-button","231","346768","0.0-2.0-50.3-0.3","5c89b77c65b4d70001b40ac3","A3","batch1","","403","tol_tohand","","","","tol_peg_2","403","403","0","[[1,0,0],[3,0],[0]]","4","[[1,2,0],[3,0],[0]]","13","0","","","","","","4","","","","","","","","",""
"","","","","","single-stim-button","232","347123","0.0-2.0-50.3-1.3","5c89b77c65b4d70001b40ac3","A3","batch1","","353","tol_toboard","","","","tol_peg_1","353","353","0","[[1,2,0],[3,0],[0]]","4","[[1,2,0],[3,0],[0]]","13","0","","","","","","4","","","","","","","","",""
"","","","","","poldrack-single-stim","233","348134","0.0-2.0-51.0","5c89b77c65b4d70001b40ac3","A3","batch1","","-1","tol_feedback","","","true","","1000","1000","500","","","","","","-1","none","true","3652","5200","","","","","","","","","",""
"","","","","","html-button-response","234","348927","0.0-2.0-52.0","5c89b77c65b4d70001b40ac3","A3","batch1","","791.7999999970198","tol_trial_num","<div class = centerbox><p class = center-block-text>problem <strong>15</strong> out of 25 problems</p></div>","0","","","","","","","","","","","","","","","","","","","","","","","","",""
"","","","","","single-stim-button","235","351656","0.0-2.0-53.0-0.0","5c89b77c65b4d70001b40ac3","A3","batch1","","2726","tol_tohand","","","","tol_peg_1","2726","2726","0","[[1,0,0],[3,0],[0]]","1","[[2,0,0],[3,0],[1]]","14","0","","","","","","3","","","","","","","","",""
"","","","","","single-stim-button","236","352274","0.0-2.0-53.0-1.0","5c89b77c65b4d70001b40ac3","A3","batch1","","616","tol_toboard","","","","tol_peg_2","616","616","0","[[1,0,0],[3,2],[0]]","1","[[2,0,0],[3,0],[1]]","14","0","","","","","","3","","","","","","","","",""
"","","","","","single-stim-button","237","352587","0.0-2.0-53.1-0.1","5c89b77c65b4d70001b40ac3","A3","batch1","","312","tol_tohand","","","","tol_peg_1","312","312","0","[[0,0,0],[3,2],[0]]","2","[[2,0,0],[3,0],[1]]","14","0","","","","","","3","","","","","","","","",""
"","","","","","single-stim-button","238","353370","0.0-2.0-53.1-1.1","5c89b77c65b4d70001b40ac3","A3","batch1","","781","tol_toboard","","","","tol_peg_3","781","781","0","[[0,0,0],[3,2],[1]]","2","[[2,0,0],[3,0],[1]]","14","0","","","","","","3","","","","","","","","",""
"","","","","","single-stim-button","239","353972","0.0-2.0-53.2-0.2","5c89b77c65b4d70001b40ac3","A3","batch1","","600","tol_tohand","","","","tol_peg_2","600","600","0","[[0,0,0],[3,0],[1]]","3","[[2,0,0],[3,0],[1]]","14","0","","","","","","3","","","","","","","","",""
"","","","","","single-stim-button","240","354327","0.0-2.0-53.2-1.2","5c89b77c65b4d70001b40ac3","A3","batch1","","354","tol_toboard","","","","tol_peg_1","354","354","0","[[2,0,0],[3,0],[1]]","3","[[2,0,0],[3,0],[1]]","14","0","","","","","","3","","","","","","","","",""
"","","","","","poldrack-single-stim","241","355342","0.0-2.0-54.0","5c89b77c65b4d70001b40ac3","A3","batch1","","-1","tol_feedback","","","true","","1000","1000","500","","","","","","-1","none","true","2726","3638","","","","","","","","","",""
"","","","","","html-button-response","242","355868","0.0-2.0-55.0","5c89b77c65b4d70001b40ac3","A3","batch1","","524.8000000007451","tol_trial_num","<div class = centerbox><p class = center-block-text>problem <strong>16</strong> out of 25 problems</p></div>","0","","","","","","","","","","","","","","","","","","","","","","","","",""
"","","","","","single-stim-button","243","364068","0.0-2.0-56.0-0.0","5c89b77c65b4d70001b40ac3","A3","batch1","","8198","tol_tohand","","","","tol_peg_3","8198","8198","0","[[0,0,0],[2,3],[0]]","1","[[2,3,0],[1,0],[0]]","15","0","","","","","","7","","","","","","","","",""
"","","","","","single-stim-button","244","364934","0.0-2.0-56.0-1.0","5c89b77c65b4d70001b40ac3","A3","batch1","","864","tol_toboard","","","","tol_peg_1","864","864","0","[[1,0,0],[2,3],[0]]","1","[[2,3,0],[1,0],[0]]","15","0","","","","","","7","","","","","","","","",""
"","","","","","single-stim-button","245","365428","0.0-2.0-56.1-0.1","5c89b77c65b4d70001b40ac3","A3","batch1","","493","tol_tohand","","","","tol_peg_2","493","493","0","[[1,0,0],[2,0],[0]]","2","[[2,3,0],[1,0],[0]]","15","0","","","","","","7","","","","","","","","",""
"","","","","","single-stim-button","246","365832","0.0-2.0-56.1-1.1","5c89b77c65b4d70001b40ac3","A3","batch1","","402","tol_toboard","","","","tol_peg_3","402","402","0","[[1,0,0],[2,0],[3]]","2","[[2,3,0],[1,0],[0]]","15","0","","","","","","7","","","","","","","","",""
"","","","","","single-stim-button","247","368338","0.0-2.0-56.2-0.2","5c89b77c65b4d70001b40ac3","A3","batch1","","2504","tol_tohand","","","","tol_peg_2","2504","2504","0","[[1,0,0],[0,0],[3]]","3","[[2,3,0],[1,0],[0]]","15","0","","","","","","7","","","","","","","","",""
"","","","","","single-stim-button","248","368841","0.0-2.0-56.2-1.2","5c89b77c65b4d70001b40ac3","A3","batch1","","502","tol_toboard","","","","tol_peg_1","502","502","0","[[1,2,0],[0,0],[3]]","3","[[2,3,0],[1,0],[0]]","15","0","","","","","","7","","","","","","","","",""
"","","","","","single-stim-button","249","370095","0.0-2.0-56.3-0.3","5c89b77c65b4d70001b40ac3","A3","batch1","","1252","tol_tohand","","","","tol_peg_3","1252","1252","0","[[1,2,0],[0,0],[0]]","4","[[2,3,0],[1,0],[0]]","15","0","","","","","","7","","","","","","","","",""
"","","","","","single-stim-button","250","370415","0.0-2.0-56.3-1.3","5c89b77c65b4d70001b40ac3","A3","batch1","","319","tol_toboard","","","","tol_peg_2","319","319","0","[[1,2,0],[3,0],[0]]","4","[[2,3,0],[1,0],[0]]","15","0","","","","","","7","","","","","","","","",""
"","","","","","single-stim-button","251","371891","0.0-2.0-56.4-0.4","5c89b77c65b4d70001b40ac3","A3","batch1","","1475","tol_tohand","","","","tol_peg_1","1475","1475","0","[[1,0,0],[3,0],[0]]","5","[[2,3,0],[1,0],[0]]","15","0","","","","","","7","","","","","","","","",""
"","","","","","single-stim-button","252","374381","0.0-2.0-56.4-1.4","5c89b77c65b4d70001b40ac3","A3","batch1","","2488","tol_toboard","","","","tol_peg_2","2488","2488","0","[[1,0,0],[3,2],[0]]","5","[[2,3,0],[1,0],[0]]","15","0","","","","","","7","","","","","","","","",""
"","","","","","single-stim-button","253","374746","0.0-2.0-56.5-0.5","5c89b77c65b4d70001b40ac3","A3","batch1","","363","tol_tohand","","","","tol_peg_1","363","363","0","[[0,0,0],[3,2],[0]]","6","[[2,3,0],[1,0],[0]]","15","0","","","","","","7","","","","","","","","",""
"","","","","","single-stim-button","254","375267","0.0-2.0-56.5-1.5","5c89b77c65b4d70001b40ac3","A3","batch1","","521","tol_toboard","","","","tol_peg_3","521","521","0","[[0,0,0],[3,2],[1]]","6","[[2,3,0],[1,0],[0]]","15","0","","","","","","7","","","","","","","","",""
"","","","","","single-stim-button","255","375830","0.0-2.0-56.6-0.6","5c89b77c65b4d70001b40ac3","A3","batch1","","563","tol_tohand","","","","tol_peg_2","563","563","0","[[0,0,0],[3,0],[1]]","7","[[2,3,0],[1,0],[0]]","15","0","","","","","","7","","","","","","","","",""
"","","","","","single-stim-button","256","376885","0.0-2.0-56.6-1.6","5c89b77c65b4d70001b40ac3","A3","batch1","","1054","tol_toboard","","","","tol_peg_1","1054","1054","0","[[2,0,0],[3,0],[1]]","7","[[2,3,0],[1,0],[0]]","15","0","","","","","","7","","","","","","","","",""
"","","","","","single-stim-button","257","377315","0.0-2.0-56.7-0.7","5c89b77c65b4d70001b40ac3","A3","batch1","","429","tol_tohand","","","","tol_peg_2","429","429","0","[[2,0,0],[0,0],[1]]","8","[[2,3,0],[1,0],[0]]","15","0","","","","","","7","","","","","","","","",""
"","","","","","single-stim-button","258","377684","0.0-2.0-56.7-1.7","5c89b77c65b4d70001b40ac3","A3","batch1","","368","tol_toboard","","","","tol_peg_1","368","368","0","[[2,3,0],[0,0],[1]]","8","[[2,3,0],[1,0],[0]]","15","0","","","","","","7","","","","","","","","",""
"","","","","","single-stim-button","259","378494","0.0-2.0-56.8-0.8","5c89b77c65b4d70001b40ac3","A3","batch1","","808","tol_tohand","","","","tol_peg_3","808","808","0","[[2,3,0],[0,0],[0]]","9","[[2,3,0],[1,0],[0]]","15","0","","","","","","7","","","","","","","","",""
"","","","","","single-stim-button","260","378808","0.0-2.0-56.8-1.8","5c89b77c65b4d70001b40ac3","A3","batch1","","312","tol_toboard","","","","tol_peg_2","312","312","0","[[2,3,0],[1,0],[0]]","9","[[2,3,0],[1,0],[0]]","15","0","","","","","","7","","","","","","","","",""
"","","","","","poldrack-single-stim","261","379817","0.0-2.0-57.0","5c89b77c65b4d70001b40ac3","A3","batch1","","-1","tol_feedback","","","true","","1000","1000","500","","","","","","-1","none","true","8198","16085","","","","","","","","","",""
"","","","","","html-button-response","262","384212","0.0-2.0-58.0","5c89b77c65b4d70001b40ac3","A3","batch1","","4393.300000000745","tol_trial_num","<div class = centerbox><p class = center-block-text>problem <strong>17</strong> out of 25 problems</p></div>","0","","","","","","","","","","","","","","","","","","","","","","","","",""
"","","","","","single-stim-button","263","387097","0.0-2.0-59.0-0.0","5c89b77c65b4d70001b40ac3","A3","batch1","","2883","tol_tohand","","","","tol_peg_1","2883","2883","0","[[1,0,0],[3,0],[0]]","1","[[3,1,0],[2,0],[0]]","16","0","","","","","","5","","","","","","","","",""
"","","","","","single-stim-button","264","388376","0.0-2.0-59.0-1.0","5c89b77c65b4d70001b40ac3","A3","batch1","","1277","tol_toboard","","","","tol_peg_3","1277","1277","0","[[1,0,0],[3,0],[2]]","1","[[3,1,0],[2,0],[0]]","16","0","","","","","","5","","","","","","","","",""
"","","","","","single-stim-button","265","393124","0.0-2.0-59.1-0.1","5c89b77c65b4d70001b40ac3","A3","batch1","","4748","tol_tohand","","","","tol_peg_1","4748","4748","0","[[0,0,0],[3,0],[2]]","2","[[3,1,0],[2,0],[0]]","16","0","","","","","","5","","","","","","","","",""
"","","","","","single-stim-button","266","393569","0.0-2.0-59.1-1.1","5c89b77c65b4d70001b40ac3","A3","batch1","","444","tol_toboard","","","","tol_peg_2","444","444","0","[[0,0,0],[3,1],[2]]","2","[[3,1,0],[2,0],[0]]","16","0","","","","","","5","","","","","","","","",""
"","","","","","single-stim-button","267","394534","0.0-2.0-59.2-0.2","5c89b77c65b4d70001b40ac3","A3","batch1","","964","tol_tohand","","","","tol_peg_2","964","964","0","[[0,0,0],[3,0],[2]]","3","[[3,1,0],[2,0],[0]]","16","0","","","","","","5","","","","","","","","",""
"","","","","","single-stim-button","268","395267","0.0-2.0-59.2-1.2","5c89b77c65b4d70001b40ac3","A3","batch1","","732","tol_toboard","","","","tol_peg_1","732","732","0","[[1,0,0],[3,0],[2]]","3","[[3,1,0],[2,0],[0]]","16","0","","","","","","5","","","","","","","","",""
"","","","","","single-stim-button","269","395876","0.0-2.0-59.3-0.3","5c89b77c65b4d70001b40ac3","A3","batch1","","608","tol_tohand","","","","tol_peg_3","608","608","0","[[1,0,0],[3,0],[0]]","4","[[3,1,0],[2,0],[0]]","16","0","","","","","","5","","","","","","","","",""
"","","","","","single-stim-button","270","396989","0.0-2.0-59.3-1.3","5c89b77c65b4d70001b40ac3","A3","batch1","","1112","tol_toboard","","","","tol_peg_2","1112","1112","0","[[1,0,0],[3,2],[0]]","4","[[3,1,0],[2,0],[0]]","16","0","","","","","","5","","","","","","","","",""
"","","","","","single-stim-button","271","397336","0.0-2.0-59.4-0.4","5c89b77c65b4d70001b40ac3","A3","batch1","","345","tol_tohand","","","","tol_peg_1","345","345","0","[[0,0,0],[3,2],[0]]","5","[[3,1,0],[2,0],[0]]","16","0","","","","","","5","","","","","","","","",""
"","","","","","single-stim-button","272","397855","0.0-2.0-59.4-1.4","5c89b77c65b4d70001b40ac3","A3","batch1","","518","tol_toboard","","","","tol_peg_3","518","518","0","[[0,0,0],[3,2],[1]]","5","[[3,1,0],[2,0],[0]]","16","0","","","","","","5","","","","","","","","",""
"","","","","","single-stim-button","273","398837","0.0-2.0-59.5-0.5","5c89b77c65b4d70001b40ac3","A3","batch1","","980","tol_tohand","","","","tol_peg_2","980","980","0","[[0,0,0],[3,0],[1]]","6","[[3,1,0],[2,0],[0]]","16","0","","","","","","5","","","","","","","","",""
"","","","","","single-stim-button","274","399125","0.0-2.0-59.5-1.5","5c89b77c65b4d70001b40ac3","A3","batch1","","287","tol_toboard","","","","tol_peg_1","287","287","0","[[2,0,0],[3,0],[1]]","6","[[3,1,0],[2,0],[0]]","16","0","","","","","","5","","","","","","","","",""
"","","","","","single-stim-button","275","399570","0.0-2.0-59.6-0.6","5c89b77c65b4d70001b40ac3","A3","batch1","","443","tol_tohand","","","","tol_peg_2","443","443","0","[[2,0,0],[0,0],[1]]","7","[[3,1,0],[2,0],[0]]","16","0","","","","","","5","","","","","","","","",""
"","","","","","single-stim-button","276","400740","0.0-2.0-59.6-1.6","5c89b77c65b4d70001b40ac3","A3","batch1","","1169","tol_toboard","","","","tol_peg_1","1169","1169","0","[[2,3,0],[0,0],[1]]","7","[[3,1,0],[2,0],[0]]","16","0","","","","","","5","","","","","","","","",""
"","","","","","single-stim-button","277","401714","0.0-2.0-59.7-0.7","5c89b77c65b4d70001b40ac3","A3","batch1","","972","tol_tohand","","","","tol_peg_3","972","972","0","[[2,3,0],[0,0],[0]]","8","[[3,1,0],[2,0],[0]]","16","0","","","","","","5","","","","","","","","",""
"","","","","","single-stim-button","278","402034","0.0-2.0-59.7-1.7","5c89b77c65b4d70001b40ac3","A3","batch1","","320","tol_toboard","","","","tol_peg_2","320","320","0","[[2,3,0],[1,0],[0]]","8","[[3,1,0],[2,0],[0]]","16","0","","","","","","5","","","","","","","","",""
"","","","","","single-stim-button","279","402827","0.0-2.0-59.8-0.8","5c89b77c65b4d70001b40ac3","A3","batch1","","792","tol_tohand","","","","tol_peg_1","792","792","0","[[2,0,0],[1,0],[0]]","9","[[3,1,0],[2,0],[0]]","16","0","","","","","","5","","","","","","","","",""
"","","","","","single-stim-button","280","403502","0.0-2.0-59.8-1.8","5c89b77c65b4d70001b40ac3","A3","batch1","","673","tol_toboard","","","","tol_peg_3","673","673","0","[[2,0,0],[1,0],[3]]","9","[[3,1,0],[2,0],[0]]","16","0","","","","","","5","","","","","","","","",""
"","","","","","single-stim-button","281","404120","0.0-2.0-59.9-0.9","5c89b77c65b4d70001b40ac3","A3","batch1","","617","tol_tohand","","","","tol_peg_1","617","617","0","[[0,0,0],[1,0],[3]]","10","[[3,1,0],[2,0],[0]]","16","0","","","","","","5","","","","","","","","",""
"","","","","","single-stim-button","282","404830","0.0-2.0-59.9-1.9","5c89b77c65b4d70001b40ac3","A3","batch1","","708","tol_toboard","","","","tol_peg_2","708","708","0","[[0,0,0],[1,2],[3]]","10","[[3,1,0],[2,0],[0]]","16","0","","","","","","5","","","","","","","","",""
"","","","","","single-stim-button","283","405595","0.0-2.0-59.10-0.10","5c89b77c65b4d70001b40ac3","A3","batch1","","764","tol_tohand","","","","tol_peg_3","764","764","0","[[0,0,0],[1,2],[0]]","11","[[3,1,0],[2,0],[0]]","16","0","","","","","","5","","","","","","","","",""
"","","","","","single-stim-button","284","406115","0.0-2.0-59.10-1.10","5c89b77c65b4d70001b40ac3","A3","batch1","","518","tol_toboard","","","","tol_peg_1","518","518","0","[[3,0,0],[1,2],[0]]","11","[[3,1,0],[2,0],[0]]","16","0","","","","","","5","","","","","","","","",""
"","","","","","single-stim-button","285","406898","0.0-2.0-59.11-0.11","5c89b77c65b4d70001b40ac3","A3","batch1","","781","tol_tohand","","","","tol_peg_2","781","781","0","[[3,0,0],[1,0],[0]]","12","[[3,1,0],[2,0],[0]]","16","0","","","","","","5","","","","","","","","",""
"","","","","","single-stim-button","286","407301","0.0-2.0-59.11-1.11","5c89b77c65b4d70001b40ac3","A3","batch1","","401","tol_toboard","","","","tol_peg_3","401","401","0","[[3,0,0],[1,0],[2]]","12","[[3,1,0],[2,0],[0]]","16","0","","","","","","5","","","","","","","","",""
"","","","","","single-stim-button","287","407705","0.0-2.0-59.12-0.12","5c89b77c65b4d70001b40ac3","A3","batch1","","403","tol_tohand","","","","tol_peg_2","403","403","0","[[3,0,0],[0,0],[2]]","13","[[3,1,0],[2,0],[0]]","16","0","","","","","","5","","","","","","","","",""
"","","","","","single-stim-button","288","408794","0.0-2.0-59.12-1.12","5c89b77c65b4d70001b40ac3","A3","batch1","","1088","tol_toboard","","","","tol_peg_1","1088","1088","0","[[3,1,0],[0,0],[2]]","13","[[3,1,0],[2,0],[0]]","16","0","","","","","","5","","","","","","","","",""
"","","","","","single-stim-button","289","409774","0.0-2.0-59.13-0.13","5c89b77c65b4d70001b40ac3","A3","batch1","","978","tol_tohand","","","","tol_peg_3","978","978","0","[[3,1,0],[0,0],[0]]","14","[[3,1,0],[2,0],[0]]","16","0","","","","","","5","","","","","","","","",""
"","","","","","single-stim-button","290","410037","0.0-2.0-59.13-1.13","5c89b77c65b4d70001b40ac3","A3","batch1","","263","tol_toboard","","","","tol_peg_2","263","263","0","[[3,1,0],[2,0],[0]]","14","[[3,1,0],[2,0],[0]]","16","0","","","","","","5","","","","","","","","",""
"","","","","","poldrack-single-stim","291","411043","0.0-2.0-60.0","5c89b77c65b4d70001b40ac3","A3","batch1","","-1","tol_feedback","","","true","","1000","1000","500","","","","","","-1","none","true","2883","16278","","","","","","","","","",""
"","","","","","html-button-response","292","411702","0.0-2.0-61.0","5c89b77c65b4d70001b40ac3","A3","batch1","","657.7000000029802","tol_trial_num","<div class = centerbox><p class = center-block-text>problem <strong>18</strong> out of 25 problems</p></div>","0","","","","","","","","","","","","","","","","","","","","","","","","",""
"","","","","","single-stim-button","293","413738","0.0-2.0-62.0-0.0","5c89b77c65b4d70001b40ac3","A3","batch1","","2034","tol_tohand","","","","tol_peg_1","2034","2034","0","[[1,0,0],[3,0],[0]]","1","[[3,0,0],[2,0],[1]]","17","0","","","","","","5","","","","","","","","",""
"","","","","","single-stim-button","294","415700","0.0-2.0-62.0-1.0","5c89b77c65b4d70001b40ac3","A3","batch1","","1961","tol_toboard","","","","tol_peg_3","1961","1961","0","[[1,0,0],[3,0],[2]]","1","[[3,0,0],[2,0],[1]]","17","0","","","","","","5","","","","","","","","",""
"","","","","","single-stim-button","295","417621","0.0-2.0-62.1-0.1","5c89b77c65b4d70001b40ac3","A3","batch1","","1919","tol_tohand","","","","tol_peg_1","1919","1919","0","[[0,0,0],[3,0],[2]]","2","[[3,0,0],[2,0],[1]]","17","0","","","","","","5","","","","","","","","",""
"","","","","","single-stim-button","296","419920","0.0-2.0-62.1-1.1","5c89b77c65b4d70001b40ac3","A3","batch1","","2297","tol_toboard","","","","tol_peg_2","2297","2297","0","[[0,0,0],[3,1],[2]]","2","[[3,0,0],[2,0],[1]]","17","0","","","","","","5","","","","","","","","",""
"","","","","","single-stim-button","297","420975","0.0-2.0-62.2-0.2","5c89b77c65b4d70001b40ac3","A3","batch1","","1054","tol_tohand","","","","tol_peg_3","1054","1054","0","[[0,0,0],[3,1],[0]]","3","[[3,0,0],[2,0],[1]]","17","0","","","","","","5","","","","","","","","",""
"","","","","","single-stim-button","298","421939","0.0-2.0-62.2-1.2","5c89b77c65b4d70001b40ac3","A3","batch1","","963","tol_toboard","","","","tol_peg_1","963","963","0","[[2,0,0],[3,1],[0]]","3","[[3,0,0],[2,0],[1]]","17","0","","","","","","5","","","","","","","","",""
"","","","","","single-stim-button","299","422634","0.0-2.0-62.3-0.3","5c89b77c65b4d70001b40ac3","A3","batch1","","693","tol_tohand","","","","tol_peg_2","693","693","0","[[2,0,0],[3,0],[0]]","4","[[3,0,0],[2,0],[1]]","17","0","","","","","","5","","","","","","","","",""
"","","","","","single-stim-button","300","423119","0.0-2.0-62.3-1.3","5c89b77c65b4d70001b40ac3","A3","batch1","","483","tol_toboard","","","","tol_peg_3","483","483","0","[[2,0,0],[3,0],[1]]","4","[[3,0,0],[2,0],[1]]","17","0","","","","","","5","","","","","","","","",""
"","","","","","single-stim-button","301","425493","0.0-2.0-62.4-0.4","5c89b77c65b4d70001b40ac3","A3","batch1","","2373","tol_tohand","","","","tol_peg_2","2373","2373","0","[[2,0,0],[0,0],[1]]","5","[[3,0,0],[2,0],[1]]","17","0","","","","","","5","","","","","","","","",""
"","","","","","single-stim-button","302","425946","0.0-2.0-62.4-1.4","5c89b77c65b4d70001b40ac3","A3","batch1","","452","tol_toboard","","","","tol_peg_1","452","452","0","[[2,3,0],[0,0],[1]]","5","[[3,0,0],[2,0],[1]]","17","0","","","","","","5","","","","","","","","",""
"","","","","","single-stim-button","303","427150","0.0-2.0-62.5-0.5","5c89b77c65b4d70001b40ac3","A3","batch1","","1203","tol_tohand","","","","tol_peg_3","1203","1203","0","[[2,3,0],[0,0],[0]]","6","[[3,0,0],[2,0],[1]]","17","0","","","","","","5","","","","","","","","",""
"","","","","","single-stim-button","304","428600","0.0-2.0-62.5-1.5","5c89b77c65b4d70001b40ac3","A3","batch1","","1448","tol_toboard","","","","tol_peg_2","1448","1448","0","[[2,3,0],[1,0],[0]]","6","[[3,0,0],[2,0],[1]]","17","0","","","","","","5","","","","","","","","",""
"","","","","","single-stim-button","305","429044","0.0-2.0-62.6-0.6","5c89b77c65b4d70001b40ac3","A3","batch1","","444","tol_tohand","","","","tol_peg_1","444","444","0","[[2,0,0],[1,0],[0]]","7","[[3,0,0],[2,0],[1]]","17","0","","","","","","5","","","","","","","","",""
"","","","","","single-stim-button","306","429614","0.0-2.0-62.6-1.6","5c89b77c65b4d70001b40ac3","A3","batch1","","568","tol_toboard","","","","tol_peg_3","568","568","0","[[2,0,0],[1,0],[3]]","7","[[3,0,0],[2,0],[1]]","17","0","","","","","","5","","","","","","","","",""
"","","","","","single-stim-button","307","430240","0.0-2.0-62.7-0.7","5c89b77c65b4d70001b40ac3","A3","batch1","","624","tol_tohand","","","","tol_peg_1","624","624","0","[[0,0,0],[1,0],[3]]","8","[[3,0,0],[2,0],[1]]","17","0","","","","","","5","","","","","","","","",""
"","","","","","single-stim-button","308","431056","0.0-2.0-62.7-1.7","5c89b77c65b4d70001b40ac3","A3","batch1","","814","tol_toboard","","","","tol_peg_2","814","814","0","[[0,0,0],[1,2],[3]]","8","[[3,0,0],[2,0],[1]]","17","0","","","","","","5","","","","","","","","",""
"","","","","","single-stim-button","309","432061","0.0-2.0-62.8-0.8","5c89b77c65b4d70001b40ac3","A3","batch1","","1004","tol_tohand","","","","tol_peg_3","1004","1004","0","[[0,0,0],[1,2],[0]]","9","[[3,0,0],[2,0],[1]]","17","0","","","","","","5","","","","","","","","",""
"","","","","","single-stim-button","310","433166","0.0-2.0-62.8-1.8","5c89b77c65b4d70001b40ac3","A3","batch1","","1104","tol_toboard","","","","tol_peg_1","1104","1104","0","[[3,0,0],[1,2],[0]]","9","[[3,0,0],[2,0],[1]]","17","0","","","","","","5","","","","","","","","",""
"","","","","","single-stim-button","311","433603","0.0-2.0-62.9-0.9","5c89b77c65b4d70001b40ac3","A3","batch1","","436","tol_tohand","","","","tol_peg_2","436","436","0","[[3,0,0],[1,0],[0]]","10","[[3,0,0],[2,0],[1]]","17","0","","","","","","5","","","","","","","","",""
"","","","","","single-stim-button","312","434097","0.0-2.0-62.9-1.9","5c89b77c65b4d70001b40ac3","A3","batch1","","493","tol_toboard","","","","tol_peg_3","493","493","0","[[3,0,0],[1,0],[2]]","10","[[3,0,0],[2,0],[1]]","17","0","","","","","","5","","","","","","","","",""
"","","","","","single-stim-button","313","435862","0.0-2.0-62.10-0.10","5c89b77c65b4d70001b40ac3","A3","batch1","","1763","tol_tohand","","","","tol_peg_2","1763","1763","0","[[3,0,0],[0,0],[2]]","11","[[3,0,0],[2,0],[1]]","17","0","","","","","","5","","","","","","","","",""
"","","","","","single-stim-button","314","437116","0.0-2.0-62.10-1.10","5c89b77c65b4d70001b40ac3","A3","batch1","","1252","tol_toboard","","","","tol_peg_1","1252","1252","0","[[3,1,0],[0,0],[2]]","11","[[3,0,0],[2,0],[1]]","17","0","","","","","","5","","","","","","","","",""
"","","","","","single-stim-button","315","437709","0.0-2.0-62.11-0.11","5c89b77c65b4d70001b40ac3","A3","batch1","","591","tol_tohand","","","","tol_peg_3","591","591","0","[[3,1,0],[0,0],[0]]","12","[[3,0,0],[2,0],[1]]","17","0","","","","","","5","","","","","","","","",""
"","","","","","single-stim-button","316","438103","0.0-2.0-62.11-1.11","5c89b77c65b4d70001b40ac3","A3","batch1","","392","tol_toboard","","","","tol_peg_2","392","392","0","[[3,1,0],[2,0],[0]]","12","[[3,0,0],[2,0],[1]]","17","0","","","","","","5","","","","","","","","",""
"","","","","","single-stim-button","317","438560","0.0-2.0-62.12-0.12","5c89b77c65b4d70001b40ac3","A3","batch1","","456","tol_tohand","","","","tol_peg_1","456","456","0","[[3,0,0],[2,0],[0]]","13","[[3,0,0],[2,0],[1]]","17","0","","","","","","5","","","","","","","","",""
"","","","","","single-stim-button","318","439043","0.0-2.0-62.12-1.12","5c89b77c65b4d70001b40ac3","A3","batch1","","481","tol_toboard","","","","tol_peg_3","481","481","0","[[3,0,0],[2,0],[1]]","13","[[3,0,0],[2,0],[1]]","17","0","","","","","","5","","","","","","","","",""
"","","","","","poldrack-single-stim","319","440050","0.0-2.0-63.0","5c89b77c65b4d70001b40ac3","A3","batch1","","-1","tol_feedback","","","true","","1000","1000","500","","","","","","-1","none","true","2034","14594","","","","","","","","","",""
"","","","","","html-button-response","320","440988","0.0-2.0-64.0","5c89b77c65b4d70001b40ac3","A3","batch1","","936.5","tol_trial_num","<div class = centerbox><p class = center-block-text>problem <strong>19</strong> out of 25 problems</p></div>","0","","","","","","","","","","","","","","","","","","","","","","","","",""
"","","","","","single-stim-button","321","444908","0.0-2.0-65.0-0.0","5c89b77c65b4d70001b40ac3","A3","batch1","","3918","tol_tohand","","","","tol_peg_1","3918","3918","0","[[1,0,0],[3,0],[0]]","1","[[0,0,0],[1,2],[3]]","18","0","","","","","","7","","","","","","","","",""
"","","","","","single-stim-button","322","446688","0.0-2.0-65.0-1.0","5c89b77c65b4d70001b40ac3","A3","batch1","","1778","tol_toboard","","","","tol_peg_3","1778","1778","0","[[1,0,0],[3,0],[2]]","1","[[0,0,0],[1,2],[3]]","18","0","","","","","","7","","","","","","","","",""
"","","","","","single-stim-button","323","447982","0.0-2.0-65.1-0.1","5c89b77c65b4d70001b40ac3","A3","batch1","","1292","tol_tohand","","","","tol_peg_1","1292","1292","0","[[0,0,0],[3,0],[2]]","2","[[0,0,0],[1,2],[3]]","18","0","","","","","","7","","","","","","","","",""
"","","","","","single-stim-button","324","450306","0.0-2.0-65.1-1.1","5c89b77c65b4d70001b40ac3","A3","batch1","","2323","tol_toboard","","","","tol_peg_1","2323","2323","0","[[1,0,0],[3,0],[2]]","2","[[0,0,0],[1,2],[3]]","18","0","","","","","","7","","","","","","","","",""
"","","","","","single-stim-button","325","451419","0.0-2.0-65.2-0.2","5c89b77c65b4d70001b40ac3","A3","batch1","","1111","tol_tohand","","","","tol_peg_2","1111","1111","0","[[1,0,0],[0,0],[2]]","3","[[0,0,0],[1,2],[3]]","18","0","","","","","","7","","","","","","","","",""
"","","","","","single-stim-button","326","452094","0.0-2.0-65.2-1.2","5c89b77c65b4d70001b40ac3","A3","batch1","","674","tol_toboard","","","","tol_peg_1","674","674","0","[[1,3,0],[0,0],[2]]","3","[[0,0,0],[1,2],[3]]","18","0","","","","","","7","","","","","","","","",""
"","","","","","single-stim-button","327","453380","0.0-2.0-65.3-0.3","5c89b77c65b4d70001b40ac3","A3","batch1","","1285","tol_tohand","","","","tol_peg_3","1285","1285","0","[[1,3,0],[0,0],[0]]","4","[[0,0,0],[1,2],[3]]","18","0","","","","","","7","","","","","","","","",""
"","","","","","single-stim-button","328","453726","0.0-2.0-65.3-1.3","5c89b77c65b4d70001b40ac3","A3","batch1","","345","tol_toboard","","","","tol_peg_2","345","345","0","[[1,3,0],[2,0],[0]]","4","[[0,0,0],[1,2],[3]]","18","0","","","","","","7","","","","","","","","",""
"","","","","","single-stim-button","329","454179","0.0-2.0-65.4-0.4","5c89b77c65b4d70001b40ac3","A3","batch1","","452","tol_tohand","","","","tol_peg_1","452","452","0","[[1,0,0],[2,0],[0]]","5","[[0,0,0],[1,2],[3]]","18","0","","","","","","7","","","","","","","","",""
"","","","","","single-stim-button","330","454815","0.0-2.0-65.4-1.4","5c89b77c65b4d70001b40ac3","A3","batch1","","635","tol_toboard","","","","tol_peg_3","635","635","0","[[1,0,0],[2,0],[3]]","5","[[0,0,0],[1,2],[3]]","18","0","","","","","","7","","","","","","","","",""
"","","","","","single-stim-button","331","455334","0.0-2.0-65.5-0.5","5c89b77c65b4d70001b40ac3","A3","batch1","","517","tol_tohand","","","","tol_peg_1","517","517","0","[[0,0,0],[2,0],[3]]","6","[[0,0,0],[1,2],[3]]","18","0","","","","","","7","","","","","","","","",""
"","","","","","single-stim-button","332","456306","0.0-2.0-65.5-1.5","5c89b77c65b4d70001b40ac3","A3","batch1","","971","tol_toboard","","","","tol_peg_2","971","971","0","[[0,0,0],[2,1],[3]]","6","[[0,0,0],[1,2],[3]]","18","0","","","","","","7","","","","","","","","",""
"","","","","","single-stim-button","333","458192","0.0-2.0-65.6-0.6","5c89b77c65b4d70001b40ac3","A3","batch1","","1885","tol_tohand","","","","tol_peg_3","1885","1885","0","[[0,0,0],[2,1],[0]]","7","[[0,0,0],[1,2],[3]]","18","0","","","","","","7","","","","","","","","",""
"","","","","","single-stim-button","334","459273","0.0-2.0-65.6-1.6","5c89b77c65b4d70001b40ac3","A3","batch1","","1080","tol_toboard","","","","tol_peg_1","1080","1080","0","[[3,0,0],[2,1],[0]]","7","[[0,0,0],[1,2],[3]]","18","0","","","","","","7","","","","","","","","",""
"","","","","","single-stim-button","335","459843","0.0-2.0-65.7-0.7","5c89b77c65b4d70001b40ac3","A3","batch1","","568","tol_tohand","","","","tol_peg_2","568","568","0","[[3,0,0],[2,0],[0]]","8","[[0,0,0],[1,2],[3]]","18","0","","","","","","7","","","","","","","","",""
"","","","","","single-stim-button","336","460230","0.0-2.0-65.7-1.7","5c89b77c65b4d70001b40ac3","A3","batch1","","386","tol_toboard","","","","tol_peg_3","386","386","0","[[3,0,0],[2,0],[1]]","8","[[0,0,0],[1,2],[3]]","18","0","","","","","","7","","","","","","","","",""
"","","","","","single-stim-button","337","463469","0.0-2.0-65.8-0.8","5c89b77c65b4d70001b40ac3","A3","batch1","","3238","tol_tohand","","","","tol_peg_2","3238","3238","0","[[3,0,0],[0,0],[1]]","9","[[0,0,0],[1,2],[3]]","18","0","","","","","","7","","","","","","","","",""
"","","","","","single-stim-button","338","463980","0.0-2.0-65.8-1.8","5c89b77c65b4d70001b40ac3","A3","batch1","","509","tol_toboard","","","","tol_peg_1","509","509","0","[[3,2,0],[0,0],[1]]","9","[[0,0,0],[1,2],[3]]","18","0","","","","","","7","","","","","","","","",""
"","","","","","single-stim-button","339","464639","0.0-2.0-65.9-0.9","5c89b77c65b4d70001b40ac3","A3","batch1","","657","tol_tohand","","","","tol_peg_3","657","657","0","[[3,2,0],[0,0],[0]]","10","[[0,0,0],[1,2],[3]]","18","0","","","","","","7","","","","","","","","",""
"","","","","","single-stim-button","340","464985","0.0-2.0-65.9-1.9","5c89b77c65b4d70001b40ac3","A3","batch1","","346","tol_toboard","","","","tol_peg_2","346","346","0","[[3,2,0],[1,0],[0]]","10","[[0,0,0],[1,2],[3]]","18","0","","","","","","7","","","","","","","","",""
"","","","","","single-stim-button","341","465810","0.0-2.0-65.10-0.10","5c89b77c65b4d70001b40ac3","A3","batch1","","823","tol_tohand","","","","tol_peg_1","823","823","0","[[3,0,0],[1,0],[0]]","11","[[0,0,0],[1,2],[3]]","18","0","","","","","","7","","","","","","","","",""
"","","","","","single-stim-button","342","466205","0.0-2.0-65.10-1.10","5c89b77c65b4d70001b40ac3","A3","batch1","","394","tol_toboard","","","","tol_peg_2","394","394","0","[[3,0,0],[1,2],[0]]","11","[[0,0,0],[1,2],[3]]","18","0","","","","","","7","","","","","","","","",""
"","","","","","single-stim-button","343","466527","0.0-2.0-65.11-0.11","5c89b77c65b4d70001b40ac3","A3","batch1","","320","tol_tohand","","","","tol_peg_1","320","320","0","[[0,0,0],[1,2],[0]]","12","[[0,0,0],[1,2],[3]]","18","0","","","","","","7","","","","","","","","",""
"","","","","","single-stim-button","344","467111","0.0-2.0-65.11-1.11","5c89b77c65b4d70001b40ac3","A3","batch1","","583","tol_toboard","","","","tol_peg_3","583","583","0","[[0,0,0],[1,2],[3]]","12","[[0,0,0],[1,2],[3]]","18","0","","","","","","7","","","","","","","","",""
"","","","","","poldrack-single-stim","345","468122","0.0-2.0-66.0","5c89b77c65b4d70001b40ac3","A3","batch1","","-1","tol_feedback","","","true","","1000","1000","500","","","","","","-1","none","true","3918","16066","","","","","","","","","",""
"","","","","","html-button-response","346","470475","0.0-2.0-67.0","5c89b77c65b4d70001b40ac3","A3","batch1","","2350.2999999970198","tol_trial_num","<div class = centerbox><p class = center-block-text>problem <strong>20</strong> out of 25 problems</p></div>","0","","","","","","","","","","","","","","","","","","","","","","","","",""
"","","","","","single-stim-button","347","483276","0.0-2.0-68.0-0.0","5c89b77c65b4d70001b40ac3","A3","batch1","","12799","tol_tohand","","","","tol_peg_1","12799","12799","0","[[1,0,0],[3,0],[0]]","1","[[2,1,0],[0,0],[3]]","19","0","","","","","","5","","","","","","","","",""
"","","","","","single-stim-button","348","483960","0.0-2.0-68.0-1.0","5c89b77c65b4d70001b40ac3","A3","batch1","","682","tol_toboard","","","","tol_peg_3","682","682","0","[[1,0,0],[3,0],[2]]","1","[[2,1,0],[0,0],[3]]","19","0","","","","","","5","","","","","","","","",""
"","","","","","single-stim-button","349","484618","0.0-2.0-68.1-0.1","5c89b77c65b4d70001b40ac3","A3","batch1","","657","tol_tohand","","","","tol_peg_1","657","657","0","[[0,0,0],[3,0],[2]]","2","[[2,1,0],[0,0],[3]]","19","0","","","","","","5","","","","","","","","",""
"","","","","","single-stim-button","350","485723","0.0-2.0-68.1-1.1","5c89b77c65b4d70001b40ac3","A3","batch1","","1103","tol_toboard","","","","tol_peg_2","1103","1103","0","[[0,0,0],[3,1],[2]]","2","[[2,1,0],[0,0],[3]]","19","0","","","","","","5","","","","","","","","",""
"","","","","","single-stim-button","351","486127","0.0-2.0-68.2-0.2","5c89b77c65b4d70001b40ac3","A3","batch1","","403","tol_tohand","","","","tol_peg_3","403","403","0","[[0,0,0],[3,1],[0]]","3","[[2,1,0],[0,0],[3]]","19","0","","","","","","5","","","","","","","","",""
"","","","","","single-stim-button","352","486507","0.0-2.0-68.2-1.2","5c89b77c65b4d70001b40ac3","A3","batch1","","380","tol_toboard","","","","tol_peg_1","380","380","0","[[2,0,0],[3,1],[0]]","3","[[2,1,0],[0,0],[3]]","19","0","","","","","","5","","","","","","","","",""
"","","","","","single-stim-button","353","487422","0.0-2.0-68.3-0.3","5c89b77c65b4d70001b40ac3","A3","batch1","","913","tol_tohand","","","","tol_peg_2","913","913","0","[[2,0,0],[3,0],[0]]","4","[[2,1,0],[0,0],[3]]","19","0","","","","","","5","","","","","","","","",""
"","","","","","single-stim-button","354","487735","0.0-2.0-68.3-1.3","5c89b77c65b4d70001b40ac3","A3","batch1","","312","tol_toboard","","","","tol_peg_1","312","312","0","[[2,1,0],[3,0],[0]]","4","[[2,1,0],[0,0],[3]]","19","0","","","","","","5","","","","","","","","",""
"","","","","","single-stim-button","355","488155","0.0-2.0-68.4-0.4","5c89b77c65b4d70001b40ac3","A3","batch1","","419","tol_tohand","","","","tol_peg_2","419","419","0","[[2,1,0],[0,0],[0]]","5","[[2,1,0],[0,0],[3]]","19","0","","","","","","5","","","","","","","","",""
"","","","","","single-stim-button","356","488617","0.0-2.0-68.4-1.4","5c89b77c65b4d70001b40ac3","A3","batch1","","461","tol_toboard","","","","tol_peg_3","461","461","0","[[2,1,0],[0,0],[3]]","5","[[2,1,0],[0,0],[3]]","19","0","","","","","","5","","","","","","","","",""
