"success","timeout","failed_images","failed_audio","failed_video","trial_type","trial_index","time_elapsed","internal_node_id","subject_id","study_id","session_id","view_history","rt","stimulus","response","task","correct","answer","item","fiar_detect_rt","fiar_detect_correct","total_correct_fiar_detect","post_trial_gap","choices","mouse_click","stim_duration","block_duration","timing_post_trial","current_position","tol_num_moves_made","tol_target","tol_problem_id","tol_rt","key_press","possible_responses","tol_correct","preplanning","tol_rt_per_trial","tol_min_moves","spm_correct","spm_rt"
"true","false","[]","[]","[]","preload","0","12998","0.0-0.0","5c8be0dd542fbd0016924f5f","D2","batch4","","","","","","","","","","","","","","","","","","","","","","","","","","","","","",""
"true","","","","","fullscreen","1","18032","0.0-1.0-0.0","5c8be0dd542fbd0016924f5f","D2","batch4","","","","","","","","","","","","","","","","","","","","","","","","","","","","","",""
"true","","","","","fullscreen","2","23152","0.0-2.0-0.0","5c8be0dd542fbd0016924f5f","D2","batch4","","","","","","","","","","","","","","","","","","","","","","","","","","","","","",""
"","","","","","instructions","3","50383","0.0-2.0-1.0-0.0","5c8be0dd542fbd0016924f5f","D2","batch4","[{""page_index"":0,""viewing_time"":19179.40000000596},{""page_index"":1,""viewing_time"":8049.899999991059}]","27229.60000000894","","","","","","","","","","","","","","","","","","","","","","","","","","","",""
"","","","","","html-button-response","4","51864","0.0-2.0-1.0-1.0-0.0","5c8be0dd542fbd0016924f5f","D2","batch4","","1479.7999999970198","<p class=block-text> Let's answer a few questions <br>","0","pattern_enter_quiz","","","","","","","","","","","","","","","","","","","","","","","","",""
"","","","","","html-button-response","5","55028","0.0-2.0-1.0-1.0-1.0","5c8be0dd542fbd0016924f5f","D2","batch4","","3163.2999999970198","<p class = block-text>True or False: You will have as much time as you want to make each choice. <br></p>","1","pattern_quiz","true","","","","","","","","","","","","","","","","","","","","","","","",""
"","","","","","html-button-response","6","56247","0.0-2.0-1.0-1.0-2.0","5c8be0dd542fbd0016924f5f","D2","batch4","","1217.7999999970198","<p class = block-text>Correct! You should make your choice <strong> as fast as you can</strong>.</p>","0","pattern_quiz_feedback","","","","","","","","","","","","","","","","","","","","","","","","",""
"","","","","","html-button-response","7","63541","0.0-2.0-1.0-1.0-3.0","5c8be0dd542fbd0016924f5f","D2","batch4","","7293.20000000298","<p class = block-text>True or False: You will look for 4 pieces in black or white color connected in a row either horizontally, vertically or diagonally. <br></p>","0","pattern_quiz","true","","","","","","","","","","","","","","","","","","","","","","","",""
"","","","","","html-button-response","8","64287","0.0-2.0-1.0-1.0-4.0","5c8be0dd542fbd0016924f5f","D2","batch4","","744.2999999970198","<p class = block-text>Correct! </p>","0","pattern_quiz_feedback","","","","","","","","","","","","","","","","","","","","","","","","",""
"","","","","","html-button-response","9","66265","0.0-2.0-2.0","5c8be0dd542fbd0016924f5f","D2","batch4","","1976.300000011921","<p class=block-text> Now that you've understood the game, let's do a few practice trials before we start!<br> <br>","0","pattern_enter_practice","","","","","","","","","","","","","","","","","","","","","","","","",""
"","","","","","image-keyboard-response","10","71001","0.0-2.0-3.0-0.0","5c8be0dd542fbd0016924f5f","D2","batch4","","4728.699999988079","stim/prac_yes_18_hor_w1.png","f","pattern_practice","true","f","","","","","","","","","","","","","","","","","","","","","","",""
"","","","","","html-keyboard-response","11","72009","0.0-2.0-3.0-1.0","5c8be0dd542fbd0016924f5f","D2","batch4","","null","<p style=""font-size:30px;color:green;"">Correct!</p>","null","pattern_feedback","","","","","","","","","","","","","","","","","","","","","","","","",""
"","","","","","image-keyboard-response","12","73094","0.0-2.0-3.0-0.1","5c8be0dd542fbd0016924f5f","D2","batch4","","1084.1000000089407","stim/prac_yes_16_ver_w1.png","f","pattern_practice","true","f","","","","","","","","","","","","","","","","","","","","","","",""
"","","","","","html-keyboard-response","13","74104","0.0-2.0-3.0-1.1","5c8be0dd542fbd0016924f5f","D2","batch4","","null","<p style=""font-size:30px;color:green;"">Correct!</p>","null","pattern_feedback","","","","","","","","","","","","","","","","","","","","","","","","",""
"","","","","","image-keyboard-response","14","75204","0.0-2.0-3.0-0.2","5c8be0dd542fbd0016924f5f","D2","batch4","","1098.5999999940395","stim/prac_no_16_1.png","j","pattern_practice","true","j","","","","","","","","","","","","","","","","","","","","","","",""
"","","","","","html-keyboard-response","15","76215","0.0-2.0-3.0-1.2","5c8be0dd542fbd0016924f5f","D2","batch4","","null","<p style=""font-size:30px;color:green;"">Correct!</p>","null","pattern_feedback","","","","","","","","","","","","","","","","","","","","","","","","",""
"","","","","","image-keyboard-response","16","77811","0.0-2.0-3.0-0.3","5c8be0dd542fbd0016924f5f","D2","batch4","","1594.300000011921","stim/prac_no_18_1.png","j","pattern_practice","true","j","","","","","","","","","","","","","","","","","","","","","","",""
"","","","","","html-keyboard-response","17","78824","0.0-2.0-3.0-1.3","5c8be0dd542fbd0016924f5f","D2","batch4","","null","<p style=""font-size:30px;color:green;"">Correct!</p>","null","pattern_feedback","","","","","","","","","","","","","","","","","","","","","","","","",""
"","","","","","image-keyboard-response","18","80658","0.0-2.0-3.0-0.4","5c8be0dd542fbd0016924f5f","D2","batch4","","1832.2000000029802","stim/prac_yes_20_dia_b1.png","f","pattern_practice","true","f","","","","","","","","","","","","","","","","","","","","","","",""
"","","","","","html-keyboard-response","19","81666","0.0-2.0-3.0-1.4","5c8be0dd542fbd0016924f5f","D2","batch4","","null","<p style=""font-size:30px;color:green;"">Correct!</p>","null","pattern_feedback","","","","","","","","","","","","","","","","","","","","","","","","",""
"","","","","","html-button-response","20","87004","0.0-2.0-4.0","5c8be0dd542fbd0016924f5f","D2","batch4","","5335.600000008941","<p class=block-text> Good job! You are done with practice trials!<br>
        You responded correctly on 100% of the trials.<br>
        Press the button below to start official trials. Now you won't see any feedback about your response</p>","0","pattern_enter_official_trials","","","","","","","","","","","","","","","","","","","","","","","","",""
"","","","","","html-keyboard-response","21","87809","0.0-2.0-5.0-0.0","5c8be0dd542fbd0016924f5f","D2","batch4","","null","<p class=block-text>Trial 1 out of 78</p>","null","pattern_show_trial_num","","","","","","","","","","","","","","","","","","","","","","","","",""
"","","","","","image-keyboard-response","22","89863","0.0-2.0-5.0-1.0","5c8be0dd542fbd0016924f5f","D2","batch4","","2051.7000000029802","stim/no_18_1_b.png","j","pattern_response","true","j","pattern_05","2051.7000000029802","true","1","","","","","","","","","","","","","","","","","","",""
"","","","","","html-keyboard-response","23","91177","0.0-2.0-5.0-0.1","5c8be0dd542fbd0016924f5f","D2","batch4","","null","<p class=block-text>Trial 2 out of 78</p>","null","pattern_show_trial_num","","","","","","","","","","","","","","","","","","","","","","","","",""
"","","","","","image-keyboard-response","24","92539","0.0-2.0-5.0-1.1","5c8be0dd542fbd0016924f5f","D2","batch4","","1360.5","stim/no_22_1_b.png","j","pattern_response","true","j","pattern_07","1360.5","true","2","","","","","","","","","","","","","","","","","","",""
"","","","","","html-keyboard-response","25","93859","0.0-2.0-5.0-0.2","5c8be0dd542fbd0016924f5f","D2","batch4","","null","<p class=block-text>Trial 3 out of 78</p>","null","pattern_show_trial_num","","","","","","","","","","","","","","","","","","","","","","","","",""
"","","","","","image-keyboard-response","26","98406","0.0-2.0-5.0-1.2","5c8be0dd542fbd0016924f5f","D2","batch4","","4544.800000011921","stim/yes_58_dia_w1_w.png","j","pattern_response","false","f","pattern_76","4544.800000011921","false","2","","","","","","","","","","","","","","","","","","",""
"","","","","","html-keyboard-response","27","99720","0.0-2.0-5.0-0.3","5c8be0dd542fbd0016924f5f","D2","batch4","","null","<p class=block-text>Trial 4 out of 78</p>","null","pattern_show_trial_num","","","","","","","","","","","","","","","","","","","","","","","","",""
"","","","","","image-keyboard-response","28","101356","0.0-2.0-5.0-1.3","5c8be0dd542fbd0016924f5f","D2","batch4","","1634.4000000059605","stim/no_30_1_b.png","j","pattern_response","true","j","pattern_13","1634.4000000059605","true","3","","","","","","","","","","","","","","","","","","",""
"","","","","","html-keyboard-response","29","102671","0.0-2.0-5.0-0.4","5c8be0dd542fbd0016924f5f","D2","batch4","","null","<p class=block-text>Trial 5 out of 78</p>","null","pattern_show_trial_num","","","","","","","","","","","","","","","","","","","","","","","","",""
"","","","","","image-keyboard-response","30","105612","0.0-2.0-5.0-1.4","5c8be0dd542fbd0016924f5f","D2","batch4","","2939.3999999910593","stim/no_28_2.png","f","pattern_response","false","j","pattern_11","2939.3999999910593","false","3","","","","","","","","","","","","","","","","","","",""
"","","","","","html-keyboard-response","31","106928","0.0-2.0-5.0-0.5","5c8be0dd542fbd0016924f5f","D2","batch4","","null","<p class=block-text>Trial 6 out of 78</p>","null","pattern_show_trial_num","","","","","","","","","","","","","","","","","","","","","","","","",""
"","","","","","image-keyboard-response","32","112091","0.0-2.0-5.0-1.5","5c8be0dd542fbd0016924f5f","D2","batch4","","5161.29999999702","stim/no_53_1_b.png","j","pattern_response","true","j","pattern_33","5161.29999999702","true","4","","","","","","","","","","","","","","","","","","",""
"","","","","","html-keyboard-response","33","113412","0.0-2.0-5.0-0.6","5c8be0dd542fbd0016924f5f","D2","batch4","","null","<p class=block-text>Trial 7 out of 78</p>","null","pattern_show_trial_num","","","","","","","","","","","","","","","","","","","","","","","","",""
"","","","","","image-keyboard-response","34","117684","0.0-2.0-5.0-1.6","5c8be0dd542fbd0016924f5f","D2","batch4","","4271","stim/no_49_2_b.png","j","pattern_response","true","j","pattern_29","4271","true","5","","","","","","","","","","","","","","","","","","",""
"","","","","","html-keyboard-response","35","119003","0.0-2.0-5.0-0.7","5c8be0dd542fbd0016924f5f","D2","batch4","","null","<p class=block-text>Trial 8 out of 78</p>","null","pattern_show_trial_num","","","","","","","","","","","","","","","","","","","","","","","","",""
"","","","","","image-keyboard-response","36","120474","0.0-2.0-5.0-1.7","5c8be0dd542fbd0016924f5f","D2","batch4","","1469.4000000059605","stim/yes_46_ver_b1_b.png","f","pattern_response","true","f","pattern_68","1469.4000000059605","true","6","","","","","","","","","","","","","","","","","","",""
"","","","","","html-keyboard-response","37","121786","0.0-2.0-5.0-0.8","5c8be0dd542fbd0016924f5f","D2","batch4","","null","<p class=block-text>Trial 9 out of 78</p>","null","pattern_show_trial_num","","","","","","","","","","","","","","","","","","","","","","","","",""
"","","","","","image-keyboard-response","38","122622","0.0-2.0-5.0-1.8","5c8be0dd542fbd0016924f5f","D2","batch4","","834.3999999910593","stim/yes_39_hor_w1_w.png","f","pattern_response","true","f","pattern_62","834.3999999910593","true","7","","","","","","","","","","","","","","","","","","",""
"","","","","","html-keyboard-response","39","123935","0.0-2.0-5.0-0.9","5c8be0dd542fbd0016924f5f","D2","batch4","","null","<p class=block-text>Trial 10 out of 78</p>","null","pattern_show_trial_num","","","","","","","","","","","","","","","","","","","","","","","","",""
"","","","","","image-keyboard-response","40","127316","0.0-2.0-5.0-1.9","5c8be0dd542fbd0016924f5f","D2","batch4","","3380.2000000029802","stim/no_33_1_b.png","j","pattern_response","true","j","pattern_15","3380.2000000029802","true","8","","","","","","","","","","","","","","","","","","",""
"","","","","","html-keyboard-response","41","128634","0.0-2.0-5.0-0.10","5c8be0dd542fbd0016924f5f","D2","batch4","","null","<p class=block-text>Trial 11 out of 78</p>","null","pattern_show_trial_num","","","","","","","","","","","","","","","","","","","","","","","","",""
"","","","","","image-keyboard-response","42","133199","0.0-2.0-5.0-1.10","5c8be0dd542fbd0016924f5f","D2","batch4","","4563.199999988079","stim/no_45_1_w.png","j","pattern_response","true","j","pattern_25","4563.199999988079","true","9","","","","","","","","","","","","","","","","","","",""
"","","","","","html-keyboard-response","43","134511","0.0-2.0-5.0-0.11","5c8be0dd542fbd0016924f5f","D2","batch4","","null","<p class=block-text>Trial 12 out of 78</p>","null","pattern_show_trial_num","","","","","","","","","","","","","","","","","","","","","","","","",""
"","","","","","image-keyboard-response","44","135507","0.0-2.0-5.0-1.11","5c8be0dd542fbd0016924f5f","D2","batch4","","994.0999999940395","stim/yes_49_hor_w1_b.png","f","pattern_response","true","f","pattern_70","994.0999999940395","true","10","","","","","","","","","","","","","","","","","","",""
"","","","","","html-keyboard-response","45","136824","0.0-2.0-5.0-0.12","5c8be0dd542fbd0016924f5f","D2","batch4","","null","<p class=block-text>Trial 13 out of 78</p>","null","pattern_show_trial_num","","","","","","","","","","","","","","","","","","","","","","","","",""
"","","","","","image-keyboard-response","46","140207","0.0-2.0-5.0-1.12","5c8be0dd542fbd0016924f5f","D2","batch4","","3381.800000011921","stim/no_58_1_w.png","j","pattern_response","true","j","pattern_35","3381.800000011921","true","11","","","","","","","","","","","","","","","","","","",""
"","","","","","html-keyboard-response","47","141522","0.0-2.0-5.0-0.13","5c8be0dd542fbd0016924f5f","D2","batch4","","null","<p class=block-text>Trial 14 out of 78</p>","null","pattern_show_trial_num","","","","","","","","","","","","","","","","","","","","","","","","",""
"","","","","","image-keyboard-response","48","142583","0.0-2.0-5.0-1.13","5c8be0dd542fbd0016924f5f","D2","batch4","","1059.2000000029802","stim/no_15_1_w.png","j","pattern_response","true","j","pattern_03","1059.2000000029802","true","12","","","","","","","","","","","","","","","","","","",""
"","","","","","html-keyboard-response","49","143896","0.0-2.0-5.0-0.14","5c8be0dd542fbd0016924f5f","D2","batch4","","null","<p class=block-text>Trial 15 out of 78</p>","null","pattern_show_trial_num","","","","","","","","","","","","","","","","","","","","","","","","",""
"","","","","","image-keyboard-response","50","146949","0.0-2.0-5.0-1.14","5c8be0dd542fbd0016924f5f","D2","batch4","","3051.5","stim/no_47_1_b.png","j","pattern_response","true","j","pattern_27","3051.5","true","13","","","","","","","","","","","","","","","","","","",""
"","","","","","html-keyboard-response","51","148264","0.0-2.0-5.0-0.15","5c8be0dd542fbd0016924f5f","D2","batch4","","null","<p class=block-text>Trial 16 out of 78</p>","null","pattern_show_trial_num","","","","","","","","","","","","","","","","","","","","","","","","",""
"","","","","","image-keyboard-response","52","149266","0.0-2.0-5.0-1.15","5c8be0dd542fbd0016924f5f","D2","batch4","","1000.2000000029802","stim/yes_33_dia_w1_w.png","f","pattern_response","true","f","pattern_56","1000.2000000029802","true","14","","","","","","","","","","","","","","","","","","",""
"","","","","","html-keyboard-response","53","150576","0.0-2.0-5.0-0.16","5c8be0dd542fbd0016924f5f","D2","batch4","","null","<p class=block-text>Trial 17 out of 78</p>","null","pattern_show_trial_num","","","","","","","","","","","","","","","","","","","","","","","","",""
"","","","","","image-keyboard-response","54","151614","0.0-2.0-5.0-1.16","5c8be0dd542fbd0016924f5f","D2","batch4","","1037","stim/no_12_1.png","j","pattern_response","true","j","pattern_01","1037","true","15","","","","","","","","","","","","","","","","","","",""
"","","","","","html-keyboard-response","55","152927","0.0-2.0-5.0-0.17","5c8be0dd542fbd0016924f5f","D2","batch4","","null","<p class=block-text>Trial 18 out of 78</p>","null","pattern_show_trial_num","","","","","","","","","","","","","","","","","","","","","","","","",""
"","","","","","image-keyboard-response","56","153725","0.0-2.0-5.0-1.17","5c8be0dd542fbd0016924f5f","D2","batch4","","796.7000000029802","stim/yes_26_dia_w2_w.png","f","pattern_response","true","f","pattern_50","796.7000000029802","true","16","","","","","","","","","","","","","","","","","","",""
"","","","","","html-keyboard-response","57","155040","0.0-2.0-5.0-0.18","5c8be0dd542fbd0016924f5f","D2","batch4","","null","<p class=block-text>Trial 19 out of 78</p>","null","pattern_show_trial_num","","","","","","","","","","","","","","","","","","","","","","","","",""
"","","","","","image-keyboard-response","58","158260","0.0-2.0-5.0-1.18","5c8be0dd542fbd0016924f5f","D2","batch4","","3218.9000000059605","stim/yes_42_dia_w1_w.png","f","pattern_response","true","f","pattern_64","3218.9000000059605","true","17","","","","","","","","","","","","","","","","","","",""
"","","","","","html-keyboard-response","59","159576","0.0-2.0-5.0-0.19","5c8be0dd542fbd0016924f5f","D2","batch4","","null","<p class=block-text>Trial 20 out of 78</p>","null","pattern_show_trial_num","","","","","","","","","","","","","","","","","","","","","","","","",""
"","","","","","image-keyboard-response","60","160285","0.0-2.0-5.0-1.19","5c8be0dd542fbd0016924f5f","D2","batch4","","707.2999999970198","stim/yes_15_dia_b1u_b.png","f","pattern_response","true","f","pattern_44","707.2999999970198","true","18","","","","","","","","","","","","","","","","","","",""
"","","","","","html-keyboard-response","61","161594","0.0-2.0-5.0-0.20","5c8be0dd542fbd0016924f5f","D2","batch4","","null","<p class=block-text>Trial 21 out of 78</p>","null","pattern_show_trial_num","","","","","","","","","","","","","","","","","","","","","","","","",""
"","","","","","image-keyboard-response","62","162221","0.0-2.0-5.0-1.20","5c8be0dd542fbd0016924f5f","D2","batch4","","625.2999999970198","stim/yes_12_hor_w1_w.png","f","pattern_response","true","f","pattern_42","625.2999999970198","true","19","","","","","","","","","","","","","","","","","","",""
"","","","","","html-keyboard-response","63","163536","0.0-2.0-5.0-0.21","5c8be0dd542fbd0016924f5f","D2","batch4","","null","<p class=block-text>Trial 22 out of 78</p>","null","pattern_show_trial_num","","","","","","","","","","","","","","","","","","","","","","","","",""
"","","","","","image-keyboard-response","64","165033","0.0-2.0-5.0-1.21","5c8be0dd542fbd0016924f5f","D2","batch4","","1496.2000000029802","stim/yes_51_dia_b1.png","f","pattern_response","true","f","pattern_72","1496.2000000029802","true","20","","","","","","","","","","","","","","","","","","",""
"","","","","","html-keyboard-response","65","166344","0.0-2.0-5.0-0.22","5c8be0dd542fbd0016924f5f","D2","batch4","","null","<p class=block-text>Trial 23 out of 78</p>","null","pattern_show_trial_num","","","","","","","","","","","","","","","","","","","","","","","","",""
"","","","","","image-keyboard-response","66","167373","0.0-2.0-5.0-1.22","5c8be0dd542fbd0016924f5f","D2","batch4","","1028.2000000029802","stim/yes_30_ver_b1_b.png","f","pattern_response","true","f","pattern_54","1028.2000000029802","true","21","","","","","","","","","","","","","","","","","","",""
"","","","","","html-keyboard-response","67","168691","0.0-2.0-5.0-0.23","5c8be0dd542fbd0016924f5f","D2","batch4","","null","<p class=block-text>Trial 24 out of 78</p>","null","pattern_show_trial_num","","","","","","","","","","","","","","","","","","","","","","","","",""
"","","","","","image-keyboard-response","68","174646","0.0-2.0-5.0-1.23","5c8be0dd542fbd0016924f5f","D2","batch4","","5954","stim/no_67_1.png","f","pattern_response","false","j","pattern_39","5954","false","21","","","","","","","","","","","","","","","","","","",""
"","","","","","html-keyboard-response","69","175962","0.0-2.0-5.0-0.24","5c8be0dd542fbd0016924f5f","D2","batch4","","null","<p class=block-text>Trial 25 out of 78</p>","null","pattern_show_trial_num","","","","","","","","","","","","","","","","","","","","","","","","",""
"","","","","","image-keyboard-response","70","176815","0.0-2.0-5.0-1.24","5c8be0dd542fbd0016924f5f","D2","batch4","","850.8000000119209","stim/yes_36_ver_w1_w.png","f","pattern_response","true","f","pattern_58","850.8000000119209","true","22","","","","","","","","","","","","","","","","","","",""
"","","","","","html-keyboard-response","71","178128","0.0-2.0-5.0-0.25","5c8be0dd542fbd0016924f5f","D2","batch4","","null","<p class=block-text>Trial 26 out of 78</p>","null","pattern_show_trial_num","","","","","","","","","","","","","","","","","","","","","","","","",""
"","","","","","image-keyboard-response","72","180222","0.0-2.0-5.0-1.25","5c8be0dd542fbd0016924f5f","D2","batch4","","2093","stim/no_36_1_b.png","j","pattern_response","true","j","pattern_17","2093","true","23","","","","","","","","","","","","","","","","","","",""
"","","","","","html-keyboard-response","73","181536","0.0-2.0-5.0-0.26","5c8be0dd542fbd0016924f5f","D2","batch4","","null","<p class=block-text>Trial 27 out of 78</p>","null","pattern_show_trial_num","","","","","","","","","","","","","","","","","","","","","","","","",""
"","","","","","image-keyboard-response","74","185719","0.0-2.0-5.0-1.26","5c8be0dd542fbd0016924f5f","D2","batch4","","4180.800000011921","stim/yes_63_dia_b1.png","f","pattern_response","true","f","pattern_78","4180.800000011921","true","24","","","","","","","","","","","","","","","","","","",""
"","","","","","html-keyboard-response","75","187032","0.0-2.0-5.0-0.27","5c8be0dd542fbd0016924f5f","D2","batch4","","null","<p class=block-text>Trial 28 out of 78</p>","null","pattern_show_trial_num","","","","","","","","","","","","","","","","","","","","","","","","",""
"","","","","","image-keyboard-response","76","187924","0.0-2.0-5.0-1.27","5c8be0dd542fbd0016924f5f","D2","batch4","","890","stim/yes_37_hor_w1_w.png","f","pattern_response","true","f","pattern_60","890","true","25","","","","","","","","","","","","","","","","","","",""
"","","","","","html-keyboard-response","77","189240","0.0-2.0-5.0-0.28","5c8be0dd542fbd0016924f5f","D2","batch4","","null","<p class=block-text>Trial 29 out of 78</p>","null","pattern_show_trial_num","","","","","","","","","","","","","","","","","","","","","","","","",""
"","","","","","image-keyboard-response","78","190504","0.0-2.0-5.0-1.28","5c8be0dd542fbd0016924f5f","D2","batch4","","1262","stim/yes_23_ver_b1.png","f","pattern_response","true","f","pattern_48","1262","true","26","","","","","","","","","","","","","","","","","","",""
"","","","","","html-keyboard-response","79","191818","0.0-2.0-5.0-0.29","5c8be0dd542fbd0016924f5f","D2","batch4","","null","<p class=block-text>Trial 30 out of 78</p>","null","pattern_show_trial_num","","","","","","","","","","","","","","","","","","","","","","","","",""
"","","","","","image-keyboard-response","80","192589","0.0-2.0-5.0-1.29","5c8be0dd542fbd0016924f5f","D2","batch4","","769.7999999970198","stim/yes_70_ver_b1.png","f","pattern_response","true","f","pattern_80","769.7999999970198","true","27","","","","","","","","","","","","","","","","","","",""
"","","","","","html-keyboard-response","81","193903","0.0-2.0-5.0-0.30","5c8be0dd542fbd0016924f5f","D2","batch4","","null","<p class=block-text>Trial 31 out of 78</p>","null","pattern_show_trial_num","","","","","","","","","","","","","","","","","","","","","","","","",""
"","","","","","image-keyboard-response","82","195532","0.0-2.0-5.0-1.30","5c8be0dd542fbd0016924f5f","D2","batch4","","1628.2999999970198","stim/yes_53_ver_b1_b.png","f","pattern_response","true","f","pattern_74","1628.2999999970198","true","28","","","","","","","","","","","","","","","","","","",""
"","","","","","html-keyboard-response","83","196847","0.0-2.0-5.0-0.31","5c8be0dd542fbd0016924f5f","D2","batch4","","null","<p class=block-text>Trial 32 out of 78</p>","null","pattern_show_trial_num","","","","","","","","","","","","","","","","","","","","","","","","",""
"","","","","","image-keyboard-response","84","201572","0.0-2.0-5.0-1.31","5c8be0dd542fbd0016924f5f","D2","batch4","","4723.399999991059","stim/yes_44_ver_w1_w.png","j","pattern_response","false","f","pattern_66","4723.399999991059","false","28","","","","","","","","","","","","","","","","","","",""
"","","","","","html-keyboard-response","85","202890","0.0-2.0-5.0-0.32","5c8be0dd542fbd0016924f5f","D2","batch4","","null","<p class=block-text>Trial 33 out of 78</p>","null","pattern_show_trial_num","","","","","","","","","","","","","","","","","","","","","","","","",""
"","","","","","image-keyboard-response","86","206211","0.0-2.0-5.0-1.32","5c8be0dd542fbd0016924f5f","D2","batch4","","3319.7000000029802","stim/no_39_1_w.png","j","pattern_response","true","j","pattern_21","3319.7000000029802","true","29","","","","","","","","","","","","","","","","","","",""
"","","","","","html-keyboard-response","87","207530","0.0-2.0-5.0-0.33","5c8be0dd542fbd0016924f5f","D2","batch4","","null","<p class=block-text>Trial 34 out of 78</p>","null","pattern_show_trial_num","","","","","","","","","","","","","","","","","","","","","","","","",""
"","","","","","image-keyboard-response","88","210257","0.0-2.0-5.0-1.33","5c8be0dd542fbd0016924f5f","D2","batch4","","2725.4000000059605","stim/no_43_2_b.png","j","pattern_response","true","j","pattern_23","2725.4000000059605","true","30","","","","","","","","","","","","","","","","","","",""
"","","","","","html-keyboard-response","89","211568","0.0-2.0-5.0-0.34","5c8be0dd542fbd0016924f5f","D2","batch4","","null","<p class=block-text>Trial 35 out of 78</p>","null","pattern_show_trial_num","","","","","","","","","","","","","","","","","","","","","","","","",""
"","","","","","image-keyboard-response","90","213883","0.0-2.0-5.0-1.34","5c8be0dd542fbd0016924f5f","D2","batch4","","2312.300000011921","stim/yes_29_hor_b1_b.png","j","pattern_response","false","f","pattern_52","2312.300000011921","false","30","","","","","","","","","","","","","","","","","","",""
"","","","","","html-keyboard-response","91","215196","0.0-2.0-5.0-0.35","5c8be0dd542fbd0016924f5f","D2","batch4","","null","<p class=block-text>Trial 36 out of 78</p>","null","pattern_show_trial_num","","","","","","","","","","","","","","","","","","","","","","","","",""
"","","","","","image-keyboard-response","92","218167","0.0-2.0-5.0-1.35","5c8be0dd542fbd0016924f5f","D2","batch4","","2969.6000000089407","stim/no_37_2_w.png","j","pattern_response","true","j","pattern_19","2969.6000000089407","true","31","","","","","","","","","","","","","","","","","","",""
"","","","","","html-keyboard-response","93","219479","0.0-2.0-5.0-0.36","5c8be0dd542fbd0016924f5f","D2","batch4","","null","<p class=block-text>Trial 37 out of 78</p>","null","pattern_show_trial_num","","","","","","","","","","","","","","","","","","","","","","","","",""
"","","","","","image-keyboard-response","94","220300","0.0-2.0-5.0-1.36","5c8be0dd542fbd0016924f5f","D2","batch4","","819.2999999970198","stim/yes_17_ver_b1_b.png","f","pattern_response","true","f","pattern_46","819.2999999970198","true","32","","","","","","","","","","","","","","","","","","",""
"","","","","","html-keyboard-response","95","221616","0.0-2.0-5.0-0.37","5c8be0dd542fbd0016924f5f","D2","batch4","","null","<p class=block-text>Trial 38 out of 78</p>","null","pattern_show_trial_num","","","","","","","","","","","","","","","","","","","","","","","","",""
"","","","","","image-keyboard-response","96","226847","0.0-2.0-5.0-1.37","5c8be0dd542fbd0016924f5f","D2","batch4","","5229.70000000298","stim/no_51_1.png","j","pattern_response","true","j","pattern_31","5229.70000000298","true","33","","","","","","","","","","","","","","","","","","",""
"","","","","","html-keyboard-response","97","228161","0.0-2.0-5.0-0.38","5c8be0dd542fbd0016924f5f","D2","batch4","","null","<p class=block-text>Trial 39 out of 78</p>","null","pattern_show_trial_num","","","","","","","","","","","","","","","","","","","","","","","","",""
"","","","","","image-keyboard-response","98","230008","0.0-2.0-5.0-1.38","5c8be0dd542fbd0016924f5f","D2","batch4","","1845.5","stim/no_25_1_b.png","j","pattern_response","true","j","pattern_09","1845.5","true","34","","","","","","","","","","","","","","","","","","",""
"","","","","","image-keyboard-response","99","233067","0.0-2.0-6.0","5c8be0dd542fbd0016924f5f","D2","batch4","","2553.7999999970198","stim/empty_board.png","j","attention_check","true","j","","","","","500","[""f"",""j""]","","","","","","","","","","","","","","","","",""
"","","","","","html-keyboard-response","100","233871","0.0-2.0-7.0-0.0","5c8be0dd542fbd0016924f5f","D2","batch4","","null","<p class=block-text>Trial 40 out of 78</p>","null","pattern_show_trial_num","","","","","","","","","","","","","","","","","","","","","","","","",""
"","","","","","image-keyboard-response","101","236887","0.0-2.0-7.0-1.0","5c8be0dd542fbd0016924f5f","D2","batch4","","3014.2999999970198","stim/no_38_1_b.png","j","pattern_response","true","j","pattern_20","3014.2999999970198","true","35","","","","","","","","","","","","","","","","","","",""
"","","","","","html-keyboard-response","102","238203","0.0-2.0-7.0-0.1","5c8be0dd542fbd0016924f5f","D2","batch4","","null","<p class=block-text>Trial 41 out of 78</p>","null","pattern_show_trial_num","","","","","","","","","","","","","","","","","","","","","","","","",""
"","","","","","image-keyboard-response","103","239557","0.0-2.0-7.0-1.1","5c8be0dd542fbd0016924f5f","D2","batch4","","1352.5","stim/yes_43_ver_w1_w.png","f","pattern_response","true","f","pattern_65","1352.5","true","36","","","","","","","","","","","","","","","","","","",""
"","","","","","html-keyboard-response","104","240871","0.0-2.0-7.0-0.2","5c8be0dd542fbd0016924f5f","D2","batch4","","null","<p class=block-text>Trial 42 out of 78</p>","null","pattern_show_trial_num","","","","","","","","","","","","","","","","","","","","","","","","",""
"","","","","","image-keyboard-response","105","243899","0.0-2.0-7.0-1.2","5c8be0dd542fbd0016924f5f","D2","batch4","","3026.4000000059605","stim/no_34_1_b.png","j","pattern_response","true","j","pattern_16","3026.4000000059605","true","37","","","","","","","","","","","","","","","","","","",""
"","","","","","html-keyboard-response","106","245216","0.0-2.0-7.0-0.3","5c8be0dd542fbd0016924f5f","D2","batch4","","null","<p class=block-text>Trial 43 out of 78</p>","null","pattern_show_trial_num","","","","","","","","","","","","","","","","","","","","","","","","",""
"","","","","","image-keyboard-response","107","246058","0.0-2.0-7.0-1.3","5c8be0dd542fbd0016924f5f","D2","batch4","","840.3000000119209","stim/yes_28_ver_b1.png","f","pattern_response","true","f","pattern_51","840.3000000119209","true","38","","","","","","","","","","","","","","","","","","",""
"","","","","","html-keyboard-response","108","247367","0.0-2.0-7.0-0.4","5c8be0dd542fbd0016924f5f","D2","batch4","","null","<p class=block-text>Trial 44 out of 78</p>","null","pattern_show_trial_num","","","","","","","","","","","","","","","","","","","","","","","","",""
"","","","","","image-keyboard-response","109","250955","0.0-2.0-7.0-1.4","5c8be0dd542fbd0016924f5f","D2","batch4","","3586.5999999940395","stim/no_42_1_w.png","j","pattern_response","true","j","pattern_22","3586.5999999940395","true","39","","","","","","","","","","","","","","","","","","",""
"","","","","","html-keyboard-response","110","252266","0.0-2.0-7.0-0.5","5c8be0dd542fbd0016924f5f","D2","batch4","","null","<p class=block-text>Trial 45 out of 78</p>","null","pattern_show_trial_num","","","","","","","","","","","","","","","","","","","","","","","","",""
"","","","","","image-keyboard-response","111","258047","0.0-2.0-7.0-1.5","5c8be0dd542fbd0016924f5f","D2","batch4","","5779.5999999940395","stim/no_70_2.png","j","pattern_response","true","j","pattern_40","5779.5999999940395","true","40","","","","","","","","","","","","","","","","","","",""
"","","","","","html-keyboard-response","112","259359","0.0-2.0-7.0-0.6","5c8be0dd542fbd0016924f5f","D2","batch4","","null","<p class=block-text>Trial 46 out of 78</p>","null","pattern_show_trial_num","","","","","","","","","","","","","","","","","","","","","","","","",""
"","","","","","image-keyboard-response","113","261099","0.0-2.0-7.0-1.6","5c8be0dd542fbd0016924f5f","D2","batch4","","1738.4000000059605","stim/no_32_1_w.png","j","pattern_response","true","j","pattern_14","1738.4000000059605","true","41","","","","","","","","","","","","","","","","","","",""
"","","","","","html-keyboard-response","114","262420","0.0-2.0-7.0-0.7","5c8be0dd542fbd0016924f5f","D2","batch4","","null","<p class=block-text>Trial 47 out of 78</p>","null","pattern_show_trial_num","","","","","","","","","","","","","","","","","","","","","","","","",""
"","","","","","image-keyboard-response","115","266151","0.0-2.0-7.0-1.7","5c8be0dd542fbd0016924f5f","D2","batch4","","3729.5","stim/yes_50_dia_w1.png","f","pattern_response","true","f","pattern_71","3729.5","true","42","","","","","","","","","","","","","","","","","","",""
"","","","","","html-keyboard-response","116","267465","0.0-2.0-7.0-0.8","5c8be0dd542fbd0016924f5f","D2","batch4","","null","<p class=block-text>Trial 48 out of 78</p>","null","pattern_show_trial_num","","","","","","","","","","","","","","","","","","","","","","","","",""
"","","","","","image-keyboard-response","117","269125","0.0-2.0-7.0-1.8","5c8be0dd542fbd0016924f5f","D2","batch4","","1659.1000000089407","stim/no_17_1_w.png","j","pattern_response","true","j","pattern_04","1659.1000000089407","true","43","","","","","","","","","","","","","","","","","","",""
"","","","","","html-keyboard-response","118","270444","0.0-2.0-7.0-0.9","5c8be0dd542fbd0016924f5f","D2","batch4","","null","<p class=block-text>Trial 49 out of 78</p>","null","pattern_show_trial_num","","","","","","","","","","","","","","","","","","","","","","","","",""
"","","","","","image-keyboard-response","119","274508","0.0-2.0-7.0-1.9","5c8be0dd542fbd0016924f5f","D2","batch4","","4062.5","stim/yes_37_dia_w1.png","f","pattern_response","true","f","pattern_59","4062.5","true","44","","","","","","","","","","","","","","","","","","",""
"","","","","","html-keyboard-response","120","275824","0.0-2.0-7.0-0.10","5c8be0dd542fbd0016924f5f","D2","batch4","","null","<p class=block-text>Trial 50 out of 78</p>","null","pattern_show_trial_num","","","","","","","","","","","","","","","","","","","","","","","","",""
"","","","","","image-keyboard-response","121","277036","0.0-2.0-7.0-1.10","5c8be0dd542fbd0016924f5f","D2","batch4","","1210.2999999970198","stim/yes_60_ver_b1_b.png","f","pattern_response","true","f","pattern_77","1210.2999999970198","true","45","","","","","","","","","","","","","","","","","","",""
"","","","","","html-keyboard-response","122","278353","0.0-2.0-7.0-0.11","5c8be0dd542fbd0016924f5f","D2","batch4","","null","<p class=block-text>Trial 51 out of 78</p>","null","pattern_show_trial_num","","","","","","","","","","","","","","","","","","","","","","","","",""
"","","","","","image-keyboard-response","123","283058","0.0-2.0-7.0-1.11","5c8be0dd542fbd0016924f5f","D2","batch4","","4704","stim/no_46_1_b.png","j","pattern_response","true","j","pattern_26","4704","true","46","","","","","","","","","","","","","","","","","","",""
"","","","","","html-keyboard-response","124","284367","0.0-2.0-7.0-0.12","5c8be0dd542fbd0016924f5f","D2","batch4","","null","<p class=block-text>Trial 52 out of 78</p>","null","pattern_show_trial_num","","","","","","","","","","","","","","","","","","","","","","","","",""
"","","","","","image-keyboard-response","125","288583","0.0-2.0-7.0-1.12","5c8be0dd542fbd0016924f5f","D2","batch4","","4214.5","stim/no_55_1_w.png","j","pattern_response","true","j","pattern_34","4214.5","true","47","","","","","","","","","","","","","","","","","","",""
"","","","","","html-keyboard-response","126","289900","0.0-2.0-7.0-0.13","5c8be0dd542fbd0016924f5f","D2","batch4","","null","<p class=block-text>Trial 53 out of 78</p>","null","pattern_show_trial_num","","","","","","","","","","","","","","","","","","","","","","","","",""
"","","","","","image-keyboard-response","127","290876","0.0-2.0-7.0-1.13","5c8be0dd542fbd0016924f5f","D2","batch4","","973.7999999970198","stim/yes_22_ver_w1.png","f","pattern_response","true","f","pattern_47","973.7999999970198","true","48","","","","","","","","","","","","","","","","","","",""
"","","","","","html-keyboard-response","128","292194","0.0-2.0-7.0-0.14","5c8be0dd542fbd0016924f5f","D2","batch4","","null","<p class=block-text>Trial 54 out of 78</p>","null","pattern_show_trial_num","","","","","","","","","","","","","","","","","","","","","","","","",""
"","","","","","image-keyboard-response","129","296221","0.0-2.0-7.0-1.14","5c8be0dd542fbd0016924f5f","D2","batch4","","4025.5","stim/no_50_1.png","j","pattern_response","true","j","pattern_30","4025.5","true","49","","","","","","","","","","","","","","","","","","",""
"","","","","","html-keyboard-response","130","297537","0.0-2.0-7.0-0.15","5c8be0dd542fbd0016924f5f","D2","batch4","","null","<p class=block-text>Trial 55 out of 78</p>","null","pattern_show_trial_num","","","","","","","","","","","","","","","","","","","","","","","","",""
"","","","","","image-keyboard-response","131","300040","0.0-2.0-7.0-1.15","5c8be0dd542fbd0016924f5f","D2","batch4","","2502","stim/yes_45_hor_b2_b.png","f","pattern_response","true","f","pattern_67","2502","true","50","","","","","","","","","","","","","","","","","","",""
"","","","","","html-keyboard-response","132","301351","0.0-2.0-7.0-0.16","5c8be0dd542fbd0016924f5f","D2","batch4","","null","<p class=block-text>Trial 56 out of 78</p>","null","pattern_show_trial_num","","","","","","","","","","","","","","","","","","","","","","","","",""
"","","","","","image-keyboard-response","133","302083","0.0-2.0-7.0-1.16","5c8be0dd542fbd0016924f5f","D2","batch4","","730.7999999970198","stim/yes_25_hor_b1_b.png","f","pattern_response","true","f","pattern_49","730.7999999970198","true","51","","","","","","","","","","","","","","","","","","",""
"","","","","","html-keyboard-response","134","303404","0.0-2.0-7.0-0.17","5c8be0dd542fbd0016924f5f","D2","batch4","","null","<p class=block-text>Trial 57 out of 78</p>","null","pattern_show_trial_num","","","","","","","","","","","","","","","","","","","","","","","","",""
"","","","","","image-keyboard-response","135","305977","0.0-2.0-7.0-1.17","5c8be0dd542fbd0016924f5f","D2","batch4","","2571.800000011921","stim/yes_48_dia_w1_w.png","f","pattern_response","true","f","pattern_69","2571.800000011921","true","52","","","","","","","","","","","","","","","","","","",""
"","","","","","html-keyboard-response","136","307288","0.0-2.0-7.0-0.18","5c8be0dd542fbd0016924f5f","D2","batch4","","null","<p class=block-text>Trial 58 out of 78</p>","null","pattern_show_trial_num","","","","","","","","","","","","","","","","","","","","","","","","",""
"","","","","","image-keyboard-response","137","308326","0.0-2.0-7.0-1.18","5c8be0dd542fbd0016924f5f","D2","batch4","","1036.1000000089407","stim/yes_29_ver_w1.png","f","pattern_response","true","f","pattern_53","1036.1000000089407","true","53","","","","","","","","","","","","","","","","","","",""
"","","","","","html-keyboard-response","138","309640","0.0-2.0-7.0-0.19","5c8be0dd542fbd0016924f5f","D2","batch4","","null","<p class=block-text>Trial 59 out of 78</p>","null","pattern_show_trial_num","","","","","","","","","","","","","","","","","","","","","","","","",""
"","","","","","image-keyboard-response","139","313746","0.0-2.0-7.0-1.19","5c8be0dd542fbd0016924f5f","D2","batch4","","4104.0999999940395","stim/no_44_1.png","j","pattern_response","true","j","pattern_24","4104.0999999940395","true","54","","","","","","","","","","","","","","","","","","",""
"","","","","","html-keyboard-response","140","315060","0.0-2.0-7.0-0.20","5c8be0dd542fbd0016924f5f","D2","batch4","","null","<p class=block-text>Trial 60 out of 78</p>","null","pattern_show_trial_num","","","","","","","","","","","","","","","","","","","","","","","","",""
"","","","","","image-keyboard-response","141","318033","0.0-2.0-7.0-1.20","5c8be0dd542fbd0016924f5f","D2","batch4","","2971.2000000029802","stim/no_48_1_w.png","j","pattern_response","true","j","pattern_28","2971.2000000029802","true","55","","","","","","","","","","","","","","","","","","",""
"","","","","","html-keyboard-response","142","319345","0.0-2.0-7.0-0.21","5c8be0dd542fbd0016924f5f","D2","batch4","","null","<p class=block-text>Trial 61 out of 78</p>","null","pattern_show_trial_num","","","","","","","","","","","","","","","","","","","","","","","","",""
"","","","","","image-keyboard-response","143","321716","0.0-2.0-7.0-1.21","5c8be0dd542fbd0016924f5f","D2","batch4","","2369.4000000059605","stim/no_62_1_w.png","j","pattern_response","true","j","pattern_36","2369.4000000059605","true","56","","","","","","","","","","","","","","","","","","",""
"","","","","","html-keyboard-response","144","323033","0.0-2.0-7.0-0.22","5c8be0dd542fbd0016924f5f","D2","batch4","","null","<p class=block-text>Trial 62 out of 78</p>","null","pattern_show_trial_num","","","","","","","","","","","","","","","","","","","","","","","","",""
"","","","","","image-keyboard-response","145","323799","0.0-2.0-7.0-1.22","5c8be0dd542fbd0016924f5f","D2","batch4","","764.7000000029802","stim/yes_38_hor_b1_b.png","f","pattern_response","true","f","pattern_61","764.7000000029802","true","57","","","","","","","","","","","","","","","","","","",""
"","","","","","html-keyboard-response","146","325114","0.0-2.0-7.0-0.23","5c8be0dd542fbd0016924f5f","D2","batch4","","null","<p class=block-text>Trial 63 out of 78</p>","null","pattern_show_trial_num","","","","","","","","","","","","","","","","","","","","","","","","",""
"","","","","","image-keyboard-response","147","325789","0.0-2.0-7.0-1.23","5c8be0dd542fbd0016924f5f","D2","batch4","","673.5999999940395","stim/yes_17_dia_w1.png","f","pattern_response","true","f","pattern_45","673.5999999940395","true","58","","","","","","","","","","","","","","","","","","",""
"","","","","","html-keyboard-response","148","327105","0.0-2.0-7.0-0.24","5c8be0dd542fbd0016924f5f","D2","batch4","","null","<p class=block-text>Trial 64 out of 78</p>","null","pattern_show_trial_num","","","","","","","","","","","","","","","","","","","","","","","","",""
"","","","","","image-keyboard-response","149","328118","0.0-2.0-7.0-1.24","5c8be0dd542fbd0016924f5f","D2","batch4","","1012.2000000029802","stim/yes_52_ver_w1.png","f","pattern_response","true","f","pattern_73","1012.2000000029802","true","59","","","","","","","","","","","","","","","","","","",""
"","","","","","html-keyboard-response","150","329436","0.0-2.0-7.0-0.25","5c8be0dd542fbd0016924f5f","D2","batch4","","null","<p class=block-text>Trial 65 out of 78</p>","null","pattern_show_trial_num","","","","","","","","","","","","","","","","","","","","","","","","",""
"","","","","","image-keyboard-response","151","331434","0.0-2.0-7.0-1.25","5c8be0dd542fbd0016924f5f","D2","batch4","","1997.1000000089407","stim/yes_31_hor_b1.png","f","pattern_response","true","f","pattern_55","1997.1000000089407","true","60","","","","","","","","","","","","","","","","","","",""
"","","","","","html-keyboard-response","152","332744","0.0-2.0-7.0-0.26","5c8be0dd542fbd0016924f5f","D2","batch4","","null","<p class=block-text>Trial 66 out of 78</p>","null","pattern_show_trial_num","","","","","","","","","","","","","","","","","","","","","","","","",""
"","","","","","image-keyboard-response","153","334171","0.0-2.0-7.0-1.26","5c8be0dd542fbd0016924f5f","D2","batch4","","1425.7999999970198","stim/no_20_1_w.png","j","pattern_response","true","j","pattern_06","1425.7999999970198","true","61","","","","","","","","","","","","","","","","","","",""
"","","","","","html-keyboard-response","154","335488","0.0-2.0-7.0-0.27","5c8be0dd542fbd0016924f5f","D2","batch4","","null","<p class=block-text>Trial 67 out of 78</p>","null","pattern_show_trial_num","","","","","","","","","","","","","","","","","","","","","","","","",""
"","","","","","image-keyboard-response","155","337322","0.0-2.0-7.0-1.27","5c8be0dd542fbd0016924f5f","D2","batch4","","1832","stim/no_29_1_b.png","j","pattern_response","true","j","pattern_12","1832","true","62","","","","","","","","","","","","","","","","","","",""
"","","","","","html-keyboard-response","156","338635","0.0-2.0-7.0-0.28","5c8be0dd542fbd0016924f5f","D2","batch4","","null","<p class=block-text>Trial 68 out of 78</p>","null","pattern_show_trial_num","","","","","","","","","","","","","","","","","","","","","","","","",""
"","","","","","image-keyboard-response","157","343618","0.0-2.0-7.0-1.28","5c8be0dd542fbd0016924f5f","D2","batch4","","4981.29999999702","stim/no_65_1_b.png","j","pattern_response","true","j","pattern_38","4981.29999999702","true","63","","","","","","","","","","","","","","","","","","",""
"","","","","","html-keyboard-response","158","344928","0.0-2.0-7.0-0.29","5c8be0dd542fbd0016924f5f","D2","batch4","","null","<p class=block-text>Trial 69 out of 78</p>","null","pattern_show_trial_num","","","","","","","","","","","","","","","","","","","","","","","","",""
"","","","","","image-keyboard-response","159","345761","0.0-2.0-7.0-1.29","5c8be0dd542fbd0016924f5f","D2","batch4","","831.9000000059605","stim/yes_14_hor_b1_w.png","f","pattern_response","true","f","pattern_43","831.9000000059605","true","64","","","","","","","","","","","","","","","","","","",""
"","","","","","html-keyboard-response","160","347073","0.0-2.0-7.0-0.30","5c8be0dd542fbd0016924f5f","D2","batch4","","null","<p class=block-text>Trial 70 out of 78</p>","null","pattern_show_trial_num","","","","","","","","","","","","","","","","","","","","","","","","",""
"","","","","","image-keyboard-response","161","348063","0.0-2.0-7.0-1.30","5c8be0dd542fbd0016924f5f","D2","batch4","","989","stim/yes_55_hor_w1_w.png","f","pattern_response","true","f","pattern_75","989","true","65","","","","","","","","","","","","","","","","","","",""
"","","","","","html-keyboard-response","162","349377","0.0-2.0-7.0-0.31","5c8be0dd542fbd0016924f5f","D2","batch4","","null","<p class=block-text>Trial 71 out of 78</p>","null","pattern_show_trial_num","","","","","","","","","","","","","","","","","","","","","","","","",""
"","","","","","image-keyboard-response","163","353344","0.0-2.0-7.0-1.31","5c8be0dd542fbd0016924f5f","D2","batch4","","3965.2999999970198","stim/yes_40_dia_b1_b.png","j","pattern_response","false","f","pattern_63","3965.2999999970198","false","65","","","","","","","","","","","","","","","","","","",""
"","","","","","html-keyboard-response","164","354660","0.0-2.0-7.0-0.32","5c8be0dd542fbd0016924f5f","D2","batch4","","null","<p class=block-text>Trial 72 out of 78</p>","null","pattern_show_trial_num","","","","","","","","","","","","","","","","","","","","","","","","",""
"","","","","","image-keyboard-response","165","356476","0.0-2.0-7.0-1.32","5c8be0dd542fbd0016924f5f","D2","batch4","","1814.2999999970198","stim/yes_35_dia_b1.png","f","pattern_response","true","f","pattern_57","1814.2999999970198","true","66","","","","","","","","","","","","","","","","","","",""
"","","","","","html-keyboard-response","166","357795","0.0-2.0-7.0-0.33","5c8be0dd542fbd0016924f5f","D2","batch4","","null","<p class=block-text>Trial 73 out of 78</p>","null","pattern_show_trial_num","","","","","","","","","","","","","","","","","","","","","","","","",""
"","","","","","image-keyboard-response","167","361631","0.0-2.0-7.0-1.33","5c8be0dd542fbd0016924f5f","D2","batch4","","3834.7999999970198","stim/yes_67_hor_b1.png","f","pattern_response","true","f","pattern_79","3834.7999999970198","true","67","","","","","","","","","","","","","","","","","","",""
"","","","","","html-keyboard-response","168","362944","0.0-2.0-7.0-0.34","5c8be0dd542fbd0016924f5f","D2","batch4","","null","<p class=block-text>Trial 74 out of 78</p>","null","pattern_show_trial_num","","","","","","","","","","","","","","","","","","","","","","","","",""
"","","","","","image-keyboard-response","169","364336","0.0-2.0-7.0-1.34","5c8be0dd542fbd0016924f5f","D2","batch4","","1390.9000000059605","stim/no_26_1_w.png","j","pattern_response","true","j","pattern_10","1390.9000000059605","true","68","","","","","","","","","","","","","","","","","","",""
"","","","","","html-keyboard-response","170","365649","0.0-2.0-7.0-0.35","5c8be0dd542fbd0016924f5f","D2","batch4","","null","<p class=block-text>Trial 75 out of 78</p>","null","pattern_show_trial_num","","","","","","","","","","","","","","","","","","","","","","","","",""
"","","","","","image-keyboard-response","171","367640","0.0-2.0-7.0-1.35","5c8be0dd542fbd0016924f5f","D2","batch4","","1990.2000000029802","stim/no_23_1.png","j","pattern_response","true","j","pattern_08","1990.2000000029802","true","69","","","","","","","","","","","","","","","","","","",""
"","","","","","html-keyboard-response","172","368952","0.0-2.0-7.0-0.36","5c8be0dd542fbd0016924f5f","D2","batch4","","null","<p class=block-text>Trial 76 out of 78</p>","null","pattern_show_trial_num","","","","","","","","","","","","","","","","","","","","","","","","",""
"","","","","","image-keyboard-response","173","371698","0.0-2.0-7.0-1.36","5c8be0dd542fbd0016924f5f","D2","batch4","","2743.9000000059605","stim/no_52_1.png","j","pattern_response","true","j","pattern_32","2743.9000000059605","true","70","","","","","","","","","","","","","","","","","","",""
"","","","","","html-keyboard-response","174","373011","0.0-2.0-7.0-0.37","5c8be0dd542fbd0016924f5f","D2","batch4","","null","<p class=block-text>Trial 77 out of 78</p>","null","pattern_show_trial_num","","","","","","","","","","","","","","","","","","","","","","","","",""
"","","","","","image-keyboard-response","175","376366","0.0-2.0-7.0-1.37","5c8be0dd542fbd0016924f5f","D2","batch4","","3353.9000000059605","stim/no_36_2_w.png","j","pattern_response","true","j","pattern_18","3353.9000000059605","true","71","","","","","","","","","","","","","","","","","","",""
"","","","","","html-keyboard-response","176","377680","0.0-2.0-7.0-0.38","5c8be0dd542fbd0016924f5f","D2","batch4","","null","<p class=block-text>Trial 78 out of 78</p>","null","pattern_show_trial_num","","","","","","","","","","","","","","","","","","","","","","","","",""
"","","","","","image-keyboard-response","177","378491","0.0-2.0-7.0-1.38","5c8be0dd542fbd0016924f5f","D2","batch4","","809.0999999940395","stim/no_13_2_b.png","j","pattern_response","true","j","pattern_02","809.0999999940395","true","72","","","","","","","","","","","","","","","","","","",""
"","","","","","html-button-response","178","388250","0.0-2.0-8.0","5c8be0dd542fbd0016924f5f","D2","batch4","","9257.09999999404","<p class = block-text>This concludes the 4-in-a-row detection game.Thank you for your responses!<br>
            You responded correctly on 92% of the trials.<br>
            When you are ready, press ""Continue"" button to continue </p>","0","","","","","","","","","","","","","","","","","","","","","","","","","",""
"true","","","","","fullscreen","179","391768","0.0-3.0-0.0","5c8be0dd542fbd0016924f5f","D2","batch4","","","","","","","","","","","","","","","","","","","","","","","","","","","","","",""
"","","","","","instructions","180","441917","0.0-3.0-1.0-0.0-0.0","5c8be0dd542fbd0016924f5f","D2","batch4","[{""page_index"":0,""viewing_time"":14463.70000000298},{""page_index"":1,""viewing_time"":4767.5999999940395},{""page_index"":2,""viewing_time"":1733.5999999940395},{""page_index"":3,""viewing_time"":9848.800000011921},{""page_index"":4,""viewing_time"":3599.8999999910593},{""page_index"":5,""viewing_time"":9867.40000000596},{""page_index"":6,""viewing_time"":5866.0999999940395}]","50147.29999999702","","","tol-instructions","","","","","","","","","","","","","","","","","","","","","","","","",""
"","","","","","html-button-response","181","442967","0.0-3.0-1.0-1.0-0.0","5c8be0dd542fbd0016924f5f","D2","batch4","","1049.9000000059605","<p class=block-text> Let's answer a few questions <br>","0","tol_enter_quiz","","","","","","","","","","","","","","","","","","","","","","","","",""
"","","","","","html-button-response","182","447817","0.0-3.0-1.0-1.0-1.0","5c8be0dd542fbd0016924f5f","D2","batch4","","4848.20000000298","<p class = block-text>True or False: You can only move the ball on top of a peg. <br></p>","0","tol_quiz","true","","","","","","","","","","","","","","","","","","","","","","","",""
"","","","","","html-button-response","183","448800","0.0-3.0-1.0-1.0-2.0","5c8be0dd542fbd0016924f5f","D2","batch4","","982.4000000059605","<p class = block-text>Correct! You can only move the ball on top of a peg.</p>","0","tol_quiz_feedback","","","","","","","","","","","","","","","","","","","","","","","","",""
"","","","","","html-button-response","184","453267","0.0-3.0-1.0-1.0-3.0","5c8be0dd542fbd0016924f5f","D2","batch4","","4465.600000008941","<p class = block-text>True or False: You should try to match your board with the target board with fewest moves possible. <br></p>","0","tol_quiz","true","","","","","","","","","","","","","","","","","","","","","","","",""
"","","","","","html-button-response","185","453984","0.0-3.0-1.0-1.0-4.0","5c8be0dd542fbd0016924f5f","D2","batch4","","716.3999999910593","<p class = block-text>Correct! </p>","0","tol_quiz_feedback","","","","","","","","","","","","","","","","","","","","","","","","",""
"","","","","","html-button-response","186","455267","0.0-3.0-2.0","5c8be0dd542fbd0016924f5f","D2","batch4","","1282.2000000029802","<p class=block-text> Now that you've understood the game, let's practice a few easier examples before we start!<br> <br>","0","","","","","","","","","","","","","","","","","","","","","","","","","",""
"","","","","","single-stim-button","187","458989","0.0-3.0-3.0-0.0","5c8be0dd542fbd0016924f5f","D2","batch4","","3720","","","tol_practice","","","","","","","","","tol_peg_2","3720","3720","0","[[1,2,0],[0,0],[0]]","1","[[1,2,0],[0,0],[3]]","practice","3720","","","","","","","",""
"","","","","","single-stim-button","188","460126","0.0-3.0-3.0-1.0","5c8be0dd542fbd0016924f5f","D2","batch4","","1136","","","tol_practice","","","","","","","","","tol_peg_3","1136","1136","0","[[1,2,0],[0,0],[3]]","1","[[1,2,0],[0,0],[3]]","practice","1136","","","","","","","",""
"","","","","","poldrack-single-stim","189","461138","0.0-3.0-4.0","5c8be0dd542fbd0016924f5f","D2","batch4","","-1","","","tol_feedback","true","","","","","","","","","1000","1000","500","","","","","","-1","none","true","","0","","",""
"","","","","","single-stim-button","190","465686","0.0-3.0-5.0-0.0","5c8be0dd542fbd0016924f5f","D2","batch4","","4548","","","tol_practice","","","","","","","","","tol_peg_1","4548","4548","0","[[1,0,0],[3,0],[0]]","2","[[0,0,0],[3,1],[2]]","practice","4548","","","","","","","",""
"","","","","","single-stim-button","191","466774","0.0-3.0-5.0-1.0","5c8be0dd542fbd0016924f5f","D2","batch4","","1087","","","tol_practice","","","","","","","","","tol_peg_3","1087","1087","0","[[1,0,0],[3,0],[2]]","2","[[0,0,0],[3,1],[2]]","practice","1087","","","","","","","",""
"","","","","","single-stim-button","192","467640","0.0-3.0-5.1-0.1","5c8be0dd542fbd0016924f5f","D2","batch4","","866","","","tol_practice","","","","","","","","","tol_peg_1","866","866","0","[[0,0,0],[3,0],[2]]","3","[[0,0,0],[3,1],[2]]","practice","866","","","","","","","",""
"","","","","","single-stim-button","193","468504","0.0-3.0-5.1-1.1","5c8be0dd542fbd0016924f5f","D2","batch4","","864","","","tol_practice","","","","","","","","","tol_peg_2","864","864","0","[[0,0,0],[3,1],[2]]","3","[[0,0,0],[3,1],[2]]","practice","864","","","","","","","",""
"","","","","","poldrack-single-stim","194","469513","0.0-3.0-6.0","5c8be0dd542fbd0016924f5f","D2","batch4","","-1","","","tol_feedback","true","","","","","","","","","1000","1000","500","","","","","","-1","none","true","","0","","",""
"","","","","","single-stim-button","195","473376","0.0-3.0-7.0-0.0","5c8be0dd542fbd0016924f5f","D2","batch4","","3862","","","tol_practice","","","","","","","","","tol_peg_2","3862","3862","0","[[1,2,0],[0,0],[0]]","4","[[1,0,0],[2,0],[3]]","practice","3862","","","","","","","",""
"","","","","","single-stim-button","196","474242","0.0-3.0-7.0-1.0","5c8be0dd542fbd0016924f5f","D2","batch4","","865","","","tol_practice","","","","","","","","","tol_peg_3","865","865","0","[[1,2,0],[0,0],[3]]","4","[[1,0,0],[2,0],[3]]","practice","865","","","","","","","",""
"","","","","","single-stim-button","197","474866","0.0-3.0-7.1-0.1","5c8be0dd542fbd0016924f5f","D2","batch4","","624","","","tol_practice","","","","","","","","","tol_peg_1","624","624","0","[[1,0,0],[0,0],[3]]","5","[[1,0,0],[2,0],[3]]","practice","624","","","","","","","",""
"","","","","","single-stim-button","198","475572","0.0-3.0-7.1-1.1","5c8be0dd542fbd0016924f5f","D2","batch4","","705","","","tol_practice","","","","","","","","","tol_peg_2","705","705","0","[[1,0,0],[2,0],[3]]","5","[[1,0,0],[2,0],[3]]","practice","705","","","","","","","",""
"","","","","","poldrack-single-stim","199","476574","0.0-3.0-8.0","5c8be0dd542fbd0016924f5f","D2","batch4","","-1","","","tol_feedback","true","","","","","","","","","1000","1000","500","","","","","","-1","none","true","","0","","",""
"","","","","","html-button-response","200","480684","0.0-3.0-9.0","5c8be0dd542fbd0016924f5f","D2","batch4","","4108.5999999940395","<div class = centerbox><p class = center-block-text>Great job! You are done with practice trials<br>You are about to start official trials.<br> <br> Problem <strong>1</strong> out of 25 problems</p></div>","0","tol_instruction","","","","","","","","","","","","","","","","","","","","","","","","",""
"","","","","","single-stim-button","201","488720","0.0-3.0-10.0-0.0","5c8be0dd542fbd0016924f5f","D2","batch4","","7027","","","tol_tohand","","","","","","","","","tol_peg_1","7027","7027","0","[[1,0,0],[3,0],[0]]","1","[[1,3,0],[2,0],[0]]","0","0","","","","","","3","",""
"","","","","","single-stim-button","202","493006","0.0-3.0-10.0-1.0","5c8be0dd542fbd0016924f5f","D2","batch4","","4285","","","tol_toboard","","","","","","","","","tol_peg_3","4285","4285","0","[[1,0,0],[3,0],[2]]","1","[[1,3,0],[2,0],[0]]","0","0","","","","","","3","",""
"","","","","","single-stim-button","203","493646","0.0-3.0-10.1-0.1","5c8be0dd542fbd0016924f5f","D2","batch4","","639","","","tol_tohand","","","","","","","","","tol_peg_2","639","639","0","[[1,0,0],[0,0],[2]]","2","[[1,3,0],[2,0],[0]]","0","0","","","","","","3","",""
"","","","","","single-stim-button","204","494512","0.0-3.0-10.1-1.1","5c8be0dd542fbd0016924f5f","D2","batch4","","865","","","tol_toboard","","","","","","","","","tol_peg_1","865","865","0","[[1,3,0],[0,0],[2]]","2","[[1,3,0],[2,0],[0]]","0","0","","","","","","3","",""
"","","","","","single-stim-button","205","495264","0.0-3.0-10.2-0.2","5c8be0dd542fbd0016924f5f","D2","batch4","","751","","","tol_tohand","","","","","","","","","tol_peg_3","751","751","0","[[1,3,0],[0,0],[0]]","3","[[1,3,0],[2,0],[0]]","0","0","","","","","","3","",""
"","","","","","single-stim-button","206","495825","0.0-3.0-10.2-1.2","5c8be0dd542fbd0016924f5f","D2","batch4","","561","","","tol_toboard","","","","","","","","","tol_peg_2","561","561","0","[[1,3,0],[2,0],[0]]","3","[[1,3,0],[2,0],[0]]","0","0","","","","","","3","",""
"","","","","","poldrack-single-stim","207","496837","0.0-3.0-11.0","5c8be0dd542fbd0016924f5f","D2","batch4","","-1","","","tol_feedback","true","","","","","","","","","1000","1000","500","","","","","","-1","none","true","7027","8417","","",""
"","","","","","html-button-response","208","497836","0.0-3.0-12.0","5c8be0dd542fbd0016924f5f","D2","batch4","","998.3999999910593","<div class = centerbox><p class = center-block-text>problem <strong>2</strong> out of 25 problems</p></div>","0","tol_trial_num","","","","","","","","","","","","","","","","","","","","","","","","",""
"","","","","","single-stim-button","209","501586","0.0-3.0-13.0-0.0","5c8be0dd542fbd0016924f5f","D2","batch4","","3749","","","tol_tohand","","","","","","","","","tol_peg_1","3749","3749","0","[[1,0,0],[3,0],[0]]","1","[[2,1,3],[0,0],[0]]","1","0","","","","","","5","",""
"","","","","","single-stim-button","210","505128","0.0-3.0-13.0-1.0","5c8be0dd542fbd0016924f5f","D2","batch4","","3541","","","tol_toboard","","","","","","","","","tol_peg_2","3541","3541","0","[[1,0,0],[3,2],[0]]","1","[[2,1,3],[0,0],[0]]","1","0","","","","","","5","",""
"","","","","","single-stim-button","211","508124","0.0-3.0-13.1-0.1","5c8be0dd542fbd0016924f5f","D2","batch4","","2995","","","tol_tohand","","","","","","","","","tol_peg_1","2995","2995","0","[[0,0,0],[3,2],[0]]","2","[[2,1,3],[0,0],[0]]","1","0","","","","","","5","",""
"","","","","","single-stim-button","212","509150","0.0-3.0-13.1-1.1","5c8be0dd542fbd0016924f5f","D2","batch4","","1026","","","tol_toboard","","","","","","","","","tol_peg_3","1026","1026","0","[[0,0,0],[3,2],[1]]","2","[[2,1,3],[0,0],[0]]","1","0","","","","","","5","",""
"","","","","","single-stim-button","213","509758","0.0-3.0-13.2-0.2","5c8be0dd542fbd0016924f5f","D2","batch4","","607","","","tol_tohand","","","","","","","","","tol_peg_2","607","607","0","[[0,0,0],[3,0],[1]]","3","[[2,1,3],[0,0],[0]]","1","0","","","","","","5","",""
"","","","","","single-stim-button","214","510864","0.0-3.0-13.2-1.2","5c8be0dd542fbd0016924f5f","D2","batch4","","1105","","","tol_toboard","","","","","","","","","tol_peg_1","1105","1105","0","[[2,0,0],[3,0],[1]]","3","[[2,1,3],[0,0],[0]]","1","0","","","","","","5","",""
"","","","","","single-stim-button","215","511535","0.0-3.0-13.3-0.3","5c8be0dd542fbd0016924f5f","D2","batch4","","670","","","tol_tohand","","","","","","","","","tol_peg_3","670","670","0","[[2,0,0],[3,0],[0]]","4","[[2,1,3],[0,0],[0]]","1","0","","","","","","5","",""
"","","","","","single-stim-button","216","512402","0.0-3.0-13.3-1.3","5c8be0dd542fbd0016924f5f","D2","batch4","","866","","","tol_toboard","","","","","","","","","tol_peg_1","866","866","0","[[2,1,0],[3,0],[0]]","4","[[2,1,3],[0,0],[0]]","1","0","","","","","","5","",""
"","","","","","single-stim-button","217","513090","0.0-3.0-13.4-0.4","5c8be0dd542fbd0016924f5f","D2","batch4","","687","","","tol_tohand","","","","","","","","","tol_peg_2","687","687","0","[[2,1,0],[0,0],[0]]","5","[[2,1,3],[0,0],[0]]","1","0","","","","","","5","",""
"","","","","","single-stim-button","218","513668","0.0-3.0-13.4-1.4","5c8be0dd542fbd0016924f5f","D2","batch4","","578","","","tol_toboard","","","","","","","","","tol_peg_1","578","578","0","[[2,1,3],[0,0],[0]]","5","[[2,1,3],[0,0],[0]]","1","0","","","","","","5","",""
"","","","","","poldrack-single-stim","219","514673","0.0-3.0-14.0","5c8be0dd542fbd0016924f5f","D2","batch4","","-1","","","tol_feedback","true","","","","","","","","","1000","1000","500","","","","","","-1","none","true","3749","8708","","",""
"","","","","","html-button-response","220","515582","0.0-3.0-15.0","5c8be0dd542fbd0016924f5f","D2","batch4","","908.5","<div class = centerbox><p class = center-block-text>problem <strong>3</strong> out of 25 problems</p></div>","0","tol_trial_num","","","","","","","","","","","","","","","","","","","","","","","","",""
"","","","","","single-stim-button","221","520222","0.0-3.0-16.0-0.0","5c8be0dd542fbd0016924f5f","D2","batch4","","4639","","","tol_tohand","","","","","","","","","tol_peg_1","4639","4639","0","[[2,0,0],[0,0],[1]]","1","[[1,2,0],[3,0],[0]]","2","0","","","","","","4","",""
"","","","","","single-stim-button","222","520942","0.0-3.0-16.0-1.0","5c8be0dd542fbd0016924f5f","D2","batch4","","719","","","tol_toboard","","","","","","","","","tol_peg_2","719","719","0","[[2,0,0],[3,0],[1]]","1","[[1,2,0],[3,0],[0]]","2","0","","","","","","4","",""
"","","","","","single-stim-button","223","521888","0.0-3.0-16.1-0.1","5c8be0dd542fbd0016924f5f","D2","batch4","","945","","","tol_tohand","","","","","","","","","tol_peg_1","945","945","0","[[0,0,0],[3,0],[1]]","2","[[1,2,0],[3,0],[0]]","2","0","","","","","","4","",""
"","","","","","single-stim-button","224","522962","0.0-3.0-16.1-1.1","5c8be0dd542fbd0016924f5f","D2","batch4","","1073","","","tol_toboard","","","","","","","","","tol_peg_2","1073","1073","0","[[0,0,0],[3,2],[1]]","2","[[1,2,0],[3,0],[0]]","2","0","","","","","","4","",""
"","","","","","single-stim-button","225","523714","0.0-3.0-16.2-0.2","5c8be0dd542fbd0016924f5f","D2","batch4","","751","","","tol_tohand","","","","","","","","","tol_peg_3","751","751","0","[[0,0,0],[3,2],[0]]","3","[[1,2,0],[3,0],[0]]","2","0","","","","","","4","",""
"","","","","","single-stim-button","226","524596","0.0-3.0-16.2-1.2","5c8be0dd542fbd0016924f5f","D2","batch4","","882","","","tol_toboard","","","","","","","","","tol_peg_1","882","882","0","[[1,0,0],[3,2],[0]]","3","[[1,2,0],[3,0],[0]]","2","0","","","","","","4","",""
"","","","","","single-stim-button","227","525300","0.0-3.0-16.3-0.3","5c8be0dd542fbd0016924f5f","D2","batch4","","704","","","tol_tohand","","","","","","","","","tol_peg_2","704","704","0","[[1,0,0],[3,0],[0]]","4","[[1,2,0],[3,0],[0]]","2","0","","","","","","4","",""
"","","","","","single-stim-button","228","525748","0.0-3.0-16.3-1.3","5c8be0dd542fbd0016924f5f","D2","batch4","","447","","","tol_toboard","","","","","","","","","tol_peg_1","447","447","0","[[1,2,0],[3,0],[0]]","4","[[1,2,0],[3,0],[0]]","2","0","","","","","","4","",""
"","","","","","poldrack-single-stim","229","526753","0.0-3.0-17.0","5c8be0dd542fbd0016924f5f","D2","batch4","","-1","","","tol_feedback","true","","","","","","","","","1000","1000","500","","","","","","-1","none","true","4639","7039","","",""
"","","","","","html-button-response","230","527720","0.0-3.0-18.0","5c8be0dd542fbd0016924f5f","D2","batch4","","966.1000000089407","<div class = centerbox><p class = center-block-text>problem <strong>4</strong> out of 25 problems</p></div>","0","tol_trial_num","","","","","","","","","","","","","","","","","","","","","","","","",""
"","","","","","single-stim-button","231","532366","0.0-3.0-19.0-0.0","5c8be0dd542fbd0016924f5f","D2","batch4","","4645","","","tol_tohand","","","","","","","","","tol_peg_2","4645","4645","0","[[3,0,0],[2,0],[0]]","1","[[3,0,0],[1,0],[2]]","3","0","","","","","","3","",""
"","","","","","single-stim-button","232","534416","0.0-3.0-19.0-1.0","5c8be0dd542fbd0016924f5f","D2","batch4","","2050","","","tol_toboard","","","","","","","","","tol_peg_1","2050","2050","0","[[3,1,0],[2,0],[0]]","1","[[3,0,0],[1,0],[2]]","3","0","","","","","","3","",""
"","","","","","single-stim-button","233","535074","0.0-3.0-19.1-0.1","5c8be0dd542fbd0016924f5f","D2","batch4","","657","","","tol_tohand","","","","","","","","","tol_peg_2","657","657","0","[[3,1,0],[0,0],[0]]","2","[[3,0,0],[1,0],[2]]","3","0","","","","","","3","",""
"","","","","","single-stim-button","234","535746","0.0-3.0-19.1-1.1","5c8be0dd542fbd0016924f5f","D2","batch4","","671","","","tol_toboard","","","","","","","","","tol_peg_3","671","671","0","[[3,1,0],[0,0],[2]]","2","[[3,0,0],[1,0],[2]]","3","0","","","","","","3","",""
"","","","","","single-stim-button","235","536500","0.0-3.0-19.2-0.2","5c8be0dd542fbd0016924f5f","D2","batch4","","753","","","tol_tohand","","","","","","","","","tol_peg_1","753","753","0","[[3,0,0],[0,0],[2]]","3","[[3,0,0],[1,0],[2]]","3","0","","","","","","3","",""
"","","","","","single-stim-button","236","537044","0.0-3.0-19.2-1.2","5c8be0dd542fbd0016924f5f","D2","batch4","","543","","","tol_toboard","","","","","","","","","tol_peg_2","543","543","0","[[3,0,0],[1,0],[2]]","3","[[3,0,0],[1,0],[2]]","3","0","","","","","","3","",""
"","","","","","poldrack-single-stim","237","538048","0.0-3.0-20.0","5c8be0dd542fbd0016924f5f","D2","batch4","","-1","","","tol_feedback","true","","","","","","","","","1000","1000","500","","","","","","-1","none","true","4645","6055","","",""
"","","","","","html-button-response","238","539816","0.0-3.0-21.0","5c8be0dd542fbd0016924f5f","D2","batch4","","1766.7999999970198","<div class = centerbox><p class = center-block-text>problem <strong>5</strong> out of 25 problems</p></div>","0","tol_trial_num","","","","","","","","","","","","","","","","","","","","","","","","",""
"","","","","","single-stim-button","239","556044","0.0-3.0-22.0-0.0","5c8be0dd542fbd0016924f5f","D2","batch4","","16227","","","tol_tohand","","","","","","","","","tol_peg_3","16227","16227","0","[[1,0,0],[2,0],[0]]","1","[[0,0,0],[1,2],[3]]","4","0","","","","","","7","",""
"","","","","","single-stim-button","240","575076","0.0-3.0-22.0-1.0","5c8be0dd542fbd0016924f5f","D2","batch4","","19031","","","tol_toboard","","","","","","","","","tol_peg_3","19031","19031","0","[[1,0,0],[2,0],[3]]","1","[[0,0,0],[1,2],[3]]","4","0","","","","","","7","",""
"","","","","","single-stim-button","241","576581","0.0-3.0-22.1-0.1","5c8be0dd542fbd0016924f5f","D2","batch4","","1504","","","tol_tohand","","","","","","","","","tol_peg_1","1504","1504","0","[[0,0,0],[2,0],[3]]","2","[[0,0,0],[1,2],[3]]","4","0","","","","","","7","",""
"","","","","","single-stim-button","242","577304","0.0-3.0-22.1-1.1","5c8be0dd542fbd0016924f5f","D2","batch4","","723","","","tol_toboard","","","","","","","","","tol_peg_2","723","723","0","[[0,0,0],[2,1],[3]]","2","[[0,0,0],[1,2],[3]]","4","0","","","","","","7","",""
"","","","","","single-stim-button","243","577976","0.0-3.0-22.2-0.2","5c8be0dd542fbd0016924f5f","D2","batch4","","671","","","tol_tohand","","","","","","","","","tol_peg_3","671","671","0","[[0,0,0],[2,1],[0]]","3","[[0,0,0],[1,2],[3]]","4","0","","","","","","7","",""
"","","","","","single-stim-button","244","579002","0.0-3.0-22.2-1.2","5c8be0dd542fbd0016924f5f","D2","batch4","","1025","","","tol_toboard","","","","","","","","","tol_peg_1","1025","1025","0","[[3,0,0],[2,1],[0]]","3","[[0,0,0],[1,2],[3]]","4","0","","","","","","7","",""
"","","","","","single-stim-button","245","580076","0.0-3.0-22.3-0.3","5c8be0dd542fbd0016924f5f","D2","batch4","","1073","","","tol_tohand","","","","","","","","","tol_peg_2","1073","1073","0","[[3,0,0],[2,0],[0]]","4","[[0,0,0],[1,2],[3]]","4","0","","","","","","7","",""
"","","","","","single-stim-button","246","581678","0.0-3.0-22.3-1.3","5c8be0dd542fbd0016924f5f","D2","batch4","","1601","","","tol_toboard","","","","","","","","","tol_peg_1","1601","1601","0","[[3,1,0],[2,0],[0]]","4","[[0,0,0],[1,2],[3]]","4","0","","","","","","7","",""
"","","","","","single-stim-button","247","582526","0.0-3.0-22.4-0.4","5c8be0dd542fbd0016924f5f","D2","batch4","","847","","","tol_tohand","","","","","","","","","tol_peg_2","847","847","0","[[3,1,0],[0,0],[0]]","5","[[0,0,0],[1,2],[3]]","4","0","","","","","","7","",""
"","","","","","single-stim-button","248","583633","0.0-3.0-22.4-1.4","5c8be0dd542fbd0016924f5f","D2","batch4","","1105","","","tol_toboard","","","","","","","","","tol_peg_3","1105","1105","0","[[3,1,0],[0,0],[2]]","5","[[0,0,0],[1,2],[3]]","4","0","","","","","","7","",""
"","","","","","single-stim-button","249","584290","0.0-3.0-22.5-0.5","5c8be0dd542fbd0016924f5f","D2","batch4","","657","","","tol_tohand","","","","","","","","","tol_peg_1","657","657","0","[[3,0,0],[0,0],[2]]","6","[[0,0,0],[1,2],[3]]","4","0","","","","","","7","",""
"","","","","","single-stim-button","250","585010","0.0-3.0-22.5-1.5","5c8be0dd542fbd0016924f5f","D2","batch4","","719","","","tol_toboard","","","","","","","","","tol_peg_2","719","719","0","[[3,0,0],[1,0],[2]]","6","[[0,0,0],[1,2],[3]]","4","0","","","","","","7","",""
"","","","","","single-stim-button","251","585570","0.0-3.0-22.6-0.6","5c8be0dd542fbd0016924f5f","D2","batch4","","559","","","tol_tohand","","","","","","","","","tol_peg_3","559","559","0","[[3,0,0],[1,0],[0]]","7","[[0,0,0],[1,2],[3]]","4","0","","","","","","7","",""
"","","","","","single-stim-button","252","586228","0.0-3.0-22.6-1.6","5c8be0dd542fbd0016924f5f","D2","batch4","","657","","","tol_toboard","","","","","","","","","tol_peg_2","657","657","0","[[3,0,0],[1,2],[0]]","7","[[0,0,0],[1,2],[3]]","4","0","","","","","","7","",""
"","","","","","single-stim-button","253","586788","0.0-3.0-22.7-0.7","5c8be0dd542fbd0016924f5f","D2","batch4","","559","","","tol_tohand","","","","","","","","","tol_peg_1","559","559","0","[[0,0,0],[1,2],[0]]","8","[[0,0,0],[1,2],[3]]","4","0","","","","","","7","",""
"","","","","","single-stim-button","254","587510","0.0-3.0-22.7-1.7","5c8be0dd542fbd0016924f5f","D2","batch4","","721","","","tol_toboard","","","","","","","","","tol_peg_3","721","721","0","[[0,0,0],[1,2],[3]]","8","[[0,0,0],[1,2],[3]]","4","0","","","","","","7","",""
"","","","","","poldrack-single-stim","255","588513","0.0-3.0-23.0","5c8be0dd542fbd0016924f5f","D2","batch4","","-1","","","tol_feedback","true","","","","","","","","","1000","1000","500","","","","","","-1","none","true","16227","22097","","",""
"","","","","","html-button-response","256","589416","0.0-3.0-24.0","5c8be0dd542fbd0016924f5f","D2","batch4","","902.2999999970198","<div class = centerbox><p class = center-block-text>problem <strong>6</strong> out of 25 problems</p></div>","0","tol_trial_num","","","","","","","","","","","","","","","","","","","","","","","","",""
"","","","","","single-stim-button","257","605815","0.0-3.0-25.0-0.0","5c8be0dd542fbd0016924f5f","D2","batch4","","16398","","","tol_tohand","","","","","","","","","tol_peg_3","16398","16398","0","[[0,0,0],[1,2],[0]]","1","[[1,0,0],[2,3],[0]]","5","0","","","","","","6","",""
"","","","","","single-stim-button","258","607715","0.0-3.0-25.0-1.0","5c8be0dd542fbd0016924f5f","D2","batch4","","1899","","","tol_toboard","","","","","","","","","tol_peg_1","1899","1899","0","[[3,0,0],[1,2],[0]]","1","[[1,0,0],[2,3],[0]]","5","0","","","","","","6","",""
"","","","","","single-stim-button","259","608632","0.0-3.0-25.1-0.1","5c8be0dd542fbd0016924f5f","D2","batch4","","917","","","tol_tohand","","","","","","","","","tol_peg_2","917","917","0","[[3,0,0],[1,0],[0]]","2","[[1,0,0],[2,3],[0]]","5","0","","","","","","6","",""
"","","","","","single-stim-button","260","610099","0.0-3.0-25.1-1.1","5c8be0dd542fbd0016924f5f","D2","batch4","","1467","","","tol_toboard","","","","","","","","","tol_peg_3","1467","1467","0","[[3,0,0],[1,0],[2]]","2","[[1,0,0],[2,3],[0]]","5","0","","","","","","6","",""
"","","","","","single-stim-button","261","611465","0.0-3.0-25.2-0.2","5c8be0dd542fbd0016924f5f","D2","batch4","","1366","","","tol_tohand","","","","","","","","","tol_peg_1","1366","1366","0","[[0,0,0],[1,0],[2]]","3","[[1,0,0],[2,3],[0]]","5","0","","","","","","6","",""
"","","","","","single-stim-button","262","612365","0.0-3.0-25.2-1.2","5c8be0dd542fbd0016924f5f","D2","batch4","","899","","","tol_toboard","","","","","","","","","tol_peg_2","899","899","0","[[0,0,0],[1,3],[2]]","3","[[1,0,0],[2,3],[0]]","5","0","","","","","","6","",""
"","","","","","single-stim-button","263","614999","0.0-3.0-25.3-0.3","5c8be0dd542fbd0016924f5f","D2","batch4","","2633","","","tol_tohand","","","","","","","","","tol_peg_2","2633","2633","0","[[0,0,0],[1,0],[2]]","4","[[1,0,0],[2,3],[0]]","5","0","","","","","","6","",""
"","","","","","single-stim-button","264","622048","0.0-3.0-25.3-1.3","5c8be0dd542fbd0016924f5f","D2","batch4","","7049","","","tol_toboard","","","","","","","","","tol_peg_2","7049","7049","0","[[0,0,0],[1,3],[2]]","4","[[1,0,0],[2,3],[0]]","5","0","","","","","","6","",""
"","","","","","single-stim-button","265","625364","0.0-3.0-25.4-0.4","5c8be0dd542fbd0016924f5f","D2","batch4","","3315","","","tol_tohand","","","","","","","","","tol_peg_3","3315","3315","0","[[0,0,0],[1,3],[0]]","5","[[1,0,0],[2,3],[0]]","5","0","","","","","","6","",""
"","","","","","single-stim-button","266","626999","0.0-3.0-25.4-1.4","5c8be0dd542fbd0016924f5f","D2","batch4","","1634","","","tol_toboard","","","","","","","","","tol_peg_1","1634","1634","0","[[2,0,0],[1,3],[0]]","5","[[1,0,0],[2,3],[0]]","5","0","","","","","","6","",""
"","","","","","single-stim-button","267","627982","0.0-3.0-25.5-0.5","5c8be0dd542fbd0016924f5f","D2","batch4","","982","","","tol_tohand","","","","","","","","","tol_peg_2","982","982","0","[[2,0,0],[1,0],[0]]","6","[[1,0,0],[2,3],[0]]","5","0","","","","","","6","",""
"","","","","","single-stim-button","268","628732","0.0-3.0-25.5-1.5","5c8be0dd542fbd0016924f5f","D2","batch4","","750","","","tol_toboard","","","","","","","","","tol_peg_1","750","750","0","[[2,3,0],[1,0],[0]]","6","[[1,0,0],[2,3],[0]]","5","0","","","","","","6","",""
"","","","","","single-stim-button","269","629732","0.0-3.0-25.6-0.6","5c8be0dd542fbd0016924f5f","D2","batch4","","1000","","","tol_tohand","","","","","","","","","tol_peg_2","1000","1000","0","[[2,3,0],[0,0],[0]]","7","[[1,0,0],[2,3],[0]]","5","0","","","","","","6","",""
"","","","","","single-stim-button","270","630582","0.0-3.0-25.6-1.6","5c8be0dd542fbd0016924f5f","D2","batch4","","848","","","tol_toboard","","","","","","","","","tol_peg_3","848","848","0","[[2,3,0],[0,0],[1]]","7","[[1,0,0],[2,3],[0]]","5","0","","","","","","6","",""
"","","","","","single-stim-button","271","632982","0.0-3.0-25.7-0.7","5c8be0dd542fbd0016924f5f","D2","batch4","","2400","","","tol_tohand","","","","","","","","","tol_peg_1","2400","2400","0","[[2,0,0],[0,0],[1]]","8","[[1,0,0],[2,3],[0]]","5","0","","","","","","6","",""
"","","","","","single-stim-button","272","633748","0.0-3.0-25.7-1.7","5c8be0dd542fbd0016924f5f","D2","batch4","","765","","","tol_toboard","","","","","","","","","tol_peg_2","765","765","0","[[2,0,0],[3,0],[1]]","8","[[1,0,0],[2,3],[0]]","5","0","","","","","","6","",""
"","","","","","single-stim-button","273","634682","0.0-3.0-25.8-0.8","5c8be0dd542fbd0016924f5f","D2","batch4","","934","","","tol_tohand","","","","","","","","","tol_peg_1","934","934","0","[[0,0,0],[3,0],[1]]","9","[[1,0,0],[2,3],[0]]","5","0","","","","","","6","",""
"","","","","","single-stim-button","274","635398","0.0-3.0-25.8-1.8","5c8be0dd542fbd0016924f5f","D2","batch4","","715","","","tol_toboard","","","","","","","","","tol_peg_2","715","715","0","[[0,0,0],[3,2],[1]]","9","[[1,0,0],[2,3],[0]]","5","0","","","","","","6","",""
"","","","","","single-stim-button","275","636181","0.0-3.0-25.9-0.9","5c8be0dd542fbd0016924f5f","D2","batch4","","783","","","tol_tohand","","","","","","","","","tol_peg_3","783","783","0","[[0,0,0],[3,2],[0]]","10","[[1,0,0],[2,3],[0]]","5","0","","","","","","6","",""
"","","","","","single-stim-button","276","637348","0.0-3.0-25.9-1.9","5c8be0dd542fbd0016924f5f","D2","batch4","","1167","","","tol_toboard","","","","","","","","","tol_peg_1","1167","1167","0","[[1,0,0],[3,2],[0]]","10","[[1,0,0],[2,3],[0]]","5","0","","","","","","6","",""
"","","","","","single-stim-button","277","638116","0.0-3.0-25.10-0.10","5c8be0dd542fbd0016924f5f","D2","batch4","","766","","","tol_tohand","","","","","","","","","tol_peg_2","766","766","0","[[1,0,0],[3,0],[0]]","11","[[1,0,0],[2,3],[0]]","5","0","","","","","","6","",""
"","","","","","single-stim-button","278","639115","0.0-3.0-25.10-1.10","5c8be0dd542fbd0016924f5f","D2","batch4","","999","","","tol_toboard","","","","","","","","","tol_peg_1","999","999","0","[[1,2,0],[3,0],[0]]","11","[[1,0,0],[2,3],[0]]","5","0","","","","","","6","",""
"","","","","","single-stim-button","279","639964","0.0-3.0-25.11-0.11","5c8be0dd542fbd0016924f5f","D2","batch4","","849","","","tol_tohand","","","","","","","","","tol_peg_2","849","849","0","[[1,2,0],[0,0],[0]]","12","[[1,0,0],[2,3],[0]]","5","0","","","","","","6","",""
"","","","","","single-stim-button","280","640699","0.0-3.0-25.11-1.11","5c8be0dd542fbd0016924f5f","D2","batch4","","733","","","tol_toboard","","","","","","","","","tol_peg_3","733","733","0","[[1,2,0],[0,0],[3]]","12","[[1,0,0],[2,3],[0]]","5","0","","","","","","6","",""
"","","","","","single-stim-button","281","641566","0.0-3.0-25.12-0.12","5c8be0dd542fbd0016924f5f","D2","batch4","","866","","","tol_tohand","","","","","","","","","tol_peg_1","866","866","0","[[1,0,0],[0,0],[3]]","13","[[1,0,0],[2,3],[0]]","5","0","","","","","","6","",""
"","","","","","single-stim-button","282","642365","0.0-3.0-25.12-1.12","5c8be0dd542fbd0016924f5f","D2","batch4","","799","","","tol_toboard","","","","","","","","","tol_peg_2","799","799","0","[[1,0,0],[2,0],[3]]","13","[[1,0,0],[2,3],[0]]","5","0","","","","","","6","",""
"","","","","","single-stim-button","283","642998","0.0-3.0-25.13-0.13","5c8be0dd542fbd0016924f5f","D2","batch4","","633","","","tol_tohand","","","","","","","","","tol_peg_3","633","633","0","[[1,0,0],[2,0],[0]]","14","[[1,0,0],[2,3],[0]]","5","0","","","","","","6","",""
"","","","","","single-stim-button","284","643665","0.0-3.0-25.13-1.13","5c8be0dd542fbd0016924f5f","D2","batch4","","666","","","tol_toboard","","","","","","","","","tol_peg_2","666","666","0","[[1,0,0],[2,3],[0]]","14","[[1,0,0],[2,3],[0]]","5","0","","","","","","6","",""
"","","","","","poldrack-single-stim","285","644674","0.0-3.0-26.0","5c8be0dd542fbd0016924f5f","D2","batch4","","-1","","","tol_feedback","true","","","","","","","","","1000","1000","500","","","","","","-1","none","true","16398","33842","","",""
"","","","","","html-button-response","286","645348","0.0-3.0-27.0","5c8be0dd542fbd0016924f5f","D2","batch4","","673","<div class = centerbox><p class = center-block-text>problem <strong>7</strong> out of 25 problems</p></div>","0","tol_trial_num","","","","","","","","","","","","","","","","","","","","","","","","",""
"","","","","","single-stim-button","287","648165","0.0-3.0-28.0-0.0","5c8be0dd542fbd0016924f5f","D2","batch4","","2816","","","tol_tohand","","","","","","","","","tol_peg_1","2816","2816","0","[[2,0,0],[0,0],[3]]","1","[[1,2,0],[3,0],[0]]","6","0","","","","","","5","",""
"","","","","","single-stim-button","288","650765","0.0-3.0-28.0-1.0","5c8be0dd542fbd0016924f5f","D2","batch4","","2599","","","tol_toboard","","","","","","","","","tol_peg_2","2599","2599","0","[[2,0,0],[1,0],[3]]","1","[[1,2,0],[3,0],[0]]","6","0","","","","","","5","",""
"","","","","","single-stim-button","289","651648","0.0-3.0-28.1-0.1","5c8be0dd542fbd0016924f5f","D2","batch4","","882","","","tol_tohand","","","","","","","","","tol_peg_1","882","882","0","[[0,0,0],[1,0],[3]]","2","[[1,2,0],[3,0],[0]]","6","0","","","","","","5","",""
"","","","","","single-stim-button","290","652449","0.0-3.0-28.1-1.1","5c8be0dd542fbd0016924f5f","D2","batch4","","800","","","tol_toboard","","","","","","","","","tol_peg_2","800","800","0","[[0,0,0],[1,2],[3]]","2","[[1,2,0],[3,0],[0]]","6","0","","","","","","5","",""
"","","","","","single-stim-button","291","660514","0.0-3.0-28.2-0.2","5c8be0dd542fbd0016924f5f","D2","batch4","","8065","","","tol_tohand","","","","","","","","","tol_peg_3","8065","8065","0","[[0,0,0],[1,2],[0]]","3","[[1,2,0],[3,0],[0]]","6","0","","","","","","5","",""
"","","","","","single-stim-button","292","662347","0.0-3.0-28.2-1.2","5c8be0dd542fbd0016924f5f","D2","batch4","","1832","","","tol_toboard","","","","","","","","","tol_peg_1","1832","1832","0","[[3,0,0],[1,2],[0]]","3","[[1,2,0],[3,0],[0]]","6","0","","","","","","5","",""
"","","","","","single-stim-button","293","663815","0.0-3.0-28.3-0.3","5c8be0dd542fbd0016924f5f","D2","batch4","","1467","","","tol_tohand","","","","","","","","","tol_peg_2","1467","1467","0","[[3,0,0],[1,0],[0]]","4","[[1,2,0],[3,0],[0]]","6","0","","","","","","5","",""
"","","","","","single-stim-button","294","664632","0.0-3.0-28.3-1.3","5c8be0dd542fbd0016924f5f","D2","batch4","","816","","","tol_toboard","","","","","","","","","tol_peg_3","816","816","0","[[3,0,0],[1,0],[2]]","4","[[1,2,0],[3,0],[0]]","6","0","","","","","","5","",""
"","","","","","single-stim-button","295","666132","0.0-3.0-28.4-0.4","5c8be0dd542fbd0016924f5f","D2","batch4","","1499","","","tol_tohand","","","","","","","","","tol_peg_2","1499","1499","0","[[3,0,0],[0,0],[2]]","5","[[1,2,0],[3,0],[0]]","6","0","","","","","","5","",""
"","","","","","single-stim-button","296","667332","0.0-3.0-28.4-1.4","5c8be0dd542fbd0016924f5f","D2","batch4","","1199","","","tol_toboard","","","","","","","","","tol_peg_1","1199","1199","0","[[3,1,0],[0,0],[2]]","5","[[1,2,0],[3,0],[0]]","6","0","","","","","","5","",""
"","","","","","single-stim-button","297","670115","0.0-3.0-28.5-0.5","5c8be0dd542fbd0016924f5f","D2","batch4","","2783","","","tol_tohand","","","","","","","","","tol_peg_3","2783","2783","0","[[3,1,0],[0,0],[0]]","6","[[1,2,0],[3,0],[0]]","6","0","","","","","","5","",""
"","","","","","single-stim-button","298","673664","0.0-3.0-28.5-1.5","5c8be0dd542fbd0016924f5f","D2","batch4","","3548","","","tol_toboard","","","","","","","","","tol_peg_2","3548","3548","0","[[3,1,0],[2,0],[0]]","6","[[1,2,0],[3,0],[0]]","6","0","","","","","","5","",""
"","","","","","single-stim-button","299","674398","0.0-3.0-28.6-0.6","5c8be0dd542fbd0016924f5f","D2","batch4","","734","","","tol_tohand","","","","","","","","","tol_peg_1","734","734","0","[[3,0,0],[2,0],[0]]","7","[[1,2,0],[3,0],[0]]","6","0","","","","","","5","",""
"","","","","","single-stim-button","300","675265","0.0-3.0-28.6-1.6","5c8be0dd542fbd0016924f5f","D2","batch4","","865","","","tol_toboard","","","","","","","","","tol_peg_2","865","865","0","[[3,0,0],[2,1],[0]]","7","[[1,2,0],[3,0],[0]]","6","0","","","","","","5","",""
"","","","","","single-stim-button","301","676147","0.0-3.0-28.7-0.7","5c8be0dd542fbd0016924f5f","D2","batch4","","882","","","tol_tohand","","","","","","","","","tol_peg_1","882","882","0","[[0,0,0],[2,1],[0]]","8","[[1,2,0],[3,0],[0]]","6","0","","","","","","5","",""
"","","","","","single-stim-button","302","677164","0.0-3.0-28.7-1.7","5c8be0dd542fbd0016924f5f","D2","batch4","","1016","","","tol_toboard","","","","","","","","","tol_peg_3","1016","1016","0","[[0,0,0],[2,1],[3]]","8","[[1,2,0],[3,0],[0]]","6","0","","","","","","5","",""
"","","","","","single-stim-button","303","677949","0.0-3.0-28.8-0.8","5c8be0dd542fbd0016924f5f","D2","batch4","","783","","","tol_tohand","","","","","","","","","tol_peg_2","783","783","0","[[0,0,0],[2,0],[3]]","9","[[1,2,0],[3,0],[0]]","6","0","","","","","","5","",""
"","","","","","single-stim-button","304","678815","0.0-3.0-28.8-1.8","5c8be0dd542fbd0016924f5f","D2","batch4","","866","","","tol_toboard","","","","","","","","","tol_peg_1","866","866","0","[[1,0,0],[2,0],[3]]","9","[[1,2,0],[3,0],[0]]","6","0","","","","","","5","",""
"","","","","","single-stim-button","305","679498","0.0-3.0-28.9-0.9","5c8be0dd542fbd0016924f5f","D2","batch4","","682","","","tol_tohand","","","","","","","","","tol_peg_2","682","682","0","[[1,0,0],[0,0],[3]]","10","[[1,2,0],[3,0],[0]]","6","0","","","","","","5","",""
"","","","","","single-stim-button","306","680198","0.0-3.0-28.9-1.9","5c8be0dd542fbd0016924f5f","D2","batch4","","699","","","tol_toboard","","","","","","","","","tol_peg_1","699","699","0","[[1,2,0],[0,0],[3]]","10","[[1,2,0],[3,0],[0]]","6","0","","","","","","5","",""
"","","","","","single-stim-button","307","681297","0.0-3.0-28.10-0.10","5c8be0dd542fbd0016924f5f","D2","batch4","","1099","","","tol_tohand","","","","","","","","","tol_peg_3","1099","1099","0","[[1,2,0],[0,0],[0]]","11","[[1,2,0],[3,0],[0]]","6","0","","","","","","5","",""
"","","","","","single-stim-button","308","681931","0.0-3.0-28.10-1.10","5c8be0dd542fbd0016924f5f","D2","batch4","","633","","","tol_toboard","","","","","","","","","tol_peg_2","633","633","0","[[1,2,0],[3,0],[0]]","11","[[1,2,0],[3,0],[0]]","6","0","","","","","","5","",""
"","","","","","poldrack-single-stim","309","682940","0.0-3.0-29.0","5c8be0dd542fbd0016924f5f","D2","batch4","","-1","","","tol_feedback","true","","","","","","","","","1000","1000","500","","","","","","-1","none","true","2816","21692","","",""
"","","","","","html-button-response","310","683731","0.0-3.0-30.0","5c8be0dd542fbd0016924f5f","D2","batch4","","790","<div class = centerbox><p class = center-block-text>problem <strong>8</strong> out of 25 problems</p></div>","0","tol_trial_num","","","","","","","","","","","","","","","","","","","","","","","","",""
"","","","","","single-stim-button","311","686730","0.0-3.0-31.0-0.0","5c8be0dd542fbd0016924f5f","D2","batch4","","2998","","","tol_tohand","","","","","","","","","tol_peg_3","2998","2998","0","[[0,0,0],[2,3],[0]]","1","[[1,2,0],[3,0],[0]]","7","0","","","","","","4","",""
"","","","","","single-stim-button","312","687931","0.0-3.0-31.0-1.0","5c8be0dd542fbd0016924f5f","D2","batch4","","1200","","","tol_toboard","","","","","","","","","tol_peg_1","1200","1200","0","[[1,0,0],[2,3],[0]]","1","[[1,2,0],[3,0],[0]]","7","0","","","","","","4","",""
"","","","","","single-stim-button","313","688631","0.0-3.0-31.1-0.1","5c8be0dd542fbd0016924f5f","D2","batch4","","699","","","tol_tohand","","","","","","","","","tol_peg_2","699","699","0","[[1,0,0],[2,0],[0]]","2","[[1,2,0],[3,0],[0]]","7","0","","","","","","4","",""
"","","","","","single-stim-button","314","689614","0.0-3.0-31.1-1.1","5c8be0dd542fbd0016924f5f","D2","batch4","","983","","","tol_toboard","","","","","","","","","tol_peg_3","983","983","0","[[1,0,0],[2,0],[3]]","2","[[1,2,0],[3,0],[0]]","7","0","","","","","","4","",""
"","","","","","single-stim-button","315","690381","0.0-3.0-31.2-0.2","5c8be0dd542fbd0016924f5f","D2","batch4","","766","","","tol_tohand","","","","","","","","","tol_peg_2","766","766","0","[[1,0,0],[0,0],[3]]","3","[[1,2,0],[3,0],[0]]","7","0","","","","","","4","",""
"","","","","","single-stim-button","316","691081","0.0-3.0-31.2-1.2","5c8be0dd542fbd0016924f5f","D2","batch4","","699","","","tol_toboard","","","","","","","","","tol_peg_1","699","699","0","[[1,2,0],[0,0],[3]]","3","[[1,2,0],[3,0],[0]]","7","0","","","","","","4","",""
"","","","","","single-stim-button","317","692015","0.0-3.0-31.3-0.3","5c8be0dd542fbd0016924f5f","D2","batch4","","932","","","tol_tohand","","","","","","","","","tol_peg_3","932","932","0","[[1,2,0],[0,0],[0]]","4","[[1,2,0],[3,0],[0]]","7","0","","","","","","4","",""
"","","","","","single-stim-button","318","692581","0.0-3.0-31.3-1.3","5c8be0dd542fbd0016924f5f","D2","batch4","","566","","","tol_toboard","","","","","","","","","tol_peg_2","566","566","0","[[1,2,0],[3,0],[0]]","4","[[1,2,0],[3,0],[0]]","7","0","","","","","","4","",""
"","","","","","poldrack-single-stim","319","693585","0.0-3.0-32.0","5c8be0dd542fbd0016924f5f","D2","batch4","","-1","","","tol_feedback","true","","","","","","","","","1000","1000","500","","","","","","-1","none","true","2998","5395","","",""
"","","","","","html-button-response","320","694414","0.0-3.0-33.0","5c8be0dd542fbd0016924f5f","D2","batch4","","828.2999999970198","<div class = centerbox><p class = center-block-text>problem <strong>9</strong> out of 25 problems</p></div>","0","tol_trial_num","","","","","","","","","","","","","","","","","","","","","","","","",""
"","","","","","single-stim-button","321","715558","0.0-3.0-34.0-0.0","5c8be0dd542fbd0016924f5f","D2","batch4","","21142","","","tol_tohand","","","","","","","","","tol_peg_3","21142","21142","0","[[3,2,0],[0,0],[0]]","1","[[2,1,0],[3,0],[0]]","8","0","","","","","","6","",""
"","","","","","single-stim-button","322","716624","0.0-3.0-34.0-1.0","5c8be0dd542fbd0016924f5f","D2","batch4","","1066","","","tol_toboard","","","","","","","","","tol_peg_2","1066","1066","0","[[3,2,0],[1,0],[0]]","1","[[2,1,0],[3,0],[0]]","8","0","","","","","","6","",""
"","","","","","single-stim-button","323","717540","0.0-3.0-34.1-0.1","5c8be0dd542fbd0016924f5f","D2","batch4","","915","","","tol_tohand","","","","","","","","","tol_peg_1","915","915","0","[[3,0,0],[1,0],[0]]","2","[[2,1,0],[3,0],[0]]","8","0","","","","","","6","",""
"","","","","","single-stim-button","324","718323","0.0-3.0-34.1-1.1","5c8be0dd542fbd0016924f5f","D2","batch4","","782","","","tol_toboard","","","","","","","","","tol_peg_3","782","782","0","[[3,0,0],[1,0],[2]]","2","[[2,1,0],[3,0],[0]]","8","0","","","","","","6","",""
"","","","","","single-stim-button","325","719389","0.0-3.0-34.2-0.2","5c8be0dd542fbd0016924f5f","D2","batch4","","1065","","","tol_tohand","","","","","","","","","tol_peg_1","1065","1065","0","[[0,0,0],[1,0],[2]]","3","[[2,1,0],[3,0],[0]]","8","0","","","","","","6","",""
"","","","","","single-stim-button","326","720271","0.0-3.0-34.2-1.2","5c8be0dd542fbd0016924f5f","D2","batch4","","882","","","tol_toboard","","","","","","","","","tol_peg_2","882","882","0","[[0,0,0],[1,3],[2]]","3","[[2,1,0],[3,0],[0]]","8","0","","","","","","6","",""
"","","","","","single-stim-button","327","721238","0.0-3.0-34.3-0.3","5c8be0dd542fbd0016924f5f","D2","batch4","","966","","","tol_tohand","","","","","","","","","tol_peg_3","966","966","0","[[0,0,0],[1,3],[0]]","4","[[2,1,0],[3,0],[0]]","8","0","","","","","","6","",""
"","","","","","single-stim-button","328","722371","0.0-3.0-34.3-1.3","5c8be0dd542fbd0016924f5f","D2","batch4","","1132","","","tol_toboard","","","","","","","","","tol_peg_1","1132","1132","0","[[2,0,0],[1,3],[0]]","4","[[2,1,0],[3,0],[0]]","8","0","","","","","","6","",""
"","","","","","single-stim-button","329","723237","0.0-3.0-34.4-0.4","5c8be0dd542fbd0016924f5f","D2","batch4","","865","","","tol_tohand","","","","","","","","","tol_peg_2","865","865","0","[[2,0,0],[1,0],[0]]","5","[[2,1,0],[3,0],[0]]","8","0","","","","","","6","",""
"","","","","","single-stim-button","330","724020","0.0-3.0-34.4-1.4","5c8be0dd542fbd0016924f5f","D2","batch4","","782","","","tol_toboard","","","","","","","","","tol_peg_3","782","782","0","[[2,0,0],[1,0],[3]]","5","[[2,1,0],[3,0],[0]]","8","0","","","","","","6","",""
"","","","","","single-stim-button","331","724703","0.0-3.0-34.5-0.5","5c8be0dd542fbd0016924f5f","D2","batch4","","682","","","tol_tohand","","","","","","","","","tol_peg_2","682","682","0","[[2,0,0],[0,0],[3]]","6","[[2,1,0],[3,0],[0]]","8","0","","","","","","6","",""
"","","","","","single-stim-button","332","725470","0.0-3.0-34.5-1.5","5c8be0dd542fbd0016924f5f","D2","batch4","","766","","","tol_toboard","","","","","","","","","tol_peg_1","766","766","0","[[2,1,0],[0,0],[3]]","6","[[2,1,0],[3,0],[0]]","8","0","","","","","","6","",""
"","","","","","single-stim-button","333","726186","0.0-3.0-34.6-0.6","5c8be0dd542fbd0016924f5f","D2","batch4","","716","","","tol_tohand","","","","","","","","","tol_peg_3","716","716","0","[[2,1,0],[0,0],[0]]","7","[[2,1,0],[3,0],[0]]","8","0","","","","","","6","",""
"","","","","","single-stim-button","334","727002","0.0-3.0-34.6-1.6","5c8be0dd542fbd0016924f5f","D2","batch4","","816","","","tol_toboard","","","","","","","","","tol_peg_2","816","816","0","[[2,1,0],[3,0],[0]]","7","[[2,1,0],[3,0],[0]]","8","0","","","","","","6","",""
"","","","","","poldrack-single-stim","335","728005","0.0-3.0-35.0","5c8be0dd542fbd0016924f5f","D2","batch4","","-1","","","tol_feedback","true","","","","","","","","","1000","1000","500","","","","","","-1","none","true","21142","26351","","",""
"","","","","","html-button-response","336","729301","0.0-3.0-36.0","5c8be0dd542fbd0016924f5f","D2","batch4","","1295.199999988079","<div class = centerbox><p class = center-block-text>problem <strong>10</strong> out of 25 problems</p></div>","0","tol_trial_num","","","","","","","","","","","","","","","","","","","","","","","","",""
"","","","","","single-stim-button","337","733570","0.0-3.0-37.0-0.0","5c8be0dd542fbd0016924f5f","D2","batch4","","4269","","","tol_tohand","","","","","","","","","tol_peg_2","4269","4269","0","[[3,0,0],[0,0],[2]]","1","[[3,0,0],[2,1],[0]]","9","0","","","","","","3","",""
"","","","","","single-stim-button","338","734180","0.0-3.0-37.0-1.0","5c8be0dd542fbd0016924f5f","D2","batch4","","610","","","tol_toboard","","","","","","","","","tol_peg_1","610","610","0","[[3,1,0],[0,0],[2]]","1","[[3,0,0],[2,1],[0]]","9","0","","","","","","3","",""
"","","","","","single-stim-button","339","734963","0.0-3.0-37.1-0.1","5c8be0dd542fbd0016924f5f","D2","batch4","","783","","","tol_tohand","","","","","","","","","tol_peg_3","783","783","0","[[3,1,0],[0,0],[0]]","2","[[3,0,0],[2,1],[0]]","9","0","","","","","","3","",""
"","","","","","single-stim-button","340","735474","0.0-3.0-37.1-1.1","5c8be0dd542fbd0016924f5f","D2","batch4","","510","","","tol_toboard","","","","","","","","","tol_peg_2","510","510","0","[[3,1,0],[2,0],[0]]","2","[[3,0,0],[2,1],[0]]","9","0","","","","","","3","",""
"","","","","","single-stim-button","341","735973","0.0-3.0-37.2-0.2","5c8be0dd542fbd0016924f5f","D2","batch4","","498","","","tol_tohand","","","","","","","","","tol_peg_1","498","498","0","[[3,0,0],[2,0],[0]]","3","[[3,0,0],[2,1],[0]]","9","0","","","","","","3","",""
"","","","","","single-stim-button","342","736549","0.0-3.0-37.2-1.2","5c8be0dd542fbd0016924f5f","D2","batch4","","576","","","tol_toboard","","","","","","","","","tol_peg_2","576","576","0","[[3,0,0],[2,1],[0]]","3","[[3,0,0],[2,1],[0]]","9","0","","","","","","3","",""
"","","","","","poldrack-single-stim","343","737556","0.0-3.0-38.0","5c8be0dd542fbd0016924f5f","D2","batch4","","-1","","","tol_feedback","true","","","","","","","","","1000","1000","500","","","","","","-1","none","true","4269","5550","","",""
"","","","","","html-button-response","344","738503","0.0-3.0-39.0","5c8be0dd542fbd0016924f5f","D2","batch4","","945.3999999910593","<div class = centerbox><p class = center-block-text>problem <strong>11</strong> out of 25 problems</p></div>","0","tol_trial_num","","","","","","","","","","","","","","","","","","","","","","","","",""
"","","","","","single-stim-button","345","743544","0.0-3.0-40.0-0.0","5c8be0dd542fbd0016924f5f","D2","batch4","","5041","","","tol_tohand","","","","","","","","","tol_peg_1","5041","5041","0","[[1,0,0],[3,0],[0]]","1","[[2,0,0],[1,3],[0]]","10","0","","","","","","6","",""
"","","","","","single-stim-button","346","755547","0.0-3.0-40.0-1.0","5c8be0dd542fbd0016924f5f","D2","batch4","","12002","","","tol_toboard","","","","","","","","","tol_peg_1","12002","12002","0","[[1,2,0],[3,0],[0]]","1","[[2,0,0],[1,3],[0]]","10","0","","","","","","6","",""
"","","","","","single-stim-button","347","756189","0.0-3.0-40.1-0.1","5c8be0dd542fbd0016924f5f","D2","batch4","","641","","","tol_tohand","","","","","","","","","tol_peg_2","641","641","0","[[1,2,0],[0,0],[0]]","2","[[2,0,0],[1,3],[0]]","10","0","","","","","","6","",""
"","","","","","single-stim-button","348","756973","0.0-3.0-40.1-1.1","5c8be0dd542fbd0016924f5f","D2","batch4","","784","","","tol_toboard","","","","","","","","","tol_peg_3","784","784","0","[[1,2,0],[0,0],[3]]","2","[[2,0,0],[1,3],[0]]","10","0","","","","","","6","",""
