"success","timeout","failed_images","failed_audio","failed_video","trial_type","trial_index","time_elapsed","internal_node_id","subject_id","study_id","session_id","view_history","rt","task","stimulus","response","correct","mouse_click","stim_duration","block_duration","timing_post_trial","current_position","tol_num_moves_made","tol_target","tol_problem_id","tol_rt","key_press","possible_responses","tol_correct","preplanning","tol_rt_per_trial","tol_min_moves","item","answer","spm_correct","spm_rt","fiar_detect_rt","fiar_detect_correct","total_correct_fiar_detect","post_trial_gap","choices"
"true","false","[]","[]","[]","preload","0","14568","0.0-0.0","5c902c91332bd90001575f22","D2","batch4","","","","","","","","","","","","","","","","","","","","","","","","","","","","","",""
"true","","","","","fullscreen","1","70361","0.0-1.0-0.0","5c902c91332bd90001575f22","D2","batch4","","","","","","","","","","","","","","","","","","","","","","","","","","","","","",""
"true","","","","","fullscreen","2","75181","0.0-2.0-0.0","5c902c91332bd90001575f22","D2","batch4","","","","","","","","","","","","","","","","","","","","","","","","","","","","","",""
"","","","","","instructions","3","181183","0.0-2.0-1.0-0.0-0.0","5c902c91332bd90001575f22","D2","batch4","[{""page_index"":0,""viewing_time"":29935},{""page_index"":1,""viewing_time"":4963},{""page_index"":2,""viewing_time"":6158},{""page_index"":3,""viewing_time"":26828},{""page_index"":4,""viewing_time"":13171},{""page_index"":5,""viewing_time"":21350},{""page_index"":6,""viewing_time"":3595}]","106000","tol-instructions","","","","","","","","","","","","","","","","","","","","","","","","","","",""
"","","","","","html-button-response","4","182306","0.0-2.0-1.0-1.0-0.0","5c902c91332bd90001575f22","D2","batch4","","1122","tol_enter_quiz","<p class=block-text> Let's answer a few questions <br>","0","","","","","","","","","","","","","","","","","","","","","","","","",""
"","","","","","html-button-response","5","189931","0.0-2.0-1.0-1.0-1.0","5c902c91332bd90001575f22","D2","batch4","","7625","tol_quiz","<p class = block-text>True or False: You can only move the ball on top of a peg. <br></p>","0","true","","","","","","","","","","","","","","","","","","","","","","","",""
"","","","","","html-button-response","6","191299","0.0-2.0-1.0-1.0-2.0","5c902c91332bd90001575f22","D2","batch4","","1367","tol_quiz_feedback","<p class = block-text>Correct! You can only move the ball on top of a peg.</p>","0","","","","","","","","","","","","","","","","","","","","","","","","",""
"","","","","","html-button-response","7","194163","0.0-2.0-1.0-1.0-3.0","5c902c91332bd90001575f22","D2","batch4","","2864","tol_quiz","<p class = block-text>True or False: You should try to match your board with the target board with fewest moves possible. <br></p>","0","true","","","","","","","","","","","","","","","","","","","","","","","",""
"","","","","","html-button-response","8","195007","0.0-2.0-1.0-1.0-4.0","5c902c91332bd90001575f22","D2","batch4","","842","tol_quiz_feedback","<p class = block-text>Correct! </p>","0","","","","","","","","","","","","","","","","","","","","","","","","",""
"","","","","","html-button-response","9","198596","0.0-2.0-2.0","5c902c91332bd90001575f22","D2","batch4","","3589","","<p class=block-text> Now that you've understood the game, let's practice a few easier examples before we start!<br> <br>","0","","","","","","","","","","","","","","","","","","","","","","","","",""
"","","","","","single-stim-button","10","202458","0.0-2.0-3.0-0.0","5c902c91332bd90001575f22","D2","batch4","","3860","tol_practice","","","","tol_peg_2","3860","3860","0","[[1,2,0],[0,0],[0]]","1","[[1,2,0],[0,0],[3]]","practice","3860","","","","","","","","","","","","","","",""
"","","","","","single-stim-button","11","203806","0.0-2.0-3.0-1.0","5c902c91332bd90001575f22","D2","batch4","","1347","tol_practice","","","","tol_peg_3","1347","1347","0","[[1,2,0],[0,0],[3]]","1","[[1,2,0],[0,0],[3]]","practice","1347","","","","","","","","","","","","","","",""
"","","","","","poldrack-single-stim","12","204820","0.0-2.0-4.0","5c902c91332bd90001575f22","D2","batch4","","-1","tol_feedback","","","true","","1000","1000","500","","","","","","-1","none","true","","0","","","","","","","","","",""
"","","","","","single-stim-button","13","208292","0.0-2.0-5.0-0.0","5c902c91332bd90001575f22","D2","batch4","","3470","tol_practice","","","","tol_peg_1","3470","3470","0","[[1,0,0],[3,0],[0]]","2","[[0,0,0],[3,1],[2]]","practice","3470","","","","","","","","","","","","","","",""
"","","","","","single-stim-button","14","211427","0.0-2.0-5.0-1.0","5c902c91332bd90001575f22","D2","batch4","","3135","tol_practice","","","","tol_peg_3","3135","3135","0","[[1,0,0],[3,0],[2]]","2","[[0,0,0],[3,1],[2]]","practice","3135","","","","","","","","","","","","","","",""
"","","","","","single-stim-button","15","231017","0.0-2.0-5.1-0.1","5c902c91332bd90001575f22","D2","batch4","","19589","tol_practice","","","","tol_peg_3","19589","19589","0","[[1,0,0],[3,0],[0]]","3","[[0,0,0],[3,1],[2]]","practice","19589","","","","","","","","","","","","","","",""
"","","","","","single-stim-button","16","232857","0.0-2.0-5.1-1.1","5c902c91332bd90001575f22","D2","batch4","","1838","tol_practice","","","","tol_peg_2","1838","1838","0","[[1,0,0],[3,2],[0]]","3","[[0,0,0],[3,1],[2]]","practice","1838","","","","","","","","","","","","","","",""
"","","","","","single-stim-button","17","233533","0.0-2.0-5.2-0.2","5c902c91332bd90001575f22","D2","batch4","","675","tol_practice","","","","tol_peg_1","675","675","0","[[0,0,0],[3,2],[0]]","4","[[0,0,0],[3,1],[2]]","practice","675","","","","","","","","","","","","","","",""
"","","","","","single-stim-button","18","235839","0.0-2.0-5.2-1.2","5c902c91332bd90001575f22","D2","batch4","","2305","tol_practice","","","","tol_peg_3","2305","2305","0","[[0,0,0],[3,2],[1]]","4","[[0,0,0],[3,1],[2]]","practice","2305","","","","","","","","","","","","","","",""
"","","","","","single-stim-button","19","236979","0.0-2.0-5.3-0.3","5c902c91332bd90001575f22","D2","batch4","","1139","tol_practice","","","","tol_peg_2","1139","1139","0","[[0,0,0],[3,0],[1]]","5","[[0,0,0],[3,1],[2]]","practice","1139","","","","","","","","","","","","","","",""
"","","","","","single-stim-button","20","238163","0.0-2.0-5.3-1.3","5c902c91332bd90001575f22","D2","batch4","","1183","tol_practice","","","","tol_peg_2","1183","1183","0","[[0,0,0],[3,2],[1]]","5","[[0,0,0],[3,1],[2]]","practice","1183","","","","","","","","","","","","","","",""
"","","","","","single-stim-button","21","239039","0.0-2.0-5.4-0.4","5c902c91332bd90001575f22","D2","batch4","","876","tol_practice","","","","tol_peg_2","876","876","0","[[0,0,0],[3,0],[1]]","6","[[0,0,0],[3,1],[2]]","practice","876","","","","","","","","","","","","","","",""
"","","","","","single-stim-button","22","240391","0.0-2.0-5.4-1.4","5c902c91332bd90001575f22","D2","batch4","","1350","tol_practice","","","","tol_peg_1","1350","1350","0","[[2,0,0],[3,0],[1]]","6","[[0,0,0],[3,1],[2]]","practice","1350","","","","","","","","","","","","","","",""
"","","","","","single-stim-button","23","240923","0.0-2.0-5.5-0.5","5c902c91332bd90001575f22","D2","batch4","","532","tol_practice","","","","tol_peg_2","532","532","0","[[2,0,0],[0,0],[1]]","7","[[0,0,0],[3,1],[2]]","practice","532","","","","","","","","","","","","","","",""
"","","","","","single-stim-button","24","241587","0.0-2.0-5.5-1.5","5c902c91332bd90001575f22","D2","batch4","","664","tol_practice","","","","tol_peg_1","664","664","0","[[2,3,0],[0,0],[1]]","7","[[0,0,0],[3,1],[2]]","practice","664","","","","","","","","","","","","","","",""
"","","","","","single-stim-button","25","243193","0.0-2.0-5.6-0.6","5c902c91332bd90001575f22","D2","batch4","","1605","tol_practice","","","","tol_peg_3","1605","1605","0","[[2,3,0],[0,0],[0]]","8","[[0,0,0],[3,1],[2]]","practice","1605","","","","","","","","","","","","","","",""
"","","","","","single-stim-button","26","243897","0.0-2.0-5.6-1.6","5c902c91332bd90001575f22","D2","batch4","","704","tol_practice","","","","tol_peg_2","704","704","0","[[2,3,0],[1,0],[0]]","8","[[0,0,0],[3,1],[2]]","practice","704","","","","","","","","","","","","","","",""
"","","","","","single-stim-button","27","244565","0.0-2.0-5.7-0.7","5c902c91332bd90001575f22","D2","batch4","","668","tol_practice","","","","tol_peg_1","668","668","0","[[2,0,0],[1,0],[0]]","9","[[0,0,0],[3,1],[2]]","practice","668","","","","","","","","","","","","","","",""
"","","","","","single-stim-button","28","246949","0.0-2.0-5.7-1.7","5c902c91332bd90001575f22","D2","batch4","","2383","tol_practice","","","","tol_peg_2","2383","2383","0","[[2,0,0],[1,3],[0]]","9","[[0,0,0],[3,1],[2]]","practice","2383","","","","","","","","","","","","","","",""
"","","","","","single-stim-button","29","247557","0.0-2.0-5.8-0.8","5c902c91332bd90001575f22","D2","batch4","","608","tol_practice","","","","tol_peg_1","608","608","0","[[0,0,0],[1,3],[0]]","10","[[0,0,0],[3,1],[2]]","practice","608","","","","","","","","","","","","","","",""
"","","","","","single-stim-button","30","248388","0.0-2.0-5.8-1.8","5c902c91332bd90001575f22","D2","batch4","","831","tol_practice","","","","tol_peg_3","831","831","0","[[0,0,0],[1,3],[2]]","10","[[0,0,0],[3,1],[2]]","practice","831","","","","","","","","","","","","","","",""
"","","","","","single-stim-button","31","249409","0.0-2.0-5.9-0.9","5c902c91332bd90001575f22","D2","batch4","","1020","tol_practice","","","","tol_peg_2","1020","1020","0","[[0,0,0],[1,0],[2]]","11","[[0,0,0],[3,1],[2]]","practice","1020","","","","","","","","","","","","","","",""
"","","","","","single-stim-button","32","250085","0.0-2.0-5.9-1.9","5c902c91332bd90001575f22","D2","batch4","","675","tol_practice","","","","tol_peg_1","675","675","0","[[3,0,0],[1,0],[2]]","11","[[0,0,0],[3,1],[2]]","practice","675","","","","","","","","","","","","","","",""
"","","","","","single-stim-button","33","250559","0.0-2.0-5.10-0.10","5c902c91332bd90001575f22","D2","batch4","","474","tol_practice","","","","tol_peg_2","474","474","0","[[3,0,0],[0,0],[2]]","12","[[0,0,0],[3,1],[2]]","practice","474","","","","","","","","","","","","","","",""
"","","","","","single-stim-button","34","251312","0.0-2.0-5.10-1.10","5c902c91332bd90001575f22","D2","batch4","","752","tol_practice","","","","tol_peg_1","752","752","0","[[3,1,0],[0,0],[2]]","12","[[0,0,0],[3,1],[2]]","practice","752","","","","","","","","","","","","","","",""
"","","","","","single-stim-button","35","255071","0.0-2.0-5.11-0.11","5c902c91332bd90001575f22","D2","batch4","","3759","tol_practice","","","","tol_peg_1","3759","3759","0","[[3,0,0],[0,0],[2]]","13","[[0,0,0],[3,1],[2]]","practice","3759","","","","","","","","","","","","","","",""
"","","","","","single-stim-button","36","263117","0.0-2.0-5.11-1.11","5c902c91332bd90001575f22","D2","batch4","","8046","tol_practice","","","","tol_peg_2","8046","8046","0","[[3,0,0],[1,0],[2]]","13","[[0,0,0],[3,1],[2]]","practice","8046","","","","","","","","","","","","","","",""
"","","","","","single-stim-button","37","265521","0.0-2.0-5.12-0.12","5c902c91332bd90001575f22","D2","batch4","","2402","tol_practice","","","","tol_peg_3","2402","2402","0","[[3,0,0],[1,0],[0]]","14","[[0,0,0],[3,1],[2]]","practice","2402","","","","","","","","","","","","","","",""
"","","","","","single-stim-button","38","266727","0.0-2.0-5.12-1.12","5c902c91332bd90001575f22","D2","batch4","","1206","tol_practice","","","","tol_peg_1","1206","1206","0","[[3,2,0],[1,0],[0]]","14","[[0,0,0],[3,1],[2]]","practice","1206","","","","","","","","","","","","","","",""
"","","","","","single-stim-button","39","268387","0.0-2.0-5.13-0.13","5c902c91332bd90001575f22","D2","batch4","","1659","tol_practice","","","","tol_peg_2","1659","1659","0","[[3,2,0],[0,0],[0]]","15","[[0,0,0],[3,1],[2]]","practice","1659","","","","","","","","","","","","","","",""
"","","","","","single-stim-button","40","268907","0.0-2.0-5.13-1.13","5c902c91332bd90001575f22","D2","batch4","","520","tol_practice","","","","tol_peg_3","520","520","0","[[3,2,0],[0,0],[1]]","15","[[0,0,0],[3,1],[2]]","practice","520","","","","","","","","","","","","","","",""
"","","","","","single-stim-button","41","270075","0.0-2.0-5.14-0.14","5c902c91332bd90001575f22","D2","batch4","","1168","tol_practice","","","","tol_peg_1","1168","1168","0","[[3,0,0],[0,0],[1]]","16","[[0,0,0],[3,1],[2]]","practice","1168","","","","","","","","","","","","","","",""
"","","","","","single-stim-button","42","270795","0.0-2.0-5.14-1.14","5c902c91332bd90001575f22","D2","batch4","","720","tol_practice","","","","tol_peg_2","720","720","0","[[3,0,0],[2,0],[1]]","16","[[0,0,0],[3,1],[2]]","practice","720","","","","","","","","","","","","","","",""
"","","","","","single-stim-button","43","271534","0.0-2.0-5.15-0.15","5c902c91332bd90001575f22","D2","batch4","","739","tol_practice","","","","tol_peg_1","739","739","0","[[0,0,0],[2,0],[1]]","17","[[0,0,0],[3,1],[2]]","practice","739","","","","","","","","","","","","","","",""
"","","","","","single-stim-button","44","275201","0.0-2.0-5.15-1.15","5c902c91332bd90001575f22","D2","batch4","","3666","tol_practice","","","","tol_peg_1","3666","3666","0","[[3,0,0],[2,0],[1]]","17","[[0,0,0],[3,1],[2]]","practice","3666","","","","","","","","","","","","","","",""
"","","","","","single-stim-button","45","275857","0.0-2.0-5.16-0.16","5c902c91332bd90001575f22","D2","batch4","","655","tol_practice","","","","tol_peg_2","655","655","0","[[3,0,0],[0,0],[1]]","18","[[0,0,0],[3,1],[2]]","practice","655","","","","","","","","","","","","","","",""
"","","","","","single-stim-button","46","276372","0.0-2.0-5.16-1.16","5c902c91332bd90001575f22","D2","batch4","","515","tol_practice","","","","tol_peg_1","515","515","0","[[3,2,0],[0,0],[1]]","18","[[0,0,0],[3,1],[2]]","practice","515","","","","","","","","","","","","","","",""
"","","","","","single-stim-button","47","278412","0.0-2.0-5.17-0.17","5c902c91332bd90001575f22","D2","batch4","","2039","tol_practice","","","","tol_peg_1","2039","2039","0","[[3,0,0],[0,0],[1]]","19","[[0,0,0],[3,1],[2]]","practice","2039","","","","","","","","","","","","","","",""
"","","","","","single-stim-button","48","279025","0.0-2.0-5.17-1.17","5c902c91332bd90001575f22","D2","batch4","","612","tol_practice","","","","tol_peg_2","612","612","0","[[3,0,0],[2,0],[1]]","19","[[0,0,0],[3,1],[2]]","practice","612","","","","","","","","","","","","","","",""
"","","","","","single-stim-button","49","279517","0.0-2.0-5.18-0.18","5c902c91332bd90001575f22","D2","batch4","","490","tol_practice","","","","tol_peg_1","490","490","0","[[0,0,0],[2,0],[1]]","20","[[0,0,0],[3,1],[2]]","practice","490","","","","","","","","","","","","","","",""
"","","","","","single-stim-button","50","280497","0.0-2.0-5.18-1.18","5c902c91332bd90001575f22","D2","batch4","","980","tol_practice","","","","tol_peg_2","980","980","0","[[0,0,0],[2,3],[1]]","20","[[0,0,0],[3,1],[2]]","practice","980","","","","","","","","","","","","","","",""
"","","","","","single-stim-button","51","281111","0.0-2.0-5.19-0.19","5c902c91332bd90001575f22","D2","batch4","","613","tol_practice","","","","tol_peg_3","613","613","0","[[0,0,0],[2,3],[0]]","21","[[0,0,0],[3,1],[2]]","practice","613","","","","","","","","","","","","","","",""
"","","","","","single-stim-button","52","281967","0.0-2.0-5.19-1.19","5c902c91332bd90001575f22","D2","batch4","","856","tol_practice","","","","tol_peg_1","856","856","0","[[1,0,0],[2,3],[0]]","21","[[0,0,0],[3,1],[2]]","practice","856","","","","","","","","","","","","","","",""
"","","","","","single-stim-button","53","282759","0.0-2.0-5.20-0.20","5c902c91332bd90001575f22","D2","batch4","","792","tol_practice","","","","tol_peg_2","792","792","0","[[1,0,0],[2,0],[0]]","22","[[0,0,0],[3,1],[2]]","practice","792","","","","","","","","","","","","","","",""
"","","","","","single-stim-button","54","283642","0.0-2.0-5.20-1.20","5c902c91332bd90001575f22","D2","batch4","","882","tol_practice","","","","tol_peg_3","882","882","0","[[1,0,0],[2,0],[3]]","22","[[0,0,0],[3,1],[2]]","practice","882","","","","","","","","","","","","","","",""
"","","","","","single-stim-button","55","284315","0.0-2.0-5.21-0.21","5c902c91332bd90001575f22","D2","batch4","","672","tol_practice","","","","tol_peg_2","672","672","0","[[1,0,0],[0,0],[3]]","23","[[0,0,0],[3,1],[2]]","practice","672","","","","","","","","","","","","","","",""
"","","","","","single-stim-button","56","284926","0.0-2.0-5.21-1.21","5c902c91332bd90001575f22","D2","batch4","","611","tol_practice","","","","tol_peg_1","611","611","0","[[1,2,0],[0,0],[3]]","23","[[0,0,0],[3,1],[2]]","practice","611","","","","","","","","","","","","","","",""
"","","","","","single-stim-button","57","285575","0.0-2.0-5.22-0.22","5c902c91332bd90001575f22","D2","batch4","","647","tol_practice","","","","tol_peg_3","647","647","0","[[1,2,0],[0,0],[0]]","24","[[0,0,0],[3,1],[2]]","practice","647","","","","","","","","","","","","","","",""
"","","","","","single-stim-button","58","286227","0.0-2.0-5.22-1.22","5c902c91332bd90001575f22","D2","batch4","","651","tol_practice","","","","tol_peg_2","651","651","0","[[1,2,0],[3,0],[0]]","24","[[0,0,0],[3,1],[2]]","practice","651","","","","","","","","","","","","","","",""
"","","","","","single-stim-button","59","286919","0.0-2.0-5.23-0.23","5c902c91332bd90001575f22","D2","batch4","","692","tol_practice","","","","tol_peg_1","692","692","0","[[1,0,0],[3,0],[0]]","25","[[0,0,0],[3,1],[2]]","practice","692","","","","","","","","","","","","","","",""
"","","","","","single-stim-button","60","287623","0.0-2.0-5.23-1.23","5c902c91332bd90001575f22","D2","batch4","","704","tol_practice","","","","tol_peg_3","704","704","0","[[1,0,0],[3,0],[2]]","25","[[0,0,0],[3,1],[2]]","practice","704","","","","","","","","","","","","","","",""
"","","","","","single-stim-button","61","288231","0.0-2.0-5.24-0.24","5c902c91332bd90001575f22","D2","batch4","","608","tol_practice","","","","tol_peg_1","608","608","0","[[0,0,0],[3,0],[2]]","26","[[0,0,0],[3,1],[2]]","practice","608","","","","","","","","","","","","","","",""
"","","","","","single-stim-button","62","288745","0.0-2.0-5.24-1.24","5c902c91332bd90001575f22","D2","batch4","","512","tol_practice","","","","tol_peg_2","512","512","0","[[0,0,0],[3,1],[2]]","26","[[0,0,0],[3,1],[2]]","practice","512","","","","","","","","","","","","","","",""
"","","","","","poldrack-single-stim","63","289751","0.0-2.0-6.0","5c902c91332bd90001575f22","D2","batch4","","-1","tol_feedback","","","true","","1000","1000","500","","","","","","-1","none","true","","0","","","","","","","","","",""
"","","","","","single-stim-button","64","293325","0.0-2.0-7.0-0.0","5c902c91332bd90001575f22","D2","batch4","","3572","tol_practice","","","","tol_peg_2","3572","3572","0","[[1,2,0],[0,0],[0]]","27","[[1,0,0],[2,0],[3]]","practice","3572","","","","","","","","","","","","","","",""
"","","","","","single-stim-button","65","294125","0.0-2.0-7.0-1.0","5c902c91332bd90001575f22","D2","batch4","","799","tol_practice","","","","tol_peg_3","799","799","0","[[1,2,0],[0,0],[3]]","27","[[1,0,0],[2,0],[3]]","practice","799","","","","","","","","","","","","","","",""
"","","","","","single-stim-button","66","294657","0.0-2.0-7.1-0.1","5c902c91332bd90001575f22","D2","batch4","","531","tol_practice","","","","tol_peg_1","531","531","0","[[1,0,0],[0,0],[3]]","28","[[1,0,0],[2,0],[3]]","practice","531","","","","","","","","","","","","","","",""
"","","","","","single-stim-button","67","295241","0.0-2.0-7.1-1.1","5c902c91332bd90001575f22","D2","batch4","","583","tol_practice","","","","tol_peg_2","583","583","0","[[1,0,0],[2,0],[3]]","28","[[1,0,0],[2,0],[3]]","practice","583","","","","","","","","","","","","","","",""
"","","","","","poldrack-single-stim","68","296242","0.0-2.0-8.0","5c902c91332bd90001575f22","D2","batch4","","-1","tol_feedback","","","true","","1000","1000","500","","","","","","-1","none","true","","0","","","","","","","","","",""
"","","","","","html-button-response","69","300963","0.0-2.0-9.0","5c902c91332bd90001575f22","D2","batch4","","4721","tol_instruction","<div class = centerbox><p class = center-block-text>Great job! You are done with practice trials<br>You are about to start official trials.<br> <br> Problem <strong>1</strong> out of 25 problems</p></div>","0","","","","","","","","","","","","","","","","","","","","","","","","",""
"","","","","","single-stim-button","70","305364","0.0-2.0-10.0-0.0","5c902c91332bd90001575f22","D2","batch4","","3398","tol_tohand","","","","tol_peg_1","3398","3398","0","[[1,0,0],[3,0],[0]]","1","[[1,3,0],[2,0],[0]]","0","0","","","","","","3","","","","","","","","",""
"","","","","","single-stim-button","71","306908","0.0-2.0-10.0-1.0","5c902c91332bd90001575f22","D2","batch4","","1544","tol_toboard","","","","tol_peg_3","1544","1544","0","[[1,0,0],[3,0],[2]]","1","[[1,3,0],[2,0],[0]]","0","0","","","","","","3","","","","","","","","",""
"","","","","","single-stim-button","72","307608","0.0-2.0-10.1-0.1","5c902c91332bd90001575f22","D2","batch4","","698","tol_tohand","","","","tol_peg_2","698","698","0","[[1,0,0],[0,0],[2]]","2","[[1,3,0],[2,0],[0]]","0","0","","","","","","3","","","","","","","","",""
"","","","","","single-stim-button","73","308492","0.0-2.0-10.1-1.1","5c902c91332bd90001575f22","D2","batch4","","884","tol_toboard","","","","tol_peg_1","884","884","0","[[1,3,0],[0,0],[2]]","2","[[1,3,0],[2,0],[0]]","0","0","","","","","","3","","","","","","","","",""
"","","","","","single-stim-button","74","309108","0.0-2.0-10.2-0.2","5c902c91332bd90001575f22","D2","batch4","","616","tol_tohand","","","","tol_peg_3","616","616","0","[[1,3,0],[0,0],[0]]","3","[[1,3,0],[2,0],[0]]","0","0","","","","","","3","","","","","","","","",""
"","","","","","single-stim-button","75","309853","0.0-2.0-10.2-1.2","5c902c91332bd90001575f22","D2","batch4","","744","tol_toboard","","","","tol_peg_2","744","744","0","[[1,3,0],[2,0],[0]]","3","[[1,3,0],[2,0],[0]]","0","0","","","","","","3","","","","","","","","",""
"","","","","","poldrack-single-stim","76","310855","0.0-2.0-11.0","5c902c91332bd90001575f22","D2","batch4","","-1","tol_feedback","","","true","","1000","1000","500","","","","","","-1","none","true","3398","4712","","","","","","","","","",""
"","","","","","html-button-response","77","312154","0.0-2.0-12.0","5c902c91332bd90001575f22","D2","batch4","","1299","tol_trial_num","<div class = centerbox><p class = center-block-text>problem <strong>2</strong> out of 25 problems</p></div>","0","","","","","","","","","","","","","","","","","","","","","","","","",""
"","","","","","single-stim-button","78","317510","0.0-2.0-13.0-0.0","5c902c91332bd90001575f22","D2","batch4","","5356","tol_tohand","","","","tol_peg_2","5356","5356","0","[[1,2,0],[0,0],[0]]","1","[[2,1,3],[0,0],[0]]","1","0","","","","","","5","","","","","","","","",""
"","","","","","single-stim-button","79","318314","0.0-2.0-13.0-1.0","5c902c91332bd90001575f22","D2","batch4","","803","tol_toboard","","","","tol_peg_3","803","803","0","[[1,2,0],[0,0],[3]]","1","[[2,1,3],[0,0],[0]]","1","0","","","","","","5","","","","","","","","",""
"","","","","","single-stim-button","80","319358","0.0-2.0-13.1-0.1","5c902c91332bd90001575f22","D2","batch4","","1044","tol_tohand","","","","tol_peg_1","1044","1044","0","[[1,0,0],[0,0],[3]]","2","[[2,1,3],[0,0],[0]]","1","0","","","","","","5","","","","","","","","",""
"","","","","","single-stim-button","81","321616","0.0-2.0-13.1-1.1","5c902c91332bd90001575f22","D2","batch4","","2257","tol_toboard","","","","tol_peg_2","2257","2257","0","[[1,0,0],[2,0],[3]]","2","[[2,1,3],[0,0],[0]]","1","0","","","","","","5","","","","","","","","",""
"","","","","","single-stim-button","82","322152","0.0-2.0-13.2-0.2","5c902c91332bd90001575f22","D2","batch4","","535","tol_tohand","","","","tol_peg_1","535","535","0","[[0,0,0],[2,0],[3]]","3","[[2,1,3],[0,0],[0]]","1","0","","","","","","5","","","","","","","","",""
"","","","","","single-stim-button","83","323548","0.0-2.0-13.2-1.2","5c902c91332bd90001575f22","D2","batch4","","1396","tol_toboard","","","","tol_peg_2","1396","1396","0","[[0,0,0],[2,1],[3]]","3","[[2,1,3],[0,0],[0]]","1","0","","","","","","5","","","","","","","","",""
"","","","","","single-stim-button","84","325016","0.0-2.0-13.3-0.3","5c902c91332bd90001575f22","D2","batch4","","1467","tol_tohand","","","","tol_peg_3","1467","1467","0","[[0,0,0],[2,1],[0]]","4","[[2,1,3],[0,0],[0]]","1","0","","","","","","5","","","","","","","","",""
"","","","","","single-stim-button","85","327622","0.0-2.0-13.3-1.3","5c902c91332bd90001575f22","D2","batch4","","2605","tol_toboard","","","","tol_peg_3","2605","2605","0","[[0,0,0],[2,1],[3]]","4","[[2,1,3],[0,0],[0]]","1","0","","","","","","5","","","","","","","","",""
"","","","","","single-stim-button","86","328003","0.0-2.0-13.4-0.4","5c902c91332bd90001575f22","D2","batch4","","380","tol_tohand","","","","tol_peg_2","380","380","0","[[0,0,0],[2,0],[3]]","5","[[2,1,3],[0,0],[0]]","1","0","","","","","","5","","","","","","","","",""
"","","","","","single-stim-button","87","328538","0.0-2.0-13.4-1.4","5c902c91332bd90001575f22","D2","batch4","","535","tol_toboard","","","","tol_peg_1","535","535","0","[[1,0,0],[2,0],[3]]","5","[[2,1,3],[0,0],[0]]","1","0","","","","","","5","","","","","","","","",""
"","","","","","single-stim-button","88","331551","0.0-2.0-13.5-0.5","5c902c91332bd90001575f22","D2","batch4","","3013","tol_tohand","","","","tol_peg_3","3013","3013","0","[[1,0,0],[2,0],[0]]","6","[[2,1,3],[0,0],[0]]","1","0","","","","","","5","","","","","","","","",""
"","","","","","single-stim-button","89","332414","0.0-2.0-13.5-1.5","5c902c91332bd90001575f22","D2","batch4","","863","tol_toboard","","","","tol_peg_1","863","863","0","[[1,3,0],[2,0],[0]]","6","[[2,1,3],[0,0],[0]]","1","0","","","","","","5","","","","","","","","",""
"","","","","","single-stim-button","90","333194","0.0-2.0-13.6-0.6","5c902c91332bd90001575f22","D2","batch4","","779","tol_tohand","","","","tol_peg_2","779","779","0","[[1,3,0],[0,0],[0]]","7","[[2,1,3],[0,0],[0]]","1","0","","","","","","5","","","","","","","","",""
"","","","","","single-stim-button","91","333930","0.0-2.0-13.6-1.6","5c902c91332bd90001575f22","D2","batch4","","736","tol_toboard","","","","tol_peg_1","736","736","0","[[1,3,2],[0,0],[0]]","7","[[2,1,3],[0,0],[0]]","1","0","","","","","","5","","","","","","","","",""
"","","","","","single-stim-button","92","334714","0.0-2.0-13.7-0.7","5c902c91332bd90001575f22","D2","batch4","","783","tol_tohand","","","","tol_peg_1","783","783","0","[[1,3,0],[0,0],[0]]","8","[[2,1,3],[0,0],[0]]","1","0","","","","","","5","","","","","","","","",""
"","","","","","single-stim-button","93","335436","0.0-2.0-13.7-1.7","5c902c91332bd90001575f22","D2","batch4","","722","tol_toboard","","","","tol_peg_3","722","722","0","[[1,3,0],[0,0],[2]]","8","[[2,1,3],[0,0],[0]]","1","0","","","","","","5","","","","","","","","",""
"","","","","","single-stim-button","94","336448","0.0-2.0-13.8-0.8","5c902c91332bd90001575f22","D2","batch4","","1012","tol_tohand","","","","tol_peg_1","1012","1012","0","[[1,0,0],[0,0],[2]]","9","[[2,1,3],[0,0],[0]]","1","0","","","","","","5","","","","","","","","",""
"","","","","","single-stim-button","95","337120","0.0-2.0-13.8-1.8","5c902c91332bd90001575f22","D2","batch4","","672","tol_toboard","","","","tol_peg_2","672","672","0","[[1,0,0],[3,0],[2]]","9","[[2,1,3],[0,0],[0]]","1","0","","","","","","5","","","","","","","","",""
"","","","","","single-stim-button","96","337572","0.0-2.0-13.9-0.9","5c902c91332bd90001575f22","D2","batch4","","451","tol_tohand","","","","tol_peg_1","451","451","0","[[0,0,0],[3,0],[2]]","10","[[2,1,3],[0,0],[0]]","1","0","","","","","","5","","","","","","","","",""
"","","","","","single-stim-button","97","338504","0.0-2.0-13.9-1.9","5c902c91332bd90001575f22","D2","batch4","","930","tol_toboard","","","","tol_peg_2","930","930","0","[[0,0,0],[3,1],[2]]","10","[[2,1,3],[0,0],[0]]","1","0","","","","","","5","","","","","","","","",""
"","","","","","single-stim-button","98","339068","0.0-2.0-13.10-0.10","5c902c91332bd90001575f22","D2","batch4","","564","tol_tohand","","","","tol_peg_3","564","564","0","[[0,0,0],[3,1],[0]]","11","[[2,1,3],[0,0],[0]]","1","0","","","","","","5","","","","","","","","",""
"","","","","","single-stim-button","99","339708","0.0-2.0-13.10-1.10","5c902c91332bd90001575f22","D2","batch4","","640","tol_toboard","","","","tol_peg_1","640","640","0","[[2,0,0],[3,1],[0]]","11","[[2,1,3],[0,0],[0]]","1","0","","","","","","5","","","","","","","","",""
"","","","","","single-stim-button","100","340172","0.0-2.0-13.11-0.11","5c902c91332bd90001575f22","D2","batch4","","463","tol_tohand","","","","tol_peg_2","463","463","0","[[2,0,0],[3,0],[0]]","12","[[2,1,3],[0,0],[0]]","1","0","","","","","","5","","","","","","","","",""
"","","","","","single-stim-button","101","340788","0.0-2.0-13.11-1.11","5c902c91332bd90001575f22","D2","batch4","","616","tol_toboard","","","","tol_peg_1","616","616","0","[[2,1,0],[3,0],[0]]","12","[[2,1,3],[0,0],[0]]","1","0","","","","","","5","","","","","","","","",""
"","","","","","single-stim-button","102","341236","0.0-2.0-13.12-0.12","5c902c91332bd90001575f22","D2","batch4","","448","tol_tohand","","","","tol_peg_2","448","448","0","[[2,1,0],[0,0],[0]]","13","[[2,1,3],[0,0],[0]]","1","0","","","","","","5","","","","","","","","",""
"","","","","","single-stim-button","103","341768","0.0-2.0-13.12-1.12","5c902c91332bd90001575f22","D2","batch4","","532","tol_toboard","","","","tol_peg_1","532","532","0","[[2,1,3],[0,0],[0]]","13","[[2,1,3],[0,0],[0]]","1","0","","","","","","5","","","","","","","","",""
"","","","","","poldrack-single-stim","104","342769","0.0-2.0-14.0","5c902c91332bd90001575f22","D2","batch4","","-1","tol_feedback","","","true","","1000","1000","500","","","","","","-1","none","true","5356","16295","","","","","","","","","",""
"","","","","","html-button-response","105","343898","0.0-2.0-15.0","5c902c91332bd90001575f22","D2","batch4","","1129","tol_trial_num","<div class = centerbox><p class = center-block-text>problem <strong>3</strong> out of 25 problems</p></div>","0","","","","","","","","","","","","","","","","","","","","","","","","",""
"","","","","","single-stim-button","106","352712","0.0-2.0-16.0-0.0","5c902c91332bd90001575f22","D2","batch4","","8814","tol_tohand","","","","tol_peg_1","8814","8814","0","[[2,0,0],[0,0],[1]]","1","[[1,2,0],[3,0],[0]]","2","0","","","","","","4","","","","","","","","",""
"","","","","","single-stim-button","107","354320","0.0-2.0-16.0-1.0","5c902c91332bd90001575f22","D2","batch4","","1608","tol_toboard","","","","tol_peg_2","1608","1608","0","[[2,0,0],[3,0],[1]]","1","[[1,2,0],[3,0],[0]]","2","0","","","","","","4","","","","","","","","",""
"","","","","","single-stim-button","108","354684","0.0-2.0-16.1-0.1","5c902c91332bd90001575f22","D2","batch4","","363","tol_tohand","","","","tol_peg_1","363","363","0","[[0,0,0],[3,0],[1]]","2","[[1,2,0],[3,0],[0]]","2","0","","","","","","4","","","","","","","","",""
"","","","","","single-stim-button","109","355280","0.0-2.0-16.1-1.1","5c902c91332bd90001575f22","D2","batch4","","596","tol_toboard","","","","tol_peg_2","596","596","0","[[0,0,0],[3,2],[1]]","2","[[1,2,0],[3,0],[0]]","2","0","","","","","","4","","","","","","","","",""
"","","","","","single-stim-button","110","355719","0.0-2.0-16.2-0.2","5c902c91332bd90001575f22","D2","batch4","","439","tol_tohand","","","","tol_peg_3","439","439","0","[[0,0,0],[3,2],[0]]","3","[[1,2,0],[3,0],[0]]","2","0","","","","","","4","","","","","","","","",""
"","","","","","single-stim-button","111","356636","0.0-2.0-16.2-1.2","5c902c91332bd90001575f22","D2","batch4","","916","tol_toboard","","","","tol_peg_1","916","916","0","[[1,0,0],[3,2],[0]]","3","[[1,2,0],[3,0],[0]]","2","0","","","","","","4","","","","","","","","",""
"","","","","","single-stim-button","112","357036","0.0-2.0-16.3-0.3","5c902c91332bd90001575f22","D2","batch4","","399","tol_tohand","","","","tol_peg_2","399","399","0","[[1,0,0],[3,0],[0]]","4","[[1,2,0],[3,0],[0]]","2","0","","","","","","4","","","","","","","","",""
"","","","","","single-stim-button","113","357677","0.0-2.0-16.3-1.3","5c902c91332bd90001575f22","D2","batch4","","640","tol_toboard","","","","tol_peg_1","640","640","0","[[1,2,0],[3,0],[0]]","4","[[1,2,0],[3,0],[0]]","2","0","","","","","","4","","","","","","","","",""
"","","","","","poldrack-single-stim","114","358693","0.0-2.0-17.0","5c902c91332bd90001575f22","D2","batch4","","-1","tol_feedback","","","true","","1000","1000","500","","","","","","-1","none","true","8814","10015","","","","","","","","","",""
"","","","","","html-button-response","115","359878","0.0-2.0-18.0","5c902c91332bd90001575f22","D2","batch4","","1184","tol_trial_num","<div class = centerbox><p class = center-block-text>problem <strong>4</strong> out of 25 problems</p></div>","0","","","","","","","","","","","","","","","","","","","","","","","","",""
"","","","","","single-stim-button","116","364550","0.0-2.0-19.0-0.0","5c902c91332bd90001575f22","D2","batch4","","4671","tol_tohand","","","","tol_peg_2","4671","4671","0","[[3,0,0],[2,0],[0]]","1","[[3,0,0],[1,0],[2]]","3","0","","","","","","3","","","","","","","","",""
"","","","","","single-stim-button","117","365322","0.0-2.0-19.0-1.0","5c902c91332bd90001575f22","D2","batch4","","771","tol_toboard","","","","tol_peg_1","771","771","0","[[3,1,0],[2,0],[0]]","1","[[3,0,0],[1,0],[2]]","3","0","","","","","","3","","","","","","","","",""
"","","","","","single-stim-button","118","365828","0.0-2.0-19.1-0.1","5c902c91332bd90001575f22","D2","batch4","","505","tol_tohand","","","","tol_peg_2","505","505","0","[[3,1,0],[0,0],[0]]","2","[[3,0,0],[1,0],[2]]","3","0","","","","","","3","","","","","","","","",""
"","","","","","single-stim-button","119","366296","0.0-2.0-19.1-1.1","5c902c91332bd90001575f22","D2","batch4","","467","tol_toboard","","","","tol_peg_3","467","467","0","[[3,1,0],[0,0],[2]]","2","[[3,0,0],[1,0],[2]]","3","0","","","","","","3","","","","","","","","",""
"","","","","","single-stim-button","120","366789","0.0-2.0-19.2-0.2","5c902c91332bd90001575f22","D2","batch4","","491","tol_tohand","","","","tol_peg_1","491","491","0","[[3,0,0],[0,0],[2]]","3","[[3,0,0],[1,0],[2]]","3","0","","","","","","3","","","","","","","","",""
"","","","","","single-stim-button","121","367397","0.0-2.0-19.2-1.2","5c902c91332bd90001575f22","D2","batch4","","607","tol_toboard","","","","tol_peg_2","607","607","0","[[3,0,0],[1,0],[2]]","3","[[3,0,0],[1,0],[2]]","3","0","","","","","","3","","","","","","","","",""
"","","","","","poldrack-single-stim","122","368399","0.0-2.0-20.0","5c902c91332bd90001575f22","D2","batch4","","-1","tol_feedback","","","true","","1000","1000","500","","","","","","-1","none","true","4671","5667","","","","","","","","","",""
"","","","","","html-button-response","123","369708","0.0-2.0-21.0","5c902c91332bd90001575f22","D2","batch4","","1308","tol_trial_num","<div class = centerbox><p class = center-block-text>problem <strong>5</strong> out of 25 problems</p></div>","0","","","","","","","","","","","","","","","","","","","","","","","","",""
"","","","","","single-stim-button","124","376674","0.0-2.0-22.0-0.0","5c902c91332bd90001575f22","D2","batch4","","6966","tol_tohand","","","","tol_peg_3","6966","6966","0","[[1,0,0],[2,0],[0]]","1","[[0,0,0],[1,2],[3]]","4","0","","","","","","7","","","","","","","","",""
"","","","","","single-stim-button","125","377738","0.0-2.0-22.0-1.0","5c902c91332bd90001575f22","D2","batch4","","1063","tol_toboard","","","","tol_peg_1","1063","1063","0","[[1,3,0],[2,0],[0]]","1","[[0,0,0],[1,2],[3]]","4","0","","","","","","7","","","","","","","","",""
"","","","","","single-stim-button","126","378487","0.0-2.0-22.1-0.1","5c902c91332bd90001575f22","D2","batch4","","747","tol_tohand","","","","tol_peg_2","747","747","0","[[1,3,0],[0,0],[0]]","2","[[0,0,0],[1,2],[3]]","4","0","","","","","","7","","","","","","","","",""
"","","","","","single-stim-button","127","379142","0.0-2.0-22.1-1.1","5c902c91332bd90001575f22","D2","batch4","","655","tol_toboard","","","","tol_peg_3","655","655","0","[[1,3,0],[0,0],[2]]","2","[[0,0,0],[1,2],[3]]","4","0","","","","","","7","","","","","","","","",""
"","","","","","single-stim-button","128","379791","0.0-2.0-22.2-0.2","5c902c91332bd90001575f22","D2","batch4","","648","tol_tohand","","","","tol_peg_1","648","648","0","[[1,0,0],[0,0],[2]]","3","[[0,0,0],[1,2],[3]]","4","0","","","","","","7","","","","","","","","",""
"","","","","","single-stim-button","129","380414","0.0-2.0-22.2-1.2","5c902c91332bd90001575f22","D2","batch4","","623","tol_toboard","","","","tol_peg_2","623","623","0","[[1,0,0],[3,0],[2]]","3","[[0,0,0],[1,2],[3]]","4","0","","","","","","7","","","","","","","","",""
"","","","","","single-stim-button","130","380984","0.0-2.0-22.3-0.3","5c902c91332bd90001575f22","D2","batch4","","569","tol_tohand","","","","tol_peg_1","569","569","0","[[0,0,0],[3,0],[2]]","4","[[0,0,0],[1,2],[3]]","4","0","","","","","","7","","","","","","","","",""
"","","","","","single-stim-button","131","381568","0.0-2.0-22.3-1.3","5c902c91332bd90001575f22","D2","batch4","","583","tol_toboard","","","","tol_peg_2","583","583","0","[[0,0,0],[3,1],[2]]","4","[[0,0,0],[1,2],[3]]","4","0","","","","","","7","","","","","","","","",""
"","","","","","single-stim-button","132","386485","0.0-2.0-22.4-0.4","5c902c91332bd90001575f22","D2","batch4","","4916","tol_tohand","","","","tol_peg_3","4916","4916","0","[[0,0,0],[3,1],[0]]","5","[[0,0,0],[1,2],[3]]","4","0","","","","","","7","","","","","","","","",""
"","","","","","single-stim-button","133","387028","0.0-2.0-22.4-1.4","5c902c91332bd90001575f22","D2","batch4","","543","tol_toboard","","","","tol_peg_1","543","543","0","[[2,0,0],[3,1],[0]]","5","[[0,0,0],[1,2],[3]]","4","0","","","","","","7","","","","","","","","",""
"","","","","","single-stim-button","134","388878","0.0-2.0-22.5-0.5","5c902c91332bd90001575f22","D2","batch4","","1849","tol_tohand","","","","tol_peg_2","1849","1849","0","[[2,0,0],[3,0],[0]]","6","[[0,0,0],[1,2],[3]]","4","0","","","","","","7","","","","","","","","",""
"","","","","","single-stim-button","135","390170","0.0-2.0-22.5-1.5","5c902c91332bd90001575f22","D2","batch4","","1291","tol_toboard","","","","tol_peg_1","1291","1291","0","[[2,1,0],[3,0],[0]]","6","[[0,0,0],[1,2],[3]]","4","0","","","","","","7","","","","","","","","",""
"","","","","","single-stim-button","136","390926","0.0-2.0-22.6-0.6","5c902c91332bd90001575f22","D2","batch4","","755","tol_tohand","","","","tol_peg_2","755","755","0","[[2,1,0],[0,0],[0]]","7","[[0,0,0],[1,2],[3]]","4","0","","","","","","7","","","","","","","","",""
"","","","","","single-stim-button","137","391383","0.0-2.0-22.6-1.6","5c902c91332bd90001575f22","D2","batch4","","455","tol_toboard","","","","tol_peg_3","455","455","0","[[2,1,0],[0,0],[3]]","7","[[0,0,0],[1,2],[3]]","4","0","","","","","","7","","","","","","","","",""
"","","","","","single-stim-button","138","391898","0.0-2.0-22.7-0.7","5c902c91332bd90001575f22","D2","batch4","","515","tol_tohand","","","","tol_peg_1","515","515","0","[[2,0,0],[0,0],[3]]","8","[[0,0,0],[1,2],[3]]","4","0","","","","","","7","","","","","","","","",""
"","","","","","single-stim-button","139","392343","0.0-2.0-22.7-1.7","5c902c91332bd90001575f22","D2","batch4","","444","tol_toboard","","","","tol_peg_2","444","444","0","[[2,0,0],[1,0],[3]]","8","[[0,0,0],[1,2],[3]]","4","0","","","","","","7","","","","","","","","",""
"","","","","","single-stim-button","140","392719","0.0-2.0-22.8-0.8","5c902c91332bd90001575f22","D2","batch4","","376","tol_tohand","","","","tol_peg_1","376","376","0","[[0,0,0],[1,0],[3]]","9","[[0,0,0],[1,2],[3]]","4","0","","","","","","7","","","","","","","","",""
"","","","","","single-stim-button","141","393258","0.0-2.0-22.8-1.8","5c902c91332bd90001575f22","D2","batch4","","539","tol_toboard","","","","tol_peg_2","539","539","0","[[0,0,0],[1,2],[3]]","9","[[0,0,0],[1,2],[3]]","4","0","","","","","","7","","","","","","","","",""
"","","","","","poldrack-single-stim","142","394259","0.0-2.0-23.0","5c902c91332bd90001575f22","D2","batch4","","-1","tol_feedback","","","true","","1000","1000","500","","","","","","-1","none","true","6966","17341","","","","","","","","","",""
"","","","","","html-button-response","143","395039","0.0-2.0-24.0","5c902c91332bd90001575f22","D2","batch4","","780","tol_trial_num","<div class = centerbox><p class = center-block-text>problem <strong>6</strong> out of 25 problems</p></div>","0","","","","","","","","","","","","","","","","","","","","","","","","",""
"","","","","","single-stim-button","144","400556","0.0-2.0-25.0-0.0","5c902c91332bd90001575f22","D2","batch4","","5517","tol_tohand","","","","tol_peg_3","5517","5517","0","[[0,0,0],[1,2],[0]]","1","[[1,0,0],[2,3],[0]]","5","0","","","","","","6","","","","","","","","",""
"","","","","","single-stim-button","145","401217","0.0-2.0-25.0-1.0","5c902c91332bd90001575f22","D2","batch4","","660","tol_toboard","","","","tol_peg_1","660","660","0","[[3,0,0],[1,2],[0]]","1","[[1,0,0],[2,3],[0]]","5","0","","","","","","6","","","","","","","","",""
"","","","","","single-stim-button","146","401828","0.0-2.0-25.1-0.1","5c902c91332bd90001575f22","D2","batch4","","611","tol_tohand","","","","tol_peg_2","611","611","0","[[3,0,0],[1,0],[0]]","2","[[1,0,0],[2,3],[0]]","5","0","","","","","","6","","","","","","","","",""
"","","","","","single-stim-button","147","404458","0.0-2.0-25.1-1.1","5c902c91332bd90001575f22","D2","batch4","","2629","tol_toboard","","","","tol_peg_3","2629","2629","0","[[3,0,0],[1,0],[2]]","2","[[1,0,0],[2,3],[0]]","5","0","","","","","","6","","","","","","","","",""
"","","","","","single-stim-button","148","405998","0.0-2.0-25.2-0.2","5c902c91332bd90001575f22","D2","batch4","","1540","tol_tohand","","","","tol_peg_3","1540","1540","0","[[3,0,0],[1,0],[0]]","3","[[1,0,0],[2,3],[0]]","5","0","","","","","","6","","","","","","","","",""
"","","","","","single-stim-button","149","406635","0.0-2.0-25.2-1.2","5c902c91332bd90001575f22","D2","batch4","","635","tol_toboard","","","","tol_peg_1","635","635","0","[[3,2,0],[1,0],[0]]","3","[[1,0,0],[2,3],[0]]","5","0","","","","","","6","","","","","","","","",""
"","","","","","single-stim-button","150","407138","0.0-2.0-25.3-0.3","5c902c91332bd90001575f22","D2","batch4","","503","tol_tohand","","","","tol_peg_2","503","503","0","[[3,2,0],[0,0],[0]]","4","[[1,0,0],[2,3],[0]]","5","0","","","","","","6","","","","","","","","",""
"","","","","","single-stim-button","151","407823","0.0-2.0-25.3-1.3","5c902c91332bd90001575f22","D2","batch4","","684","tol_toboard","","","","tol_peg_3","684","684","0","[[3,2,0],[0,0],[1]]","4","[[1,0,0],[2,3],[0]]","5","0","","","","","","6","","","","","","","","",""
"","","","","","single-stim-button","152","408542","0.0-2.0-25.4-0.4","5c902c91332bd90001575f22","D2","batch4","","719","tol_tohand","","","","tol_peg_1","719","719","0","[[3,0,0],[0,0],[1]]","5","[[1,0,0],[2,3],[0]]","5","0","","","","","","6","","","","","","","","",""
"","","","","","single-stim-button","153","409171","0.0-2.0-25.4-1.4","5c902c91332bd90001575f22","D2","batch4","","627","tol_toboard","","","","tol_peg_2","627","627","0","[[3,0,0],[2,0],[1]]","5","[[1,0,0],[2,3],[0]]","5","0","","","","","","6","","","","","","","","",""
"","","","","","single-stim-button","154","409659","0.0-2.0-25.5-0.5","5c902c91332bd90001575f22","D2","batch4","","488","tol_tohand","","","","tol_peg_1","488","488","0","[[0,0,0],[2,0],[1]]","6","[[1,0,0],[2,3],[0]]","5","0","","","","","","6","","","","","","","","",""
"","","","","","single-stim-button","155","410175","0.0-2.0-25.5-1.5","5c902c91332bd90001575f22","D2","batch4","","515","tol_toboard","","","","tol_peg_2","515","515","0","[[0,0,0],[2,3],[1]]","6","[[1,0,0],[2,3],[0]]","5","0","","","","","","6","","","","","","","","",""
"","","","","","single-stim-button","156","410598","0.0-2.0-25.6-0.6","5c902c91332bd90001575f22","D2","batch4","","423","tol_tohand","","","","tol_peg_3","423","423","0","[[0,0,0],[2,3],[0]]","7","[[1,0,0],[2,3],[0]]","5","0","","","","","","6","","","","","","","","",""
"","","","","","single-stim-button","157","411138","0.0-2.0-25.6-1.6","5c902c91332bd90001575f22","D2","batch4","","540","tol_toboard","","","","tol_peg_1","540","540","0","[[1,0,0],[2,3],[0]]","7","[[1,0,0],[2,3],[0]]","5","0","","","","","","6","","","","","","","","",""
"","","","","","poldrack-single-stim","158","412152","0.0-2.0-26.0","5c902c91332bd90001575f22","D2","batch4","","-1","tol_feedback","","","true","","1000","1000","500","","","","","","-1","none","true","5517","9801","","","","","","","","","",""
"","","","","","html-button-response","159","413032","0.0-2.0-27.0","5c902c91332bd90001575f22","D2","batch4","","880","tol_trial_num","<div class = centerbox><p class = center-block-text>problem <strong>7</strong> out of 25 problems</p></div>","0","","","","","","","","","","","","","","","","","","","","","","","","",""
"","","","","","single-stim-button","160","417796","0.0-2.0-28.0-0.0","5c902c91332bd90001575f22","D2","batch4","","4763","tol_tohand","","","","tol_peg_1","4763","4763","0","[[2,0,0],[0,0],[3]]","1","[[1,2,0],[3,0],[0]]","6","0","","","","","","5","","","","","","","","",""
"","","","","","single-stim-button","161","419124","0.0-2.0-28.0-1.0","5c902c91332bd90001575f22","D2","batch4","","1328","tol_toboard","","","","tol_peg_2","1328","1328","0","[[2,0,0],[1,0],[3]]","1","[[1,2,0],[3,0],[0]]","6","0","","","","","","5","","","","","","","","",""
"","","","","","single-stim-button","162","419506","0.0-2.0-28.1-0.1","5c902c91332bd90001575f22","D2","batch4","","382","tol_tohand","","","","tol_peg_1","382","382","0","[[0,0,0],[1,0],[3]]","2","[[1,2,0],[3,0],[0]]","6","0","","","","","","5","","","","","","","","",""
"","","","","","single-stim-button","163","422386","0.0-2.0-28.1-1.1","5c902c91332bd90001575f22","D2","batch4","","2879","tol_toboard","","","","tol_peg_2","2879","2879","0","[[0,0,0],[1,2],[3]]","2","[[1,2,0],[3,0],[0]]","6","0","","","","","","5","","","","","","","","",""
"","","","","","single-stim-button","164","422979","0.0-2.0-28.2-0.2","5c902c91332bd90001575f22","D2","batch4","","592","tol_tohand","","","","tol_peg_3","592","592","0","[[0,0,0],[1,2],[0]]","3","[[1,2,0],[3,0],[0]]","6","0","","","","","","5","","","","","","","","",""
"","","","","","single-stim-button","165","423638","0.0-2.0-28.2-1.2","5c902c91332bd90001575f22","D2","batch4","","659","tol_toboard","","","","tol_peg_1","659","659","0","[[3,0,0],[1,2],[0]]","3","[[1,2,0],[3,0],[0]]","6","0","","","","","","5","","","","","","","","",""
"","","","","","single-stim-button","166","424026","0.0-2.0-28.3-0.3","5c902c91332bd90001575f22","D2","batch4","","387","tol_tohand","","","","tol_peg_2","387","387","0","[[3,0,0],[1,0],[0]]","4","[[1,2,0],[3,0],[0]]","6","0","","","","","","5","","","","","","","","",""
"","","","","","single-stim-button","167","424434","0.0-2.0-28.3-1.3","5c902c91332bd90001575f22","D2","batch4","","408","tol_toboard","","","","tol_peg_1","408","408","0","[[3,2,0],[1,0],[0]]","4","[[1,2,0],[3,0],[0]]","6","0","","","","","","5","","","","","","","","",""
"","","","","","single-stim-button","168","424890","0.0-2.0-28.4-0.4","5c902c91332bd90001575f22","D2","batch4","","455","tol_tohand","","","","tol_peg_2","455","455","0","[[3,2,0],[0,0],[0]]","5","[[1,2,0],[3,0],[0]]","6","0","","","","","","5","","","","","","","","",""
"","","","","","single-stim-button","169","425538","0.0-2.0-28.4-1.4","5c902c91332bd90001575f22","D2","batch4","","647","tol_toboard","","","","tol_peg_3","647","647","0","[[3,2,0],[0,0],[1]]","5","[[1,2,0],[3,0],[0]]","6","0","","","","","","5","","","","","","","","",""
"","","","","","single-stim-button","170","426598","0.0-2.0-28.5-0.5","5c902c91332bd90001575f22","D2","batch4","","1060","tol_tohand","","","","tol_peg_1","1060","1060","0","[[3,0,0],[0,0],[1]]","6","[[1,2,0],[3,0],[0]]","6","0","","","","","","5","","","","","","","","",""
"","","","","","single-stim-button","171","427852","0.0-2.0-28.5-1.5","5c902c91332bd90001575f22","D2","batch4","","1254","tol_toboard","","","","tol_peg_2","1254","1254","0","[[3,0,0],[2,0],[1]]","6","[[1,2,0],[3,0],[0]]","6","0","","","","","","5","","","","","","","","",""
"","","","","","single-stim-button","172","428264","0.0-2.0-28.6-0.6","5c902c91332bd90001575f22","D2","batch4","","410","tol_tohand","","","","tol_peg_1","410","410","0","[[0,0,0],[2,0],[1]]","7","[[1,2,0],[3,0],[0]]","6","0","","","","","","5","","","","","","","","",""
"","","","","","single-stim-button","173","428744","0.0-2.0-28.6-1.6","5c902c91332bd90001575f22","D2","batch4","","480","tol_toboard","","","","tol_peg_2","480","480","0","[[0,0,0],[2,3],[1]]","7","[[1,2,0],[3,0],[0]]","6","0","","","","","","5","","","","","","","","",""
"","","","","","single-stim-button","174","429321","0.0-2.0-28.7-0.7","5c902c91332bd90001575f22","D2","batch4","","575","tol_tohand","","","","tol_peg_3","575","575","0","[[0,0,0],[2,3],[0]]","8","[[1,2,0],[3,0],[0]]","6","0","","","","","","5","","","","","","","","",""
"","","","","","single-stim-button","175","430072","0.0-2.0-28.7-1.7","5c902c91332bd90001575f22","D2","batch4","","751","tol_toboard","","","","tol_peg_1","751","751","0","[[1,0,0],[2,3],[0]]","8","[[1,2,0],[3,0],[0]]","6","0","","","","","","5","","","","","","","","",""
"","","","","","single-stim-button","176","431260","0.0-2.0-28.8-0.8","5c902c91332bd90001575f22","D2","batch4","","1187","tol_tohand","","","","tol_peg_2","1187","1187","0","[[1,0,0],[2,0],[0]]","9","[[1,2,0],[3,0],[0]]","6","0","","","","","","5","","","","","","","","",""
"","","","","","single-stim-button","177","432472","0.0-2.0-28.8-1.8","5c902c91332bd90001575f22","D2","batch4","","1211","tol_toboard","","","","tol_peg_3","1211","1211","0","[[1,0,0],[2,0],[3]]","9","[[1,2,0],[3,0],[0]]","6","0","","","","","","5","","","","","","","","",""
"","","","","","single-stim-button","178","432836","0.0-2.0-28.9-0.9","5c902c91332bd90001575f22","D2","batch4","","364","tol_tohand","","","","tol_peg_2","364","364","0","[[1,0,0],[0,0],[3]]","10","[[1,2,0],[3,0],[0]]","6","0","","","","","","5","","","","","","","","",""
"","","","","","single-stim-button","179","433132","0.0-2.0-28.9-1.9","5c902c91332bd90001575f22","D2","batch4","","295","tol_toboard","","","","tol_peg_1","295","295","0","[[1,2,0],[0,0],[3]]","10","[[1,2,0],[3,0],[0]]","6","0","","","","","","5","","","","","","","","",""
"","","","","","single-stim-button","180","433609","0.0-2.0-28.10-0.10","5c902c91332bd90001575f22","D2","batch4","","476","tol_tohand","","","","tol_peg_3","476","476","0","[[1,2,0],[0,0],[0]]","11","[[1,2,0],[3,0],[0]]","6","0","","","","","","5","","","","","","","","",""
"","","","","","single-stim-button","181","434152","0.0-2.0-28.10-1.10","5c902c91332bd90001575f22","D2","batch4","","543","tol_toboard","","","","tol_peg_2","543","543","0","[[1,2,0],[3,0],[0]]","11","[[1,2,0],[3,0],[0]]","6","0","","","","","","5","","","","","","","","",""
"","","","","","poldrack-single-stim","182","435153","0.0-2.0-29.0","5c902c91332bd90001575f22","D2","batch4","","-1","tol_feedback","","","true","","1000","1000","500","","","","","","-1","none","true","4763","10651","","","","","","","","","",""
"","","","","","html-button-response","183","436278","0.0-2.0-30.0","5c902c91332bd90001575f22","D2","batch4","","1124","tol_trial_num","<div class = centerbox><p class = center-block-text>problem <strong>8</strong> out of 25 problems</p></div>","0","","","","","","","","","","","","","","","","","","","","","","","","",""
"","","","","","single-stim-button","184","438475","0.0-2.0-31.0-0.0","5c902c91332bd90001575f22","D2","batch4","","2195","tol_tohand","","","","tol_peg_3","2195","2195","0","[[0,0,0],[2,3],[0]]","1","[[1,2,0],[3,0],[0]]","7","0","","","","","","4","","","","","","","","",""
"","","","","","single-stim-button","185","439070","0.0-2.0-31.0-1.0","5c902c91332bd90001575f22","D2","batch4","","595","tol_toboard","","","","tol_peg_1","595","595","0","[[1,0,0],[2,3],[0]]","1","[[1,2,0],[3,0],[0]]","7","0","","","","","","4","","","","","","","","",""
"","","","","","single-stim-button","186","439510","0.0-2.0-31.1-0.1","5c902c91332bd90001575f22","D2","batch4","","439","tol_tohand","","","","tol_peg_2","439","439","0","[[1,0,0],[2,0],[0]]","2","[[1,2,0],[3,0],[0]]","7","0","","","","","","4","","","","","","","","",""
"","","","","","single-stim-button","187","440302","0.0-2.0-31.1-1.1","5c902c91332bd90001575f22","D2","batch4","","791","tol_toboard","","","","tol_peg_3","791","791","0","[[1,0,0],[2,0],[3]]","2","[[1,2,0],[3,0],[0]]","7","0","","","","","","4","","","","","","","","",""
"","","","","","single-stim-button","188","440750","0.0-2.0-31.2-0.2","5c902c91332bd90001575f22","D2","batch4","","448","tol_tohand","","","","tol_peg_2","448","448","0","[[1,0,0],[0,0],[3]]","3","[[1,2,0],[3,0],[0]]","7","0","","","","","","4","","","","","","","","",""
"","","","","","single-stim-button","189","441250","0.0-2.0-31.2-1.2","5c902c91332bd90001575f22","D2","batch4","","500","tol_toboard","","","","tol_peg_1","500","500","0","[[1,2,0],[0,0],[3]]","3","[[1,2,0],[3,0],[0]]","7","0","","","","","","4","","","","","","","","",""
"","","","","","single-stim-button","190","441746","0.0-2.0-31.3-0.3","5c902c91332bd90001575f22","D2","batch4","","496","tol_tohand","","","","tol_peg_3","496","496","0","[[1,2,0],[0,0],[0]]","4","[[1,2,0],[3,0],[0]]","7","0","","","","","","4","","","","","","","","",""
"","","","","","single-stim-button","191","442230","0.0-2.0-31.3-1.3","5c902c91332bd90001575f22","D2","batch4","","483","tol_toboard","","","","tol_peg_2","483","483","0","[[1,2,0],[3,0],[0]]","4","[[1,2,0],[3,0],[0]]","7","0","","","","","","4","","","","","","","","",""
"","","","","","poldrack-single-stim","192","443231","0.0-2.0-32.0","5c902c91332bd90001575f22","D2","batch4","","-1","tol_feedback","","","true","","1000","1000","500","","","","","","-1","none","true","2195","3578","","","","","","","","","",""
"","","","","","html-button-response","193","444192","0.0-2.0-33.0","5c902c91332bd90001575f22","D2","batch4","","961","tol_trial_num","<div class = centerbox><p class = center-block-text>problem <strong>9</strong> out of 25 problems</p></div>","0","","","","","","","","","","","","","","","","","","","","","","","","",""
"","","","","","single-stim-button","194","445668","0.0-2.0-34.0-0.0","5c902c91332bd90001575f22","D2","batch4","","1475","tol_tohand","","","","tol_peg_1","1475","1475","0","[[3,0,0],[0,0],[1]]","1","[[2,1,0],[3,0],[0]]","8","0","","","","","","6","","","","","","","","",""
"","","","","","single-stim-button","195","449084","0.0-2.0-34.0-1.0","5c902c91332bd90001575f22","D2","batch4","","3415","tol_toboard","","","","tol_peg_1","3415","3415","0","[[3,2,0],[0,0],[1]]","1","[[2,1,0],[3,0],[0]]","8","0","","","","","","6","","","","","","","","",""
"","","","","","single-stim-button","196","449688","0.0-2.0-34.1-0.1","5c902c91332bd90001575f22","D2","batch4","","603","tol_tohand","","","","tol_peg_3","603","603","0","[[3,2,0],[0,0],[0]]","2","[[2,1,0],[3,0],[0]]","8","0","","","","","","6","","","","","","","","",""
"","","","","","single-stim-button","197","450950","0.0-2.0-34.1-1.1","5c902c91332bd90001575f22","D2","batch4","","1262","tol_toboard","","","","tol_peg_2","1262","1262","0","[[3,2,0],[1,0],[0]]","2","[[2,1,0],[3,0],[0]]","8","0","","","","","","6","","","","","","","","",""
"","","","","","single-stim-button","198","451462","0.0-2.0-34.2-0.2","5c902c91332bd90001575f22","D2","batch4","","511","tol_tohand","","","","tol_peg_1","511","511","0","[[3,0,0],[1,0],[0]]","3","[[2,1,0],[3,0],[0]]","8","0","","","","","","6","","","","","","","","",""
"","","","","","single-stim-button","199","451858","0.0-2.0-34.2-1.2","5c902c91332bd90001575f22","D2","batch4","","395","tol_toboard","","","","tol_peg_2","395","395","0","[[3,0,0],[1,2],[0]]","3","[[2,1,0],[3,0],[0]]","8","0","","","","","","6","","","","","","","","",""
"","","","","","single-stim-button","200","452650","0.0-2.0-34.3-0.3","5c902c91332bd90001575f22","D2","batch4","","791","tol_tohand","","","","tol_peg_1","791","791","0","[[0,0,0],[1,2],[0]]","4","[[2,1,0],[3,0],[0]]","8","0","","","","","","6","","","","","","","","",""
"","","","","","single-stim-button","201","453274","0.0-2.0-34.3-1.3","5c902c91332bd90001575f22","D2","batch4","","623","tol_toboard","","","","tol_peg_3","623","623","0","[[0,0,0],[1,2],[3]]","4","[[2,1,0],[3,0],[0]]","8","0","","","","","","6","","","","","","","","",""
"","","","","","single-stim-button","202","453870","0.0-2.0-34.4-0.4","5c902c91332bd90001575f22","D2","batch4","","595","tol_tohand","","","","tol_peg_2","595","595","0","[[0,0,0],[1,0],[3]]","5","[[2,1,0],[3,0],[0]]","8","0","","","","","","6","","","","","","","","",""
"","","","","","single-stim-button","203","454346","0.0-2.0-34.4-1.4","5c902c91332bd90001575f22","D2","batch4","","475","tol_toboard","","","","tol_peg_1","475","475","0","[[2,0,0],[1,0],[3]]","5","[[2,1,0],[3,0],[0]]","8","0","","","","","","6","","","","","","","","",""
"","","","","","single-stim-button","204","455110","0.0-2.0-34.5-0.5","5c902c91332bd90001575f22","D2","batch4","","763","tol_tohand","","","","tol_peg_2","763","763","0","[[2,0,0],[0,0],[3]]","6","[[2,1,0],[3,0],[0]]","8","0","","","","","","6","","","","","","","","",""
"","","","","","single-stim-button","205","455618","0.0-2.0-34.5-1.5","5c902c91332bd90001575f22","D2","batch4","","508","tol_toboard","","","","tol_peg_1","508","508","0","[[2,1,0],[0,0],[3]]","6","[[2,1,0],[3,0],[0]]","8","0","","","","","","6","","","","","","","","",""
"","","","","","single-stim-button","206","456406","0.0-2.0-34.6-0.6","5c902c91332bd90001575f22","D2","batch4","","788","tol_tohand","","","","tol_peg_3","788","788","0","[[2,1,0],[0,0],[0]]","7","[[2,1,0],[3,0],[0]]","8","0","","","","","","6","","","","","","","","",""
"","","","","","single-stim-button","207","456962","0.0-2.0-34.6-1.6","5c902c91332bd90001575f22","D2","batch4","","556","tol_toboard","","","","tol_peg_2","556","556","0","[[2,1,0],[3,0],[0]]","7","[[2,1,0],[3,0],[0]]","8","0","","","","","","6","","","","","","","","",""
"","","","","","poldrack-single-stim","208","457963","0.0-2.0-35.0","5c902c91332bd90001575f22","D2","batch4","","-1","tol_feedback","","","true","","1000","1000","500","","","","","","-1","none","true","1475","5526","","","","","","","","","",""
"","","","","","html-button-response","209","458517","0.0-2.0-36.0","5c902c91332bd90001575f22","D2","batch4","","552","tol_trial_num","<div class = centerbox><p class = center-block-text>problem <strong>10</strong> out of 25 problems</p></div>","0","","","","","","","","","","","","","","","","","","","","","","","","",""
"","","","","","single-stim-button","210","462421","0.0-2.0-37.0-0.0","5c902c91332bd90001575f22","D2","batch4","","3903","tol_tohand","","","","tol_peg_2","3903","3903","0","[[3,0,0],[0,0],[2]]","1","[[3,0,0],[2,1],[0]]","9","0","","","","","","3","","","","","","","","",""
"","","","","","single-stim-button","211","462728","0.0-2.0-37.0-1.0","5c902c91332bd90001575f22","D2","batch4","","307","tol_toboard","","","","tol_peg_1","307","307","0","[[3,1,0],[0,0],[2]]","1","[[3,0,0],[2,1],[0]]","9","0","","","","","","3","","","","","","","","",""
"","","","","","single-stim-button","212","463324","0.0-2.0-37.1-0.1","5c902c91332bd90001575f22","D2","batch4","","596","tol_tohand","","","","tol_peg_3","596","596","0","[[3,1,0],[0,0],[0]]","2","[[3,0,0],[2,1],[0]]","9","0","","","","","","3","","","","","","","","",""
"","","","","","single-stim-button","213","463932","0.0-2.0-37.1-1.1","5c902c91332bd90001575f22","D2","batch4","","606","tol_toboard","","","","tol_peg_2","606","606","0","[[3,1,0],[2,0],[0]]","2","[[3,0,0],[2,1],[0]]","9","0","","","","","","3","","","","","","","","",""
"","","","","","single-stim-button","214","464292","0.0-2.0-37.2-0.2","5c902c91332bd90001575f22","D2","batch4","","360","tol_tohand","","","","tol_peg_1","360","360","0","[[3,0,0],[2,0],[0]]","3","[[3,0,0],[2,1],[0]]","9","0","","","","","","3","","","","","","","","",""
"","","","","","single-stim-button","215","464728","0.0-2.0-37.2-1.2","5c902c91332bd90001575f22","D2","batch4","","435","tol_toboard","","","","tol_peg_2","435","435","0","[[3,0,0],[2,1],[0]]","3","[[3,0,0],[2,1],[0]]","9","0","","","","","","3","","","","","","","","",""
"","","","","","poldrack-single-stim","216","465730","0.0-2.0-38.0","5c902c91332bd90001575f22","D2","batch4","","-1","tol_feedback","","","true","","1000","1000","500","","","","","","-1","none","true","3903","4859","","","","","","","","","",""
"","","","","","html-button-response","217","466194","0.0-2.0-39.0","5c902c91332bd90001575f22","D2","batch4","","463","tol_trial_num","<div class = centerbox><p class = center-block-text>problem <strong>11</strong> out of 25 problems</p></div>","0","","","","","","","","","","","","","","","","","","","","","","","","",""
"","","","","","single-stim-button","218","467934","0.0-2.0-40.0-0.0","5c902c91332bd90001575f22","D2","batch4","","1740","tol_tohand","","","","tol_peg_1","1740","1740","0","[[1,0,0],[3,0],[0]]","1","[[2,0,0],[1,3],[0]]","10","0","","","","","","6","","","","","","","","",""
"","","","","","single-stim-button","219","468810","0.0-2.0-40.0-1.0","5c902c91332bd90001575f22","D2","batch4","","875","tol_toboard","","","","tol_peg_3","875","875","0","[[1,0,0],[3,0],[2]]","1","[[2,0,0],[1,3],[0]]","10","0","","","","","","6","","","","","","","","",""
"","","","","","single-stim-button","220","470014","0.0-2.0-40.1-0.1","5c902c91332bd90001575f22","D2","batch4","","1204","tol_tohand","","","","tol_peg_3","1204","1204","0","[[1,0,0],[3,0],[0]]","2","[[2,0,0],[1,3],[0]]","10","0","","","","","","6","","","","","","","","",""
"","","","","","single-stim-button","221","471010","0.0-2.0-40.1-1.1","5c902c91332bd90001575f22","D2","batch4","","996","tol_toboard","","","","tol_peg_2","996","996","0","[[1,0,0],[3,2],[0]]","2","[[2,0,0],[1,3],[0]]","10","0","","","","","","6","","","","","","","","",""
"","","","","","single-stim-button","222","471926","0.0-2.0-40.2-0.2","5c902c91332bd90001575f22","D2","batch4","","915","tol_tohand","","","","tol_peg_1","915","915","0","[[0,0,0],[3,2],[0]]","3","[[2,0,0],[1,3],[0]]","10","0","","","","","","6","","","","","","","","",""
"","","","","","single-stim-button","223","472378","0.0-2.0-40.2-1.2","5c902c91332bd90001575f22","D2","batch4","","451","tol_toboard","","","","tol_peg_3","451","451","0","[[0,0,0],[3,2],[1]]","3","[[2,0,0],[1,3],[0]]","10","0","","","","","","6","","","","","","","","",""
"","","","","","single-stim-button","224","472846","0.0-2.0-40.3-0.3","5c902c91332bd90001575f22","D2","batch4","","468","tol_tohand","","","","tol_peg_2","468","468","0","[[0,0,0],[3,0],[1]]","4","[[2,0,0],[1,3],[0]]","10","0","","","","","","6","","","","","","","","",""
"","","","","","single-stim-button","225","473372","0.0-2.0-40.3-1.3","5c902c91332bd90001575f22","D2","batch4","","526","tol_toboard","","","","tol_peg_1","526","526","0","[[2,0,0],[3,0],[1]]","4","[[2,0,0],[1,3],[0]]","10","0","","","","","","6","","","","","","","","",""
"","","","","","single-stim-button","226","474796","0.0-2.0-40.4-0.4","5c902c91332bd90001575f22","D2","batch4","","1424","tol_tohand","","","","tol_peg_3","1424","1424","0","[[2,0,0],[3,0],[0]]","5","[[2,0,0],[1,3],[0]]","10","0","","","","","","6","","","","","","","","",""
"","","","","","single-stim-button","227","475256","0.0-2.0-40.4-1.4","5c902c91332bd90001575f22","D2","batch4","","460","tol_toboard","","","","tol_peg_1","460","460","0","[[2,1,0],[3,0],[0]]","5","[[2,0,0],[1,3],[0]]","10","0","","","","","","6","","","","","","","","",""
"","","","","","single-stim-button","228","475776","0.0-2.0-40.5-0.5","5c902c91332bd90001575f22","D2","batch4","","520","tol_tohand","","","","tol_peg_2","520","520","0","[[2,1,0],[0,0],[0]]","6","[[2,0,0],[1,3],[0]]","10","0","","","","","","6","","","","","","","","",""
"","","","","","single-stim-button","229","476096","0.0-2.0-40.5-1.5","5c902c91332bd90001575f22","D2","batch4","","320","tol_toboard","","","","tol_peg_3","320","320","0","[[2,1,0],[0,0],[3]]","6","[[2,0,0],[1,3],[0]]","10","0","","","","","","6","","","","","","","","",""
"","","","","","single-stim-button","230","476648","0.0-2.0-40.6-0.6","5c902c91332bd90001575f22","D2","batch4","","551","tol_tohand","","","","tol_peg_1","551","551","0","[[2,0,0],[0,0],[3]]","7","[[2,0,0],[1,3],[0]]","10","0","","","","","","6","","","","","","","","",""
"","","","","","single-stim-button","231","477048","0.0-2.0-40.6-1.6","5c902c91332bd90001575f22","D2","batch4","","399","tol_toboard","","","","tol_peg_2","399","399","0","[[2,0,0],[1,0],[3]]","7","[[2,0,0],[1,3],[0]]","10","0","","","","","","6","","","","","","","","",""
"","","","","","single-stim-button","232","477404","0.0-2.0-40.7-0.7","5c902c91332bd90001575f22","D2","batch4","","355","tol_tohand","","","","tol_peg_3","355","355","0","[[2,0,0],[1,0],[0]]","8","[[2,0,0],[1,3],[0]]","10","0","","","","","","6","","","","","","","","",""
"","","","","","single-stim-button","233","477783","0.0-2.0-40.7-1.7","5c902c91332bd90001575f22","D2","batch4","","379","tol_toboard","","","","tol_peg_2","379","379","0","[[2,0,0],[1,3],[0]]","8","[[2,0,0],[1,3],[0]]","10","0","","","","","","6","","","","","","","","",""
"","","","","","poldrack-single-stim","234","478786","0.0-2.0-41.0","5c902c91332bd90001575f22","D2","batch4","","-1","tol_feedback","","","true","","1000","1000","500","","","","","","-1","none","true","1740","7177","","","","","","","","","",""
"","","","","","html-button-response","235","479311","0.0-2.0-42.0","5c902c91332bd90001575f22","D2","batch4","","526","tol_trial_num","<div class = centerbox><p class = center-block-text>problem <strong>12</strong> out of 25 problems</p></div>","0","","","","","","","","","","","","","","","","","","","","","","","","",""
"","","","","","single-stim-button","236","481545","0.0-2.0-43.0-0.0","5c902c91332bd90001575f22","D2","batch4","","2233","tol_tohand","","","","tol_peg_1","2233","2233","0","[[1,0,0],[3,0],[0]]","1","[[2,3,0],[0,0],[1]]","11","0","","","","","","4","","","","","","","","",""
"","","","","","single-stim-button","237","481977","0.0-2.0-43.0-1.0","5c902c91332bd90001575f22","D2","batch4","","431","tol_toboard","","","","tol_peg_2","431","431","0","[[1,0,0],[3,2],[0]]","1","[[2,3,0],[0,0],[1]]","11","0","","","","","","4","","","","","","","","",""
"","","","","","single-stim-button","238","482457","0.0-2.0-43.1-0.1","5c902c91332bd90001575f22","D2","batch4","","479","tol_tohand","","","","tol_peg_1","479","479","0","[[0,0,0],[3,2],[0]]","2","[[2,3,0],[0,0],[1]]","11","0","","","","","","4","","","","","","","","",""
"","","","","","single-stim-button","239","482946","0.0-2.0-43.1-1.1","5c902c91332bd90001575f22","D2","batch4","","489","tol_toboard","","","","tol_peg_3","489","489","0","[[0,0,0],[3,2],[1]]","2","[[2,3,0],[0,0],[1]]","11","0","","","","","","4","","","","","","","","",""
"","","","","","single-stim-button","240","483498","0.0-2.0-43.2-0.2","5c902c91332bd90001575f22","D2","batch4","","552","tol_tohand","","","","tol_peg_2","552","552","0","[[0,0,0],[3,0],[1]]","3","[[2,3,0],[0,0],[1]]","11","0","","","","","","4","","","","","","","","",""
"","","","","","single-stim-button","241","484013","0.0-2.0-43.2-1.2","5c902c91332bd90001575f22","D2","batch4","","514","tol_toboard","","","","tol_peg_1","514","514","0","[[2,0,0],[3,0],[1]]","3","[[2,3,0],[0,0],[1]]","11","0","","","","","","4","","","","","","","","",""
"","","","","","single-stim-button","242","484365","0.0-2.0-43.3-0.3","5c902c91332bd90001575f22","D2","batch4","","351","tol_tohand","","","","tol_peg_2","351","351","0","[[2,0,0],[0,0],[1]]","4","[[2,3,0],[0,0],[1]]","11","0","","","","","","4","","","","","","","","",""
"","","","","","single-stim-button","243","484889","0.0-2.0-43.3-1.3","5c902c91332bd90001575f22","D2","batch4","","523","tol_toboard","","","","tol_peg_1","523","523","0","[[2,3,0],[0,0],[1]]","4","[[2,3,0],[0,0],[1]]","11","0","","","","","","4","","","","","","","","",""
"","","","","","poldrack-single-stim","244","485890","0.0-2.0-44.0","5c902c91332bd90001575f22","D2","batch4","","-1","tol_feedback","","","true","","1000","1000","500","","","","","","-1","none","true","2233","3615","","","","","","","","","",""
"","","","","","html-button-response","245","486310","0.0-2.0-45.0","5c902c91332bd90001575f22","D2","batch4","","419","tol_trial_num","<div class = centerbox><p class = center-block-text>problem <strong>13</strong> out of 25 problems</p></div>","0","","","","","","","","","","","","","","","","","","","","","","","","",""
"","","","","","single-stim-button","246","488684","0.0-2.0-46.0-0.0","5c902c91332bd90001575f22","D2","batch4","","2373","tol_tohand","","","","tol_peg_1","2373","2373","0","[[1,0,0],[3,0],[0]]","1","[[0,0,0],[2,3],[1]]","12","0","","","","","","4","","","","","","","","",""
"","","","","","single-stim-button","247","490979","0.0-2.0-46.0-1.0","5c902c91332bd90001575f22","D2","batch4","","2295","tol_toboard","","","","tol_peg_1","2295","2295","0","[[1,2,0],[3,0],[0]]","1","[[0,0,0],[2,3],[1]]","12","0","","","","","","4","","","","","","","","",""
"","","","","","single-stim-button","248","491364","0.0-2.0-46.1-0.1","5c902c91332bd90001575f22","D2","batch4","","384","tol_tohand","","","","tol_peg_2","384","384","0","[[1,2,0],[0,0],[0]]","2","[[0,0,0],[2,3],[1]]","12","0","","","","","","4","","","","","","","","",""
"","","","","","single-stim-button","249","491680","0.0-2.0-46.1-1.1","5c902c91332bd90001575f22","D2","batch4","","316","tol_toboard","","","","tol_peg_3","316","316","0","[[1,2,0],[0,0],[3]]","2","[[0,0,0],[2,3],[1]]","12","0","","","","","","4","","","","","","","","",""
"","","","","","single-stim-button","250","492207","0.0-2.0-46.2-0.2","5c902c91332bd90001575f22","D2","batch4","","527","tol_tohand","","","","tol_peg_1","527","527","0","[[1,0,0],[0,0],[3]]","3","[[0,0,0],[2,3],[1]]","12","0","","","","","","4","","","","","","","","",""
"","","","","","single-stim-button","251","492619","0.0-2.0-46.2-1.2","5c902c91332bd90001575f22","D2","batch4","","410","tol_toboard","","","","tol_peg_2","410","410","0","[[1,0,0],[2,0],[3]]","3","[[0,0,0],[2,3],[1]]","12","0","","","","","","4","","","","","","","","",""
"","","","","","single-stim-button","252","493171","0.0-2.0-46.3-0.3","5c902c91332bd90001575f22","D2","batch4","","552","tol_tohand","","","","tol_peg_3","552","552","0","[[1,0,0],[2,0],[0]]","4","[[0,0,0],[2,3],[1]]","12","0","","","","","","4","","","","","","","","",""
"","","","","","single-stim-button","253","493584","0.0-2.0-46.3-1.3","5c902c91332bd90001575f22","D2","batch4","","411","tol_toboard","","","","tol_peg_2","411","411","0","[[1,0,0],[2,3],[0]]","4","[[0,0,0],[2,3],[1]]","12","0","","","","","","4","","","","","","","","",""
"","","","","","single-stim-button","254","494624","0.0-2.0-46.4-0.4","5c902c91332bd90001575f22","D2","batch4","","1040","tol_tohand","","","","tol_peg_1","1040","1040","0","[[0,0,0],[2,3],[0]]","5","[[0,0,0],[2,3],[1]]","12","0","","","","","","4","","","","","","","","",""
"","","","","","single-stim-button","255","495303","0.0-2.0-46.4-1.4","5c902c91332bd90001575f22","D2","batch4","","678","tol_toboard","","","","tol_peg_3","678","678","0","[[0,0,0],[2,3],[1]]","5","[[0,0,0],[2,3],[1]]","12","0","","","","","","4","","","","","","","","",""
"","","","","","poldrack-single-stim","256","496305","0.0-2.0-47.0","5c902c91332bd90001575f22","D2","batch4","","-1","tol_feedback","","","true","","1000","1000","500","","","","","","-1","none","true","2373","4876","","","","","","","","","",""
"","","","","","html-button-response","257","498678","0.0-2.0-48.0","5c902c91332bd90001575f22","D2","batch4","","2373","attention_check","<p class = block-text>How many balls are in your board<br></p>","1","true","","","","","","","","","","","","","","","","","","","","","","","",""
"","","","","","html-button-response","258","499797","0.0-2.0-49.0","5c902c91332bd90001575f22","D2","batch4","","1119","tol_trial_num","<div class = centerbox><p class = center-block-text>problem <strong>14</strong> out of 25 problems</p></div>","0","","","","","","","","","","","","","","","","","","","","","","","","",""
"","","","","","single-stim-button","259","502010","0.0-2.0-50.0-0.0","5c902c91332bd90001575f22","D2","batch4","","2211","tol_tohand","","","","tol_peg_1","2211","2211","0","[[2,0,0],[3,0],[0]]","1","[[1,2,0],[3,0],[0]]","13","0","","","","","","4","","","","","","","","",""
"","","","","","single-stim-button","260","503620","0.0-2.0-50.0-1.0","5c902c91332bd90001575f22","D2","batch4","","1609","tol_toboard","","","","tol_peg_3","1609","1609","0","[[2,0,0],[3,0],[1]]","1","[[1,2,0],[3,0],[0]]","13","0","","","","","","4","","","","","","","","",""
"","","","","","single-stim-button","261","504095","0.0-2.0-50.1-0.1","5c902c91332bd90001575f22","D2","batch4","","475","tol_tohand","","","","tol_peg_1","475","475","0","[[0,0,0],[3,0],[1]]","2","[[1,2,0],[3,0],[0]]","13","0","","","","","","4","","","","","","","","",""
"","","","","","single-stim-button","262","504987","0.0-2.0-50.1-1.1","5c902c91332bd90001575f22","D2","batch4","","891","tol_toboard","","","","tol_peg_2","891","891","0","[[0,0,0],[3,2],[1]]","2","[[1,2,0],[3,0],[0]]","13","0","","","","","","4","","","","","","","","",""
"","","","","","single-stim-button","263","505424","0.0-2.0-50.2-0.2","5c902c91332bd90001575f22","D2","batch4","","436","tol_tohand","","","","tol_peg_3","436","436","0","[[0,0,0],[3,2],[0]]","3","[[1,2,0],[3,0],[0]]","13","0","","","","","","4","","","","","","","","",""
"","","","","","single-stim-button","264","506536","0.0-2.0-50.2-1.2","5c902c91332bd90001575f22","D2","batch4","","1112","tol_toboard","","","","tol_peg_1","1112","1112","0","[[1,0,0],[3,2],[0]]","3","[[1,2,0],[3,0],[0]]","13","0","","","","","","4","","","","","","","","",""
"","","","","","single-stim-button","265","506932","0.0-2.0-50.3-0.3","5c902c91332bd90001575f22","D2","batch4","","395","tol_tohand","","","","tol_peg_2","395","395","0","[[1,0,0],[3,0],[0]]","4","[[1,2,0],[3,0],[0]]","13","0","","","","","","4","","","","","","","","",""
"","","","","","single-stim-button","266","507263","0.0-2.0-50.3-1.3","5c902c91332bd90001575f22","D2","batch4","","331","tol_toboard","","","","tol_peg_1","331","331","0","[[1,2,0],[3,0],[0]]","4","[[1,2,0],[3,0],[0]]","13","0","","","","","","4","","","","","","","","",""
"","","","","","poldrack-single-stim","267","508264","0.0-2.0-51.0","5c902c91332bd90001575f22","D2","batch4","","-1","tol_feedback","","","true","","1000","1000","500","","","","","","-1","none","true","2211","3517","","","","","","","","","",""
"","","","","","html-button-response","268","509040","0.0-2.0-52.0","5c902c91332bd90001575f22","D2","batch4","","775","tol_trial_num","<div class = centerbox><p class = center-block-text>problem <strong>15</strong> out of 25 problems</p></div>","0","","","","","","","","","","","","","","","","","","","","","","","","",""
"","","","","","single-stim-button","269","512397","0.0-2.0-53.0-0.0","5c902c91332bd90001575f22","D2","batch4","","3357","tol_tohand","","","","tol_peg_1","3357","3357","0","[[1,0,0],[3,0],[0]]","1","[[2,0,0],[3,0],[1]]","14","0","","","","","","3","","","","","","","","",""
"","","","","","single-stim-button","270","513666","0.0-2.0-53.0-1.0","5c902c91332bd90001575f22","D2","batch4","","1267","tol_toboard","","","","tol_peg_3","1267","1267","0","[[1,0,0],[3,0],[2]]","1","[[2,0,0],[3,0],[1]]","14","0","","","","","","3","","","","","","","","",""
"","","","","","single-stim-button","271","515241","0.0-2.0-53.1-0.1","5c902c91332bd90001575f22","D2","batch4","","1575","tol_tohand","","","","tol_peg_1","1575","1575","0","[[0,0,0],[3,0],[2]]","2","[[2,0,0],[3,0],[1]]","14","0","","","","","","3","","","","","","","","",""
"","","","","","single-stim-button","272","515541","0.0-2.0-53.1-1.1","5c902c91332bd90001575f22","D2","batch4","","300","tol_toboard","","","","tol_peg_2","300","300","0","[[0,0,0],[3,1],[2]]","2","[[2,0,0],[3,0],[1]]","14","0","","","","","","3","","","","","","","","",""
"","","","","","single-stim-button","273","516085","0.0-2.0-53.2-0.2","5c902c91332bd90001575f22","D2","batch4","","544","tol_tohand","","","","tol_peg_3","544","544","0","[[0,0,0],[3,1],[0]]","3","[[2,0,0],[3,0],[1]]","14","0","","","","","","3","","","","","","","","",""
"","","","","","single-stim-button","274","516806","0.0-2.0-53.2-1.2","5c902c91332bd90001575f22","D2","batch4","","719","tol_toboard","","","","tol_peg_1","719","719","0","[[2,0,0],[3,1],[0]]","3","[[2,0,0],[3,0],[1]]","14","0","","","","","","3","","","","","","","","",""
"","","","","","single-stim-button","275","517253","0.0-2.0-53.3-0.3","5c902c91332bd90001575f22","D2","batch4","","447","tol_tohand","","","","tol_peg_2","447","447","0","[[2,0,0],[3,0],[0]]","4","[[2,0,0],[3,0],[1]]","14","0","","","","","","3","","","","","","","","",""
"","","","","","single-stim-button","276","517761","0.0-2.0-53.3-1.3","5c902c91332bd90001575f22","D2","batch4","","508","tol_toboard","","","","tol_peg_3","508","508","0","[[2,0,0],[3,0],[1]]","4","[[2,0,0],[3,0],[1]]","14","0","","","","","","3","","","","","","","","",""
"","","","","","poldrack-single-stim","277","518764","0.0-2.0-54.0","5c902c91332bd90001575f22","D2","batch4","","-1","tol_feedback","","","true","","1000","1000","500","","","","","","-1","none","true","3357","5923","","","","","","","","","",""
"","","","","","html-button-response","278","519323","0.0-2.0-55.0","5c902c91332bd90001575f22","D2","batch4","","558","tol_trial_num","<div class = centerbox><p class = center-block-text>problem <strong>16</strong> out of 25 problems</p></div>","0","","","","","","","","","","","","","","","","","","","","","","","","",""
"","","","","","single-stim-button","279","523308","0.0-2.0-56.0-0.0","5c902c91332bd90001575f22","D2","batch4","","3983","tol_tohand","","","","tol_peg_3","3983","3983","0","[[0,0,0],[2,3],[0]]","1","[[2,3,0],[1,0],[0]]","15","0","","","","","","7","","","","","","","","",""
"","","","","","single-stim-button","280","523883","0.0-2.0-56.0-1.0","5c902c91332bd90001575f22","D2","batch4","","575","tol_toboard","","","","tol_peg_1","575","575","0","[[1,0,0],[2,3],[0]]","1","[[2,3,0],[1,0],[0]]","15","0","","","","","","7","","","","","","","","",""
"","","","","","single-stim-button","281","524515","0.0-2.0-56.1-0.1","5c902c91332bd90001575f22","D2","batch4","","631","tol_tohand","","","","tol_peg_2","631","631","0","[[1,0,0],[2,0],[0]]","2","[[2,3,0],[1,0],[0]]","15","0","","","","","","7","","","","","","","","",""
"","","","","","single-stim-button","282","525107","0.0-2.0-56.1-1.1","5c902c91332bd90001575f22","D2","batch4","","591","tol_toboard","","","","tol_peg_1","591","591","0","[[1,3,0],[2,0],[0]]","2","[[2,3,0],[1,0],[0]]","15","0","","","","","","7","","","","","","","","",""
"","","","","","single-stim-button","283","526308","0.0-2.0-56.2-0.2","5c902c91332bd90001575f22","D2","batch4","","1200","tol_tohand","","","","tol_peg_2","1200","1200","0","[[1,3,0],[0,0],[0]]","3","[[2,3,0],[1,0],[0]]","15","0","","","","","","7","","","","","","","","",""
"","","","","","single-stim-button","284","527473","0.0-2.0-56.2-1.2","5c902c91332bd90001575f22","D2","batch4","","1164","tol_toboard","","","","tol_peg_3","1164","1164","0","[[1,3,0],[0,0],[2]]","3","[[2,3,0],[1,0],[0]]","15","0","","","","","","7","","","","","","","","",""
"","","","","","single-stim-button","285","528125","0.0-2.0-56.3-0.3","5c902c91332bd90001575f22","D2","batch4","","651","tol_tohand","","","","tol_peg_1","651","651","0","[[1,0,0],[0,0],[2]]","4","[[2,3,0],[1,0],[0]]","15","0","","","","","","7","","","","","","","","",""
"","","","","","single-stim-button","286","528517","0.0-2.0-56.3-1.3","5c902c91332bd90001575f22","D2","batch4","","392","tol_toboard","","","","tol_peg_2","392","392","0","[[1,0,0],[3,0],[2]]","4","[[2,3,0],[1,0],[0]]","15","0","","","","","","7","","","","","","","","",""
"","","","","","single-stim-button","287","529069","0.0-2.0-56.4-0.4","5c902c91332bd90001575f22","D2","batch4","","551","tol_tohand","","","","tol_peg_1","551","551","0","[[0,0,0],[3,0],[2]]","5","[[2,3,0],[1,0],[0]]","15","0","","","","","","7","","","","","","","","",""
"","","","","","single-stim-button","288","529489","0.0-2.0-56.4-1.4","5c902c91332bd90001575f22","D2","batch4","","419","tol_toboard","","","","tol_peg_2","419","419","0","[[0,0,0],[3,1],[2]]","5","[[2,3,0],[1,0],[0]]","15","0","","","","","","7","","","","","","","","",""
"","","","","","single-stim-button","289","530265","0.0-2.0-56.5-0.5","5c902c91332bd90001575f22","D2","batch4","","776","tol_tohand","","","","tol_peg_3","776","776","0","[[0,0,0],[3,1],[0]]","6","[[2,3,0],[1,0],[0]]","15","0","","","","","","7","","","","","","","","",""
"","","","","","single-stim-button","290","530913","0.0-2.0-56.5-1.5","5c902c91332bd90001575f22","D2","batch4","","647","tol_toboard","","","","tol_peg_1","647","647","0","[[2,0,0],[3,1],[0]]","6","[[2,3,0],[1,0],[0]]","15","0","","","","","","7","","","","","","","","",""
"","","","","","single-stim-button","291","531789","0.0-2.0-56.6-0.6","5c902c91332bd90001575f22","D2","batch4","","874","tol_tohand","","","","tol_peg_2","874","874","0","[[2,0,0],[3,0],[0]]","7","[[2,3,0],[1,0],[0]]","15","0","","","","","","7","","","","","","","","",""
"","","","","","single-stim-button","292","532182","0.0-2.0-56.6-1.6","5c902c91332bd90001575f22","D2","batch4","","392","tol_toboard","","","","tol_peg_3","392","392","0","[[2,0,0],[3,0],[1]]","7","[[2,3,0],[1,0],[0]]","15","0","","","","","","7","","","","","","","","",""
"","","","","","single-stim-button","293","532638","0.0-2.0-56.7-0.7","5c902c91332bd90001575f22","D2","batch4","","456","tol_tohand","","","","tol_peg_2","456","456","0","[[2,0,0],[0,0],[1]]","8","[[2,3,0],[1,0],[0]]","15","0","","","","","","7","","","","","","","","",""
"","","","","","single-stim-button","294","533069","0.0-2.0-56.7-1.7","5c902c91332bd90001575f22","D2","batch4","","431","tol_toboard","","","","tol_peg_1","431","431","0","[[2,3,0],[0,0],[1]]","8","[[2,3,0],[1,0],[0]]","15","0","","","","","","7","","","","","","","","",""
"","","","","","single-stim-button","295","533777","0.0-2.0-56.8-0.8","5c902c91332bd90001575f22","D2","batch4","","707","tol_tohand","","","","tol_peg_3","707","707","0","[[2,3,0],[0,0],[0]]","9","[[2,3,0],[1,0],[0]]","15","0","","","","","","7","","","","","","","","",""
"","","","","","single-stim-button","296","534177","0.0-2.0-56.8-1.8","5c902c91332bd90001575f22","D2","batch4","","399","tol_toboard","","","","tol_peg_2","399","399","0","[[2,3,0],[1,0],[0]]","9","[[2,3,0],[1,0],[0]]","15","0","","","","","","7","","","","","","","","",""
"","","","","","poldrack-single-stim","297","535179","0.0-2.0-57.0","5c902c91332bd90001575f22","D2","batch4","","-1","tol_feedback","","","true","","1000","1000","500","","","","","","-1","none","true","3983","9829","","","","","","","","","",""
"","","","","","html-button-response","298","535671","0.0-2.0-58.0","5c902c91332bd90001575f22","D2","batch4","","492","tol_trial_num","<div class = centerbox><p class = center-block-text>problem <strong>17</strong> out of 25 problems</p></div>","0","","","","","","","","","","","","","","","","","","","","","","","","",""
"","","","","","single-stim-button","299","537867","0.0-2.0-59.0-0.0","5c902c91332bd90001575f22","D2","batch4","","2195","tol_tohand","","","","tol_peg_1","2195","2195","0","[[1,0,0],[3,0],[0]]","1","[[3,1,0],[2,0],[0]]","16","0","","","","","","5","","","","","","","","",""
"","","","","","single-stim-button","300","539284","0.0-2.0-59.0-1.0","5c902c91332bd90001575f22","D2","batch4","","1416","tol_toboard","","","","tol_peg_3","1416","1416","0","[[1,0,0],[3,0],[2]]","1","[[3,1,0],[2,0],[0]]","16","0","","","","","","5","","","","","","","","",""
"","","","","","single-stim-button","301","540131","0.0-2.0-59.1-0.1","5c902c91332bd90001575f22","D2","batch4","","846","tol_tohand","","","","tol_peg_1","846","846","0","[[0,0,0],[3,0],[2]]","2","[[3,1,0],[2,0],[0]]","16","0","","","","","","5","","","","","","","","",""
"","","","","","single-stim-button","302","542122","0.0-2.0-59.1-1.1","5c902c91332bd90001575f22","D2","batch4","","1989","tol_toboard","","","","tol_peg_1","1989","1989","0","[[1,0,0],[3,0],[2]]","2","[[3,1,0],[2,0],[0]]","16","0","","","","","","5","","","","","","","","",""
"","","","","","single-stim-button","303","542886","0.0-2.0-59.2-0.2","5c902c91332bd90001575f22","D2","batch4","","763","tol_tohand","","","","tol_peg_3","763","763","0","[[1,0,0],[3,0],[0]]","3","[[3,1,0],[2,0],[0]]","16","0","","","","","","5","","","","","","","","",""
"","","","","","single-stim-button","304","543393","0.0-2.0-59.2-1.2","5c902c91332bd90001575f22","D2","batch4","","507","tol_toboard","","","","tol_peg_2","507","507","0","[[1,0,0],[3,2],[0]]","3","[[3,1,0],[2,0],[0]]","16","0","","","","","","5","","","","","","","","",""
"","","","","","single-stim-button","305","543966","0.0-2.0-59.3-0.3","5c902c91332bd90001575f22","D2","batch4","","571","tol_tohand","","","","tol_peg_1","571","571","0","[[0,0,0],[3,2],[0]]","4","[[3,1,0],[2,0],[0]]","16","0","","","","","","5","","","","","","","","",""
"","","","","","single-stim-button","306","544478","0.0-2.0-59.3-1.3","5c902c91332bd90001575f22","D2","batch4","","511","tol_toboard","","","","tol_peg_3","511","511","0","[[0,0,0],[3,2],[1]]","4","[[3,1,0],[2,0],[0]]","16","0","","","","","","5","","","","","","","","",""
"","","","","","single-stim-button","307","547149","0.0-2.0-59.4-0.4","5c902c91332bd90001575f22","D2","batch4","","2671","tol_tohand","","","","tol_peg_2","2671","2671","0","[[0,0,0],[3,0],[1]]","5","[[3,1,0],[2,0],[0]]","16","0","","","","","","5","","","","","","","","",""
"","","","","","single-stim-button","308","548482","0.0-2.0-59.4-1.4","5c902c91332bd90001575f22","D2","batch4","","1331","tol_toboard","","","","tol_peg_1","1331","1331","0","[[2,0,0],[3,0],[1]]","5","[[3,1,0],[2,0],[0]]","16","0","","","","","","5","","","","","","","","",""
"","","","","","single-stim-button","309","548941","0.0-2.0-59.5-0.5","5c902c91332bd90001575f22","D2","batch4","","459","tol_tohand","","","","tol_peg_3","459","459","0","[[2,0,0],[3,0],[0]]","6","[[3,1,0],[2,0],[0]]","16","0","","","","","","5","","","","","","","","",""
"","","","","","single-stim-button","310","549349","0.0-2.0-59.5-1.5","5c902c91332bd90001575f22","D2","batch4","","408","tol_toboard","","","","tol_peg_2","408","408","0","[[2,0,0],[3,1],[0]]","6","[[3,1,0],[2,0],[0]]","16","0","","","","","","5","","","","","","","","",""
"","","","","","single-stim-button","311","550975","0.0-2.0-59.6-0.6","5c902c91332bd90001575f22","D2","batch4","","1625","tol_tohand","","","","tol_peg_1","1625","1625","0","[[0,0,0],[3,1],[0]]","7","[[3,1,0],[2,0],[0]]","16","0","","","","","","5","","","","","","","","",""
"","","","","","single-stim-button","312","554883","0.0-2.0-59.6-1.6","5c902c91332bd90001575f22","D2","batch4","","3907","tol_toboard","","","","tol_peg_1","3907","3907","0","[[2,0,0],[3,1],[0]]","7","[[3,1,0],[2,0],[0]]","16","0","","","","","","5","","","","","","","","",""
"","","","","","single-stim-button","313","555855","0.0-2.0-59.7-0.7","5c902c91332bd90001575f22","D2","batch4","","971","tol_tohand","","","","tol_peg_2","971","971","0","[[2,0,0],[3,0],[0]]","8","[[3,1,0],[2,0],[0]]","16","0","","","","","","5","","","","","","","","",""
"","","","","","single-stim-button","314","556336","0.0-2.0-59.7-1.7","5c902c91332bd90001575f22","D2","batch4","","480","tol_toboard","","","","tol_peg_3","480","480","0","[[2,0,0],[3,0],[1]]","8","[[3,1,0],[2,0],[0]]","16","0","","","","","","5","","","","","","","","",""
"","","","","","single-stim-button","315","556688","0.0-2.0-59.8-0.8","5c902c91332bd90001575f22","D2","batch4","","351","tol_tohand","","","","tol_peg_2","351","351","0","[[2,0,0],[0,0],[1]]","9","[[3,1,0],[2,0],[0]]","16","0","","","","","","5","","","","","","","","",""
"","","","","","single-stim-button","316","557007","0.0-2.0-59.8-1.8","5c902c91332bd90001575f22","D2","batch4","","319","tol_toboard","","","","tol_peg_1","319","319","0","[[2,3,0],[0,0],[1]]","9","[[3,1,0],[2,0],[0]]","16","0","","","","","","5","","","","","","","","",""
"","","","","","single-stim-button","317","558198","0.0-2.0-59.9-0.9","5c902c91332bd90001575f22","D2","batch4","","1190","tol_tohand","","","","tol_peg_3","1190","1190","0","[[2,3,0],[0,0],[0]]","10","[[3,1,0],[2,0],[0]]","16","0","","","","","","5","","","","","","","","",""
"","","","","","single-stim-button","318","559329","0.0-2.0-59.9-1.9","5c902c91332bd90001575f22","D2","batch4","","1130","tol_toboard","","","","tol_peg_2","1130","1130","0","[[2,3,0],[1,0],[0]]","10","[[3,1,0],[2,0],[0]]","16","0","","","","","","5","","","","","","","","",""
"","","","","","single-stim-button","319","561230","0.0-2.0-59.10-0.10","5c902c91332bd90001575f22","D2","batch4","","1900","tol_tohand","","","","tol_peg_1","1900","1900","0","[[2,0,0],[1,0],[0]]","11","[[3,1,0],[2,0],[0]]","16","0","","","","","","5","","","","","","","","",""
"","","","","","single-stim-button","320","561713","0.0-2.0-59.10-1.10","5c902c91332bd90001575f22","D2","batch4","","482","tol_toboard","","","","tol_peg_2","482","482","0","[[2,0,0],[1,3],[0]]","11","[[3,1,0],[2,0],[0]]","16","0","","","","","","5","","","","","","","","",""
"","","","","","single-stim-button","321","562190","0.0-2.0-59.11-0.11","5c902c91332bd90001575f22","D2","batch4","","477","tol_tohand","","","","tol_peg_1","477","477","0","[[0,0,0],[1,3],[0]]","12","[[3,1,0],[2,0],[0]]","16","0","","","","","","5","","","","","","","","",""
"","","","","","single-stim-button","322","562725","0.0-2.0-59.11-1.11","5c902c91332bd90001575f22","D2","batch4","","535","tol_toboard","","","","tol_peg_3","535","535","0","[[0,0,0],[1,3],[2]]","12","[[3,1,0],[2,0],[0]]","16","0","","","","","","5","","","","","","","","",""
"","","","","","single-stim-button","323","563082","0.0-2.0-59.12-0.12","5c902c91332bd90001575f22","D2","batch4","","355","tol_tohand","","","","tol_peg_2","355","355","0","[[0,0,0],[1,0],[2]]","13","[[3,1,0],[2,0],[0]]","16","0","","","","","","5","","","","","","","","",""
"","","","","","single-stim-button","324","563494","0.0-2.0-59.12-1.12","5c902c91332bd90001575f22","D2","batch4","","411","tol_toboard","","","","tol_peg_1","411","411","0","[[3,0,0],[1,0],[2]]","13","[[3,1,0],[2,0],[0]]","16","0","","","","","","5","","","","","","","","",""
"","","","","","single-stim-button","325","563854","0.0-2.0-59.13-0.13","5c902c91332bd90001575f22","D2","batch4","","359","tol_tohand","","","","tol_peg_2","359","359","0","[[3,0,0],[0,0],[2]]","14","[[3,1,0],[2,0],[0]]","16","0","","","","","","5","","","","","","","","",""
"","","","","","single-stim-button","326","564262","0.0-2.0-59.13-1.13","5c902c91332bd90001575f22","D2","batch4","","407","tol_toboard","","","","tol_peg_1","407","407","0","[[3,1,0],[0,0],[2]]","14","[[3,1,0],[2,0],[0]]","16","0","","","","","","5","","","","","","","","",""
"","","","","","single-stim-button","327","564714","0.0-2.0-59.14-0.14","5c902c91332bd90001575f22","D2","batch4","","452","tol_tohand","","","","tol_peg_3","452","452","0","[[3,1,0],[0,0],[0]]","15","[[3,1,0],[2,0],[0]]","16","0","","","","","","5","","","","","","","","",""
"","","","","","single-stim-button","328","565135","0.0-2.0-59.14-1.14","5c902c91332bd90001575f22","D2","batch4","","421","tol_toboard","","","","tol_peg_2","421","421","0","[[3,1,0],[2,0],[0]]","15","[[3,1,0],[2,0],[0]]","16","0","","","","","","5","","","","","","","","",""
"","","","","","poldrack-single-stim","329","566137","0.0-2.0-60.0","5c902c91332bd90001575f22","D2","batch4","","-1","tol_feedback","","","true","","1000","1000","500","","","","","","-1","none","true","2195","15185","","","","","","","","","",""
"","","","","","html-button-response","330","567132","0.0-2.0-61.0","5c902c91332bd90001575f22","D2","batch4","","993","tol_trial_num","<div class = centerbox><p class = center-block-text>problem <strong>18</strong> out of 25 problems</p></div>","0","","","","","","","","","","","","","","","","","","","","","","","","",""
"","","","","","single-stim-button","331","569660","0.0-2.0-62.0-0.0","5c902c91332bd90001575f22","D2","batch4","","2527","tol_tohand","","","","tol_peg_1","2527","2527","0","[[1,0,0],[3,0],[0]]","1","[[3,0,0],[2,0],[1]]","17","0","","","","","","5","","","","","","","","",""
"","","","","","single-stim-button","332","570471","0.0-2.0-62.0-1.0","5c902c91332bd90001575f22","D2","batch4","","811","tol_toboard","","","","tol_peg_2","811","811","0","[[1,0,0],[3,2],[0]]","1","[[3,0,0],[2,0],[1]]","17","0","","","","","","5","","","","","","","","",""
"","","","","","single-stim-button","333","570935","0.0-2.0-62.1-0.1","5c902c91332bd90001575f22","D2","batch4","","464","tol_tohand","","","","tol_peg_1","464","464","0","[[0,0,0],[3,2],[0]]","2","[[3,0,0],[2,0],[1]]","17","0","","","","","","5","","","","","","","","",""
"","","","","","single-stim-button","334","571440","0.0-2.0-62.1-1.1","5c902c91332bd90001575f22","D2","batch4","","503","tol_toboard","","","","tol_peg_3","503","503","0","[[0,0,0],[3,2],[1]]","2","[[3,0,0],[2,0],[1]]","17","0","","","","","","5","","","","","","","","",""
"","","","","","single-stim-button","335","571896","0.0-2.0-62.2-0.2","5c902c91332bd90001575f22","D2","batch4","","455","tol_tohand","","","","tol_peg_2","455","455","0","[[0,0,0],[3,0],[1]]","3","[[3,0,0],[2,0],[1]]","17","0","","","","","","5","","","","","","","","",""
"","","","","","single-stim-button","336","572427","0.0-2.0-62.2-1.2","5c902c91332bd90001575f22","D2","batch4","","531","tol_toboard","","","","tol_peg_1","531","531","0","[[2,0,0],[3,0],[1]]","3","[[3,0,0],[2,0],[1]]","17","0","","","","","","5","","","","","","","","",""
"","","","","","single-stim-button","337","573786","0.0-2.0-62.3-0.3","5c902c91332bd90001575f22","D2","batch4","","1357","tol_tohand","","","","tol_peg_2","1357","1357","0","[[2,0,0],[0,0],[1]]","4","[[3,0,0],[2,0],[1]]","17","0","","","","","","5","","","","","","","","",""
"","","","","","single-stim-button","338","574630","0.0-2.0-62.3-1.3","5c902c91332bd90001575f22","D2","batch4","","843","tol_toboard","","","","tol_peg_1","843","843","0","[[2,3,0],[0,0],[1]]","4","[[3,0,0],[2,0],[1]]","17","0","","","","","","5","","","","","","","","",""
"","","","","","single-stim-button","339","575177","0.0-2.0-62.4-0.4","5c902c91332bd90001575f22","D2","batch4","","547","tol_tohand","","","","tol_peg_3","547","547","0","[[2,3,0],[0,0],[0]]","5","[[3,0,0],[2,0],[1]]","17","0","","","","","","5","","","","","","","","",""
"","","","","","single-stim-button","340","575693","0.0-2.0-62.4-1.4","5c902c91332bd90001575f22","D2","batch4","","515","tol_toboard","","","","tol_peg_2","515","515","0","[[2,3,0],[1,0],[0]]","5","[[3,0,0],[2,0],[1]]","17","0","","","","","","5","","","","","","","","",""
"","","","","","single-stim-button","341","576162","0.0-2.0-62.5-0.5","5c902c91332bd90001575f22","D2","batch4","","468","tol_tohand","","","","tol_peg_1","468","468","0","[[2,0,0],[1,0],[0]]","6","[[3,0,0],[2,0],[1]]","17","0","","","","","","5","","","","","","","","",""
"","","","","","single-stim-button","342","576633","0.0-2.0-62.5-1.5","5c902c91332bd90001575f22","D2","batch4","","471","tol_toboard","","","","tol_peg_3","471","471","0","[[2,0,0],[1,0],[3]]","6","[[3,0,0],[2,0],[1]]","17","0","","","","","","5","","","","","","","","",""
"","","","","","single-stim-button","343","578090","0.0-2.0-62.6-0.6","5c902c91332bd90001575f22","D2","batch4","","1456","tol_tohand","","","","tol_peg_1","1456","1456","0","[[0,0,0],[1,0],[3]]","7","[[3,0,0],[2,0],[1]]","17","0","","","","","","5","","","","","","","","",""
"","","","","","single-stim-button","344","578590","0.0-2.0-62.6-1.6","5c902c91332bd90001575f22","D2","batch4","","499","tol_toboard","","","","tol_peg_2","499","499","0","[[0,0,0],[1,2],[3]]","7","[[3,0,0],[2,0],[1]]","17","0","","","","","","5","","","","","","","","",""
"","","","","","single-stim-button","345","579570","0.0-2.0-62.7-0.7","5c902c91332bd90001575f22","D2","batch4","","980","tol_tohand","","","","tol_peg_3","980","980","0","[[0,0,0],[1,2],[0]]","8","[[3,0,0],[2,0],[1]]","17","0","","","","","","5","","","","","","","","",""
"","","","","","single-stim-button","346","579969","0.0-2.0-62.7-1.7","5c902c91332bd90001575f22","D2","batch4","","399","tol_toboard","","","","tol_peg_1","399","399","0","[[3,0,0],[1,2],[0]]","8","[[3,0,0],[2,0],[1]]","17","0","","","","","","5","","","","","","","","",""
"","","","","","single-stim-button","347","581027","0.0-2.0-62.8-0.8","5c902c91332bd90001575f22","D2","batch4","","1057","tol_tohand","","","","tol_peg_2","1057","1057","0","[[3,0,0],[1,0],[0]]","9","[[3,0,0],[2,0],[1]]","17","0","","","","","","5","","","","","","","","",""
"","","","","","single-stim-button","348","582047","0.0-2.0-62.8-1.8","5c902c91332bd90001575f22","D2","batch4","","1019","tol_toboard","","","","tol_peg_1","1019","1019","0","[[3,2,0],[1,0],[0]]","9","[[3,0,0],[2,0],[1]]","17","0","","","","","","5","","","","","","","","",""
"","","","","","single-stim-button","349","582444","0.0-2.0-62.9-0.9","5c902c91332bd90001575f22","D2","batch4","","396","tol_tohand","","","","tol_peg_2","396","396","0","[[3,2,0],[0,0],[0]]","10","[[3,0,0],[2,0],[1]]","17","0","","","","","","5","","","","","","","","",""
"","","","","","single-stim-button","350","582816","0.0-2.0-62.9-1.9","5c902c91332bd90001575f22","D2","batch4","","370","tol_toboard","","","","tol_peg_3","370","370","0","[[3,2,0],[0,0],[1]]","10","[[3,0,0],[2,0],[1]]","17","0","","","","","","5","","","","","","","","",""
"","","","","","single-stim-button","351","583199","0.0-2.0-62.10-0.10","5c902c91332bd90001575f22","D2","batch4","","383","tol_tohand","","","","tol_peg_1","383","383","0","[[3,0,0],[0,0],[1]]","11","[[3,0,0],[2,0],[1]]","17","0","","","","","","5","","","","","","","","",""
"","","","","","single-stim-button","352","583568","0.0-2.0-62.10-1.10","5c902c91332bd90001575f22","D2","batch4","","367","tol_toboard","","","","tol_peg_2","367","367","0","[[3,0,0],[2,0],[1]]","11","[[3,0,0],[2,0],[1]]","17","0","","","","","","5","","","","","","","","",""
"","","","","","poldrack-single-stim","353","584569","0.0-2.0-63.0","5c902c91332bd90001575f22","D2","batch4","","-1","tol_feedback","","","true","","1000","1000","500","","","","","","-1","none","true","2527","10090","","","","","","","","","",""
"","","","","","html-button-response","354","585223","0.0-2.0-64.0","5c902c91332bd90001575f22","D2","batch4","","654","tol_trial_num","<div class = centerbox><p class = center-block-text>problem <strong>19</strong> out of 25 problems</p></div>","0","","","","","","","","","","","","","","","","","","","","","","","","",""
"","","","","","single-stim-button","355","587620","0.0-2.0-65.0-0.0","5c902c91332bd90001575f22","D2","batch4","","2395","tol_tohand","","","","tol_peg_1","2395","2395","0","[[1,0,0],[3,0],[0]]","1","[[0,0,0],[1,2],[3]]","18","0","","","","","","7","","","","","","","","",""
"","","","","","single-stim-button","356","590157","0.0-2.0-65.0-1.0","5c902c91332bd90001575f22","D2","batch4","","2537","tol_toboard","","","","tol_peg_3","2537","2537","0","[[1,0,0],[3,0],[2]]","1","[[0,0,0],[1,2],[3]]","18","0","","","","","","7","","","","","","","","",""
