"success","timeout","failed_images","failed_audio","failed_video","trial_type","trial_index","time_elapsed","internal_node_id","subject_id","study_id","session_id","view_history","rt","stimulus","response","task","correct","answer","item","fiar_detect_rt","fiar_detect_correct","total_correct_fiar_detect","post_trial_gap","choices","spm_correct","spm_rt","mouse_click","stim_duration","block_duration","timing_post_trial","current_position","tol_num_moves_made","tol_target","tol_problem_id","tol_rt","key_press","possible_responses","tol_correct","preplanning","tol_rt_per_trial","tol_min_moves"
"true","false","[]","[]","[]","preload","0","1446","0.0-0.0","5c935d881754ba001b25697a","F1","batch6","","","","","","","","","","","","","","","","","","","","","","","","","","","","","",""
"true","","","","","fullscreen","1","14100","0.0-1.0-0.0","5c935d881754ba001b25697a","F1","batch6","","","","","","","","","","","","","","","","","","","","","","","","","","","","","",""
"true","","","","","fullscreen","2","18812","0.0-2.0-0.0","5c935d881754ba001b25697a","F1","batch6","","","","","","","","","","","","","","","","","","","","","","","","","","","","","",""
"","","","","","instructions","3","36290","0.0-2.0-1.0-0.0","5c935d881754ba001b25697a","F1","batch6","[{""page_index"":0,""viewing_time"":9293.100000143051},{""page_index"":1,""viewing_time"":8183.899999856949}]","17477.300000190735","","","","","","","","","","","","","","","","","","","","","","","","","","","",""
"","","","","","html-button-response","4","37586","0.0-2.0-1.0-1.0-0.0","5c935d881754ba001b25697a","F1","batch6","","1295.2999999523163","<p class=block-text> Let's answer a few questions <br>","0","pattern_enter_quiz","","","","","","","","","","","","","","","","","","","","","","","","",""
"","","","","","html-button-response","5","40010","0.0-2.0-1.0-1.0-1.0","5c935d881754ba001b25697a","F1","batch6","","2423.0999999046326","<p class = block-text>True or False: You will have as much time as you want to make each choice. <br></p>","1","pattern_quiz","true","","","","","","","","","","","","","","","","","","","","","","","",""
"","","","","","html-button-response","6","41498","0.0-2.0-1.0-1.0-2.0","5c935d881754ba001b25697a","F1","batch6","","1487","<p class = block-text>Correct! You should make your choice <strong> as fast as you can</strong>.</p>","0","pattern_quiz_feedback","","","","","","","","","","","","","","","","","","","","","","","","",""
"","","","","","html-button-response","7","44666","0.0-2.0-1.0-1.0-3.0","5c935d881754ba001b25697a","F1","batch6","","3167.4000000953674","<p class = block-text>True or False: You will look for 4 pieces in black or white color connected in a row either horizontally, vertically or diagonally. <br></p>","0","pattern_quiz","true","","","","","","","","","","","","","","","","","","","","","","","",""
"","","","","","html-button-response","8","45554","0.0-2.0-1.0-1.0-4.0","5c935d881754ba001b25697a","F1","batch6","","887","<p class = block-text>Correct! </p>","0","pattern_quiz_feedback","","","","","","","","","","","","","","","","","","","","","","","","",""
"","","","","","html-button-response","9","47058","0.0-2.0-2.0","5c935d881754ba001b25697a","F1","batch6","","1503.2000000476837","<p class=block-text> Now that you've understood the game, let's do a few practice trials before we start!<br> <br>","0","pattern_enter_practice","","","","","","","","","","","","","","","","","","","","","","","","",""
"","","","","","image-keyboard-response","10","48997","0.0-2.0-3.0-0.0","5c935d881754ba001b25697a","F1","batch6","","1937.2000000476837","stim/prac_yes_20_dia_b1.png","f","pattern_practice","true","f","","","","","","","","","","","","","","","","","","","","","","",""
"","","","","","html-keyboard-response","11","50009","0.0-2.0-3.0-1.0","5c935d881754ba001b25697a","F1","batch6","","null","<p style=""font-size:30px;color:green;"">Correct!</p>","null","pattern_feedback","","","","","","","","","","","","","","","","","","","","","","","","",""
"","","","","","image-keyboard-response","12","50918","0.0-2.0-3.0-0.1","5c935d881754ba001b25697a","F1","batch6","","908","stim/prac_yes_16_ver_w1.png","f","pattern_practice","true","f","","","","","","","","","","","","","","","","","","","","","","",""
"","","","","","html-keyboard-response","13","51948","0.0-2.0-3.0-1.1","5c935d881754ba001b25697a","F1","batch6","","null","<p style=""font-size:30px;color:green;"">Correct!</p>","null","pattern_feedback","","","","","","","","","","","","","","","","","","","","","","","","",""
"","","","","","image-keyboard-response","14","53105","0.0-2.0-3.0-0.2","5c935d881754ba001b25697a","F1","batch6","","1156.6999998092651","stim/prac_no_16_1.png","f","pattern_practice","false","j","","","","","","","","","","","","","","","","","","","","","","",""
"","","","","","html-keyboard-response","15","54128","0.0-2.0-3.0-1.2","5c935d881754ba001b25697a","F1","batch6","","null","<p style=""font-size:30px;color:red;"">Wrong.</p>","null","pattern_feedback","","","","","","","","","","","","","","","","","","","","","","","","",""
"","","","","","image-keyboard-response","16","55380","0.0-2.0-3.0-0.3","5c935d881754ba001b25697a","F1","batch6","","1251.9000000953674","stim/prac_no_18_1.png","j","pattern_practice","true","j","","","","","","","","","","","","","","","","","","","","","","",""
"","","","","","html-keyboard-response","17","56404","0.0-2.0-3.0-1.3","5c935d881754ba001b25697a","F1","batch6","","null","<p style=""font-size:30px;color:green;"">Correct!</p>","null","pattern_feedback","","","","","","","","","","","","","","","","","","","","","","","","",""
"","","","","","image-keyboard-response","18","57222","0.0-2.0-3.0-0.4","5c935d881754ba001b25697a","F1","batch6","","816.6000001430511","stim/prac_yes_18_hor_w1.png","f","pattern_practice","true","f","","","","","","","","","","","","","","","","","","","","","","",""
"","","","","","html-keyboard-response","19","58244","0.0-2.0-3.0-1.4","5c935d881754ba001b25697a","F1","batch6","","null","<p style=""font-size:30px;color:green;"">Correct!</p>","null","pattern_feedback","","","","","","","","","","","","","","","","","","","","","","","","",""
"","","","","","html-button-response","20","61378","0.0-2.0-4.0","5c935d881754ba001b25697a","F1","batch6","","3133.2000000476837","<p class=block-text> Good job! You are done with practice trials!<br>
        You responded correctly on 80% of the trials.<br>
        Press the button below to start official trials. Now you won't see any feedback about your response</p>","0","pattern_enter_official_trials","","","","","","","","","","","","","","","","","","","","","","","","",""
"","","","","","html-keyboard-response","21","62179","0.0-2.0-5.0-0.0","5c935d881754ba001b25697a","F1","batch6","","null","<p class=block-text>Trial 1 out of 78</p>","null","pattern_show_trial_num","","","","","","","","","","","","","","","","","","","","","","","","",""
"","","","","","image-keyboard-response","22","65022","0.0-2.0-5.0-1.0","5c935d881754ba001b25697a","F1","batch6","","2841.5","stim/no_39_1_w.png","j","pattern_response","true","j","pattern_21","2841.5","true","1","","","","","","","","","","","","","","","","","","",""
"","","","","","html-keyboard-response","23","66341","0.0-2.0-5.0-0.1","5c935d881754ba001b25697a","F1","batch6","","null","<p class=block-text>Trial 2 out of 78</p>","null","pattern_show_trial_num","","","","","","","","","","","","","","","","","","","","","","","","",""
"","","","","","image-keyboard-response","24","69666","0.0-2.0-5.0-1.1","5c935d881754ba001b25697a","F1","batch6","","3323.7000000476837","stim/no_58_1_w.png","j","pattern_response","true","j","pattern_35","3323.7000000476837","true","2","","","","","","","","","","","","","","","","","","",""
"","","","","","html-keyboard-response","25","70989","0.0-2.0-5.0-0.2","5c935d881754ba001b25697a","F1","batch6","","null","<p class=block-text>Trial 3 out of 78</p>","null","pattern_show_trial_num","","","","","","","","","","","","","","","","","","","","","","","","",""
"","","","","","image-keyboard-response","26","74560","0.0-2.0-5.0-1.2","5c935d881754ba001b25697a","F1","batch6","","3569.899999856949","stim/yes_58_dia_w1_w.png","j","pattern_response","false","f","pattern_76","3569.899999856949","false","2","","","","","","","","","","","","","","","","","","",""
"","","","","","html-keyboard-response","27","75888","0.0-2.0-5.0-0.3","5c935d881754ba001b25697a","F1","batch6","","null","<p class=block-text>Trial 4 out of 78</p>","null","pattern_show_trial_num","","","","","","","","","","","","","","","","","","","","","","","","",""
"","","","","","image-keyboard-response","28","78758","0.0-2.0-5.0-1.3","5c935d881754ba001b25697a","F1","batch6","","2868.7999999523163","stim/no_37_2_w.png","j","pattern_response","true","j","pattern_19","2868.7999999523163","true","3","","","","","","","","","","","","","","","","","","",""
"","","","","","html-keyboard-response","29","80073","0.0-2.0-5.0-0.4","5c935d881754ba001b25697a","F1","batch6","","null","<p class=block-text>Trial 5 out of 78</p>","null","pattern_show_trial_num","","","","","","","","","","","","","","","","","","","","","","","","",""
"","","","","","image-keyboard-response","30","81918","0.0-2.0-5.0-1.4","5c935d881754ba001b25697a","F1","batch6","","1843.8999998569489","stim/yes_26_dia_w2_w.png","f","pattern_response","true","f","pattern_50","1843.8999998569489","true","4","","","","","","","","","","","","","","","","","","",""
"","","","","","html-keyboard-response","31","83236","0.0-2.0-5.0-0.5","5c935d881754ba001b25697a","F1","batch6","","null","<p class=block-text>Trial 6 out of 78</p>","null","pattern_show_trial_num","","","","","","","","","","","","","","","","","","","","","","","","",""
"","","","","","image-keyboard-response","32","84594","0.0-2.0-5.0-1.5","5c935d881754ba001b25697a","F1","batch6","","1357.0999999046326","stim/no_12_1.png","j","pattern_response","true","j","pattern_01","1357.0999999046326","true","5","","","","","","","","","","","","","","","","","","",""
"","","","","","html-keyboard-response","33","85922","0.0-2.0-5.0-0.6","5c935d881754ba001b25697a","F1","batch6","","null","<p class=block-text>Trial 7 out of 78</p>","null","pattern_show_trial_num","","","","","","","","","","","","","","","","","","","","","","","","",""
"","","","","","image-keyboard-response","34","87007","0.0-2.0-5.0-1.6","5c935d881754ba001b25697a","F1","batch6","","1083.6000001430511","stim/no_15_1_w.png","j","pattern_response","true","j","pattern_03","1083.6000001430511","true","6","","","","","","","","","","","","","","","","","","",""
"","","","","","html-keyboard-response","35","88331","0.0-2.0-5.0-0.7","5c935d881754ba001b25697a","F1","batch6","","null","<p class=block-text>Trial 8 out of 78</p>","null","pattern_show_trial_num","","","","","","","","","","","","","","","","","","","","","","","","",""
"","","","","","image-keyboard-response","36","91138","0.0-2.0-5.0-1.7","5c935d881754ba001b25697a","F1","batch6","","2806.2999999523163","stim/yes_49_hor_w1_b.png","f","pattern_response","true","f","pattern_70","2806.2999999523163","true","7","","","","","","","","","","","","","","","","","","",""
"","","","","","html-keyboard-response","37","92452","0.0-2.0-5.0-0.8","5c935d881754ba001b25697a","F1","batch6","","null","<p class=block-text>Trial 9 out of 78</p>","null","pattern_show_trial_num","","","","","","","","","","","","","","","","","","","","","","","","",""
"","","","","","image-keyboard-response","38","93174","0.0-2.0-5.0-1.8","5c935d881754ba001b25697a","F1","batch6","","720.5","stim/yes_39_hor_w1_w.png","f","pattern_response","true","f","pattern_62","720.5","true","8","","","","","","","","","","","","","","","","","","",""
"","","","","","html-keyboard-response","39","94498","0.0-2.0-5.0-0.9","5c935d881754ba001b25697a","F1","batch6","","null","<p class=block-text>Trial 10 out of 78</p>","null","pattern_show_trial_num","","","","","","","","","","","","","","","","","","","","","","","","",""
"","","","","","image-keyboard-response","40","95103","0.0-2.0-5.0-1.9","5c935d881754ba001b25697a","F1","batch6","","604","stim/yes_12_hor_w1_w.png","f","pattern_response","true","f","pattern_42","604","true","9","","","","","","","","","","","","","","","","","","",""
"","","","","","html-keyboard-response","41","96429","0.0-2.0-5.0-0.10","5c935d881754ba001b25697a","F1","batch6","","null","<p class=block-text>Trial 11 out of 78</p>","null","pattern_show_trial_num","","","","","","","","","","","","","","","","","","","","","","","","",""
"","","","","","image-keyboard-response","42","99152","0.0-2.0-5.0-1.10","5c935d881754ba001b25697a","F1","batch6","","2722.5999999046326","stim/no_49_2_b.png","j","pattern_response","true","j","pattern_29","2722.5999999046326","true","10","","","","","","","","","","","","","","","","","","",""
"","","","","","html-keyboard-response","43","100464","0.0-2.0-5.0-0.11","5c935d881754ba001b25697a","F1","batch6","","null","<p class=block-text>Trial 12 out of 78</p>","null","pattern_show_trial_num","","","","","","","","","","","","","","","","","","","","","","","","",""
"","","","","","image-keyboard-response","44","101224","0.0-2.0-5.0-1.11","5c935d881754ba001b25697a","F1","batch6","","759.1000001430511","stim/yes_46_ver_b1_b.png","f","pattern_response","true","f","pattern_68","759.1000001430511","true","11","","","","","","","","","","","","","","","","","","",""
"","","","","","html-keyboard-response","45","102540","0.0-2.0-5.0-0.12","5c935d881754ba001b25697a","F1","batch6","","null","<p class=block-text>Trial 13 out of 78</p>","null","pattern_show_trial_num","","","","","","","","","","","","","","","","","","","","","","","","",""
"","","","","","image-keyboard-response","46","103641","0.0-2.0-5.0-1.12","5c935d881754ba001b25697a","F1","batch6","","1100","stim/yes_70_ver_b1.png","f","pattern_response","true","f","pattern_80","1100","true","12","","","","","","","","","","","","","","","","","","",""
"","","","","","html-keyboard-response","47","104956","0.0-2.0-5.0-0.13","5c935d881754ba001b25697a","F1","batch6","","null","<p class=block-text>Trial 14 out of 78</p>","null","pattern_show_trial_num","","","","","","","","","","","","","","","","","","","","","","","","",""
"","","","","","image-keyboard-response","48","105935","0.0-2.0-5.0-1.13","5c935d881754ba001b25697a","F1","batch6","","978.4000000953674","stim/yes_23_ver_b1.png","f","pattern_response","true","f","pattern_48","978.4000000953674","true","13","","","","","","","","","","","","","","","","","","",""
"","","","","","html-keyboard-response","49","107251","0.0-2.0-5.0-0.14","5c935d881754ba001b25697a","F1","batch6","","null","<p class=block-text>Trial 15 out of 78</p>","null","pattern_show_trial_num","","","","","","","","","","","","","","","","","","","","","","","","",""
"","","","","","image-keyboard-response","50","108020","0.0-2.0-5.0-1.14","5c935d881754ba001b25697a","F1","batch6","","767.9000000953674","stim/yes_53_ver_b1_b.png","f","pattern_response","true","f","pattern_74","767.9000000953674","true","14","","","","","","","","","","","","","","","","","","",""
"","","","","","html-keyboard-response","51","109345","0.0-2.0-5.0-0.15","5c935d881754ba001b25697a","F1","batch6","","null","<p class=block-text>Trial 16 out of 78</p>","null","pattern_show_trial_num","","","","","","","","","","","","","","","","","","","","","","","","",""
"","","","","","image-keyboard-response","52","110832","0.0-2.0-5.0-1.15","5c935d881754ba001b25697a","F1","batch6","","1486.5","stim/no_28_2.png","j","pattern_response","true","j","pattern_11","1486.5","true","15","","","","","","","","","","","","","","","","","","",""
"","","","","","html-keyboard-response","53","112154","0.0-2.0-5.0-0.16","5c935d881754ba001b25697a","F1","batch6","","null","<p class=block-text>Trial 17 out of 78</p>","null","pattern_show_trial_num","","","","","","","","","","","","","","","","","","","","","","","","",""
"","","","","","image-keyboard-response","54","113631","0.0-2.0-5.0-1.16","5c935d881754ba001b25697a","F1","batch6","","1476.9000000953674","stim/no_22_1_b.png","j","pattern_response","true","j","pattern_07","1476.9000000953674","true","16","","","","","","","","","","","","","","","","","","",""
"","","","","","html-keyboard-response","55","114947","0.0-2.0-5.0-0.17","5c935d881754ba001b25697a","F1","batch6","","null","<p class=block-text>Trial 18 out of 78</p>","null","pattern_show_trial_num","","","","","","","","","","","","","","","","","","","","","","","","",""
"","","","","","image-keyboard-response","56","116775","0.0-2.0-5.0-1.17","5c935d881754ba001b25697a","F1","batch6","","1826.7000000476837","stim/yes_51_dia_b1.png","j","pattern_response","false","f","pattern_72","1826.7000000476837","false","16","","","","","","","","","","","","","","","","","","",""
"","","","","","html-keyboard-response","57","118093","0.0-2.0-5.0-0.18","5c935d881754ba001b25697a","F1","batch6","","null","<p class=block-text>Trial 19 out of 78</p>","null","pattern_show_trial_num","","","","","","","","","","","","","","","","","","","","","","","","",""
"","","","","","image-keyboard-response","58","120279","0.0-2.0-5.0-1.18","5c935d881754ba001b25697a","F1","batch6","","2184.800000190735","stim/no_36_1_b.png","j","pattern_response","true","j","pattern_17","2184.800000190735","true","17","","","","","","","","","","","","","","","","","","",""
"","","","","","html-keyboard-response","59","121598","0.0-2.0-5.0-0.19","5c935d881754ba001b25697a","F1","batch6","","null","<p class=block-text>Trial 20 out of 78</p>","null","pattern_show_trial_num","","","","","","","","","","","","","","","","","","","","","","","","",""
"","","","","","image-keyboard-response","60","124156","0.0-2.0-5.0-1.19","5c935d881754ba001b25697a","F1","batch6","","2557.800000190735","stim/no_53_1_b.png","j","pattern_response","true","j","pattern_33","2557.800000190735","true","18","","","","","","","","","","","","","","","","","","",""
"","","","","","html-keyboard-response","61","125476","0.0-2.0-5.0-0.20","5c935d881754ba001b25697a","F1","batch6","","null","<p class=block-text>Trial 21 out of 78</p>","null","pattern_show_trial_num","","","","","","","","","","","","","","","","","","","","","","","","",""
"","","","","","image-keyboard-response","62","126941","0.0-2.0-5.0-1.20","5c935d881754ba001b25697a","F1","batch6","","1463.5","stim/no_18_1_b.png","j","pattern_response","true","j","pattern_05","1463.5","true","19","","","","","","","","","","","","","","","","","","",""
"","","","","","html-keyboard-response","63","128264","0.0-2.0-5.0-0.21","5c935d881754ba001b25697a","F1","batch6","","null","<p class=block-text>Trial 22 out of 78</p>","null","pattern_show_trial_num","","","","","","","","","","","","","","","","","","","","","","","","",""
"","","","","","image-keyboard-response","64","130226","0.0-2.0-5.0-1.21","5c935d881754ba001b25697a","F1","batch6","","1961.4000000953674","stim/no_30_1_b.png","j","pattern_response","true","j","pattern_13","1961.4000000953674","true","20","","","","","","","","","","","","","","","","","","",""
"","","","","","html-keyboard-response","65","131544","0.0-2.0-5.0-0.22","5c935d881754ba001b25697a","F1","batch6","","null","<p class=block-text>Trial 23 out of 78</p>","null","pattern_show_trial_num","","","","","","","","","","","","","","","","","","","","","","","","",""
"","","","","","image-keyboard-response","66","132771","0.0-2.0-5.0-1.22","5c935d881754ba001b25697a","F1","batch6","","1226.5","stim/yes_36_ver_w1_w.png","f","pattern_response","true","f","pattern_58","1226.5","true","21","","","","","","","","","","","","","","","","","","",""
"","","","","","html-keyboard-response","67","134088","0.0-2.0-5.0-0.23","5c935d881754ba001b25697a","F1","batch6","","null","<p class=block-text>Trial 24 out of 78</p>","null","pattern_show_trial_num","","","","","","","","","","","","","","","","","","","","","","","","",""
"","","","","","image-keyboard-response","68","134717","0.0-2.0-5.0-1.23","5c935d881754ba001b25697a","F1","batch6","","628.7999999523163","stim/yes_17_ver_b1_b.png","f","pattern_response","true","f","pattern_46","628.7999999523163","true","22","","","","","","","","","","","","","","","","","","",""
"","","","","","html-keyboard-response","69","136043","0.0-2.0-5.0-0.24","5c935d881754ba001b25697a","F1","batch6","","null","<p class=block-text>Trial 25 out of 78</p>","null","pattern_show_trial_num","","","","","","","","","","","","","","","","","","","","","","","","",""
"","","","","","image-keyboard-response","70","136783","0.0-2.0-5.0-1.24","5c935d881754ba001b25697a","F1","batch6","","739.7000000476837","stim/yes_30_ver_b1_b.png","f","pattern_response","true","f","pattern_54","739.7000000476837","true","23","","","","","","","","","","","","","","","","","","",""
"","","","","","html-keyboard-response","71","138103","0.0-2.0-5.0-0.25","5c935d881754ba001b25697a","F1","batch6","","null","<p class=block-text>Trial 26 out of 78</p>","null","pattern_show_trial_num","","","","","","","","","","","","","","","","","","","","","","","","",""
"","","","","","image-keyboard-response","72","140164","0.0-2.0-5.0-1.25","5c935d881754ba001b25697a","F1","batch6","","2059.7999999523163","stim/yes_42_dia_w1_w.png","j","pattern_response","false","f","pattern_64","2059.7999999523163","false","23","","","","","","","","","","","","","","","","","","",""
"","","","","","html-keyboard-response","73","141492","0.0-2.0-5.0-0.26","5c935d881754ba001b25697a","F1","batch6","","null","<p class=block-text>Trial 27 out of 78</p>","null","pattern_show_trial_num","","","","","","","","","","","","","","","","","","","","","","","","",""
"","","","","","image-keyboard-response","74","143042","0.0-2.0-5.0-1.26","5c935d881754ba001b25697a","F1","batch6","","1549.2000000476837","stim/no_45_1_w.png","j","pattern_response","true","j","pattern_25","1549.2000000476837","true","24","","","","","","","","","","","","","","","","","","",""
"","","","","","html-keyboard-response","75","144359","0.0-2.0-5.0-0.27","5c935d881754ba001b25697a","F1","batch6","","null","<p class=block-text>Trial 28 out of 78</p>","null","pattern_show_trial_num","","","","","","","","","","","","","","","","","","","","","","","","",""
"","","","","","image-keyboard-response","76","144941","0.0-2.0-5.0-1.27","5c935d881754ba001b25697a","F1","batch6","","581.2000000476837","stim/yes_29_hor_b1_b.png","f","pattern_response","true","f","pattern_52","581.2000000476837","true","25","","","","","","","","","","","","","","","","","","",""
"","","","","","html-keyboard-response","77","146263","0.0-2.0-5.0-0.28","5c935d881754ba001b25697a","F1","batch6","","null","<p class=block-text>Trial 29 out of 78</p>","null","pattern_show_trial_num","","","","","","","","","","","","","","","","","","","","","","","","",""
"","","","","","image-keyboard-response","78","148023","0.0-2.0-5.0-1.28","5c935d881754ba001b25697a","F1","batch6","","1759.1000001430511","stim/no_43_2_b.png","j","pattern_response","true","j","pattern_23","1759.1000001430511","true","26","","","","","","","","","","","","","","","","","","",""
"","","","","","html-keyboard-response","79","149353","0.0-2.0-5.0-0.29","5c935d881754ba001b25697a","F1","batch6","","null","<p class=block-text>Trial 30 out of 78</p>","null","pattern_show_trial_num","","","","","","","","","","","","","","","","","","","","","","","","",""
"","","","","","image-keyboard-response","80","150903","0.0-2.0-5.0-1.29","5c935d881754ba001b25697a","F1","batch6","","1549","stim/yes_44_ver_w1_w.png","j","pattern_response","false","f","pattern_66","1549","false","26","","","","","","","","","","","","","","","","","","",""
"","","","","","html-keyboard-response","81","152222","0.0-2.0-5.0-0.30","5c935d881754ba001b25697a","F1","batch6","","null","<p class=block-text>Trial 31 out of 78</p>","null","pattern_show_trial_num","","","","","","","","","","","","","","","","","","","","","","","","",""
"","","","","","image-keyboard-response","82","153095","0.0-2.0-5.0-1.30","5c935d881754ba001b25697a","F1","batch6","","872.3000001907349","stim/yes_37_hor_w1_w.png","f","pattern_response","true","f","pattern_60","872.3000001907349","true","27","","","","","","","","","","","","","","","","","","",""
"","","","","","html-keyboard-response","83","154412","0.0-2.0-5.0-0.31","5c935d881754ba001b25697a","F1","batch6","","null","<p class=block-text>Trial 32 out of 78</p>","null","pattern_show_trial_num","","","","","","","","","","","","","","","","","","","","","","","","",""
"","","","","","image-keyboard-response","84","156207","0.0-2.0-5.0-1.31","5c935d881754ba001b25697a","F1","batch6","","1794.9000000953674","stim/no_33_1_b.png","j","pattern_response","true","j","pattern_15","1794.9000000953674","true","28","","","","","","","","","","","","","","","","","","",""
"","","","","","html-keyboard-response","85","157531","0.0-2.0-5.0-0.32","5c935d881754ba001b25697a","F1","batch6","","null","<p class=block-text>Trial 33 out of 78</p>","null","pattern_show_trial_num","","","","","","","","","","","","","","","","","","","","","","","","",""
"","","","","","image-keyboard-response","86","159035","0.0-2.0-5.0-1.32","5c935d881754ba001b25697a","F1","batch6","","1503.2000000476837","stim/yes_63_dia_b1.png","f","pattern_response","true","f","pattern_78","1503.2000000476837","true","29","","","","","","","","","","","","","","","","","","",""
"","","","","","html-keyboard-response","87","160354","0.0-2.0-5.0-0.33","5c935d881754ba001b25697a","F1","batch6","","null","<p class=block-text>Trial 34 out of 78</p>","null","pattern_show_trial_num","","","","","","","","","","","","","","","","","","","","","","","","",""
"","","","","","image-keyboard-response","88","163329","0.0-2.0-5.0-1.33","5c935d881754ba001b25697a","F1","batch6","","2974.4000000953674","stim/no_67_1.png","j","pattern_response","true","j","pattern_39","2974.4000000953674","true","30","","","","","","","","","","","","","","","","","","",""
"","","","","","html-keyboard-response","89","164642","0.0-2.0-5.0-0.34","5c935d881754ba001b25697a","F1","batch6","","null","<p class=block-text>Trial 35 out of 78</p>","null","pattern_show_trial_num","","","","","","","","","","","","","","","","","","","","","","","","",""
"","","","","","image-keyboard-response","90","166089","0.0-2.0-5.0-1.34","5c935d881754ba001b25697a","F1","batch6","","1446","stim/no_25_1_b.png","j","pattern_response","true","j","pattern_09","1446","true","31","","","","","","","","","","","","","","","","","","",""
"","","","","","html-keyboard-response","91","167405","0.0-2.0-5.0-0.35","5c935d881754ba001b25697a","F1","batch6","","null","<p class=block-text>Trial 36 out of 78</p>","null","pattern_show_trial_num","","","","","","","","","","","","","","","","","","","","","","","","",""
"","","","","","image-keyboard-response","92","168069","0.0-2.0-5.0-1.35","5c935d881754ba001b25697a","F1","batch6","","663","stim/yes_15_dia_b1u_b.png","f","pattern_response","true","f","pattern_44","663","true","32","","","","","","","","","","","","","","","","","","",""
"","","","","","html-keyboard-response","93","169386","0.0-2.0-5.0-0.36","5c935d881754ba001b25697a","F1","batch6","","null","<p class=block-text>Trial 37 out of 78</p>","null","pattern_show_trial_num","","","","","","","","","","","","","","","","","","","","","","","","",""
"","","","","","image-keyboard-response","94","170733","0.0-2.0-5.0-1.36","5c935d881754ba001b25697a","F1","batch6","","1345.5999999046326","stim/yes_33_dia_w1_w.png","j","pattern_response","false","f","pattern_56","1345.5999999046326","false","32","","","","","","","","","","","","","","","","","","",""
"","","","","","html-keyboard-response","95","172057","0.0-2.0-5.0-0.37","5c935d881754ba001b25697a","F1","batch6","","null","<p class=block-text>Trial 38 out of 78</p>","null","pattern_show_trial_num","","","","","","","","","","","","","","","","","","","","","","","","",""
"","","","","","image-keyboard-response","96","175465","0.0-2.0-5.0-1.37","5c935d881754ba001b25697a","F1","batch6","","3407.800000190735","stim/no_51_1.png","j","pattern_response","true","j","pattern_31","3407.800000190735","true","33","","","","","","","","","","","","","","","","","","",""
"","","","","","html-keyboard-response","97","176782","0.0-2.0-5.0-0.38","5c935d881754ba001b25697a","F1","batch6","","null","<p class=block-text>Trial 39 out of 78</p>","null","pattern_show_trial_num","","","","","","","","","","","","","","","","","","","","","","","","",""
"","","","","","image-keyboard-response","98","179596","0.0-2.0-5.0-1.38","5c935d881754ba001b25697a","F1","batch6","","2812.399999856949","stim/no_47_1_b.png","j","pattern_response","true","j","pattern_27","2812.399999856949","true","34","","","","","","","","","","","","","","","","","","",""
"","","","","","image-keyboard-response","99","182163","0.0-2.0-6.0","5c935d881754ba001b25697a","F1","batch6","","2051.7999999523163","stim/empty_board.png","j","attention_check","true","j","","","","","500","[""f"",""j""]","","","","","","","","","","","","","","","","",""
"","","","","","html-keyboard-response","100","182977","0.0-2.0-7.0-0.0","5c935d881754ba001b25697a","F1","batch6","","null","<p class=block-text>Trial 40 out of 78</p>","null","pattern_show_trial_num","","","","","","","","","","","","","","","","","","","","","","","","",""
"","","","","","image-keyboard-response","101","184968","0.0-2.0-7.0-1.0","5c935d881754ba001b25697a","F1","batch6","","1989.2999999523163","stim/yes_37_dia_w1.png","j","pattern_response","false","f","pattern_59","1989.2999999523163","false","34","","","","","","","","","","","","","","","","","","",""
"","","","","","html-keyboard-response","102","186281","0.0-2.0-7.0-0.1","5c935d881754ba001b25697a","F1","batch6","","null","<p class=block-text>Trial 41 out of 78</p>","null","pattern_show_trial_num","","","","","","","","","","","","","","","","","","","","","","","","",""
"","","","","","image-keyboard-response","103","188097","0.0-2.0-7.0-1.1","5c935d881754ba001b25697a","F1","batch6","","1815.0999999046326","stim/yes_60_ver_b1_b.png","f","pattern_response","true","f","pattern_77","1815.0999999046326","true","35","","","","","","","","","","","","","","","","","","",""
"","","","","","html-keyboard-response","104","189422","0.0-2.0-7.0-0.2","5c935d881754ba001b25697a","F1","batch6","","null","<p class=block-text>Trial 42 out of 78</p>","null","pattern_show_trial_num","","","","","","","","","","","","","","","","","","","","","","","","",""
"","","","","","image-keyboard-response","105","190862","0.0-2.0-7.0-1.2","5c935d881754ba001b25697a","F1","batch6","","1439","stim/no_17_1_w.png","j","pattern_response","true","j","pattern_04","1439","true","36","","","","","","","","","","","","","","","","","","",""
"","","","","","html-keyboard-response","106","192185","0.0-2.0-7.0-0.3","5c935d881754ba001b25697a","F1","batch6","","null","<p class=block-text>Trial 43 out of 78</p>","null","pattern_show_trial_num","","","","","","","","","","","","","","","","","","","","","","","","",""
"","","","","","image-keyboard-response","107","192946","0.0-2.0-7.0-1.3","5c935d881754ba001b25697a","F1","batch6","","759.2999999523163","stim/yes_25_hor_b1_b.png","f","pattern_response","true","f","pattern_49","759.2999999523163","true","37","","","","","","","","","","","","","","","","","","",""
"","","","","","html-keyboard-response","108","194266","0.0-2.0-7.0-0.4","5c935d881754ba001b25697a","F1","batch6","","null","<p class=block-text>Trial 44 out of 78</p>","null","pattern_show_trial_num","","","","","","","","","","","","","","","","","","","","","","","","",""
"","","","","","image-keyboard-response","109","195911","0.0-2.0-7.0-1.4","5c935d881754ba001b25697a","F1","batch6","","1643.7999999523163","stim/yes_31_hor_b1.png","j","pattern_response","false","f","pattern_55","1643.7999999523163","false","37","","","","","","","","","","","","","","","","","","",""
"","","","","","html-keyboard-response","110","197233","0.0-2.0-7.0-0.5","5c935d881754ba001b25697a","F1","batch6","","null","<p class=block-text>Trial 45 out of 78</p>","null","pattern_show_trial_num","","","","","","","","","","","","","","","","","","","","","","","","",""
"","","","","","image-keyboard-response","111","200878","0.0-2.0-7.0-1.5","5c935d881754ba001b25697a","F1","batch6","","3644.5","stim/no_44_1.png","j","pattern_response","true","j","pattern_24","3644.5","true","38","","","","","","","","","","","","","","","","","","",""
"","","","","","html-keyboard-response","112","202194","0.0-2.0-7.0-0.6","5c935d881754ba001b25697a","F1","batch6","","null","<p class=block-text>Trial 46 out of 78</p>","null","pattern_show_trial_num","","","","","","","","","","","","","","","","","","","","","","","","",""
"","","","","","image-keyboard-response","113","203176","0.0-2.0-7.0-1.6","5c935d881754ba001b25697a","F1","batch6","","980.5","stim/yes_29_ver_w1.png","f","pattern_response","true","f","pattern_53","980.5","true","39","","","","","","","","","","","","","","","","","","",""
"","","","","","html-keyboard-response","114","204491","0.0-2.0-7.0-0.7","5c935d881754ba001b25697a","F1","batch6","","null","<p class=block-text>Trial 47 out of 78</p>","null","pattern_show_trial_num","","","","","","","","","","","","","","","","","","","","","","","","",""
"","","","","","image-keyboard-response","115","206652","0.0-2.0-7.0-1.7","5c935d881754ba001b25697a","F1","batch6","","2160.0999999046326","stim/no_34_1_b.png","j","pattern_response","true","j","pattern_16","2160.0999999046326","true","40","","","","","","","","","","","","","","","","","","",""
"","","","","","html-keyboard-response","116","207974","0.0-2.0-7.0-0.8","5c935d881754ba001b25697a","F1","batch6","","null","<p class=block-text>Trial 48 out of 78</p>","null","pattern_show_trial_num","","","","","","","","","","","","","","","","","","","","","","","","",""
"","","","","","image-keyboard-response","117","209170","0.0-2.0-7.0-1.8","5c935d881754ba001b25697a","F1","batch6","","1194.7999999523163","stim/yes_43_ver_w1_w.png","f","pattern_response","true","f","pattern_65","1194.7999999523163","true","41","","","","","","","","","","","","","","","","","","",""
"","","","","","html-keyboard-response","118","210496","0.0-2.0-7.0-0.9","5c935d881754ba001b25697a","F1","batch6","","null","<p class=block-text>Trial 49 out of 78</p>","null","pattern_show_trial_num","","","","","","","","","","","","","","","","","","","","","","","","",""
"","","","","","image-keyboard-response","119","213926","0.0-2.0-7.0-1.9","5c935d881754ba001b25697a","F1","batch6","","3429.199999809265","stim/no_70_2.png","j","pattern_response","true","j","pattern_40","3429.199999809265","true","42","","","","","","","","","","","","","","","","","","",""
"","","","","","html-keyboard-response","120","215245","0.0-2.0-7.0-0.10","5c935d881754ba001b25697a","F1","batch6","","null","<p class=block-text>Trial 50 out of 78</p>","null","pattern_show_trial_num","","","","","","","","","","","","","","","","","","","","","","","","",""
"","","","","","image-keyboard-response","121","215974","0.0-2.0-7.0-1.10","5c935d881754ba001b25697a","F1","batch6","","727.3999998569489","stim/yes_28_ver_b1.png","f","pattern_response","true","f","pattern_51","727.3999998569489","true","43","","","","","","","","","","","","","","","","","","",""
"","","","","","html-keyboard-response","122","217292","0.0-2.0-7.0-0.11","5c935d881754ba001b25697a","F1","batch6","","null","<p class=block-text>Trial 51 out of 78</p>","null","pattern_show_trial_num","","","","","","","","","","","","","","","","","","","","","","","","",""
"","","","","","image-keyboard-response","123","221323","0.0-2.0-7.0-1.11","5c935d881754ba001b25697a","F1","batch6","","4030.0999999046326","stim/yes_67_hor_b1.png","j","pattern_response","false","f","pattern_79","4030.0999999046326","false","43","","","","","","","","","","","","","","","","","","",""
"","","","","","html-keyboard-response","124","222645","0.0-2.0-7.0-0.12","5c935d881754ba001b25697a","F1","batch6","","null","<p class=block-text>Trial 52 out of 78</p>","null","pattern_show_trial_num","","","","","","","","","","","","","","","","","","","","","","","","",""
"","","","","","image-keyboard-response","125","224587","0.0-2.0-7.0-1.12","5c935d881754ba001b25697a","F1","batch6","","1941.2999999523163","stim/no_32_1_w.png","j","pattern_response","true","j","pattern_14","1941.2999999523163","true","44","","","","","","","","","","","","","","","","","","",""
"","","","","","html-keyboard-response","126","225913","0.0-2.0-7.0-0.13","5c935d881754ba001b25697a","F1","batch6","","null","<p class=block-text>Trial 53 out of 78</p>","null","pattern_show_trial_num","","","","","","","","","","","","","","","","","","","","","","","","",""
"","","","","","image-keyboard-response","127","227659","0.0-2.0-7.0-1.13","5c935d881754ba001b25697a","F1","batch6","","1744.7000000476837","stim/no_23_1.png","j","pattern_response","true","j","pattern_08","1744.7000000476837","true","45","","","","","","","","","","","","","","","","","","",""
"","","","","","html-keyboard-response","128","228984","0.0-2.0-7.0-0.14","5c935d881754ba001b25697a","F1","batch6","","null","<p class=block-text>Trial 54 out of 78</p>","null","pattern_show_trial_num","","","","","","","","","","","","","","","","","","","","","","","","",""
"","","","","","image-keyboard-response","129","229765","0.0-2.0-7.0-1.14","5c935d881754ba001b25697a","F1","batch6","","779.7000000476837","stim/yes_22_ver_w1.png","f","pattern_response","true","f","pattern_47","779.7000000476837","true","46","","","","","","","","","","","","","","","","","","",""
"","","","","","html-keyboard-response","130","231089","0.0-2.0-7.0-0.15","5c935d881754ba001b25697a","F1","batch6","","null","<p class=block-text>Trial 55 out of 78</p>","null","pattern_show_trial_num","","","","","","","","","","","","","","","","","","","","","","","","",""
"","","","","","image-keyboard-response","131","231865","0.0-2.0-7.0-1.15","5c935d881754ba001b25697a","F1","batch6","","774.9000000953674","stim/yes_14_hor_b1_w.png","f","pattern_response","true","f","pattern_43","774.9000000953674","true","47","","","","","","","","","","","","","","","","","","",""
"","","","","","html-keyboard-response","132","233190","0.0-2.0-7.0-0.16","5c935d881754ba001b25697a","F1","batch6","","null","<p class=block-text>Trial 56 out of 78</p>","null","pattern_show_trial_num","","","","","","","","","","","","","","","","","","","","","","","","",""
"","","","","","image-keyboard-response","133","235679","0.0-2.0-7.0-1.16","5c935d881754ba001b25697a","F1","batch6","","2488.7000000476837","stim/no_55_1_w.png","j","pattern_response","true","j","pattern_34","2488.7000000476837","true","48","","","","","","","","","","","","","","","","","","",""
"","","","","","html-keyboard-response","134","236998","0.0-2.0-7.0-0.17","5c935d881754ba001b25697a","F1","batch6","","null","<p class=block-text>Trial 57 out of 78</p>","null","pattern_show_trial_num","","","","","","","","","","","","","","","","","","","","","","","","",""
"","","","","","image-keyboard-response","135","239435","0.0-2.0-7.0-1.17","5c935d881754ba001b25697a","F1","batch6","","2436.2999999523163","stim/no_38_1_b.png","j","pattern_response","true","j","pattern_20","2436.2999999523163","true","49","","","","","","","","","","","","","","","","","","",""
"","","","","","html-keyboard-response","136","240761","0.0-2.0-7.0-0.18","5c935d881754ba001b25697a","F1","batch6","","null","<p class=block-text>Trial 58 out of 78</p>","null","pattern_show_trial_num","","","","","","","","","","","","","","","","","","","","","","","","",""
"","","","","","image-keyboard-response","137","242059","0.0-2.0-7.0-1.18","5c935d881754ba001b25697a","F1","batch6","","1296.7999999523163","stim/yes_17_dia_w1.png","f","pattern_response","true","f","pattern_45","1296.7999999523163","true","50","","","","","","","","","","","","","","","","","","",""
"","","","","","html-keyboard-response","138","243381","0.0-2.0-7.0-0.19","5c935d881754ba001b25697a","F1","batch6","","null","<p class=block-text>Trial 59 out of 78</p>","null","pattern_show_trial_num","","","","","","","","","","","","","","","","","","","","","","","","",""
"","","","","","image-keyboard-response","139","245509","0.0-2.0-7.0-1.19","5c935d881754ba001b25697a","F1","batch6","","2127","stim/yes_50_dia_w1.png","j","pattern_response","false","f","pattern_71","2127","false","50","","","","","","","","","","","","","","","","","","",""
"","","","","","html-keyboard-response","140","246826","0.0-2.0-7.0-0.20","5c935d881754ba001b25697a","F1","batch6","","null","<p class=block-text>Trial 60 out of 78</p>","null","pattern_show_trial_num","","","","","","","","","","","","","","","","","","","","","","","","",""
"","","","","","image-keyboard-response","141","249057","0.0-2.0-7.0-1.20","5c935d881754ba001b25697a","F1","batch6","","2230.4000000953674","stim/yes_55_hor_w1_w.png","j","pattern_response","false","f","pattern_75","2230.4000000953674","false","50","","","","","","","","","","","","","","","","","","",""
"","","","","","html-keyboard-response","142","250378","0.0-2.0-7.0-0.21","5c935d881754ba001b25697a","F1","batch6","","null","<p class=block-text>Trial 61 out of 78</p>","null","pattern_show_trial_num","","","","","","","","","","","","","","","","","","","","","","","","",""
"","","","","","image-keyboard-response","143","253469","0.0-2.0-7.0-1.21","5c935d881754ba001b25697a","F1","batch6","","3090.100000143051","stim/no_46_1_b.png","j","pattern_response","true","j","pattern_26","3090.100000143051","true","51","","","","","","","","","","","","","","","","","","",""
"","","","","","html-keyboard-response","144","254784","0.0-2.0-7.0-0.22","5c935d881754ba001b25697a","F1","batch6","","null","<p class=block-text>Trial 62 out of 78</p>","null","pattern_show_trial_num","","","","","","","","","","","","","","","","","","","","","","","","",""
"","","","","","image-keyboard-response","145","255765","0.0-2.0-7.0-1.22","5c935d881754ba001b25697a","F1","batch6","","980.1000001430511","stim/yes_52_ver_w1.png","f","pattern_response","true","f","pattern_73","980.1000001430511","true","52","","","","","","","","","","","","","","","","","","",""
"","","","","","html-keyboard-response","146","257077","0.0-2.0-7.0-0.23","5c935d881754ba001b25697a","F1","batch6","","null","<p class=block-text>Trial 63 out of 78</p>","null","pattern_show_trial_num","","","","","","","","","","","","","","","","","","","","","","","","",""
"","","","","","image-keyboard-response","147","258655","0.0-2.0-7.0-1.23","5c935d881754ba001b25697a","F1","batch6","","1577.6000001430511","stim/yes_45_hor_b2_b.png","f","pattern_response","true","f","pattern_67","1577.6000001430511","true","53","","","","","","","","","","","","","","","","","","",""
"","","","","","html-keyboard-response","148","259975","0.0-2.0-7.0-0.24","5c935d881754ba001b25697a","F1","batch6","","null","<p class=block-text>Trial 64 out of 78</p>","null","pattern_show_trial_num","","","","","","","","","","","","","","","","","","","","","","","","",""
"","","","","","image-keyboard-response","149","261629","0.0-2.0-7.0-1.24","5c935d881754ba001b25697a","F1","batch6","","1653.2999999523163","stim/no_26_1_w.png","j","pattern_response","true","j","pattern_10","1653.2999999523163","true","54","","","","","","","","","","","","","","","","","","",""
"","","","","","html-keyboard-response","150","262955","0.0-2.0-7.0-0.25","5c935d881754ba001b25697a","F1","batch6","","null","<p class=block-text>Trial 65 out of 78</p>","null","pattern_show_trial_num","","","","","","","","","","","","","","","","","","","","","","","","",""
"","","","","","image-keyboard-response","151","266113","0.0-2.0-7.0-1.25","5c935d881754ba001b25697a","F1","batch6","","3157","stim/no_65_1_b.png","j","pattern_response","true","j","pattern_38","3157","true","55","","","","","","","","","","","","","","","","","","",""
"","","","","","html-keyboard-response","152","267427","0.0-2.0-7.0-0.26","5c935d881754ba001b25697a","F1","batch6","","null","<p class=block-text>Trial 66 out of 78</p>","null","pattern_show_trial_num","","","","","","","","","","","","","","","","","","","","","","","","",""
"","","","","","image-keyboard-response","153","270476","0.0-2.0-7.0-1.26","5c935d881754ba001b25697a","F1","batch6","","3047.7999999523163","stim/yes_48_dia_w1_w.png","f","pattern_response","true","f","pattern_69","3047.7999999523163","true","56","","","","","","","","","","","","","","","","","","",""
"","","","","","html-keyboard-response","154","271802","0.0-2.0-7.0-0.27","5c935d881754ba001b25697a","F1","batch6","","null","<p class=block-text>Trial 67 out of 78</p>","null","pattern_show_trial_num","","","","","","","","","","","","","","","","","","","","","","","","",""
"","","","","","image-keyboard-response","155","273882","0.0-2.0-7.0-1.27","5c935d881754ba001b25697a","F1","batch6","","2079.300000190735","stim/no_50_1.png","j","pattern_response","true","j","pattern_30","2079.300000190735","true","57","","","","","","","","","","","","","","","","","","",""
"","","","","","html-keyboard-response","156","275197","0.0-2.0-7.0-0.28","5c935d881754ba001b25697a","F1","batch6","","null","<p class=block-text>Trial 68 out of 78</p>","null","pattern_show_trial_num","","","","","","","","","","","","","","","","","","","","","","","","",""
"","","","","","image-keyboard-response","157","277146","0.0-2.0-7.0-1.28","5c935d881754ba001b25697a","F1","batch6","","1947.9000000953674","stim/yes_40_dia_b1_b.png","j","pattern_response","false","f","pattern_63","1947.9000000953674","false","57","","","","","","","","","","","","","","","","","","",""
"","","","","","html-keyboard-response","158","278469","0.0-2.0-7.0-0.29","5c935d881754ba001b25697a","F1","batch6","","null","<p class=block-text>Trial 69 out of 78</p>","null","pattern_show_trial_num","","","","","","","","","","","","","","","","","","","","","","","","",""
"","","","","","image-keyboard-response","159","282314","0.0-2.0-7.0-1.29","5c935d881754ba001b25697a","F1","batch6","","3844.2000000476837","stim/no_36_2_w.png","j","pattern_response","true","j","pattern_18","3844.2000000476837","true","58","","","","","","","","","","","","","","","","","","",""
"","","","","","html-keyboard-response","160","283640","0.0-2.0-7.0-0.30","5c935d881754ba001b25697a","F1","batch6","","null","<p class=block-text>Trial 70 out of 78</p>","null","pattern_show_trial_num","","","","","","","","","","","","","","","","","","","","","","","","",""
"","","","","","image-keyboard-response","161","285954","0.0-2.0-7.0-1.30","5c935d881754ba001b25697a","F1","batch6","","2313.2000000476837","stim/no_48_1_w.png","j","pattern_response","true","j","pattern_28","2313.2000000476837","true","59","","","","","","","","","","","","","","","","","","",""
"","","","","","html-keyboard-response","162","287273","0.0-2.0-7.0-0.31","5c935d881754ba001b25697a","F1","batch6","","null","<p class=block-text>Trial 71 out of 78</p>","null","pattern_show_trial_num","","","","","","","","","","","","","","","","","","","","","","","","",""
"","","","","","image-keyboard-response","163","290034","0.0-2.0-7.0-1.31","5c935d881754ba001b25697a","F1","batch6","","2760.2999999523163","stim/yes_35_dia_b1.png","j","pattern_response","false","f","pattern_57","2760.2999999523163","false","59","","","","","","","","","","","","","","","","","","",""
"","","","","","html-keyboard-response","164","291355","0.0-2.0-7.0-0.32","5c935d881754ba001b25697a","F1","batch6","","null","<p class=block-text>Trial 72 out of 78</p>","null","pattern_show_trial_num","","","","","","","","","","","","","","","","","","","","","","","","",""
"","","","","","image-keyboard-response","165","295118","0.0-2.0-7.0-1.32","5c935d881754ba001b25697a","F1","batch6","","3762.300000190735","stim/no_52_1.png","j","pattern_response","true","j","pattern_32","3762.300000190735","true","60","","","","","","","","","","","","","","","","","","",""
"","","","","","html-keyboard-response","166","296434","0.0-2.0-7.0-0.33","5c935d881754ba001b25697a","F1","batch6","","null","<p class=block-text>Trial 73 out of 78</p>","null","pattern_show_trial_num","","","","","","","","","","","","","","","","","","","","","","","","",""
"","","","","","image-keyboard-response","167","300128","0.0-2.0-7.0-1.33","5c935d881754ba001b25697a","F1","batch6","","3693.2999999523163","stim/no_42_1_w.png","j","pattern_response","true","j","pattern_22","3693.2999999523163","true","61","","","","","","","","","","","","","","","","","","",""
"","","","","","html-keyboard-response","168","301450","0.0-2.0-7.0-0.34","5c935d881754ba001b25697a","F1","batch6","","null","<p class=block-text>Trial 74 out of 78</p>","null","pattern_show_trial_num","","","","","","","","","","","","","","","","","","","","","","","","",""
"","","","","","image-keyboard-response","169","303776","0.0-2.0-7.0-1.34","5c935d881754ba001b25697a","F1","batch6","","2325.7000000476837","stim/no_29_1_b.png","j","pattern_response","true","j","pattern_12","2325.7000000476837","true","62","","","","","","","","","","","","","","","","","","",""
"","","","","","html-keyboard-response","170","305098","0.0-2.0-7.0-0.35","5c935d881754ba001b25697a","F1","batch6","","null","<p class=block-text>Trial 75 out of 78</p>","null","pattern_show_trial_num","","","","","","","","","","","","","","","","","","","","","","","","",""
"","","","","","image-keyboard-response","171","308297","0.0-2.0-7.0-1.35","5c935d881754ba001b25697a","F1","batch6","","3197.600000143051","stim/no_20_1_w.png","j","pattern_response","true","j","pattern_06","3197.600000143051","true","63","","","","","","","","","","","","","","","","","","",""
"","","","","","html-keyboard-response","172","309624","0.0-2.0-7.0-0.36","5c935d881754ba001b25697a","F1","batch6","","null","<p class=block-text>Trial 76 out of 78</p>","null","pattern_show_trial_num","","","","","","","","","","","","","","","","","","","","","","","","",""
"","","","","","image-keyboard-response","173","310531","0.0-2.0-7.0-1.36","5c935d881754ba001b25697a","F1","batch6","","905.8999998569489","stim/yes_38_hor_b1_b.png","f","pattern_response","true","f","pattern_61","905.8999998569489","true","64","","","","","","","","","","","","","","","","","","",""
"","","","","","html-keyboard-response","174","311850","0.0-2.0-7.0-0.37","5c935d881754ba001b25697a","F1","batch6","","null","<p class=block-text>Trial 77 out of 78</p>","null","pattern_show_trial_num","","","","","","","","","","","","","","","","","","","","","","","","",""
"","","","","","image-keyboard-response","175","318629","0.0-2.0-7.0-1.37","5c935d881754ba001b25697a","F1","batch6","","6778.200000047684","stim/no_62_1_w.png","j","pattern_response","true","j","pattern_36","6778.200000047684","true","65","","","","","","","","","","","","","","","","","","",""
"","","","","","html-keyboard-response","176","319948","0.0-2.0-7.0-0.38","5c935d881754ba001b25697a","F1","batch6","","null","<p class=block-text>Trial 78 out of 78</p>","null","pattern_show_trial_num","","","","","","","","","","","","","","","","","","","","","","","","",""
"","","","","","image-keyboard-response","177","321429","0.0-2.0-7.0-1.38","5c935d881754ba001b25697a","F1","batch6","","1480.6000001430511","stim/no_13_2_b.png","j","pattern_response","true","j","pattern_02","1480.6000001430511","true","66","","","","","","","","","","","","","","","","","","",""
"","","","","","html-button-response","178","326745","0.0-2.0-8.0","5c935d881754ba001b25697a","F1","batch6","","4799.200000047684","<p class = block-text>This concludes the 4-in-a-row detection game.Thank you for your responses!<br>
            You responded correctly on 85% of the trials.<br>
            When you are ready, press ""Continue"" button to continue </p>","0","","","","","","","","","","","","","","","","","","","","","","","","","",""
"true","","","","","fullscreen","179","329968","0.0-3.0-0.0","5c935d881754ba001b25697a","F1","batch6","","","","","spm_fullscreen","","","","","","","","","","","","","","","","","","","","","","","","",""
"","","","","","html-button-response","180","339537","0.0-3.0-1.0","5c935d881754ba001b25697a","F1","batch6","","9568.900000095367","<p class = block-text><b>Instructions</b> <br>This is a widely used intelligence test in research. <br>In this test, a figure with a missing piece will be presented.<br>Below the figure are alternative pieces to complete the figure, only one of which is correct.<br> Different figures might involve different principles for obtaining the missing piece<br>Your job is to select the most logical piece to complete the figure.</p>","0","","","","","","","","","","","","","","","","","","","","","","","","","",""
"","","","","","html-keyboard-response","181","340342","0.0-3.0-2.0-0.0","5c935d881754ba001b25697a","F1","batch6","","null","<p class=block-text>Trial 1 out of 60</p>","null","spm_show_trial_num","","","","","","","","","","","","","","","","","","","","","","","","",""
"","","","","","image-button-response","182","357906","0.0-3.0-2.0-1.0","5c935d881754ba001b25697a","F1","batch6","","17561.900000095367","img/question_1_1.jpeg","3","spm_respsonse","1","4","mat_01","","","","","","1","17561.900000095367","","","","","","","","","","","","","","",""
"","","","","","html-keyboard-response","183","358979","0.0-3.0-2.0-0.1","5c935d881754ba001b25697a","F1","batch6","","null","<p class=block-text>Trial 2 out of 60</p>","null","spm_show_trial_num","","","","","","","","","","","","","","","","","","","","","","","","",""
"","","","","","image-button-response","184","362114","0.0-3.0-2.0-1.1","5c935d881754ba001b25697a","F1","batch6","","3133.4000000953674","img/question_1_2.jpeg","4","spm_respsonse","1","5","mat_02","","","","","","1","3133.4000000953674","","","","","","","","","","","","","","",""
"","","","","","html-keyboard-response","185","363185","0.0-3.0-2.0-0.2","5c935d881754ba001b25697a","F1","batch6","","null","<p class=block-text>Trial 3 out of 60</p>","null","spm_show_trial_num","","","","","","","","","","","","","","","","","","","","","","","","",""
"","","","","","image-button-response","186","368682","0.0-3.0-2.0-1.2","5c935d881754ba001b25697a","F1","batch6","","5495.5","img/question_1_3.jpeg","0","spm_respsonse","1","1","mat_03","","","","","","1","5495.5","","","","","","","","","","","","","","",""
"","","","","","html-keyboard-response","187","369744","0.0-3.0-2.0-0.3","5c935d881754ba001b25697a","F1","batch6","","null","<p class=block-text>Trial 4 out of 60</p>","null","spm_show_trial_num","","","","","","","","","","","","","","","","","","","","","","","","",""
"","","","","","image-button-response","188","375650","0.0-3.0-2.0-1.3","5c935d881754ba001b25697a","F1","batch6","","5905","img/question_1_4.jpeg","1","spm_respsonse","1","2","mat_04","","","","","","1","5905","","","","","","","","","","","","","","",""
"","","","","","html-keyboard-response","189","376711","0.0-3.0-2.0-0.4","5c935d881754ba001b25697a","F1","batch6","","null","<p class=block-text>Trial 5 out of 60</p>","null","spm_show_trial_num","","","","","","","","","","","","","","","","","","","","","","","","",""
"","","","","","image-button-response","190","381362","0.0-3.0-2.0-1.4","5c935d881754ba001b25697a","F1","batch6","","4649.5","img/question_1_5.jpeg","5","spm_respsonse","1","6","mat_05","","","","","","1","4649.5","","","","","","","","","","","","","","",""
"","","","","","html-keyboard-response","191","382425","0.0-3.0-2.0-0.5","5c935d881754ba001b25697a","F1","batch6","","null","<p class=block-text>Trial 6 out of 60</p>","null","spm_show_trial_num","","","","","","","","","","","","","","","","","","","","","","","","",""
"","","","","","image-button-response","192","387066","0.0-3.0-2.0-1.5","5c935d881754ba001b25697a","F1","batch6","","4639.700000047684","img/question_1_6.jpeg","2","spm_respsonse","1","3","mat_06","","","","","","1","4639.700000047684","","","","","","","","","","","","","","",""
"","","","","","html-keyboard-response","193","388139","0.0-3.0-2.0-0.6","5c935d881754ba001b25697a","F1","batch6","","null","<p class=block-text>Trial 7 out of 60</p>","null","spm_show_trial_num","","","","","","","","","","","","","","","","","","","","","","","","",""
"","","","","","image-button-response","194","392826","0.0-3.0-2.0-1.6","5c935d881754ba001b25697a","F1","batch6","","4685.5","img/question_1_7.jpeg","5","spm_respsonse","1","6","mat_07","","","","","","1","4685.5","","","","","","","","","","","","","","",""
"","","","","","html-keyboard-response","195","393898","0.0-3.0-2.0-0.7","5c935d881754ba001b25697a","F1","batch6","","null","<p class=block-text>Trial 8 out of 60</p>","null","spm_show_trial_num","","","","","","","","","","","","","","","","","","","","","","","","",""
"","","","","","image-button-response","196","399322","0.0-3.0-2.0-1.7","5c935d881754ba001b25697a","F1","batch6","","5422.600000143051","img/question_1_8.jpeg","1","spm_respsonse","1","2","mat_08","","","","","","1","5422.600000143051","","","","","","","","","","","","","","",""
"","","","","","html-keyboard-response","197","400394","0.0-3.0-2.0-0.8","5c935d881754ba001b25697a","F1","batch6","","null","<p class=block-text>Trial 9 out of 60</p>","null","spm_show_trial_num","","","","","","","","","","","","","","","","","","","","","","","","",""
"","","","","","image-button-response","198","405137","0.0-3.0-2.0-1.8","5c935d881754ba001b25697a","F1","batch6","","4742.900000095367","img/question_1_9.jpeg","0","spm_respsonse","1","1","mat_09","","","","","","1","4742.900000095367","","","","","","","","","","","","","","",""
"","","","","","html-keyboard-response","199","406205","0.0-3.0-2.0-0.9","5c935d881754ba001b25697a","F1","batch6","","null","<p class=block-text>Trial 10 out of 60</p>","null","spm_show_trial_num","","","","","","","","","","","","","","","","","","","","","","","","",""
"","","","","","image-button-response","200","411553","0.0-3.0-2.0-1.9","5c935d881754ba001b25697a","F1","batch6","","5346.600000143051","img/question_1_10.jpeg","2","spm_respsonse","1","3","mat_10","","","","","","1","5346.600000143051","","","","","","","","","","","","","","",""
"","","","","","html-keyboard-response","201","412622","0.0-3.0-2.0-0.10","5c935d881754ba001b25697a","F1","batch6","","null","<p class=block-text>Trial 11 out of 60</p>","null","spm_show_trial_num","","","","","","","","","","","","","","","","","","","","","","","","",""
"","","","","","image-button-response","202","420306","0.0-3.0-2.0-1.10","5c935d881754ba001b25697a","F1","batch6","","7682.200000047684","img/question_1_11.jpeg","3","spm_respsonse","1","4","mat_11","","","","","","1","7682.200000047684","","","","","","","","","","","","","","",""
"","","","","","html-keyboard-response","203","421372","0.0-3.0-2.0-0.11","5c935d881754ba001b25697a","F1","batch6","","null","<p class=block-text>Trial 12 out of 60</p>","null","spm_show_trial_num","","","","","","","","","","","","","","","","","","","","","","","","",""
"","","","","","image-button-response","204","428954","0.0-3.0-2.0-1.11","5c935d881754ba001b25697a","F1","batch6","","7580.5","img/question_1_12.jpeg","4","spm_respsonse","1","5","mat_12","","","","","","1","7580.5","","","","","","","","","","","","","","",""
"","","","","","html-keyboard-response","205","430017","0.0-3.0-2.0-0.12","5c935d881754ba001b25697a","F1","batch6","","null","<p class=block-text>Trial 13 out of 60</p>","null","spm_show_trial_num","","","","","","","","","","","","","","","","","","","","","","","","",""
"","","","","","image-button-response","206","433113","0.0-3.0-2.0-1.12","5c935d881754ba001b25697a","F1","batch6","","3095","img/question_2_1.jpeg","1","spm_respsonse","1","2","mat_13","","","","","","1","3095","","","","","","","","","","","","","","",""
"","","","","","html-keyboard-response","207","434187","0.0-3.0-2.0-0.13","5c935d881754ba001b25697a","F1","batch6","","null","<p class=block-text>Trial 14 out of 60</p>","null","spm_show_trial_num","","","","","","","","","","","","","","","","","","","","","","","","",""
"","","","","","image-button-response","208","439201","0.0-3.0-2.0-1.13","5c935d881754ba001b25697a","F1","batch6","","5013.100000143051","img/question_2_2.jpeg","5","spm_respsonse","1","6","mat_14","","","","","","1","5013.100000143051","","","","","","","","","","","","","","",""
"","","","","","html-keyboard-response","209","440266","0.0-3.0-2.0-0.14","5c935d881754ba001b25697a","F1","batch6","","null","<p class=block-text>Trial 15 out of 60</p>","null","spm_show_trial_num","","","","","","","","","","","","","","","","","","","","","","","","",""
"","","","","","image-button-response","210","443377","0.0-3.0-2.0-1.14","5c935d881754ba001b25697a","F1","batch6","","3109.899999856949","img/question_2_3.jpeg","0","spm_respsonse","1","1","mat_15","","","","","","1","3109.899999856949","","","","","","","","","","","","","","",""
"","","","","","html-keyboard-response","211","444447","0.0-3.0-2.0-0.15","5c935d881754ba001b25697a","F1","batch6","","null","<p class=block-text>Trial 16 out of 60</p>","null","spm_show_trial_num","","","","","","","","","","","","","","","","","","","","","","","","",""
"","","","","","image-button-response","212","447401","0.0-3.0-2.0-1.15","5c935d881754ba001b25697a","F1","batch6","","2953.0999999046326","img/question_2_4.jpeg","1","spm_respsonse","1","2","mat_16","","","","","","1","2953.0999999046326","","","","","","","","","","","","","","",""
"","","","","","html-keyboard-response","213","448468","0.0-3.0-2.0-0.16","5c935d881754ba001b25697a","F1","batch6","","null","<p class=block-text>Trial 17 out of 60</p>","null","spm_show_trial_num","","","","","","","","","","","","","","","","","","","","","","","","",""
"","","","","","image-button-response","214","455410","0.0-3.0-2.0-1.16","5c935d881754ba001b25697a","F1","batch6","","6940.799999952316","img/question_2_5.jpeg","0","spm_respsonse","1","1","mat_17","","","","","","1","6940.799999952316","","","","","","","","","","","","","","",""
"","","","","","html-keyboard-response","215","456471","0.0-3.0-2.0-0.17","5c935d881754ba001b25697a","F1","batch6","","null","<p class=block-text>Trial 18 out of 60</p>","null","spm_show_trial_num","","","","","","","","","","","","","","","","","","","","","","","","",""
"","","","","","image-button-response","216","461169","0.0-3.0-2.0-1.17","5c935d881754ba001b25697a","F1","batch6","","4696.900000095367","img/question_2_6.jpeg","2","spm_respsonse","1","3","mat_18","","","","","","1","4696.900000095367","","","","","","","","","","","","","","",""
"","","","","","html-keyboard-response","217","462239","0.0-3.0-2.0-0.18","5c935d881754ba001b25697a","F1","batch6","","null","<p class=block-text>Trial 19 out of 60</p>","null","spm_show_trial_num","","","","","","","","","","","","","","","","","","","","","","","","",""
"","","","","","image-button-response","218","470745","0.0-3.0-2.0-1.18","5c935d881754ba001b25697a","F1","batch6","","8504.700000047684","img/question_2_7.jpeg","4","spm_respsonse","1","5","mat_19","","","","","","1","8504.700000047684","","","","","","","","","","","","","","",""
"","","","","","html-keyboard-response","219","471811","0.0-3.0-2.0-0.19","5c935d881754ba001b25697a","F1","batch6","","null","<p class=block-text>Trial 20 out of 60</p>","null","spm_show_trial_num","","","","","","","","","","","","","","","","","","","","","","","","",""
"","","","","","image-button-response","220","476921","0.0-3.0-2.0-1.19","5c935d881754ba001b25697a","F1","batch6","","5109.099999904633","img/question_2_8.jpeg","5","spm_respsonse","1","6","mat_20","","","","","","1","5109.099999904633","","","","","","","","","","","","","","",""
"","","","","","html-keyboard-response","221","477981","0.0-3.0-2.0-0.20","5c935d881754ba001b25697a","F1","batch6","","null","<p class=block-text>Trial 21 out of 60</p>","null","spm_show_trial_num","","","","","","","","","","","","","","","","","","","","","","","","",""
"","","","","","image-button-response","222","483377","0.0-3.0-2.0-1.20","5c935d881754ba001b25697a","F1","batch6","","5395","img/question_2_9.jpeg","3","spm_respsonse","1","4","mat_21","","","","","","1","5395","","","","","","","","","","","","","","",""
"","","","","","html-keyboard-response","223","484437","0.0-3.0-2.0-0.21","5c935d881754ba001b25697a","F1","batch6","","null","<p class=block-text>Trial 22 out of 60</p>","null","spm_show_trial_num","","","","","","","","","","","","","","","","","","","","","","","","",""
"","","","","","image-button-response","224","489161","0.0-3.0-2.0-1.21","5c935d881754ba001b25697a","F1","batch6","","4723.100000143051","img/question_2_10.jpeg","2","spm_respsonse","1","3","mat_22","","","","","","1","4723.100000143051","","","","","","","","","","","","","","",""
"","","","","","html-keyboard-response","225","490216","0.0-3.0-2.0-0.22","5c935d881754ba001b25697a","F1","batch6","","null","<p class=block-text>Trial 23 out of 60</p>","null","spm_show_trial_num","","","","","","","","","","","","","","","","","","","","","","","","",""
"","","","","","image-button-response","226","499730","0.0-3.0-2.0-1.22","5c935d881754ba001b25697a","F1","batch6","","9512.100000143051","img/question_2_11.jpeg","5","spm_respsonse","0","4","mat_23","","","","","","0","9512.100000143051","","","","","","","","","","","","","","",""
"","","","","","html-keyboard-response","227","500805","0.0-3.0-2.0-0.23","5c935d881754ba001b25697a","F1","batch6","","null","<p class=block-text>Trial 24 out of 60</p>","null","spm_show_trial_num","","","","","","","","","","","","","","","","","","","","","","","","",""
"","","","","","image-button-response","228","510618","0.0-3.0-2.0-1.23","5c935d881754ba001b25697a","F1","batch6","","9810.899999856949","img/question_2_12.jpeg","4","spm_respsonse","1","5","mat_24","","","","","","1","9810.899999856949","","","","","","","","","","","","","","",""
"","","","","","html-button-response","229","512545","0.0-3.0-3.0","5c935d881754ba001b25697a","F1","batch6","","1661.2999999523163","<p class = block-text>Attention check: Please choose 1<br></p>","0","attention_check","true","","","","","","","","","","","","","","","","","","","","","","","",""
"","","","","","html-keyboard-response","230","513347","0.0-3.0-4.0-0.0","5c935d881754ba001b25697a","F1","batch6","","null","<p class=block-text>Trial 25 out of 60</p>","null","spm_show_trial_num","","","","","","","","","","","","","","","","","","","","","","","","",""
"","","","","","image-button-response","231","519306","0.0-3.0-4.0-1.0","5c935d881754ba001b25697a","F1","batch6","","5957.699999809265","img/question_3_1.jpeg","7","spm_respsonse","1","8","mat_25","","","","","","1","5957.699999809265","","","","","","","","","","","","","","",""
"","","","","","html-keyboard-response","232","520375","0.0-3.0-4.0-0.1","5c935d881754ba001b25697a","F1","batch6","","null","<p class=block-text>Trial 26 out of 60</p>","null","spm_show_trial_num","","","","","","","","","","","","","","","","","","","","","","","","",""
"","","","","","image-button-response","233","527634","0.0-3.0-4.0-1.1","5c935d881754ba001b25697a","F1","batch6","","7257.700000047684","img/question_3_2.jpeg","1","spm_respsonse","1","2","mat_26","","","","","","1","7257.700000047684","","","","","","","","","","","","","","",""
"","","","","","html-keyboard-response","234","528714","0.0-3.0-4.0-0.2","5c935d881754ba001b25697a","F1","batch6","","null","<p class=block-text>Trial 27 out of 60</p>","null","spm_show_trial_num","","","","","","","","","","","","","","","","","","","","","","","","",""
"","","","","","image-button-response","235","536866","0.0-3.0-4.0-1.2","5c935d881754ba001b25697a","F1","batch6","","8150.200000047684","img/question_3_3.jpeg","2","spm_respsonse","1","3","mat_27","","","","","","1","8150.200000047684","","","","","","","","","","","","","","",""
"","","","","","html-keyboard-response","236","537934","0.0-3.0-4.0-0.3","5c935d881754ba001b25697a","F1","batch6","","null","<p class=block-text>Trial 28 out of 60</p>","null","spm_show_trial_num","","","","","","","","","","","","","","","","","","","","","","","","",""
"","","","","","image-button-response","237","552666","0.0-3.0-4.0-1.3","5c935d881754ba001b25697a","F1","batch6","","14729.700000047684","img/question_3_4.jpeg","7","spm_respsonse","1","8","mat_28","","","","","","1","14729.700000047684","","","","","","","","","","","","","","",""
"","","","","","html-keyboard-response","238","553745","0.0-3.0-4.0-0.4","5c935d881754ba001b25697a","F1","batch6","","null","<p class=block-text>Trial 29 out of 60</p>","null","spm_show_trial_num","","","","","","","","","","","","","","","","","","","","","","","","",""
"","","","","","image-button-response","239","565914","0.0-3.0-4.0-1.4","5c935d881754ba001b25697a","F1","batch6","","12167.5","img/question_3_5.jpeg","6","spm_respsonse","1","7","mat_29","","","","","","1","12167.5","","","","","","","","","","","","","","",""
"","","","","","html-keyboard-response","240","566992","0.0-3.0-4.0-0.5","5c935d881754ba001b25697a","F1","batch6","","null","<p class=block-text>Trial 30 out of 60</p>","null","spm_show_trial_num","","","","","","","","","","","","","","","","","","","","","","","","",""
"","","","","","image-button-response","241","577594","0.0-3.0-4.0-1.5","5c935d881754ba001b25697a","F1","batch6","","10600.5","img/question_3_6.jpeg","3","spm_respsonse","1","4","mat_30","","","","","","1","10600.5","","","","","","","","","","","","","","",""
"","","","","","html-keyboard-response","242","578662","0.0-3.0-4.0-0.6","5c935d881754ba001b25697a","F1","batch6","","null","<p class=block-text>Trial 31 out of 60</p>","null","spm_show_trial_num","","","","","","","","","","","","","","","","","","","","","","","","",""
"","","","","","image-button-response","243","586570","0.0-3.0-4.0-1.6","5c935d881754ba001b25697a","F1","batch6","","7906.599999904633","img/question_3_7.jpeg","4","spm_respsonse","1","5","mat_31","","","","","","1","7906.599999904633","","","","","","","","","","","","","","",""
"","","","","","html-keyboard-response","244","587632","0.0-3.0-4.0-0.7","5c935d881754ba001b25697a","F1","batch6","","null","<p class=block-text>Trial 32 out of 60</p>","null","spm_show_trial_num","","","","","","","","","","","","","","","","","","","","","","","","",""
"","","","","","image-button-response","245","596746","0.0-3.0-4.0-1.7","5c935d881754ba001b25697a","F1","batch6","","9112.599999904633","img/question_3_8.jpeg","0","spm_respsonse","1","1","mat_32","","","","","","1","9112.599999904633","","","","","","","","","","","","","","",""
"","","","","","html-keyboard-response","246","597818","0.0-3.0-4.0-0.8","5c935d881754ba001b25697a","F1","batch6","","null","<p class=block-text>Trial 33 out of 60</p>","null","spm_show_trial_num","","","","","","","","","","","","","","","","","","","","","","","","",""
"","","","","","image-button-response","247","607474","0.0-3.0-4.0-1.8","5c935d881754ba001b25697a","F1","batch6","","9654.399999856949","img/question_3_9.jpeg","6","spm_respsonse","1","7","mat_33","","","","","","1","9654.399999856949","","","","","","","","","","","","","","",""
"","","","","","html-keyboard-response","248","608545","0.0-3.0-4.0-0.9","5c935d881754ba001b25697a","F1","batch6","","null","<p class=block-text>Trial 34 out of 60</p>","null","spm_show_trial_num","","","","","","","","","","","","","","","","","","","","","","","","",""
"","","","","","image-button-response","249","620626","0.0-3.0-4.0-1.9","5c935d881754ba001b25697a","F1","batch6","","12079.699999809265","img/question_3_10.jpeg","5","spm_respsonse","1","6","mat_34","","","","","","1","12079.699999809265","","","","","","","","","","","","","","",""
"","","","","","html-keyboard-response","250","621700","0.0-3.0-4.0-0.10","5c935d881754ba001b25697a","F1","batch6","","null","<p class=block-text>Trial 35 out of 60</p>","null","spm_show_trial_num","","","","","","","","","","","","","","","","","","","","","","","","",""
"","","","","","image-button-response","251","640970","0.0-3.0-4.0-1.10","5c935d881754ba001b25697a","F1","batch6","","19267.900000095367","img/question_3_11.jpeg","4","spm_respsonse","0","1","mat_35","","","","","","0","19267.900000095367","","","","","","","","","","","","","","",""
"","","","","","html-keyboard-response","252","642039","0.0-3.0-4.0-0.11","5c935d881754ba001b25697a","F1","batch6","","null","<p class=block-text>Trial 36 out of 60</p>","null","spm_show_trial_num","","","","","","","","","","","","","","","","","","","","","","","","",""
"","","","","","image-button-response","253","666202","0.0-3.0-4.0-1.11","5c935d881754ba001b25697a","F1","batch6","","24160.799999952316","img/question_3_12.jpeg","1","spm_respsonse","1","2","mat_36","","","","","","1","24160.799999952316","","","","","","","","","","","","","","",""
"","","","","","html-keyboard-response","254","667274","0.0-3.0-4.0-0.12","5c935d881754ba001b25697a","F1","batch6","","null","<p class=block-text>Trial 37 out of 60</p>","null","spm_show_trial_num","","","","","","","","","","","","","","","","","","","","","","","","",""
"","","","","","image-button-response","255","672227","0.0-3.0-4.0-1.12","5c935d881754ba001b25697a","F1","batch6","","4951.700000047684","img/question_4_1.jpeg","2","spm_respsonse","1","3","mat_37","","","","","","1","4951.700000047684","","","","","","","","","","","","","","",""
"","","","","","html-keyboard-response","256","673292","0.0-3.0-4.0-0.13","5c935d881754ba001b25697a","F1","batch6","","null","<p class=block-text>Trial 38 out of 60</p>","null","spm_show_trial_num","","","","","","","","","","","","","","","","","","","","","","","","",""
"","","","","","image-button-response","257","694722","0.0-3.0-4.0-1.13","5c935d881754ba001b25697a","F1","batch6","","21428.299999952316","img/question_4_2.jpeg","3","spm_respsonse","1","4","mat_38","","","","","","1","21428.299999952316","","","","","","","","","","","","","","",""
"","","","","","html-keyboard-response","258","695780","0.0-3.0-4.0-0.14","5c935d881754ba001b25697a","F1","batch6","","null","<p class=block-text>Trial 39 out of 60</p>","null","spm_show_trial_num","","","","","","","","","","","","","","","","","","","","","","","","",""
"","","","","","image-button-response","259","702826","0.0-3.0-4.0-1.14","5c935d881754ba001b25697a","F1","batch6","","7044.799999952316","img/question_4_3.jpeg","2","spm_respsonse","1","3","mat_39","","","","","","1","7044.799999952316","","","","","","","","","","","","","","",""
"","","","","","html-keyboard-response","260","703895","0.0-3.0-4.0-0.15","5c935d881754ba001b25697a","F1","batch6","","null","<p class=block-text>Trial 40 out of 60</p>","null","spm_show_trial_num","","","","","","","","","","","","","","","","","","","","","","","","",""
"","","","","","image-button-response","261","713034","0.0-3.0-4.0-1.15","5c935d881754ba001b25697a","F1","batch6","","9138","img/question_4_4.jpeg","6","spm_respsonse","1","7","mat_40","","","","","","1","9138","","","","","","","","","","","","","","",""
"","","","","","html-keyboard-response","262","714108","0.0-3.0-4.0-0.16","5c935d881754ba001b25697a","F1","batch6","","null","<p class=block-text>Trial 41 out of 60</p>","null","spm_show_trial_num","","","","","","","","","","","","","","","","","","","","","","","","",""
"","","","","","image-button-response","263","721442","0.0-3.0-4.0-1.16","5c935d881754ba001b25697a","F1","batch6","","7333.099999904633","img/question_4_5.jpeg","7","spm_respsonse","1","8","mat_41","","","","","","1","7333.099999904633","","","","","","","","","","","","","","",""
"","","","","","html-keyboard-response","264","722513","0.0-3.0-4.0-0.17","5c935d881754ba001b25697a","F1","batch6","","null","<p class=block-text>Trial 42 out of 60</p>","null","spm_show_trial_num","","","","","","","","","","","","","","","","","","","","","","","","",""
"","","","","","image-button-response","265","730138","0.0-3.0-4.0-1.17","5c935d881754ba001b25697a","F1","batch6","","7623.600000143051","img/question_4_6.jpeg","5","spm_respsonse","1","6","mat_42","","","","","","1","7623.600000143051","","","","","","","","","","","","","","",""
"","","","","","html-keyboard-response","266","731202","0.0-3.0-4.0-0.18","5c935d881754ba001b25697a","F1","batch6","","null","<p class=block-text>Trial 43 out of 60</p>","null","spm_show_trial_num","","","","","","","","","","","","","","","","","","","","","","","","",""
"","","","","","image-button-response","267","742450","0.0-3.0-4.0-1.18","5c935d881754ba001b25697a","F1","batch6","","11245.900000095367","img/question_4_7.jpeg","4","spm_respsonse","1","5","mat_43","","","","","","1","11245.900000095367","","","","","","","","","","","","","","",""
"","","","","","html-keyboard-response","268","743524","0.0-3.0-4.0-0.19","5c935d881754ba001b25697a","F1","batch6","","null","<p class=block-text>Trial 44 out of 60</p>","null","spm_show_trial_num","","","","","","","","","","","","","","","","","","","","","","","","",""
"","","","","","image-button-response","269","757298","0.0-3.0-4.0-1.19","5c935d881754ba001b25697a","F1","batch6","","13772","img/question_4_8.jpeg","3","spm_respsonse","1","4","mat_44","","","","","","1","13772","","","","","","","","","","","","","","",""
"","","","","","html-keyboard-response","270","758370","0.0-3.0-4.0-0.20","5c935d881754ba001b25697a","F1","batch6","","null","<p class=block-text>Trial 45 out of 60</p>","null","spm_show_trial_num","","","","","","","","","","","","","","","","","","","","","","","","",""
"","","","","","image-button-response","271","778778","0.0-3.0-4.0-1.20","5c935d881754ba001b25697a","F1","batch6","","20406","img/question_4_9.jpeg","0","spm_respsonse","1","1","mat_45","","","","","","1","20406","","","","","","","","","","","","","","",""
"","","","","","html-keyboard-response","272","779854","0.0-3.0-4.0-0.21","5c935d881754ba001b25697a","F1","batch6","","null","<p class=block-text>Trial 46 out of 60</p>","null","spm_show_trial_num","","","","","","","","","","","","","","","","","","","","","","","","",""
"","","","","","image-button-response","273","797626","0.0-3.0-4.0-1.21","5c935d881754ba001b25697a","F1","batch6","","17770.799999952316","img/question_4_10.jpeg","1","spm_respsonse","1","2","mat_46","","","","","","1","17770.799999952316","","","","","","","","","","","","","","",""
"","","","","","html-keyboard-response","274","798697","0.0-3.0-4.0-0.22","5c935d881754ba001b25697a","F1","batch6","","null","<p class=block-text>Trial 47 out of 60</p>","null","spm_show_trial_num","","","","","","","","","","","","","","","","","","","","","","","","",""
"","","","","","image-button-response","275","832571","0.0-3.0-4.0-1.22","5c935d881754ba001b25697a","F1","batch6","","33872.09999990463","img/question_4_11.jpeg","1","spm_respsonse","0","5","mat_47","","","","","","0","33872.09999990463","","","","","","","","","","","","","","",""
"","","","","","html-keyboard-response","276","833646","0.0-3.0-4.0-0.23","5c935d881754ba001b25697a","F1","batch6","","null","<p class=block-text>Trial 48 out of 60</p>","null","spm_show_trial_num","","","","","","","","","","","","","","","","","","","","","","","","",""
"","","","","","image-button-response","277","857147","0.0-3.0-4.0-1.23","5c935d881754ba001b25697a","F1","batch6","","23499.5","img/question_4_12.jpeg","7","spm_respsonse","0","6","mat_48","","","","","","0","23499.5","","","","","","","","","","","","","","",""
"","","","","","html-keyboard-response","278","858211","0.0-3.0-4.0-0.24","5c935d881754ba001b25697a","F1","batch6","","null","<p class=block-text>Trial 49 out of 60</p>","null","spm_show_trial_num","","","","","","","","","","","","","","","","","","","","","","","","",""
"","","","","","image-button-response","279","863034","0.0-3.0-4.0-1.24","5c935d881754ba001b25697a","F1","batch6","","4821.799999952316","img/question_5_1.jpeg","6","spm_respsonse","1","7","mat_49","","","","","","1","4821.799999952316","","","","","","","","","","","","","","",""
"","","","","","html-keyboard-response","280","864108","0.0-3.0-4.0-0.25","5c935d881754ba001b25697a","F1","batch6","","null","<p class=block-text>Trial 50 out of 60</p>","null","spm_show_trial_num","","","","","","","","","","","","","","","","","","","","","","","","",""
"","","","","","image-button-response","281","882098","0.0-3.0-4.0-1.25","5c935d881754ba001b25697a","F1","batch6","","17988.60000014305","img/question_5_2.jpeg","5","spm_respsonse","1","6","mat_50","","","","","","1","17988.60000014305","","","","","","","","","","","","","","",""
"","","","","","html-keyboard-response","282","883173","0.0-3.0-4.0-0.26","5c935d881754ba001b25697a","F1","batch6","","null","<p class=block-text>Trial 51 out of 60</p>","null","spm_show_trial_num","","","","","","","","","","","","","","","","","","","","","","","","",""
"","","","","","image-button-response","283","894210","0.0-3.0-4.0-1.26","5c935d881754ba001b25697a","F1","batch6","","11035.599999904633","img/question_5_3.jpeg","7","spm_respsonse","1","8","mat_51","","","","","","1","11035.599999904633","","","","","","","","","","","","","","",""
"","","","","","html-keyboard-response","284","895266","0.0-3.0-4.0-0.27","5c935d881754ba001b25697a","F1","batch6","","null","<p class=block-text>Trial 52 out of 60</p>","null","spm_show_trial_num","","","","","","","","","","","","","","","","","","","","","","","","",""
"","","","","","image-button-response","285","906698","0.0-3.0-4.0-1.27","5c935d881754ba001b25697a","F1","batch6","","11431","img/question_5_4.jpeg","1","spm_respsonse","1","2","mat_52","","","","","","1","11431","","","","","","","","","","","","","","",""
"","","","","","html-keyboard-response","286","907769","0.0-3.0-4.0-0.28","5c935d881754ba001b25697a","F1","batch6","","null","<p class=block-text>Trial 53 out of 60</p>","null","spm_show_trial_num","","","","","","","","","","","","","","","","","","","","","","","","",""
"","","","","","image-button-response","287","926850","0.0-3.0-4.0-1.28","5c935d881754ba001b25697a","F1","batch6","","19080","img/question_5_5.jpeg","0","spm_respsonse","1","1","mat_53","","","","","","1","19080","","","","","","","","","","","","","","",""
"","","","","","html-keyboard-response","288","927916","0.0-3.0-4.0-0.29","5c935d881754ba001b25697a","F1","batch6","","null","<p class=block-text>Trial 54 out of 60</p>","null","spm_show_trial_num","","","","","","","","","","","","","","","","","","","","","","","","",""
"","","","","","image-button-response","289","945986","0.0-3.0-4.0-1.29","5c935d881754ba001b25697a","F1","batch6","","18069.299999952316","img/question_5_6.jpeg","4","spm_respsonse","1","5","mat_54","","","","","","1","18069.299999952316","","","","","","","","","","","","","","",""
"","","","","","html-keyboard-response","290","947055","0.0-3.0-4.0-0.30","5c935d881754ba001b25697a","F1","batch6","","null","<p class=block-text>Trial 55 out of 60</p>","null","spm_show_trial_num","","","","","","","","","","","","","","","","","","","","","","","","",""
"","","","","","image-button-response","291","984571","0.0-3.0-4.0-1.30","5c935d881754ba001b25697a","F1","batch6","","37513.39999985695","img/question_5_7.jpeg","7","spm_respsonse","0","1","mat_55","","","","","","0","37513.39999985695","","","","","","","","","","","","","","",""
"","","","","","html-keyboard-response","292","985646","0.0-3.0-4.0-0.31","5c935d881754ba001b25697a","F1","batch6","","null","<p class=block-text>Trial 56 out of 60</p>","null","spm_show_trial_num","","","","","","","","","","","","","","","","","","","","","","","","",""
"","","","","","image-button-response","293","1006387","0.0-3.0-4.0-1.31","5c935d881754ba001b25697a","F1","batch6","","20739.60000014305","img/question_5_8.jpeg","5","spm_respsonse","1","6","mat_56","","","","","","1","20739.60000014305","","","","","","","","","","","","","","",""
"","","","","","html-keyboard-response","294","1007462","0.0-3.0-4.0-0.32","5c935d881754ba001b25697a","F1","batch6","","null","<p class=block-text>Trial 57 out of 60</p>","null","spm_show_trial_num","","","","","","","","","","","","","","","","","","","","","","","","",""
"","","","","","image-button-response","295","1023219","0.0-3.0-4.0-1.32","5c935d881754ba001b25697a","F1","batch6","","15755.900000095367","img/question_5_9.jpeg","2","spm_respsonse","1","3","mat_57","","","","","","1","15755.900000095367","","","","","","","","","","","","","","",""
"","","","","","html-keyboard-response","296","1024279","0.0-3.0-4.0-0.33","5c935d881754ba001b25697a","F1","batch6","","null","<p class=block-text>Trial 58 out of 60</p>","null","spm_show_trial_num","","","","","","","","","","","","","","","","","","","","","","","","",""
"","","","","","image-button-response","297","1065923","0.0-3.0-4.0-1.33","5c935d881754ba001b25697a","F1","batch6","","41642.700000047684","img/question_5_10.jpeg","1","spm_respsonse","1","2","mat_58","","","","","","1","41642.700000047684","","","","","","","","","","","","","","",""
"","","","","","html-keyboard-response","298","1066989","0.0-3.0-4.0-0.34","5c935d881754ba001b25697a","F1","batch6","","null","<p class=block-text>Trial 59 out of 60</p>","null","spm_show_trial_num","","","","","","","","","","","","","","","","","","","","","","","","",""
"","","","","","image-button-response","299","1075731","0.0-3.0-4.0-1.34","5c935d881754ba001b25697a","F1","batch6","","8740.299999952316","img/question_5_11.jpeg","1","spm_respsonse","0","4","mat_59","","","","","","0","8740.299999952316","","","","","","","","","","","","","","",""
"","","","","","html-keyboard-response","300","1076796","0.0-3.0-4.0-0.35","5c935d881754ba001b25697a","F1","batch6","","null","<p class=block-text>Trial 60 out of 60</p>","null","spm_show_trial_num","","","","","","","","","","","","","","","","","","","","","","","","",""
"","","","","","image-button-response","301","1095203","0.0-3.0-4.0-1.35","5c935d881754ba001b25697a","F1","batch6","","18405.299999952316","img/question_5_12.jpeg","6","spm_respsonse","0","5","mat_60","","","","","","0","18405.299999952316","","","","","","","","","","","","","","",""
"","","","","","html-button-response","302","1098019","0.0-3.0-5.0","5c935d881754ba001b25697a","F1","batch6","","2559.9000000953674","<p class= block-text>This concludes the Standard Progressive Matrix game. Thank you for your responses!<br> When you are ready, click the button continue</p>","0","spm_goodbye","","","","","","","","","","","","","","","","","","","","","","","","",""
"true","","","","","fullscreen","303","1101036","0.0-4.0-0.0","5c935d881754ba001b25697a","F1","batch6","","","","","","","","","","","","","","","","","","","","","","","","","","","","","",""
"","","","","","instructions","304","1142674","0.0-4.0-1.0-0.0-0.0","5c935d881754ba001b25697a","F1","batch6","[{""page_index"":0,""viewing_time"":6453.800000190735},{""page_index"":1,""viewing_time"":6255.599999904633},{""page_index"":2,""viewing_time"":2352.9000000953674},{""page_index"":3,""viewing_time"":12191.099999904633},{""page_index"":4,""viewing_time"":7536.200000047684},{""page_index"":5,""viewing_time"":4744.099999904633},{""page_index"":6,""viewing_time"":2103.7000000476837}]","41637.60000014305","","","tol-instructions","","","","","","","","","","","","","","","","","","","","","","","","",""
"","","","","","html-button-response","305","1143818","0.0-4.0-1.0-1.0-0.0","5c935d881754ba001b25697a","F1","batch6","","1143.6000001430511","<p class=block-text> Let's answer a few questions <br>","0","tol_enter_quiz","","","","","","","","","","","","","","","","","","","","","","","","",""
"","","","","","html-button-response","306","1147082","0.0-4.0-1.0-1.0-1.0","5c935d881754ba001b25697a","F1","batch6","","3263","<p class = block-text>True or False: You can only move the ball on top of a peg. <br></p>","1","tol_quiz","false","","","","","","","","","","","","","","","","","","","","","","","",""
"","","","","","html-button-response","307","1148202","0.0-4.0-1.0-1.0-2.0","5c935d881754ba001b25697a","F1","batch6","","1119.2999999523163","<p class = block-text>Incorrect. Remember, you can only move the ball on top of a peg.</p>","0","tol_quiz_feedback","","","","","","","","","","","","","","","","","","","","","","","","",""
"","","","","","html-button-response","308","1150562","0.0-4.0-1.0-1.0-3.0","5c935d881754ba001b25697a","F1","batch6","","2359.0999999046326","<p class = block-text>True or False: You should try to match your board with the target board with fewest moves possible. <br></p>","0","tol_quiz","true","","","","","","","","","","","","","","","","","","","","","","","",""
"","","","","","html-button-response","309","1151530","0.0-4.0-1.0-1.0-4.0","5c935d881754ba001b25697a","F1","batch6","","967.1999998092651","<p class = block-text>Correct! </p>","0","tol_quiz_feedback","","","","","","","","","","","","","","","","","","","","","","","","",""
"","","","","","html-button-response","310","1153082","0.0-4.0-1.0-2.0-0.0","5c935d881754ba001b25697a","F1","batch6","","1551.2999999523163","<p class = block-text>You made too many incorrect choices.</p><p class = block-text>You will now repeat the instructions and quiz</p>","0","","","","","","","","","","","","","","","","","","","","","","","","","",""
"","","","","","instructions","311","1159178","0.0-4.0-1.1-0.1-0.1","5c935d881754ba001b25697a","F1","batch6","[{""page_index"":0,""viewing_time"":1055.0999999046326},{""page_index"":1,""viewing_time"":903.9000000953674},{""page_index"":2,""viewing_time"":512.0999999046326},{""page_index"":3,""viewing_time"":816},{""page_index"":4,""viewing_time"":639.8000001907349},{""page_index"":5,""viewing_time"":472.2999999523163},{""page_index"":6,""viewing_time"":1695.5999999046326}]","6094.900000095367","","","tol-instructions","","","","","","","","","","","","","","","","","","","","","","","","",""
"","","","","","html-button-response","312","1159986","0.0-4.0-1.1-1.1-0.1","5c935d881754ba001b25697a","F1","batch6","","807.5999999046326","<p class=block-text> Let's answer a few questions <br>","0","tol_enter_quiz","","","","","","","","","","","","","","","","","","","","","","","","",""
"","","","","","html-button-response","313","1161354","0.0-4.0-1.1-1.1-1.1","5c935d881754ba001b25697a","F1","batch6","","1367.4000000953674","<p class = block-text>True or False: You can only move the ball on top of a peg. <br></p>","0","tol_quiz","true","","","","","","","","","","","","","","","","","","","","","","","",""
"","","","","","html-button-response","314","1162154","0.0-4.0-1.1-1.1-2.1","5c935d881754ba001b25697a","F1","batch6","","799.2000000476837","<p class = block-text>Correct! You can only move the ball on top of a peg.</p>","0","tol_quiz_feedback","","","","","","","","","","","","","","","","","","","","","","","","",""
"","","","","","html-button-response","315","1163962","0.0-4.0-1.1-1.1-3.1","5c935d881754ba001b25697a","F1","batch6","","1807.2999999523163","<p class = block-text>True or False: You should try to match your board with the target board with fewest moves possible. <br></p>","0","tol_quiz","true","","","","","","","","","","","","","","","","","","","","","","","",""
"","","","","","html-button-response","316","1164666","0.0-4.0-1.1-1.1-4.1","5c935d881754ba001b25697a","F1","batch6","","703.2999999523163","<p class = block-text>Correct! </p>","0","tol_quiz_feedback","","","","","","","","","","","","","","","","","","","","","","","","",""
"","","","","","html-button-response","317","1165851","0.0-4.0-2.0","5c935d881754ba001b25697a","F1","batch6","","1184.2000000476837","<p class=block-text> Now that you've understood the game, let's practice a few easier examples before we start!<br> <br>","0","","","","","","","","","","","","","","","","","","","","","","","","","",""
"","","","","","single-stim-button","318","1168740","0.0-4.0-3.0-0.0","5c935d881754ba001b25697a","F1","batch6","","2887","","","tol_practice","","","","","","","","","","","tol_peg_2","2887","2887","0","[[1,2,0],[0,0],[0]]","1","[[1,2,0],[0,0],[3]]","practice","2887","","","","","",""
"","","","","","single-stim-button","319","1170178","0.0-4.0-3.0-1.0","5c935d881754ba001b25697a","F1","batch6","","1438","","","tol_practice","","","","","","","","","","","tol_peg_3","1438","1438","0","[[1,2,0],[0,0],[3]]","1","[[1,2,0],[0,0],[3]]","practice","1438","","","","","",""
"","","","","","poldrack-single-stim","320","1171180","0.0-4.0-4.0","5c935d881754ba001b25697a","F1","batch6","","-1","","","tol_feedback","true","","","","","","","","","","","1000","1000","500","","","","","","-1","none","true","","0",""
"","","","","","single-stim-button","321","1177195","0.0-4.0-5.0-0.0","5c935d881754ba001b25697a","F1","batch6","","6014","","","tol_practice","","","","","","","","","","","tol_peg_1","6014","6014","0","[[1,0,0],[3,0],[0]]","2","[[0,0,0],[3,1],[2]]","practice","6014","","","","","",""
"","","","","","single-stim-button","322","1178163","0.0-4.0-5.0-1.0","5c935d881754ba001b25697a","F1","batch6","","967","","","tol_practice","","","","","","","","","","","tol_peg_3","967","967","0","[[1,0,0],[3,0],[2]]","2","[[0,0,0],[3,1],[2]]","practice","967","","","","","",""
"","","","","","single-stim-button","323","1179211","0.0-4.0-5.1-0.1","5c935d881754ba001b25697a","F1","batch6","","1047","","","tol_practice","","","","","","","","","","","tol_peg_1","1047","1047","0","[[0,0,0],[3,0],[2]]","3","[[0,0,0],[3,1],[2]]","practice","1047","","","","","",""
"","","","","","single-stim-button","324","1180682","0.0-4.0-5.1-1.1","5c935d881754ba001b25697a","F1","batch6","","1471","","","tol_practice","","","","","","","","","","","tol_peg_2","1471","1471","0","[[0,0,0],[3,1],[2]]","3","[[0,0,0],[3,1],[2]]","practice","1471","","","","","",""
"","","","","","poldrack-single-stim","325","1181693","0.0-4.0-6.0","5c935d881754ba001b25697a","F1","batch6","","-1","","","tol_feedback","true","","","","","","","","","","","1000","1000","500","","","","","","-1","none","true","","0",""
"","","","","","single-stim-button","326","1192659","0.0-4.0-7.0-0.0","5c935d881754ba001b25697a","F1","batch6","","10965","","","tol_practice","","","","","","","","","","","tol_peg_2","10965","10965","0","[[1,2,0],[0,0],[0]]","4","[[1,0,0],[2,0],[3]]","practice","10965","","","","","",""
"","","","","","single-stim-button","327","1193899","0.0-4.0-7.0-1.0","5c935d881754ba001b25697a","F1","batch6","","1240","","","tol_practice","","","","","","","","","","","tol_peg_3","1240","1240","0","[[1,2,0],[0,0],[3]]","4","[[1,0,0],[2,0],[3]]","practice","1240","","","","","",""
"","","","","","single-stim-button","328","1194850","0.0-4.0-7.1-0.1","5c935d881754ba001b25697a","F1","batch6","","951","","","tol_practice","","","","","","","","","","","tol_peg_1","951","951","0","[[1,0,0],[0,0],[3]]","5","[[1,0,0],[2,0],[3]]","practice","951","","","","","",""
"","","","","","single-stim-button","329","1196067","0.0-4.0-7.1-1.1","5c935d881754ba001b25697a","F1","batch6","","1215","","","tol_practice","","","","","","","","","","","tol_peg_2","1215","1215","0","[[1,0,0],[2,0],[3]]","5","[[1,0,0],[2,0],[3]]","practice","1215","","","","","",""
"","","","","","poldrack-single-stim","330","1197078","0.0-4.0-8.0","5c935d881754ba001b25697a","F1","batch6","","-1","","","tol_feedback","true","","","","","","","","","","","1000","1000","500","","","","","","-1","none","true","","0",""
"","","","","","html-button-response","331","1198626","0.0-4.0-9.0","5c935d881754ba001b25697a","F1","batch6","","1547.3999998569489","<div class = centerbox><p class = center-block-text>Great job! You are done with practice trials<br>You are about to start official trials.<br> <br> Problem <strong>1</strong> out of 25 problems</p></div>","0","tol_instruction","","","","","","","","","","","","","","","","","","","","","","","","",""
"","","","","","single-stim-button","332","1207179","0.0-4.0-10.0-0.0","5c935d881754ba001b25697a","F1","batch6","","7551","","","tol_tohand","","","","","","","","","","","tol_peg_1","7551","7551","0","[[1,0,0],[3,0],[0]]","1","[[1,3,0],[2,0],[0]]","0","0","","","","","","3"
"","","","","","single-stim-button","333","1209227","0.0-4.0-10.0-1.0","5c935d881754ba001b25697a","F1","batch6","","2046","","","tol_toboard","","","","","","","","","","","tol_peg_3","2046","2046","0","[[1,0,0],[3,0],[2]]","1","[[1,3,0],[2,0],[0]]","0","0","","","","","","3"
"","","","","","single-stim-button","334","1210667","0.0-4.0-10.1-0.1","5c935d881754ba001b25697a","F1","batch6","","1439","","","tol_tohand","","","","","","","","","","","tol_peg_2","1439","1439","0","[[1,0,0],[0,0],[2]]","2","[[1,3,0],[2,0],[0]]","0","0","","","","","","3"
"","","","","","single-stim-button","335","1211579","0.0-4.0-10.1-1.1","5c935d881754ba001b25697a","F1","batch6","","911","","","tol_toboard","","","","","","","","","","","tol_peg_1","911","911","0","[[1,3,0],[0,0],[2]]","2","[[1,3,0],[2,0],[0]]","0","0","","","","","","3"
"","","","","","single-stim-button","336","1212523","0.0-4.0-10.2-0.2","5c935d881754ba001b25697a","F1","batch6","","943","","","tol_tohand","","","","","","","","","","","tol_peg_3","943","943","0","[[1,3,0],[0,0],[0]]","3","[[1,3,0],[2,0],[0]]","0","0","","","","","","3"
"","","","","","single-stim-button","337","1213842","0.0-4.0-10.2-1.2","5c935d881754ba001b25697a","F1","batch6","","1319","","","tol_toboard","","","","","","","","","","","tol_peg_2","1319","1319","0","[[1,3,0],[2,0],[0]]","3","[[1,3,0],[2,0],[0]]","0","0","","","","","","3"
"","","","","","poldrack-single-stim","338","1214858","0.0-4.0-11.0","5c935d881754ba001b25697a","F1","batch6","","-1","","","tol_feedback","true","","","","","","","","","","","1000","1000","500","","","","","","-1","none","true","7551","9933",""
"","","","","","html-button-response","339","1215826","0.0-4.0-12.0","5c935d881754ba001b25697a","F1","batch6","","967.0999999046326","<div class = centerbox><p class = center-block-text>problem <strong>2</strong> out of 25 problems</p></div>","0","tol_trial_num","","","","","","","","","","","","","","","","","","","","","","","","",""
"","","","","","single-stim-button","340","1224235","0.0-4.0-13.0-0.0","5c935d881754ba001b25697a","F1","batch6","","8408","","","tol_tohand","","","","","","","","","","","tol_peg_1","8408","8408","0","[[1,0,0],[3,0],[0]]","1","[[2,1,3],[0,0],[0]]","1","0","","","","","","5"
"","","","","","single-stim-button","341","1226907","0.0-4.0-13.0-1.0","5c935d881754ba001b25697a","F1","batch6","","2670","","","tol_toboard","","","","","","","","","","","tol_peg_3","2670","2670","0","[[1,0,0],[3,0],[2]]","1","[[2,1,3],[0,0],[0]]","1","0","","","","","","5"
"","","","","","single-stim-button","342","1228139","0.0-4.0-13.1-0.1","5c935d881754ba001b25697a","F1","batch6","","1231","","","tol_tohand","","","","","","","","","","","tol_peg_1","1231","1231","0","[[0,0,0],[3,0],[2]]","2","[[2,1,3],[0,0],[0]]","1","0","","","","","","5"
"","","","","","single-stim-button","343","1229187","0.0-4.0-13.1-1.1","5c935d881754ba001b25697a","F1","batch6","","1047","","","tol_toboard","","","","","","","","","","","tol_peg_2","1047","1047","0","[[0,0,0],[3,1],[2]]","2","[[2,1,3],[0,0],[0]]","1","0","","","","","","5"
"","","","","","single-stim-button","344","1230290","0.0-4.0-13.2-0.2","5c935d881754ba001b25697a","F1","batch6","","1103","","","tol_tohand","","","","","","","","","","","tol_peg_3","1103","1103","0","[[0,0,0],[3,1],[0]]","3","[[2,1,3],[0,0],[0]]","1","0","","","","","","5"
"","","","","","single-stim-button","345","1232003","0.0-4.0-13.2-1.2","5c935d881754ba001b25697a","F1","batch6","","1711","","","tol_toboard","","","","","","","","","","","tol_peg_1","1711","1711","0","[[2,0,0],[3,1],[0]]","3","[[2,1,3],[0,0],[0]]","1","0","","","","","","5"
