"success","timeout","failed_images","failed_audio","failed_video","trial_type","trial_index","time_elapsed","internal_node_id","subject_id","study_id","session_id","task","rt","stimulus","response","item","answer","correct","spm_correct","spm_rt","view_history","fiar_detect_rt","fiar_detect_correct","total_correct_fiar_detect","post_trial_gap","choices","mouse_click","stim_duration","block_duration","timing_post_trial","current_position","tol_num_moves_made","tol_target","tol_problem_id","tol_rt","key_press","possible_responses","tol_correct","preplanning","tol_rt_per_trial","tol_min_moves"
"true","false","[]","[]","[]","preload","0","1488","0.0-0.0","5c9a7872e2a8d00001585513","A3","batch1","","","","","","","","","","","","","","","","","","","","","","","","","","","","","",""
"true","","","","","fullscreen","1","177019","0.0-1.0-0.0","5c9a7872e2a8d00001585513","A3","batch1","","","","","","","","","","","","","","","","","","","","","","","","","","","","","",""
"true","","","","","fullscreen","2","179584","0.0-2.0-0.0","5c9a7872e2a8d00001585513","A3","batch1","spm_fullscreen","","","","","","","","","","","","","","","","","","","","","","","","","","","","",""
"","","","","","html-button-response","3","193712","0.0-2.0-1.0","5c9a7872e2a8d00001585513","A3","batch1","","14126.399999999441","<p class = block-text><b>Instructions</b> <br>This is a widely used intelligence test in research. <br>In this test, a figure with a missing piece will be presented.<br>Below the figure are alternative pieces to complete the figure, only one of which is correct.<br> Different figures might involve different principles for obtaining the missing piece<br>Your job is to select the most logical piece to complete the figure.</p>","0","","","","","","","","","","","","","","","","","","","","","","","","","",""
"","","","","","html-keyboard-response","4","194513","0.0-2.0-2.0-0.0","5c9a7872e2a8d00001585513","A3","batch1","spm_show_trial_num","null","<p class=block-text>Trial 1 out of 60</p>","null","","","","","","","","","","","","","","","","","","","","","","","","","",""
"","","","","","image-button-response","5","199685","0.0-2.0-2.0-1.0","5c9a7872e2a8d00001585513","A3","batch1","spm_respsonse","5169.799999999814","img/question_1_1.jpeg","3","mat_01","4","1","1","5169.799999999814","","","","","","","","","","","","","","","","","","","","",""
"","","","","","html-keyboard-response","6","200744","0.0-2.0-2.0-0.1","5c9a7872e2a8d00001585513","A3","batch1","spm_show_trial_num","null","<p class=block-text>Trial 2 out of 60</p>","null","","","","","","","","","","","","","","","","","","","","","","","","","",""
"","","","","","image-button-response","7","204645","0.0-2.0-2.0-1.1","5c9a7872e2a8d00001585513","A3","batch1","spm_respsonse","3900.399999999441","img/question_1_2.jpeg","4","mat_02","5","1","1","3900.399999999441","","","","","","","","","","","","","","","","","","","","",""
"","","","","","html-keyboard-response","8","205698","0.0-2.0-2.0-0.2","5c9a7872e2a8d00001585513","A3","batch1","spm_show_trial_num","null","<p class=block-text>Trial 3 out of 60</p>","null","","","","","","","","","","","","","","","","","","","","","","","","","",""
"","","","","","image-button-response","9","207609","0.0-2.0-2.0-1.2","5c9a7872e2a8d00001585513","A3","batch1","spm_respsonse","1909.2999999998137","img/question_1_3.jpeg","0","mat_03","1","1","1","1909.2999999998137","","","","","","","","","","","","","","","","","","","","",""
"","","","","","html-keyboard-response","10","208664","0.0-2.0-2.0-0.3","5c9a7872e2a8d00001585513","A3","batch1","spm_show_trial_num","null","<p class=block-text>Trial 4 out of 60</p>","null","","","","","","","","","","","","","","","","","","","","","","","","","",""
"","","","","","image-button-response","11","212631","0.0-2.0-2.0-1.3","5c9a7872e2a8d00001585513","A3","batch1","spm_respsonse","3965.600000000559","img/question_1_4.jpeg","1","mat_04","2","1","1","3965.600000000559","","","","","","","","","","","","","","","","","","","","",""
"","","","","","html-keyboard-response","12","213699","0.0-2.0-2.0-0.4","5c9a7872e2a8d00001585513","A3","batch1","spm_show_trial_num","null","<p class=block-text>Trial 5 out of 60</p>","null","","","","","","","","","","","","","","","","","","","","","","","","","",""
"","","","","","image-button-response","13","216398","0.0-2.0-2.0-1.4","5c9a7872e2a8d00001585513","A3","batch1","spm_respsonse","2697.5999999996275","img/question_1_5.jpeg","5","mat_05","6","1","1","2697.5999999996275","","","","","","","","","","","","","","","","","","","","",""
"","","","","","html-keyboard-response","14","217451","0.0-2.0-2.0-0.5","5c9a7872e2a8d00001585513","A3","batch1","spm_show_trial_num","null","<p class=block-text>Trial 6 out of 60</p>","null","","","","","","","","","","","","","","","","","","","","","","","","","",""
"","","","","","image-button-response","15","221326","0.0-2.0-2.0-1.5","5c9a7872e2a8d00001585513","A3","batch1","spm_respsonse","3873.7000000001863","img/question_1_6.jpeg","2","mat_06","3","1","1","3873.7000000001863","","","","","","","","","","","","","","","","","","","","",""
"","","","","","html-keyboard-response","16","222382","0.0-2.0-2.0-0.6","5c9a7872e2a8d00001585513","A3","batch1","spm_show_trial_num","null","<p class=block-text>Trial 7 out of 60</p>","null","","","","","","","","","","","","","","","","","","","","","","","","","",""
"","","","","","image-button-response","17","227619","0.0-2.0-2.0-1.6","5c9a7872e2a8d00001585513","A3","batch1","spm_respsonse","5236.200000000186","img/question_1_7.jpeg","5","mat_07","6","1","1","5236.200000000186","","","","","","","","","","","","","","","","","","","","",""
"","","","","","html-keyboard-response","18","228678","0.0-2.0-2.0-0.7","5c9a7872e2a8d00001585513","A3","batch1","spm_show_trial_num","null","<p class=block-text>Trial 8 out of 60</p>","null","","","","","","","","","","","","","","","","","","","","","","","","","",""
"","","","","","image-button-response","19","233561","0.0-2.0-2.0-1.7","5c9a7872e2a8d00001585513","A3","batch1","spm_respsonse","4881.700000000186","img/question_1_8.jpeg","1","mat_08","2","1","1","4881.700000000186","","","","","","","","","","","","","","","","","","","","",""
"","","","","","html-keyboard-response","20","234620","0.0-2.0-2.0-0.8","5c9a7872e2a8d00001585513","A3","batch1","spm_show_trial_num","null","<p class=block-text>Trial 9 out of 60</p>","null","","","","","","","","","","","","","","","","","","","","","","","","","",""
"","","","","","image-button-response","21","237582","0.0-2.0-2.0-1.8","5c9a7872e2a8d00001585513","A3","batch1","spm_respsonse","2961.899999999441","img/question_1_9.jpeg","0","mat_09","1","1","1","2961.899999999441","","","","","","","","","","","","","","","","","","","","",""
"","","","","","html-keyboard-response","22","238634","0.0-2.0-2.0-0.9","5c9a7872e2a8d00001585513","A3","batch1","spm_show_trial_num","null","<p class=block-text>Trial 10 out of 60</p>","null","","","","","","","","","","","","","","","","","","","","","","","","","",""
"","","","","","image-button-response","23","245273","0.0-2.0-2.0-1.9","5c9a7872e2a8d00001585513","A3","batch1","spm_respsonse","6638","img/question_1_10.jpeg","5","mat_10","3","0","0","6638","","","","","","","","","","","","","","","","","","","","",""
"","","","","","html-keyboard-response","24","246337","0.0-2.0-2.0-0.10","5c9a7872e2a8d00001585513","A3","batch1","spm_show_trial_num","null","<p class=block-text>Trial 11 out of 60</p>","null","","","","","","","","","","","","","","","","","","","","","","","","","",""
"","","","","","image-button-response","25","260501","0.0-2.0-2.0-1.10","5c9a7872e2a8d00001585513","A3","batch1","spm_respsonse","14162.799999999814","img/question_1_11.jpeg","3","mat_11","4","1","1","14162.799999999814","","","","","","","","","","","","","","","","","","","","",""
"","","","","","html-keyboard-response","26","261565","0.0-2.0-2.0-0.11","5c9a7872e2a8d00001585513","A3","batch1","spm_show_trial_num","null","<p class=block-text>Trial 12 out of 60</p>","null","","","","","","","","","","","","","","","","","","","","","","","","","",""
"","","","","","image-button-response","27","272898","0.0-2.0-2.0-1.11","5c9a7872e2a8d00001585513","A3","batch1","spm_respsonse","11332","img/question_1_12.jpeg","4","mat_12","5","1","1","11332","","","","","","","","","","","","","","","","","","","","",""
"","","","","","html-keyboard-response","28","273959","0.0-2.0-2.0-0.12","5c9a7872e2a8d00001585513","A3","batch1","spm_show_trial_num","null","<p class=block-text>Trial 13 out of 60</p>","null","","","","","","","","","","","","","","","","","","","","","","","","","",""
"","","","","","image-button-response","29","275736","0.0-2.0-2.0-1.12","5c9a7872e2a8d00001585513","A3","batch1","spm_respsonse","1775.9000000003725","img/question_2_1.jpeg","1","mat_13","2","1","1","1775.9000000003725","","","","","","","","","","","","","","","","","","","","",""
"","","","","","html-keyboard-response","30","276788","0.0-2.0-2.0-0.13","5c9a7872e2a8d00001585513","A3","batch1","spm_show_trial_num","null","<p class=block-text>Trial 14 out of 60</p>","null","","","","","","","","","","","","","","","","","","","","","","","","","",""
"","","","","","image-button-response","31","280869","0.0-2.0-2.0-1.13","5c9a7872e2a8d00001585513","A3","batch1","spm_respsonse","4079.9000000003725","img/question_2_2.jpeg","5","mat_14","6","1","1","4079.9000000003725","","","","","","","","","","","","","","","","","","","","",""
"","","","","","html-keyboard-response","32","281920","0.0-2.0-2.0-0.14","5c9a7872e2a8d00001585513","A3","batch1","spm_show_trial_num","null","<p class=block-text>Trial 15 out of 60</p>","null","","","","","","","","","","","","","","","","","","","","","","","","","",""
"","","","","","image-button-response","33","285000","0.0-2.0-2.0-1.14","5c9a7872e2a8d00001585513","A3","batch1","spm_respsonse","3079.2000000001863","img/question_2_3.jpeg","0","mat_15","1","1","1","3079.2000000001863","","","","","","","","","","","","","","","","","","","","",""
"","","","","","html-keyboard-response","34","286064","0.0-2.0-2.0-0.15","5c9a7872e2a8d00001585513","A3","batch1","spm_show_trial_num","null","<p class=block-text>Trial 16 out of 60</p>","null","","","","","","","","","","","","","","","","","","","","","","","","","",""
"","","","","","image-button-response","35","289913","0.0-2.0-2.0-1.15","5c9a7872e2a8d00001585513","A3","batch1","spm_respsonse","3848","img/question_2_4.jpeg","1","mat_16","2","1","1","3848","","","","","","","","","","","","","","","","","","","","",""
"","","","","","html-keyboard-response","36","290968","0.0-2.0-2.0-0.16","5c9a7872e2a8d00001585513","A3","batch1","spm_show_trial_num","null","<p class=block-text>Trial 17 out of 60</p>","null","","","","","","","","","","","","","","","","","","","","","","","","","",""
"","","","","","image-button-response","37","297460","0.0-2.0-2.0-1.16","5c9a7872e2a8d00001585513","A3","batch1","spm_respsonse","6491.5","img/question_2_5.jpeg","0","mat_17","1","1","1","6491.5","","","","","","","","","","","","","","","","","","","","",""
"","","","","","html-keyboard-response","38","298513","0.0-2.0-2.0-0.17","5c9a7872e2a8d00001585513","A3","batch1","spm_show_trial_num","null","<p class=block-text>Trial 18 out of 60</p>","null","","","","","","","","","","","","","","","","","","","","","","","","","",""
"","","","","","image-button-response","39","306444","0.0-2.0-2.0-1.17","5c9a7872e2a8d00001585513","A3","batch1","spm_respsonse","7930.5999999996275","img/question_2_6.jpeg","2","mat_18","3","1","1","7930.5999999996275","","","","","","","","","","","","","","","","","","","","",""
"","","","","","html-keyboard-response","40","307510","0.0-2.0-2.0-0.18","5c9a7872e2a8d00001585513","A3","batch1","spm_show_trial_num","null","<p class=block-text>Trial 19 out of 60</p>","null","","","","","","","","","","","","","","","","","","","","","","","","","",""
"","","","","","image-button-response","41","312650","0.0-2.0-2.0-1.18","5c9a7872e2a8d00001585513","A3","batch1","spm_respsonse","5138.5","img/question_2_7.jpeg","4","mat_19","5","1","1","5138.5","","","","","","","","","","","","","","","","","","","","",""
"","","","","","html-keyboard-response","42","313702","0.0-2.0-2.0-0.19","5c9a7872e2a8d00001585513","A3","batch1","spm_show_trial_num","null","<p class=block-text>Trial 20 out of 60</p>","null","","","","","","","","","","","","","","","","","","","","","","","","","",""
"","","","","","image-button-response","43","317936","0.0-2.0-2.0-1.19","5c9a7872e2a8d00001585513","A3","batch1","spm_respsonse","4232.9000000003725","img/question_2_8.jpeg","2","mat_20","6","0","0","4232.9000000003725","","","","","","","","","","","","","","","","","","","","",""
"","","","","","html-keyboard-response","44","318999","0.0-2.0-2.0-0.20","5c9a7872e2a8d00001585513","A3","batch1","spm_show_trial_num","null","<p class=block-text>Trial 21 out of 60</p>","null","","","","","","","","","","","","","","","","","","","","","","","","","",""
"","","","","","image-button-response","45","323934","0.0-2.0-2.0-1.20","5c9a7872e2a8d00001585513","A3","batch1","spm_respsonse","4934.299999999814","img/question_2_9.jpeg","5","mat_21","4","0","0","4934.299999999814","","","","","","","","","","","","","","","","","","","","",""
"","","","","","html-keyboard-response","46","324993","0.0-2.0-2.0-0.21","5c9a7872e2a8d00001585513","A3","batch1","spm_show_trial_num","null","<p class=block-text>Trial 22 out of 60</p>","null","","","","","","","","","","","","","","","","","","","","","","","","","",""
"","","","","","image-button-response","47","330428","0.0-2.0-2.0-1.21","5c9a7872e2a8d00001585513","A3","batch1","spm_respsonse","5433.199999999255","img/question_2_10.jpeg","2","mat_22","3","1","1","5433.199999999255","","","","","","","","","","","","","","","","","","","","",""
"","","","","","html-keyboard-response","48","331484","0.0-2.0-2.0-0.22","5c9a7872e2a8d00001585513","A3","batch1","spm_show_trial_num","null","<p class=block-text>Trial 23 out of 60</p>","null","","","","","","","","","","","","","","","","","","","","","","","","","",""
"","","","","","image-button-response","49","334896","0.0-2.0-2.0-1.22","5c9a7872e2a8d00001585513","A3","batch1","spm_respsonse","3410.5999999996275","img/question_2_11.jpeg","1","mat_23","4","0","0","3410.5999999996275","","","","","","","","","","","","","","","","","","","","",""
"","","","","","html-keyboard-response","50","335960","0.0-2.0-2.0-0.23","5c9a7872e2a8d00001585513","A3","batch1","spm_show_trial_num","null","<p class=block-text>Trial 24 out of 60</p>","null","","","","","","","","","","","","","","","","","","","","","","","","","",""
"","","","","","image-button-response","51","352014","0.0-2.0-2.0-1.23","5c9a7872e2a8d00001585513","A3","batch1","spm_respsonse","16052.700000000186","img/question_2_12.jpeg","3","mat_24","5","0","0","16052.700000000186","","","","","","","","","","","","","","","","","","","","",""
"","","","","","html-button-response","52","353603","0.0-2.0-3.0","5c9a7872e2a8d00001585513","A3","batch1","attention_check","1338.5","<p class = block-text>Attention check: Please choose 1<br></p>","0","","","true","","","","","","","","","","","","","","","","","","","","","","",""
"","","","","","html-keyboard-response","53","354404","0.0-2.0-4.0-0.0","5c9a7872e2a8d00001585513","A3","batch1","spm_show_trial_num","null","<p class=block-text>Trial 25 out of 60</p>","null","","","","","","","","","","","","","","","","","","","","","","","","","",""
"","","","","","image-button-response","54","359812","0.0-2.0-4.0-1.0","5c9a7872e2a8d00001585513","A3","batch1","spm_respsonse","5406.200000000186","img/question_3_1.jpeg","7","mat_25","8","1","1","5406.200000000186","","","","","","","","","","","","","","","","","","","","",""
"","","","","","html-keyboard-response","55","360870","0.0-2.0-4.0-0.1","5c9a7872e2a8d00001585513","A3","batch1","spm_show_trial_num","null","<p class=block-text>Trial 26 out of 60</p>","null","","","","","","","","","","","","","","","","","","","","","","","","","",""
"","","","","","image-button-response","56","365286","0.0-2.0-4.0-1.1","5c9a7872e2a8d00001585513","A3","batch1","spm_respsonse","4415.4000000003725","img/question_3_2.jpeg","1","mat_26","2","1","1","4415.4000000003725","","","","","","","","","","","","","","","","","","","","",""
"","","","","","html-keyboard-response","57","366346","0.0-2.0-4.0-0.2","5c9a7872e2a8d00001585513","A3","batch1","spm_show_trial_num","null","<p class=block-text>Trial 27 out of 60</p>","null","","","","","","","","","","","","","","","","","","","","","","","","","",""
"","","","","","image-button-response","58","371711","0.0-2.0-4.0-1.2","5c9a7872e2a8d00001585513","A3","batch1","spm_respsonse","5363.899999999441","img/question_3_3.jpeg","2","mat_27","3","1","1","5363.899999999441","","","","","","","","","","","","","","","","","","","","",""
"","","","","","html-keyboard-response","59","372763","0.0-2.0-4.0-0.3","5c9a7872e2a8d00001585513","A3","batch1","spm_show_trial_num","null","<p class=block-text>Trial 28 out of 60</p>","null","","","","","","","","","","","","","","","","","","","","","","","","","",""
"","","","","","image-button-response","60","377014","0.0-2.0-4.0-1.3","5c9a7872e2a8d00001585513","A3","batch1","spm_respsonse","4250.200000000186","img/question_3_4.jpeg","7","mat_28","8","1","1","4250.200000000186","","","","","","","","","","","","","","","","","","","","",""
"","","","","","html-keyboard-response","61","378066","0.0-2.0-4.0-0.4","5c9a7872e2a8d00001585513","A3","batch1","spm_show_trial_num","null","<p class=block-text>Trial 29 out of 60</p>","null","","","","","","","","","","","","","","","","","","","","","","","","","",""
"","","","","","image-button-response","62","386014","0.0-2.0-4.0-1.4","5c9a7872e2a8d00001585513","A3","batch1","spm_respsonse","7947.5","img/question_3_5.jpeg","4","mat_29","7","0","0","7947.5","","","","","","","","","","","","","","","","","","","","",""
"","","","","","html-keyboard-response","63","387071","0.0-2.0-4.0-0.5","5c9a7872e2a8d00001585513","A3","batch1","spm_show_trial_num","null","<p class=block-text>Trial 30 out of 60</p>","null","","","","","","","","","","","","","","","","","","","","","","","","","",""
"","","","","","image-button-response","64","395332","0.0-2.0-4.0-1.5","5c9a7872e2a8d00001585513","A3","batch1","spm_respsonse","8259.899999999441","img/question_3_6.jpeg","3","mat_30","4","1","1","8259.899999999441","","","","","","","","","","","","","","","","","","","","",""
"","","","","","html-keyboard-response","65","396399","0.0-2.0-4.0-0.6","5c9a7872e2a8d00001585513","A3","batch1","spm_show_trial_num","null","<p class=block-text>Trial 31 out of 60</p>","null","","","","","","","","","","","","","","","","","","","","","","","","","",""
"","","","","","image-button-response","66","410016","0.0-2.0-4.0-1.6","5c9a7872e2a8d00001585513","A3","batch1","spm_respsonse","13616.299999999814","img/question_3_7.jpeg","4","mat_31","5","1","1","13616.299999999814","","","","","","","","","","","","","","","","","","","","",""
"","","","","","html-keyboard-response","67","411070","0.0-2.0-4.0-0.7","5c9a7872e2a8d00001585513","A3","batch1","spm_show_trial_num","null","<p class=block-text>Trial 32 out of 60</p>","null","","","","","","","","","","","","","","","","","","","","","","","","","",""
"","","","","","image-button-response","68","420036","0.0-2.0-4.0-1.7","5c9a7872e2a8d00001585513","A3","batch1","spm_respsonse","8965.200000000186","img/question_3_8.jpeg","6","mat_32","1","0","0","8965.200000000186","","","","","","","","","","","","","","","","","","","","",""
"","","","","","html-keyboard-response","69","421104","0.0-2.0-4.0-0.8","5c9a7872e2a8d00001585513","A3","batch1","spm_show_trial_num","null","<p class=block-text>Trial 33 out of 60</p>","null","","","","","","","","","","","","","","","","","","","","","","","","","",""
"","","","","","image-button-response","70","425620","0.0-2.0-4.0-1.8","5c9a7872e2a8d00001585513","A3","batch1","spm_respsonse","4514.5999999996275","img/question_3_9.jpeg","6","mat_33","7","1","1","4514.5999999996275","","","","","","","","","","","","","","","","","","","","",""
"","","","","","html-keyboard-response","71","426686","0.0-2.0-4.0-0.9","5c9a7872e2a8d00001585513","A3","batch1","spm_show_trial_num","null","<p class=block-text>Trial 34 out of 60</p>","null","","","","","","","","","","","","","","","","","","","","","","","","","",""
"","","","","","image-button-response","72","431539","0.0-2.0-4.0-1.9","5c9a7872e2a8d00001585513","A3","batch1","spm_respsonse","4851.200000000186","img/question_3_10.jpeg","7","mat_34","6","0","0","4851.200000000186","","","","","","","","","","","","","","","","","","","","",""
"","","","","","html-keyboard-response","73","432601","0.0-2.0-4.0-0.10","5c9a7872e2a8d00001585513","A3","batch1","spm_show_trial_num","null","<p class=block-text>Trial 35 out of 60</p>","null","","","","","","","","","","","","","","","","","","","","","","","","","",""
"","","","","","image-button-response","74","440188","0.0-2.0-4.0-1.10","5c9a7872e2a8d00001585513","A3","batch1","spm_respsonse","7585.699999999255","img/question_3_11.jpeg","3","mat_35","1","0","0","7585.699999999255","","","","","","","","","","","","","","","","","","","","",""
"","","","","","html-keyboard-response","75","441239","0.0-2.0-4.0-0.11","5c9a7872e2a8d00001585513","A3","batch1","spm_show_trial_num","null","<p class=block-text>Trial 36 out of 60</p>","null","","","","","","","","","","","","","","","","","","","","","","","","","",""
"","","","","","image-button-response","76","451918","0.0-2.0-4.0-1.11","5c9a7872e2a8d00001585513","A3","batch1","spm_respsonse","10677.800000000745","img/question_3_12.jpeg","7","mat_36","2","0","0","10677.800000000745","","","","","","","","","","","","","","","","","","","","",""
"","","","","","html-keyboard-response","77","452980","0.0-2.0-4.0-0.12","5c9a7872e2a8d00001585513","A3","batch1","spm_show_trial_num","null","<p class=block-text>Trial 37 out of 60</p>","null","","","","","","","","","","","","","","","","","","","","","","","","","",""
"","","","","","image-button-response","78","461736","0.0-2.0-4.0-1.12","5c9a7872e2a8d00001585513","A3","batch1","spm_respsonse","8754.400000000373","img/question_4_1.jpeg","2","mat_37","3","1","1","8754.400000000373","","","","","","","","","","","","","","","","","","","","",""
"","","","","","html-keyboard-response","79","462789","0.0-2.0-4.0-0.13","5c9a7872e2a8d00001585513","A3","batch1","spm_show_trial_num","null","<p class=block-text>Trial 38 out of 60</p>","null","","","","","","","","","","","","","","","","","","","","","","","","","",""
"","","","","","image-button-response","80","474260","0.0-2.0-4.0-1.13","5c9a7872e2a8d00001585513","A3","batch1","spm_respsonse","11469.600000000559","img/question_4_2.jpeg","4","mat_38","4","0","0","11469.600000000559","","","","","","","","","","","","","","","","","","","","",""
"","","","","","html-keyboard-response","81","475329","0.0-2.0-4.0-0.14","5c9a7872e2a8d00001585513","A3","batch1","spm_show_trial_num","null","<p class=block-text>Trial 39 out of 60</p>","null","","","","","","","","","","","","","","","","","","","","","","","","","",""
"","","","","","image-button-response","82","486590","0.0-2.0-4.0-1.14","5c9a7872e2a8d00001585513","A3","batch1","spm_respsonse","11259.700000000186","img/question_4_3.jpeg","1","mat_39","3","0","0","11259.700000000186","","","","","","","","","","","","","","","","","","","","",""
"","","","","","html-keyboard-response","83","487654","0.0-2.0-4.0-0.15","5c9a7872e2a8d00001585513","A3","batch1","spm_show_trial_num","null","<p class=block-text>Trial 40 out of 60</p>","null","","","","","","","","","","","","","","","","","","","","","","","","","",""
"","","","","","image-button-response","84","499199","0.0-2.0-4.0-1.15","5c9a7872e2a8d00001585513","A3","batch1","spm_respsonse","11543.899999999441","img/question_4_4.jpeg","6","mat_40","7","1","1","11543.899999999441","","","","","","","","","","","","","","","","","","","","",""
"","","","","","html-keyboard-response","85","500253","0.0-2.0-4.0-0.16","5c9a7872e2a8d00001585513","A3","batch1","spm_show_trial_num","null","<p class=block-text>Trial 41 out of 60</p>","null","","","","","","","","","","","","","","","","","","","","","","","","","",""
"","","","","","image-button-response","86","512286","0.0-2.0-4.0-1.16","5c9a7872e2a8d00001585513","A3","batch1","spm_respsonse","12031.799999999814","img/question_4_5.jpeg","5","mat_41","8","0","0","12031.799999999814","","","","","","","","","","","","","","","","","","","","",""
"","","","","","html-keyboard-response","87","513349","0.0-2.0-4.0-0.17","5c9a7872e2a8d00001585513","A3","batch1","spm_show_trial_num","null","<p class=block-text>Trial 42 out of 60</p>","null","","","","","","","","","","","","","","","","","","","","","","","","","",""
"","","","","","image-button-response","88","521122","0.0-2.0-4.0-1.17","5c9a7872e2a8d00001585513","A3","batch1","spm_respsonse","7771.799999999814","img/question_4_6.jpeg","4","mat_42","6","0","0","7771.799999999814","","","","","","","","","","","","","","","","","","","","",""
"","","","","","html-keyboard-response","89","522180","0.0-2.0-4.0-0.18","5c9a7872e2a8d00001585513","A3","batch1","spm_show_trial_num","null","<p class=block-text>Trial 43 out of 60</p>","null","","","","","","","","","","","","","","","","","","","","","","","","","",""
"","","","","","image-button-response","90","531290","0.0-2.0-4.0-1.18","5c9a7872e2a8d00001585513","A3","batch1","spm_respsonse","9108.899999999441","img/question_4_7.jpeg","4","mat_43","5","1","1","9108.899999999441","","","","","","","","","","","","","","","","","","","","",""
"","","","","","html-keyboard-response","91","532341","0.0-2.0-4.0-0.19","5c9a7872e2a8d00001585513","A3","batch1","spm_show_trial_num","null","<p class=block-text>Trial 44 out of 60</p>","null","","","","","","","","","","","","","","","","","","","","","","","","","",""
"","","","","","image-button-response","92","544672","0.0-2.0-4.0-1.19","5c9a7872e2a8d00001585513","A3","batch1","spm_respsonse","12329.300000000745","img/question_4_8.jpeg","6","mat_44","4","0","0","12329.300000000745","","","","","","","","","","","","","","","","","","","","",""
"","","","","","html-keyboard-response","93","545728","0.0-2.0-4.0-0.20","5c9a7872e2a8d00001585513","A3","batch1","spm_show_trial_num","null","<p class=block-text>Trial 45 out of 60</p>","null","","","","","","","","","","","","","","","","","","","","","","","","","",""
"","","","","","image-button-response","94","551603","0.0-2.0-4.0-1.20","5c9a7872e2a8d00001585513","A3","batch1","spm_respsonse","5874.399999999441","img/question_4_9.jpeg","7","mat_45","1","0","0","5874.399999999441","","","","","","","","","","","","","","","","","","","","",""
"","","","","","html-keyboard-response","95","552656","0.0-2.0-4.0-0.21","5c9a7872e2a8d00001585513","A3","batch1","spm_show_trial_num","null","<p class=block-text>Trial 46 out of 60</p>","null","","","","","","","","","","","","","","","","","","","","","","","","","",""
"","","","","","image-button-response","96","557726","0.0-2.0-4.0-1.21","5c9a7872e2a8d00001585513","A3","batch1","spm_respsonse","5069","img/question_4_10.jpeg","4","mat_46","2","0","0","5069","","","","","","","","","","","","","","","","","","","","",""
"","","","","","html-keyboard-response","97","558789","0.0-2.0-4.0-0.22","5c9a7872e2a8d00001585513","A3","batch1","spm_show_trial_num","null","<p class=block-text>Trial 47 out of 60</p>","null","","","","","","","","","","","","","","","","","","","","","","","","","",""
"","","","","","image-button-response","98","574842","0.0-2.0-4.0-1.22","5c9a7872e2a8d00001585513","A3","batch1","spm_respsonse","16051.800000000745","img/question_4_11.jpeg","1","mat_47","5","0","0","16051.800000000745","","","","","","","","","","","","","","","","","","","","",""
"","","","","","html-keyboard-response","99","575897","0.0-2.0-4.0-0.23","5c9a7872e2a8d00001585513","A3","batch1","spm_show_trial_num","null","<p class=block-text>Trial 48 out of 60</p>","null","","","","","","","","","","","","","","","","","","","","","","","","","",""
"","","","","","image-button-response","100","584401","0.0-2.0-4.0-1.23","5c9a7872e2a8d00001585513","A3","batch1","spm_respsonse","8503.200000000186","img/question_4_12.jpeg","0","mat_48","6","0","0","8503.200000000186","","","","","","","","","","","","","","","","","","","","",""
"","","","","","html-keyboard-response","101","585461","0.0-2.0-4.0-0.24","5c9a7872e2a8d00001585513","A3","batch1","spm_show_trial_num","null","<p class=block-text>Trial 49 out of 60</p>","null","","","","","","","","","","","","","","","","","","","","","","","","","",""
"","","","","","image-button-response","102","592965","0.0-2.0-4.0-1.24","5c9a7872e2a8d00001585513","A3","batch1","spm_respsonse","7503.100000000559","img/question_5_1.jpeg","6","mat_49","7","1","1","7503.100000000559","","","","","","","","","","","","","","","","","","","","",""
"","","","","","html-keyboard-response","103","594016","0.0-2.0-4.0-0.25","5c9a7872e2a8d00001585513","A3","batch1","spm_show_trial_num","null","<p class=block-text>Trial 50 out of 60</p>","null","","","","","","","","","","","","","","","","","","","","","","","","","",""
"","","","","","image-button-response","104","602939","0.0-2.0-4.0-1.25","5c9a7872e2a8d00001585513","A3","batch1","spm_respsonse","8922.599999999627","img/question_5_2.jpeg","0","mat_50","6","0","0","8922.599999999627","","","","","","","","","","","","","","","","","","","","",""
"","","","","","html-keyboard-response","105","604002","0.0-2.0-4.0-0.26","5c9a7872e2a8d00001585513","A3","batch1","spm_show_trial_num","null","<p class=block-text>Trial 51 out of 60</p>","null","","","","","","","","","","","","","","","","","","","","","","","","","",""
"","","","","","image-button-response","106","610963","0.0-2.0-4.0-1.26","5c9a7872e2a8d00001585513","A3","batch1","spm_respsonse","6959.5","img/question_5_3.jpeg","7","mat_51","8","1","1","6959.5","","","","","","","","","","","","","","","","","","","","",""
"","","","","","html-keyboard-response","107","612014","0.0-2.0-4.0-0.27","5c9a7872e2a8d00001585513","A3","batch1","spm_show_trial_num","null","<p class=block-text>Trial 52 out of 60</p>","null","","","","","","","","","","","","","","","","","","","","","","","","","",""
"","","","","","image-button-response","108","626861","0.0-2.0-4.0-1.27","5c9a7872e2a8d00001585513","A3","batch1","spm_respsonse","14845.700000000186","img/question_5_4.jpeg","1","mat_52","2","1","1","14845.700000000186","","","","","","","","","","","","","","","","","","","","",""
"","","","","","html-keyboard-response","109","627913","0.0-2.0-4.0-0.28","5c9a7872e2a8d00001585513","A3","batch1","spm_show_trial_num","null","<p class=block-text>Trial 53 out of 60</p>","null","","","","","","","","","","","","","","","","","","","","","","","","","",""
"","","","","","image-button-response","110","638542","0.0-2.0-4.0-1.28","5c9a7872e2a8d00001585513","A3","batch1","spm_respsonse","10628.200000000186","img/question_5_5.jpeg","6","mat_53","1","0","0","10628.200000000186","","","","","","","","","","","","","","","","","","","","",""
"","","","","","html-keyboard-response","111","639598","0.0-2.0-4.0-0.29","5c9a7872e2a8d00001585513","A3","batch1","spm_show_trial_num","null","<p class=block-text>Trial 54 out of 60</p>","null","","","","","","","","","","","","","","","","","","","","","","","","","",""
"","","","","","image-button-response","112","653102","0.0-2.0-4.0-1.29","5c9a7872e2a8d00001585513","A3","batch1","spm_respsonse","13503.100000000559","img/question_5_6.jpeg","6","mat_54","5","0","0","13503.100000000559","","","","","","","","","","","","","","","","","","","","",""
"","","","","","html-keyboard-response","113","654176","0.0-2.0-4.0-0.30","5c9a7872e2a8d00001585513","A3","batch1","spm_show_trial_num","null","<p class=block-text>Trial 55 out of 60</p>","null","","","","","","","","","","","","","","","","","","","","","","","","","",""
"","","","","","image-button-response","114","671459","0.0-2.0-4.0-1.30","5c9a7872e2a8d00001585513","A3","batch1","spm_respsonse","17281.5","img/question_5_7.jpeg","4","mat_55","1","0","0","17281.5","","","","","","","","","","","","","","","","","","","","",""
"","","","","","html-keyboard-response","115","672515","0.0-2.0-4.0-0.31","5c9a7872e2a8d00001585513","A3","batch1","spm_show_trial_num","null","<p class=block-text>Trial 56 out of 60</p>","null","","","","","","","","","","","","","","","","","","","","","","","","","",""
"","","","","","image-button-response","116","685597","0.0-2.0-4.0-1.31","5c9a7872e2a8d00001585513","A3","batch1","spm_respsonse","13081","img/question_5_8.jpeg","0","mat_56","6","0","0","13081","","","","","","","","","","","","","","","","","","","","",""
"","","","","","html-keyboard-response","117","686656","0.0-2.0-4.0-0.32","5c9a7872e2a8d00001585513","A3","batch1","spm_show_trial_num","null","<p class=block-text>Trial 57 out of 60</p>","null","","","","","","","","","","","","","","","","","","","","","","","","","",""
"","","","","","image-button-response","118","694471","0.0-2.0-4.0-1.32","5c9a7872e2a8d00001585513","A3","batch1","spm_respsonse","7814","img/question_5_9.jpeg","0","mat_57","3","0","0","7814","","","","","","","","","","","","","","","","","","","","",""
"","","","","","html-keyboard-response","119","695529","0.0-2.0-4.0-0.33","5c9a7872e2a8d00001585513","A3","batch1","spm_show_trial_num","null","<p class=block-text>Trial 58 out of 60</p>","null","","","","","","","","","","","","","","","","","","","","","","","","","",""
"","","","","","image-button-response","120","701682","0.0-2.0-4.0-1.33","5c9a7872e2a8d00001585513","A3","batch1","spm_respsonse","6152.9000000003725","img/question_5_10.jpeg","6","mat_58","2","0","0","6152.9000000003725","","","","","","","","","","","","","","","","","","","","",""
"","","","","","html-keyboard-response","121","702742","0.0-2.0-4.0-0.34","5c9a7872e2a8d00001585513","A3","batch1","spm_show_trial_num","null","<p class=block-text>Trial 59 out of 60</p>","null","","","","","","","","","","","","","","","","","","","","","","","","","",""
"","","","","","image-button-response","122","713262","0.0-2.0-4.0-1.34","5c9a7872e2a8d00001585513","A3","batch1","spm_respsonse","10519.299999999814","img/question_5_11.jpeg","0","mat_59","4","0","0","10519.299999999814","","","","","","","","","","","","","","","","","","","","",""
"","","","","","html-keyboard-response","123","714321","0.0-2.0-4.0-0.35","5c9a7872e2a8d00001585513","A3","batch1","spm_show_trial_num","null","<p class=block-text>Trial 60 out of 60</p>","null","","","","","","","","","","","","","","","","","","","","","","","","","",""
"","","","","","image-button-response","124","718572","0.0-2.0-4.0-1.35","5c9a7872e2a8d00001585513","A3","batch1","spm_respsonse","4250.200000000186","img/question_5_12.jpeg","2","mat_60","5","0","0","4250.200000000186","","","","","","","","","","","","","","","","","","","","",""
"","","","","","html-button-response","125","720592","0.0-2.0-5.0","5c9a7872e2a8d00001585513","A3","batch1","spm_goodbye","1753.2000000001863","<p class= block-text>This concludes the Standard Progressive Matrix game. Thank you for your responses!<br> When you are ready, click the button continue</p>","0","","","","","","","","","","","","","","","","","","","","","","","","","",""
"true","","","","","fullscreen","126","723037","0.0-3.0-0.0","5c9a7872e2a8d00001585513","A3","batch1","","","","","","","","","","","","","","","","","","","","","","","","","","","","","",""
"","","","","","instructions","127","731416","0.0-3.0-1.0-0.0","5c9a7872e2a8d00001585513","A3","batch1","","8379.200000000186","","","","","","","","[{""page_index"":0,""viewing_time"":7421.799999999814},{""page_index"":1,""viewing_time"":957.2000000001863}]","","","","","","","","","","","","","","","","","","","",""
"","","","","","html-button-response","128","732274","0.0-3.0-1.0-1.0-0.0","5c9a7872e2a8d00001585513","A3","batch1","pattern_enter_quiz","857.5","<p class=block-text> Let's answer a few questions <br>","0","","","","","","","","","","","","","","","","","","","","","","","","","",""
"","","","","","html-button-response","129","733826","0.0-3.0-1.0-1.0-1.0","5c9a7872e2a8d00001585513","A3","batch1","pattern_quiz","1551.5","<p class = block-text>True or False: You will have as much time as you want to make each choice. <br></p>","1","","","true","","","","","","","","","","","","","","","","","","","","","","",""
"","","","","","html-button-response","130","734569","0.0-3.0-1.0-1.0-2.0","5c9a7872e2a8d00001585513","A3","batch1","pattern_quiz_feedback","741.7999999998137","<p class = block-text>Correct! You should make your choice <strong> as fast as you can</strong>.</p>","0","","","","","","","","","","","","","","","","","","","","","","","","","",""
"","","","","","html-button-response","131","736955","0.0-3.0-1.0-1.0-3.0","5c9a7872e2a8d00001585513","A3","batch1","pattern_quiz","2385.4000000003725","<p class = block-text>True or False: You will look for 4 pieces in black or white color connected in a row either horizontally, vertically or diagonally. <br></p>","0","","","true","","","","","","","","","","","","","","","","","","","","","","",""
"","","","","","html-button-response","132","737554","0.0-3.0-1.0-1.0-4.0","5c9a7872e2a8d00001585513","A3","batch1","pattern_quiz_feedback","598.6000000005588","<p class = block-text>Correct! </p>","0","","","","","","","","","","","","","","","","","","","","","","","","","",""
"","","","","","html-button-response","133","738304","0.0-3.0-2.0","5c9a7872e2a8d00001585513","A3","batch1","pattern_enter_practice","749","<p class=block-text> Now that you've understood the game, let's do a few practice trials before we start!<br> <br>","0","","","","","","","","","","","","","","","","","","","","","","","","","",""
"","","","","","image-keyboard-response","134","739009","0.0-3.0-3.0-0.0","5c9a7872e2a8d00001585513","A3","batch1","pattern_practice","703.8000000007451","stim/prac_yes_16_ver_w1.png","f","","f","true","","","","","","","","","","","","","","","","","","","","","","",""
"","","","","","html-keyboard-response","135","740014","0.0-3.0-3.0-1.0","5c9a7872e2a8d00001585513","A3","batch1","pattern_feedback","null","<p style=""font-size:30px;color:green;"">Correct!</p>","null","","","","","","","","","","","","","","","","","","","","","","","","","",""
"","","","","","image-keyboard-response","136","742201","0.0-3.0-3.0-0.1","5c9a7872e2a8d00001585513","A3","batch1","pattern_practice","2186.199999999255","stim/prac_no_16_1.png","j","","j","true","","","","","","","","","","","","","","","","","","","","","","",""
"","","","","","html-keyboard-response","137","743215","0.0-3.0-3.0-1.1","5c9a7872e2a8d00001585513","A3","batch1","pattern_feedback","null","<p style=""font-size:30px;color:green;"">Correct!</p>","null","","","","","","","","","","","","","","","","","","","","","","","","","",""
"","","","","","image-keyboard-response","138","744865","0.0-3.0-3.0-0.2","5c9a7872e2a8d00001585513","A3","batch1","pattern_practice","1649.2000000001863","stim/prac_no_18_1.png","j","","j","true","","","","","","","","","","","","","","","","","","","","","","",""
"","","","","","html-keyboard-response","139","745875","0.0-3.0-3.0-1.2","5c9a7872e2a8d00001585513","A3","batch1","pattern_feedback","null","<p style=""font-size:30px;color:green;"">Correct!</p>","null","","","","","","","","","","","","","","","","","","","","","","","","","",""
"","","","","","image-keyboard-response","140","746609","0.0-3.0-3.0-0.3","5c9a7872e2a8d00001585513","A3","batch1","pattern_practice","732.7000000001863","stim/prac_yes_18_hor_w1.png","f","","f","true","","","","","","","","","","","","","","","","","","","","","","",""
"","","","","","html-keyboard-response","141","747629","0.0-3.0-3.0-1.3","5c9a7872e2a8d00001585513","A3","batch1","pattern_feedback","null","<p style=""font-size:30px;color:green;"">Correct!</p>","null","","","","","","","","","","","","","","","","","","","","","","","","","",""
"","","","","","image-keyboard-response","142","748609","0.0-3.0-3.0-0.4","5c9a7872e2a8d00001585513","A3","batch1","pattern_practice","978.7999999998137","stim/prac_yes_20_dia_b1.png","f","","f","true","","","","","","","","","","","","","","","","","","","","","","",""
"","","","","","html-keyboard-response","143","749621","0.0-3.0-3.0-1.4","5c9a7872e2a8d00001585513","A3","batch1","pattern_feedback","null","<p style=""font-size:30px;color:green;"">Correct!</p>","null","","","","","","","","","","","","","","","","","","","","","","","","","",""
"","","","","","html-button-response","144","752056","0.0-3.0-4.0","5c9a7872e2a8d00001585513","A3","batch1","pattern_enter_official_trials","2434.699999999255","<p class=block-text> Good job! You are done with practice trials!<br>
        You responded correctly on 100% of the trials.<br>
        Press the button below to start official trials. Now you won't see any feedback about your response</p>","0","","","","","","","","","","","","","","","","","","","","","","","","","",""
"","","","","","html-keyboard-response","145","752867","0.0-3.0-5.0-0.0","5c9a7872e2a8d00001585513","A3","batch1","pattern_show_trial_num","null","<p class=block-text>Trial 1 out of 78</p>","null","","","","","","","","","","","","","","","","","","","","","","","","","",""
"","","","","","image-keyboard-response","146","755425","0.0-3.0-5.0-1.0","5c9a7872e2a8d00001585513","A3","batch1","pattern_response","2557.5","stim/no_33_1_b.png","f","pattern_15","j","false","","","","2557.5","false","0","","","","","","","","","","","","","","","","",""
"","","","","","html-keyboard-response","147","756742","0.0-3.0-5.0-0.1","5c9a7872e2a8d00001585513","A3","batch1","pattern_show_trial_num","null","<p class=block-text>Trial 2 out of 78</p>","null","","","","","","","","","","","","","","","","","","","","","","","","","",""
"","","","","","image-keyboard-response","148","759737","0.0-3.0-5.0-1.1","5c9a7872e2a8d00001585513","A3","batch1","pattern_response","2994.2999999998137","stim/no_58_1_w.png","j","pattern_35","j","true","","","","2994.2999999998137","true","1","","","","","","","","","","","","","","","","",""
"","","","","","html-keyboard-response","149","761043","0.0-3.0-5.0-0.2","5c9a7872e2a8d00001585513","A3","batch1","pattern_show_trial_num","null","<p class=block-text>Trial 3 out of 78</p>","null","","","","","","","","","","","","","","","","","","","","","","","","","",""
"","","","","","image-keyboard-response","150","763465","0.0-3.0-5.0-1.2","5c9a7872e2a8d00001585513","A3","batch1","pattern_response","2421.5","stim/no_45_1_w.png","j","pattern_25","j","true","","","","2421.5","true","2","","","","","","","","","","","","","","","","",""
"","","","","","html-keyboard-response","151","764779","0.0-3.0-5.0-0.3","5c9a7872e2a8d00001585513","A3","batch1","pattern_show_trial_num","null","<p class=block-text>Trial 4 out of 78</p>","null","","","","","","","","","","","","","","","","","","","","","","","","","",""
"","","","","","image-keyboard-response","152","767617","0.0-3.0-5.0-1.3","5c9a7872e2a8d00001585513","A3","batch1","pattern_response","2837.2000000001863","stim/no_49_2_b.png","j","pattern_29","j","true","","","","2837.2000000001863","true","3","","","","","","","","","","","","","","","","",""
"","","","","","html-keyboard-response","153","768937","0.0-3.0-5.0-0.4","5c9a7872e2a8d00001585513","A3","batch1","pattern_show_trial_num","null","<p class=block-text>Trial 5 out of 78</p>","null","","","","","","","","","","","","","","","","","","","","","","","","","",""
"","","","","","image-keyboard-response","154","769849","0.0-3.0-5.0-1.4","5c9a7872e2a8d00001585513","A3","batch1","pattern_response","910.5","stim/yes_29_hor_b1_b.png","f","pattern_52","f","true","","","","910.5","true","4","","","","","","","","","","","","","","","","",""
"","","","","","html-keyboard-response","155","771157","0.0-3.0-5.0-0.5","5c9a7872e2a8d00001585513","A3","batch1","pattern_show_trial_num","null","<p class=block-text>Trial 6 out of 78</p>","null","","","","","","","","","","","","","","","","","","","","","","","","","",""
"","","","","","image-keyboard-response","156","771977","0.0-3.0-5.0-1.5","5c9a7872e2a8d00001585513","A3","batch1","pattern_response","819.7000000001863","stim/yes_15_dia_b1u_b.png","f","pattern_44","f","true","","","","819.7000000001863","true","5","","","","","","","","","","","","","","","","",""
"","","","","","html-keyboard-response","157","773285","0.0-3.0-5.0-0.6","5c9a7872e2a8d00001585513","A3","batch1","pattern_show_trial_num","null","<p class=block-text>Trial 7 out of 78</p>","null","","","","","","","","","","","","","","","","","","","","","","","","","",""
"","","","","","image-keyboard-response","158","774625","0.0-3.0-5.0-1.6","5c9a7872e2a8d00001585513","A3","batch1","pattern_response","1339.7000000001863","stim/no_28_2.png","j","pattern_11","j","true","","","","1339.7000000001863","true","6","","","","","","","","","","","","","","","","",""
"","","","","","html-keyboard-response","159","775926","0.0-3.0-5.0-0.7","5c9a7872e2a8d00001585513","A3","batch1","pattern_show_trial_num","null","<p class=block-text>Trial 8 out of 78</p>","null","","","","","","","","","","","","","","","","","","","","","","","","","",""
"","","","","","image-keyboard-response","160","776865","0.0-3.0-5.0-1.7","5c9a7872e2a8d00001585513","A3","batch1","pattern_response","938.2999999998137","stim/yes_46_ver_b1_b.png","f","pattern_68","f","true","","","","938.2999999998137","true","7","","","","","","","","","","","","","","","","",""
"","","","","","html-keyboard-response","161","778180","0.0-3.0-5.0-0.8","5c9a7872e2a8d00001585513","A3","batch1","pattern_show_trial_num","null","<p class=block-text>Trial 9 out of 78</p>","null","","","","","","","","","","","","","","","","","","","","","","","","","",""
"","","","","","image-keyboard-response","162","779617","0.0-3.0-5.0-1.8","5c9a7872e2a8d00001585513","A3","batch1","pattern_response","1436","stim/no_36_1_b.png","f","pattern_17","j","false","","","","1436","false","7","","","","","","","","","","","","","","","","",""
"","","","","","html-keyboard-response","163","780931","0.0-3.0-5.0-0.9","5c9a7872e2a8d00001585513","A3","batch1","pattern_show_trial_num","null","<p class=block-text>Trial 10 out of 78</p>","null","","","","","","","","","","","","","","","","","","","","","","","","","",""
"","","","","","image-keyboard-response","164","782161","0.0-3.0-5.0-1.9","5c9a7872e2a8d00001585513","A3","batch1","pattern_response","1229.0999999996275","stim/no_30_1_b.png","j","pattern_13","j","true","","","","1229.0999999996275","true","8","","","","","","","","","","","","","","","","",""
"","","","","","html-keyboard-response","165","783478","0.0-3.0-5.0-0.10","5c9a7872e2a8d00001585513","A3","batch1","pattern_show_trial_num","null","<p class=block-text>Trial 11 out of 78</p>","null","","","","","","","","","","","","","","","","","","","","","","","","","",""
"","","","","","image-keyboard-response","166","785361","0.0-3.0-5.0-1.10","5c9a7872e2a8d00001585513","A3","batch1","pattern_response","1882.3999999994412","stim/no_12_1.png","j","pattern_01","j","true","","","","1882.3999999994412","true","9","","","","","","","","","","","","","","","","",""
"","","","","","html-keyboard-response","167","786679","0.0-3.0-5.0-0.11","5c9a7872e2a8d00001585513","A3","batch1","pattern_show_trial_num","null","<p class=block-text>Trial 12 out of 78</p>","null","","","","","","","","","","","","","","","","","","","","","","","","","",""
"","","","","","image-keyboard-response","168","789857","0.0-3.0-5.0-1.11","5c9a7872e2a8d00001585513","A3","batch1","pattern_response","3176.9000000003725","stim/yes_58_dia_w1_w.png","j","pattern_76","f","false","","","","3176.9000000003725","false","9","","","","","","","","","","","","","","","","",""
"","","","","","html-keyboard-response","169","791170","0.0-3.0-5.0-0.12","5c9a7872e2a8d00001585513","A3","batch1","pattern_show_trial_num","null","<p class=block-text>Trial 13 out of 78</p>","null","","","","","","","","","","","","","","","","","","","","","","","","","",""
"","","","","","image-keyboard-response","170","792904","0.0-3.0-5.0-1.12","5c9a7872e2a8d00001585513","A3","batch1","pattern_response","1733.199999999255","stim/no_22_1_b.png","j","pattern_07","j","true","","","","1733.199999999255","true","10","","","","","","","","","","","","","","","","",""
"","","","","","html-keyboard-response","171","794215","0.0-3.0-5.0-0.13","5c9a7872e2a8d00001585513","A3","batch1","pattern_show_trial_num","null","<p class=block-text>Trial 14 out of 78</p>","null","","","","","","","","","","","","","","","","","","","","","","","","","",""
"","","","","","image-keyboard-response","172","795880","0.0-3.0-5.0-1.13","5c9a7872e2a8d00001585513","A3","batch1","pattern_response","1664.6000000005588","stim/yes_42_dia_w1_w.png","f","pattern_64","f","true","","","","1664.6000000005588","true","11","","","","","","","","","","","","","","","","",""
"","","","","","html-keyboard-response","173","797187","0.0-3.0-5.0-0.14","5c9a7872e2a8d00001585513","A3","batch1","pattern_show_trial_num","null","<p class=block-text>Trial 15 out of 78</p>","null","","","","","","","","","","","","","","","","","","","","","","","","","",""
"","","","","","image-keyboard-response","174","800112","0.0-3.0-5.0-1.14","5c9a7872e2a8d00001585513","A3","batch1","pattern_response","2924.2000000001863","stim/no_47_1_b.png","j","pattern_27","j","true","","","","2924.2000000001863","true","12","","","","","","","","","","","","","","","","",""
"","","","","","html-keyboard-response","175","801429","0.0-3.0-5.0-0.15","5c9a7872e2a8d00001585513","A3","batch1","pattern_show_trial_num","null","<p class=block-text>Trial 16 out of 78</p>","null","","","","","","","","","","","","","","","","","","","","","","","","","",""
"","","","","","image-keyboard-response","176","804316","0.0-3.0-5.0-1.15","5c9a7872e2a8d00001585513","A3","batch1","pattern_response","2885.7000000001863","stim/yes_63_dia_b1.png","f","pattern_78","f","true","","","","2885.7000000001863","true","13","","","","","","","","","","","","","","","","",""
"","","","","","html-keyboard-response","177","805627","0.0-3.0-5.0-0.16","5c9a7872e2a8d00001585513","A3","batch1","pattern_show_trial_num","null","<p class=block-text>Trial 17 out of 78</p>","null","","","","","","","","","","","","","","","","","","","","","","","","","",""
"","","","","","image-keyboard-response","178","807936","0.0-3.0-5.0-1.16","5c9a7872e2a8d00001585513","A3","batch1","pattern_response","2308.2999999998137","stim/no_43_2_b.png","j","pattern_23","j","true","","","","2308.2999999998137","true","14","","","","","","","","","","","","","","","","",""
"","","","","","html-keyboard-response","179","809252","0.0-3.0-5.0-0.17","5c9a7872e2a8d00001585513","A3","batch1","pattern_show_trial_num","null","<p class=block-text>Trial 18 out of 78</p>","null","","","","","","","","","","","","","","","","","","","","","","","","","",""
"","","","","","image-keyboard-response","180","811681","0.0-3.0-5.0-1.17","5c9a7872e2a8d00001585513","A3","batch1","pattern_response","2427.5999999996275","stim/yes_49_hor_w1_b.png","f","pattern_70","f","true","","","","2427.5999999996275","true","15","","","","","","","","","","","","","","","","",""
"","","","","","html-keyboard-response","181","812994","0.0-3.0-5.0-0.18","5c9a7872e2a8d00001585513","A3","batch1","pattern_show_trial_num","null","<p class=block-text>Trial 19 out of 78</p>","null","","","","","","","","","","","","","","","","","","","","","","","","","",""
"","","","","","image-keyboard-response","182","816841","0.0-3.0-5.0-1.18","5c9a7872e2a8d00001585513","A3","batch1","pattern_response","3845.899999999441","stim/no_51_1.png","j","pattern_31","j","true","","","","3845.899999999441","true","16","","","","","","","","","","","","","","","","",""
"","","","","","html-keyboard-response","183","818156","0.0-3.0-5.0-0.19","5c9a7872e2a8d00001585513","A3","batch1","pattern_show_trial_num","null","<p class=block-text>Trial 20 out of 78</p>","null","","","","","","","","","","","","","","","","","","","","","","","","","",""
"","","","","","image-keyboard-response","184","819089","0.0-3.0-5.0-1.19","5c9a7872e2a8d00001585513","A3","batch1","pattern_response","931.5","stim/yes_12_hor_w1_w.png","f","pattern_42","f","true","","","","931.5","true","17","","","","","","","","","","","","","","","","",""
"","","","","","html-keyboard-response","185","820403","0.0-3.0-5.0-0.20","5c9a7872e2a8d00001585513","A3","batch1","pattern_show_trial_num","null","<p class=block-text>Trial 21 out of 78</p>","null","","","","","","","","","","","","","","","","","","","","","","","","","",""
"","","","","","image-keyboard-response","186","824616","0.0-3.0-5.0-1.20","5c9a7872e2a8d00001585513","A3","batch1","pattern_response","4212.0999999996275","stim/no_37_2_w.png","j","pattern_19","j","true","","","","4212.0999999996275","true","18","","","","","","","","","","","","","","","","",""
"","","","","","html-keyboard-response","187","825923","0.0-3.0-5.0-0.21","5c9a7872e2a8d00001585513","A3","batch1","pattern_show_trial_num","null","<p class=block-text>Trial 22 out of 78</p>","null","","","","","","","","","","","","","","","","","","","","","","","","","",""
"","","","","","image-keyboard-response","188","827416","0.0-3.0-5.0-1.21","5c9a7872e2a8d00001585513","A3","batch1","pattern_response","1492.5999999996275","stim/yes_39_hor_w1_w.png","f","pattern_62","f","true","","","","1492.5999999996275","true","19","","","","","","","","","","","","","","","","",""
"","","","","","html-keyboard-response","189","828737","0.0-3.0-5.0-0.22","5c9a7872e2a8d00001585513","A3","batch1","pattern_show_trial_num","null","<p class=block-text>Trial 23 out of 78</p>","null","","","","","","","","","","","","","","","","","","","","","","","","","",""
"","","","","","image-keyboard-response","190","833121","0.0-3.0-5.0-1.22","5c9a7872e2a8d00001585513","A3","batch1","pattern_response","4382.5","stim/no_53_1_b.png","j","pattern_33","j","true","","","","4382.5","true","20","","","","","","","","","","","","","","","","",""
"","","","","","html-keyboard-response","191","834437","0.0-3.0-5.0-0.23","5c9a7872e2a8d00001585513","A3","batch1","pattern_show_trial_num","null","<p class=block-text>Trial 24 out of 78</p>","null","","","","","","","","","","","","","","","","","","","","","","","","","",""
"","","","","","image-keyboard-response","192","838384","0.0-3.0-5.0-1.23","5c9a7872e2a8d00001585513","A3","batch1","pattern_response","3946.100000000559","stim/yes_51_dia_b1.png","j","pattern_72","f","false","","","","3946.100000000559","false","20","","","","","","","","","","","","","","","","",""
"","","","","","html-keyboard-response","193","839702","0.0-3.0-5.0-0.24","5c9a7872e2a8d00001585513","A3","batch1","pattern_show_trial_num","null","<p class=block-text>Trial 25 out of 78</p>","null","","","","","","","","","","","","","","","","","","","","","","","","","",""
"","","","","","image-keyboard-response","194","841513","0.0-3.0-5.0-1.24","5c9a7872e2a8d00001585513","A3","batch1","pattern_response","1810","stim/no_18_1_b.png","j","pattern_05","j","true","","","","1810","true","21","","","","","","","","","","","","","","","","",""
"","","","","","html-keyboard-response","195","842838","0.0-3.0-5.0-0.25","5c9a7872e2a8d00001585513","A3","batch1","pattern_show_trial_num","null","<p class=block-text>Trial 26 out of 78</p>","null","","","","","","","","","","","","","","","","","","","","","","","","","",""
"","","","","","image-keyboard-response","196","844481","0.0-3.0-5.0-1.25","5c9a7872e2a8d00001585513","A3","batch1","pattern_response","1642.4000000003725","stim/yes_23_ver_b1.png","f","pattern_48","f","true","","","","1642.4000000003725","true","22","","","","","","","","","","","","","","","","",""
"","","","","","html-keyboard-response","197","845792","0.0-3.0-5.0-0.26","5c9a7872e2a8d00001585513","A3","batch1","pattern_show_trial_num","null","<p class=block-text>Trial 27 out of 78</p>","null","","","","","","","","","","","","","","","","","","","","","","","","","",""
"","","","","","image-keyboard-response","198","847353","0.0-3.0-5.0-1.26","5c9a7872e2a8d00001585513","A3","batch1","pattern_response","1559.7999999998137","stim/yes_70_ver_b1.png","f","pattern_80","f","true","","","","1559.7999999998137","true","23","","","","","","","","","","","","","","","","",""
"","","","","","html-keyboard-response","199","848677","0.0-3.0-5.0-0.27","5c9a7872e2a8d00001585513","A3","batch1","pattern_show_trial_num","null","<p class=block-text>Trial 28 out of 78</p>","null","","","","","","","","","","","","","","","","","","","","","","","","","",""
"","","","","","image-keyboard-response","200","849889","0.0-3.0-5.0-1.27","5c9a7872e2a8d00001585513","A3","batch1","pattern_response","1211.7000000001863","stim/yes_37_hor_w1_w.png","f","pattern_60","f","true","","","","1211.7000000001863","true","24","","","","","","","","","","","","","","","","",""
"","","","","","html-keyboard-response","201","851216","0.0-3.0-5.0-0.28","5c9a7872e2a8d00001585513","A3","batch1","pattern_show_trial_num","null","<p class=block-text>Trial 29 out of 78</p>","null","","","","","","","","","","","","","","","","","","","","","","","","","",""
"","","","","","image-keyboard-response","202","852993","0.0-3.0-5.0-1.28","5c9a7872e2a8d00001585513","A3","batch1","pattern_response","1776.2999999998137","stim/yes_33_dia_w1_w.png","j","pattern_56","f","false","","","","1776.2999999998137","false","24","","","","","","","","","","","","","","","","",""
"","","","","","html-keyboard-response","203","854308","0.0-3.0-5.0-0.29","5c9a7872e2a8d00001585513","A3","batch1","pattern_show_trial_num","null","<p class=block-text>Trial 30 out of 78</p>","null","","","","","","","","","","","","","","","","","","","","","","","","","",""
"","","","","","image-keyboard-response","204","857353","0.0-3.0-5.0-1.29","5c9a7872e2a8d00001585513","A3","batch1","pattern_response","3044.100000000559","stim/no_25_1_b.png","j","pattern_09","j","true","","","","3044.100000000559","true","25","","","","","","","","","","","","","","","","",""
"","","","","","html-keyboard-response","205","858675","0.0-3.0-5.0-0.30","5c9a7872e2a8d00001585513","A3","batch1","pattern_show_trial_num","null","<p class=block-text>Trial 31 out of 78</p>","null","","","","","","","","","","","","","","","","","","","","","","","","","",""
"","","","","","image-keyboard-response","206","861897","0.0-3.0-5.0-1.30","5c9a7872e2a8d00001585513","A3","batch1","pattern_response","3220.5","stim/yes_53_ver_b1_b.png","f","pattern_74","f","true","","","","3220.5","true","26","","","","","","","","","","","","","","","","",""
"","","","","","html-keyboard-response","207","863216","0.0-3.0-5.0-0.31","5c9a7872e2a8d00001585513","A3","batch1","pattern_show_trial_num","null","<p class=block-text>Trial 32 out of 78</p>","null","","","","","","","","","","","","","","","","","","","","","","","","","",""
"","","","","","image-keyboard-response","208","867113","0.0-3.0-5.0-1.31","5c9a7872e2a8d00001585513","A3","batch1","pattern_response","3896.2000000001863","stim/no_67_1.png","j","pattern_39","j","true","","","","3896.2000000001863","true","27","","","","","","","","","","","","","","","","",""
"","","","","","html-keyboard-response","209","868421","0.0-3.0-5.0-0.32","5c9a7872e2a8d00001585513","A3","batch1","pattern_show_trial_num","null","<p class=block-text>Trial 33 out of 78</p>","null","","","","","","","","","","","","","","","","","","","","","","","","","",""
"","","","","","image-keyboard-response","210","870345","0.0-3.0-5.0-1.32","5c9a7872e2a8d00001585513","A3","batch1","pattern_response","1923.5","stim/no_15_1_w.png","j","pattern_03","j","true","","","","1923.5","true","28","","","","","","","","","","","","","","","","",""
"","","","","","html-keyboard-response","211","871657","0.0-3.0-5.0-0.33","5c9a7872e2a8d00001585513","A3","batch1","pattern_show_trial_num","null","<p class=block-text>Trial 34 out of 78</p>","null","","","","","","","","","","","","","","","","","","","","","","","","","",""
"","","","","","image-keyboard-response","212","874289","0.0-3.0-5.0-1.33","5c9a7872e2a8d00001585513","A3","batch1","pattern_response","2631.5","stim/no_39_1_w.png","j","pattern_21","j","true","","","","2631.5","true","29","","","","","","","","","","","","","","","","",""
"","","","","","html-keyboard-response","213","875598","0.0-3.0-5.0-0.34","5c9a7872e2a8d00001585513","A3","batch1","pattern_show_trial_num","null","<p class=block-text>Trial 35 out of 78</p>","null","","","","","","","","","","","","","","","","","","","","","","","","","",""
"","","","","","image-keyboard-response","214","876529","0.0-3.0-5.0-1.34","5c9a7872e2a8d00001585513","A3","batch1","pattern_response","929.5999999996275","stim/yes_17_ver_b1_b.png","f","pattern_46","f","true","","","","929.5999999996275","true","30","","","","","","","","","","","","","","","","",""
"","","","","","html-keyboard-response","215","877841","0.0-3.0-5.0-0.35","5c9a7872e2a8d00001585513","A3","batch1","pattern_show_trial_num","null","<p class=block-text>Trial 36 out of 78</p>","null","","","","","","","","","","","","","","","","","","","","","","","","","",""
"","","","","","image-keyboard-response","216","879208","0.0-3.0-5.0-1.35","5c9a7872e2a8d00001585513","A3","batch1","pattern_response","1366.9000000003725","stim/yes_36_ver_w1_w.png","f","pattern_58","f","true","","","","1366.9000000003725","true","31","","","","","","","","","","","","","","","","",""
"","","","","","html-keyboard-response","217","880513","0.0-3.0-5.0-0.36","5c9a7872e2a8d00001585513","A3","batch1","pattern_show_trial_num","null","<p class=block-text>Trial 37 out of 78</p>","null","","","","","","","","","","","","","","","","","","","","","","","","","",""
"","","","","","image-keyboard-response","218","883168","0.0-3.0-5.0-1.36","5c9a7872e2a8d00001585513","A3","batch1","pattern_response","2654.7999999998137","stim/yes_26_dia_w2_w.png","f","pattern_50","f","true","","","","2654.7999999998137","true","32","","","","","","","","","","","","","","","","",""
"","","","","","html-keyboard-response","219","884474","0.0-3.0-5.0-0.37","5c9a7872e2a8d00001585513","A3","batch1","pattern_show_trial_num","null","<p class=block-text>Trial 38 out of 78</p>","null","","","","","","","","","","","","","","","","","","","","","","","","","",""
"","","","","","image-keyboard-response","220","885400","0.0-3.0-5.0-1.37","5c9a7872e2a8d00001585513","A3","batch1","pattern_response","925.6000000005588","stim/yes_30_ver_b1_b.png","f","pattern_54","f","true","","","","925.6000000005588","true","33","","","","","","","","","","","","","","","","",""
"","","","","","html-keyboard-response","221","886712","0.0-3.0-5.0-0.38","5c9a7872e2a8d00001585513","A3","batch1","pattern_show_trial_num","null","<p class=block-text>Trial 39 out of 78</p>","null","","","","","","","","","","","","","","","","","","","","","","","","","",""
"","","","","","image-keyboard-response","222","888912","0.0-3.0-5.0-1.38","5c9a7872e2a8d00001585513","A3","batch1","pattern_response","2200.2000000001863","stim/yes_44_ver_w1_w.png","f","pattern_66","f","true","","","","2200.2000000001863","true","34","","","","","","","","","","","","","","","","",""
"","","","","","image-keyboard-response","223","890608","0.0-3.0-6.0","5c9a7872e2a8d00001585513","A3","batch1","attention_check","1182.5","stim/empty_board.png","j","","j","true","","","","","","","500","[""f"",""j""]","","","","","","","","","","","","","","",""
"","","","","","html-keyboard-response","224","891420","0.0-3.0-7.0-0.0","5c9a7872e2a8d00001585513","A3","batch1","pattern_show_trial_num","null","<p class=block-text>Trial 40 out of 78</p>","null","","","","","","","","","","","","","","","","","","","","","","","","","",""
"","","","","","image-keyboard-response","225","895553","0.0-3.0-7.0-1.0","5c9a7872e2a8d00001585513","A3","batch1","pattern_response","4131.899999999441","stim/yes_40_dia_b1_b.png","j","pattern_63","f","false","","","","4131.899999999441","false","34","","","","","","","","","","","","","","","","",""
"","","","","","html-keyboard-response","226","896862","0.0-3.0-7.0-0.1","5c9a7872e2a8d00001585513","A3","batch1","pattern_show_trial_num","null","<p class=block-text>Trial 41 out of 78</p>","null","","","","","","","","","","","","","","","","","","","","","","","","","",""
"","","","","","image-keyboard-response","227","898432","0.0-3.0-7.0-1.1","5c9a7872e2a8d00001585513","A3","batch1","pattern_response","1569.5","stim/no_20_1_w.png","j","pattern_06","j","true","","","","1569.5","true","35","","","","","","","","","","","","","","","","",""
"","","","","","html-keyboard-response","228","899745","0.0-3.0-7.0-0.2","5c9a7872e2a8d00001585513","A3","batch1","pattern_show_trial_num","null","<p class=block-text>Trial 42 out of 78</p>","null","","","","","","","","","","","","","","","","","","","","","","","","","",""
"","","","","","image-keyboard-response","229","901024","0.0-3.0-7.0-1.2","5c9a7872e2a8d00001585513","A3","batch1","pattern_response","1278.5999999996275","stim/yes_48_dia_w1_w.png","f","pattern_69","f","true","","","","1278.5999999996275","true","36","","","","","","","","","","","","","","","","",""
"","","","","","html-keyboard-response","230","902341","0.0-3.0-7.0-0.3","5c9a7872e2a8d00001585513","A3","batch1","pattern_show_trial_num","null","<p class=block-text>Trial 43 out of 78</p>","null","","","","","","","","","","","","","","","","","","","","","","","","","",""
"","","","","","image-keyboard-response","231","903273","0.0-3.0-7.0-1.3","5c9a7872e2a8d00001585513","A3","batch1","pattern_response","931","stim/yes_14_hor_b1_w.png","f","pattern_43","f","true","","","","931","true","37","","","","","","","","","","","","","","","","",""
"","","","","","html-keyboard-response","232","904578","0.0-3.0-7.0-0.4","5c9a7872e2a8d00001585513","A3","batch1","pattern_show_trial_num","null","<p class=block-text>Trial 44 out of 78</p>","null","","","","","","","","","","","","","","","","","","","","","","","","","",""
"","","","","","image-keyboard-response","233","906216","0.0-3.0-7.0-1.4","5c9a7872e2a8d00001585513","A3","batch1","pattern_response","1638.2000000001863","stim/yes_38_hor_b1_b.png","f","pattern_61","f","true","","","","1638.2000000001863","true","38","","","","","","","","","","","","","","","","",""
"","","","","","html-keyboard-response","234","907532","0.0-3.0-7.0-0.5","5c9a7872e2a8d00001585513","A3","batch1","pattern_show_trial_num","null","<p class=block-text>Trial 45 out of 78</p>","null","","","","","","","","","","","","","","","","","","","","","","","","","",""
"","","","","","image-keyboard-response","235","909449","0.0-3.0-7.0-1.5","5c9a7872e2a8d00001585513","A3","batch1","pattern_response","1916","stim/no_42_1_w.png","j","pattern_22","j","true","","","","1916","true","39","","","","","","","","","","","","","","","","",""
"","","","","","html-keyboard-response","236","910760","0.0-3.0-7.0-0.6","5c9a7872e2a8d00001585513","A3","batch1","pattern_show_trial_num","null","<p class=block-text>Trial 46 out of 78</p>","null","","","","","","","","","","","","","","","","","","","","","","","","","",""
"","","","","","image-keyboard-response","237","913024","0.0-3.0-7.0-1.6","5c9a7872e2a8d00001585513","A3","batch1","pattern_response","2263.7000000001863","stim/no_44_1.png","j","pattern_24","j","true","","","","2263.7000000001863","true","40","","","","","","","","","","","","","","","","",""
"","","","","","html-keyboard-response","238","914326","0.0-3.0-7.0-0.7","5c9a7872e2a8d00001585513","A3","batch1","pattern_show_trial_num","null","<p class=block-text>Trial 47 out of 78</p>","null","","","","","","","","","","","","","","","","","","","","","","","","","",""
"","","","","","image-keyboard-response","239","916129","0.0-3.0-7.0-1.7","5c9a7872e2a8d00001585513","A3","batch1","pattern_response","1801.7999999998137","stim/yes_29_ver_w1.png","f","pattern_53","f","true","","","","1801.7999999998137","true","41","","","","","","","","","","","","","","","","",""
"","","","","","html-keyboard-response","240","917443","0.0-3.0-7.0-0.8","5c9a7872e2a8d00001585513","A3","batch1","pattern_show_trial_num","null","<p class=block-text>Trial 48 out of 78</p>","null","","","","","","","","","","","","","","","","","","","","","","","","","",""
"","","","","","image-keyboard-response","241","921617","0.0-3.0-7.0-1.8","5c9a7872e2a8d00001585513","A3","batch1","pattern_response","4172.700000000186","stim/no_62_1_w.png","j","pattern_36","j","true","","","","4172.700000000186","true","42","","","","","","","","","","","","","","","","",""
"","","","","","html-keyboard-response","242","922923","0.0-3.0-7.0-0.9","5c9a7872e2a8d00001585513","A3","batch1","pattern_show_trial_num","null","<p class=block-text>Trial 49 out of 78</p>","null","","","","","","","","","","","","","","","","","","","","","","","","","",""
"","","","","","image-keyboard-response","243","925512","0.0-3.0-7.0-1.9","5c9a7872e2a8d00001585513","A3","batch1","pattern_response","2588.2999999998137","stim/no_29_1_b.png","j","pattern_12","j","true","","","","2588.2999999998137","true","43","","","","","","","","","","","","","","","","",""
"","","","","","html-keyboard-response","244","926823","0.0-3.0-7.0-0.10","5c9a7872e2a8d00001585513","A3","batch1","pattern_show_trial_num","null","<p class=block-text>Trial 50 out of 78</p>","null","","","","","","","","","","","","","","","","","","","","","","","","","",""
"","","","","","image-keyboard-response","245","930000","0.0-3.0-7.0-1.10","5c9a7872e2a8d00001585513","A3","batch1","pattern_response","3176.600000000559","stim/no_36_2_w.png","j","pattern_18","j","true","","","","3176.600000000559","true","44","","","","","","","","","","","","","","","","",""
"","","","","","html-keyboard-response","246","931314","0.0-3.0-7.0-0.11","5c9a7872e2a8d00001585513","A3","batch1","pattern_show_trial_num","null","<p class=block-text>Trial 51 out of 78</p>","null","","","","","","","","","","","","","","","","","","","","","","","","","",""
"","","","","","image-keyboard-response","247","933056","0.0-3.0-7.0-1.11","5c9a7872e2a8d00001585513","A3","batch1","pattern_response","1741","stim/yes_60_ver_b1_b.png","f","pattern_77","f","true","","","","1741","true","45","","","","","","","","","","","","","","","","",""
"","","","","","html-keyboard-response","248","934369","0.0-3.0-7.0-0.12","5c9a7872e2a8d00001585513","A3","batch1","pattern_show_trial_num","null","<p class=block-text>Trial 52 out of 78</p>","null","","","","","","","","","","","","","","","","","","","","","","","","","",""
"","","","","","image-keyboard-response","249","936192","0.0-3.0-7.0-1.12","5c9a7872e2a8d00001585513","A3","batch1","pattern_response","1822","stim/yes_43_ver_w1_w.png","f","pattern_65","f","true","","","","1822","true","46","","","","","","","","","","","","","","","","",""
"","","","","","html-keyboard-response","250","937517","0.0-3.0-7.0-0.13","5c9a7872e2a8d00001585513","A3","batch1","pattern_show_trial_num","null","<p class=block-text>Trial 53 out of 78</p>","null","","","","","","","","","","","","","","","","","","","","","","","","","",""
"","","","","","image-keyboard-response","251","939552","0.0-3.0-7.0-1.13","5c9a7872e2a8d00001585513","A3","batch1","pattern_response","2034.0999999996275","stim/yes_37_dia_w1.png","f","pattern_59","f","true","","","","2034.0999999996275","true","47","","","","","","","","","","","","","","","","",""
"","","","","","html-keyboard-response","252","940867","0.0-3.0-7.0-0.14","5c9a7872e2a8d00001585513","A3","batch1","pattern_show_trial_num","null","<p class=block-text>Trial 54 out of 78</p>","null","","","","","","","","","","","","","","","","","","","","","","","","","",""
"","","","","","image-keyboard-response","253","942816","0.0-3.0-7.0-1.14","5c9a7872e2a8d00001585513","A3","batch1","pattern_response","1948.7000000001863","stim/yes_25_hor_b1_b.png","f","pattern_49","f","true","","","","1948.7000000001863","true","48","","","","","","","","","","","","","","","","",""
"","","","","","html-keyboard-response","254","944125","0.0-3.0-7.0-0.15","5c9a7872e2a8d00001585513","A3","batch1","pattern_show_trial_num","null","<p class=block-text>Trial 55 out of 78</p>","null","","","","","","","","","","","","","","","","","","","","","","","","","",""
"","","","","","image-keyboard-response","255","948281","0.0-3.0-7.0-1.15","5c9a7872e2a8d00001585513","A3","batch1","pattern_response","4155.100000000559","stim/no_48_1_w.png","j","pattern_28","j","true","","","","4155.100000000559","true","49","","","","","","","","","","","","","","","","",""
"","","","","","html-keyboard-response","256","949591","0.0-3.0-7.0-0.16","5c9a7872e2a8d00001585513","A3","batch1","pattern_show_trial_num","null","<p class=block-text>Trial 56 out of 78</p>","null","","","","","","","","","","","","","","","","","","","","","","","","","",""
"","","","","","image-keyboard-response","257","953184","0.0-3.0-7.0-1.16","5c9a7872e2a8d00001585513","A3","batch1","pattern_response","3592.2000000001863","stim/no_32_1_w.png","j","pattern_14","j","true","","","","3592.2000000001863","true","50","","","","","","","","","","","","","","","","",""
"","","","","","html-keyboard-response","258","954493","0.0-3.0-7.0-0.17","5c9a7872e2a8d00001585513","A3","batch1","pattern_show_trial_num","null","<p class=block-text>Trial 57 out of 78</p>","null","","","","","","","","","","","","","","","","","","","","","","","","","",""
"","","","","","image-keyboard-response","259","956064","0.0-3.0-7.0-1.17","5c9a7872e2a8d00001585513","A3","batch1","pattern_response","1569.7999999998137","stim/yes_55_hor_w1_w.png","f","pattern_75","f","true","","","","1569.7999999998137","true","51","","","","","","","","","","","","","","","","",""
"","","","","","html-keyboard-response","260","957385","0.0-3.0-7.0-0.18","5c9a7872e2a8d00001585513","A3","batch1","pattern_show_trial_num","null","<p class=block-text>Trial 58 out of 78</p>","null","","","","","","","","","","","","","","","","","","","","","","","","","",""
"","","","","","image-keyboard-response","261","959360","0.0-3.0-7.0-1.18","5c9a7872e2a8d00001585513","A3","batch1","pattern_response","1975","stim/yes_52_ver_w1.png","f","pattern_73","f","true","","","","1975","true","52","","","","","","","","","","","","","","","","",""
"","","","","","html-keyboard-response","262","960676","0.0-3.0-7.0-0.19","5c9a7872e2a8d00001585513","A3","batch1","pattern_show_trial_num","null","<p class=block-text>Trial 59 out of 78</p>","null","","","","","","","","","","","","","","","","","","","","","","","","","",""
"","","","","","image-keyboard-response","263","963481","0.0-3.0-7.0-1.19","5c9a7872e2a8d00001585513","A3","batch1","pattern_response","2803.5","stim/no_65_1_b.png","j","pattern_38","j","true","","","","2803.5","true","53","","","","","","","","","","","","","","","","",""
"","","","","","html-keyboard-response","264","964783","0.0-3.0-7.0-0.20","5c9a7872e2a8d00001585513","A3","batch1","pattern_show_trial_num","null","<p class=block-text>Trial 60 out of 78</p>","null","","","","","","","","","","","","","","","","","","","","","","","","","",""
"","","","","","image-keyboard-response","265","968305","0.0-3.0-7.0-1.20","5c9a7872e2a8d00001585513","A3","batch1","pattern_response","3520.7000000001863","stim/no_55_1_w.png","j","pattern_34","j","true","","","","3520.7000000001863","true","54","","","","","","","","","","","","","","","","",""
"","","","","","html-keyboard-response","266","969630","0.0-3.0-7.0-0.21","5c9a7872e2a8d00001585513","A3","batch1","pattern_show_trial_num","null","<p class=block-text>Trial 61 out of 78</p>","null","","","","","","","","","","","","","","","","","","","","","","","","","",""
"","","","","","image-keyboard-response","267","972456","0.0-3.0-7.0-1.21","5c9a7872e2a8d00001585513","A3","batch1","pattern_response","2825.4000000003725","stim/no_46_1_b.png","j","pattern_26","j","true","","","","2825.4000000003725","true","55","","","","","","","","","","","","","","","","",""
"","","","","","html-keyboard-response","268","973769","0.0-3.0-7.0-0.22","5c9a7872e2a8d00001585513","A3","batch1","pattern_show_trial_num","null","<p class=block-text>Trial 62 out of 78</p>","null","","","","","","","","","","","","","","","","","","","","","","","","","",""
"","","","","","image-keyboard-response","269","977488","0.0-3.0-7.0-1.22","5c9a7872e2a8d00001585513","A3","batch1","pattern_response","3718.199999999255","stim/no_70_2.png","j","pattern_40","j","true","","","","3718.199999999255","true","56","","","","","","","","","","","","","","","","",""
"","","","","","html-keyboard-response","270","978801","0.0-3.0-7.0-0.23","5c9a7872e2a8d00001585513","A3","batch1","pattern_show_trial_num","null","<p class=block-text>Trial 63 out of 78</p>","null","","","","","","","","","","","","","","","","","","","","","","","","","",""
"","","","","","image-keyboard-response","271","981472","0.0-3.0-7.0-1.23","5c9a7872e2a8d00001585513","A3","batch1","pattern_response","2670","stim/no_26_1_w.png","j","pattern_10","j","true","","","","2670","true","57","","","","","","","","","","","","","","","","",""
"","","","","","html-keyboard-response","272","982783","0.0-3.0-7.0-0.24","5c9a7872e2a8d00001585513","A3","batch1","pattern_show_trial_num","null","<p class=block-text>Trial 64 out of 78</p>","null","","","","","","","","","","","","","","","","","","","","","","","","","",""
"","","","","","image-keyboard-response","273","983984","0.0-3.0-7.0-1.24","5c9a7872e2a8d00001585513","A3","batch1","pattern_response","1200.1000000005588","stim/yes_50_dia_w1.png","f","pattern_71","f","true","","","","1200.1000000005588","true","58","","","","","","","","","","","","","","","","",""
"","","","","","html-keyboard-response","274","985307","0.0-3.0-7.0-0.25","5c9a7872e2a8d00001585513","A3","batch1","pattern_show_trial_num","null","<p class=block-text>Trial 65 out of 78</p>","null","","","","","","","","","","","","","","","","","","","","","","","","","",""
"","","","","","image-keyboard-response","275","986808","0.0-3.0-7.0-1.25","5c9a7872e2a8d00001585513","A3","batch1","pattern_response","1500.2999999998137","stim/no_17_1_w.png","j","pattern_04","j","true","","","","1500.2999999998137","true","59","","","","","","","","","","","","","","","","",""
"","","","","","html-keyboard-response","276","988115","0.0-3.0-7.0-0.26","5c9a7872e2a8d00001585513","A3","batch1","pattern_show_trial_num","null","<p class=block-text>Trial 66 out of 78</p>","null","","","","","","","","","","","","","","","","","","","","","","","","","",""
"","","","","","image-keyboard-response","277","990896","0.0-3.0-7.0-1.26","5c9a7872e2a8d00001585513","A3","batch1","pattern_response","2780.5","stim/yes_31_hor_b1.png","j","pattern_55","f","false","","","","2780.5","false","59","","","","","","","","","","","","","","","","",""
"","","","","","html-keyboard-response","278","992214","0.0-3.0-7.0-0.27","5c9a7872e2a8d00001585513","A3","batch1","pattern_show_trial_num","null","<p class=block-text>Trial 67 out of 78</p>","null","","","","","","","","","","","","","","","","","","","","","","","","","",""
"","","","","","image-keyboard-response","279","993312","0.0-3.0-7.0-1.27","5c9a7872e2a8d00001585513","A3","batch1","pattern_response","1097.2999999998137","stim/yes_67_hor_b1.png","f","pattern_79","f","true","","","","1097.2999999998137","true","60","","","","","","","","","","","","","","","","",""
"","","","","","html-keyboard-response","280","994626","0.0-3.0-7.0-0.28","5c9a7872e2a8d00001585513","A3","batch1","pattern_show_trial_num","null","<p class=block-text>Trial 68 out of 78</p>","null","","","","","","","","","","","","","","","","","","","","","","","","","",""
"","","","","","image-keyboard-response","281","995536","0.0-3.0-7.0-1.28","5c9a7872e2a8d00001585513","A3","batch1","pattern_response","905.6999999992549","stim/yes_28_ver_b1.png","f","pattern_51","f","true","","","","905.6999999992549","true","61","","","","","","","","","","","","","","","","",""
"","","","","","html-keyboard-response","282","996848","0.0-3.0-7.0-0.29","5c9a7872e2a8d00001585513","A3","batch1","pattern_show_trial_num","null","<p class=block-text>Trial 69 out of 78</p>","null","","","","","","","","","","","","","","","","","","","","","","","","","",""
"","","","","","image-keyboard-response","283","999344","0.0-3.0-7.0-1.29","5c9a7872e2a8d00001585513","A3","batch1","pattern_response","2495.4000000003725","stim/no_23_1.png","j","pattern_08","j","true","","","","2495.4000000003725","true","62","","","","","","","","","","","","","","","","",""
"","","","","","html-keyboard-response","284","1000648","0.0-3.0-7.0-0.30","5c9a7872e2a8d00001585513","A3","batch1","pattern_show_trial_num","null","<p class=block-text>Trial 70 out of 78</p>","null","","","","","","","","","","","","","","","","","","","","","","","","","",""
"","","","","","image-keyboard-response","285","1002256","0.0-3.0-7.0-1.30","5c9a7872e2a8d00001585513","A3","batch1","pattern_response","1607","stim/no_13_2_b.png","j","pattern_02","j","true","","","","1607","true","63","","","","","","","","","","","","","","","","",""
"","","","","","html-keyboard-response","286","1003568","0.0-3.0-7.0-0.31","5c9a7872e2a8d00001585513","A3","batch1","pattern_show_trial_num","null","<p class=block-text>Trial 71 out of 78</p>","null","","","","","","","","","","","","","","","","","","","","","","","","","",""
"","","","","","image-keyboard-response","287","1006488","0.0-3.0-7.0-1.31","5c9a7872e2a8d00001585513","A3","batch1","pattern_response","2919.0999999996275","stim/no_52_1.png","j","pattern_32","j","true","","","","2919.0999999996275","true","64","","","","","","","","","","","","","","","","",""
"","","","","","html-keyboard-response","288","1007808","0.0-3.0-7.0-0.32","5c9a7872e2a8d00001585513","A3","batch1","pattern_show_trial_num","null","<p class=block-text>Trial 72 out of 78</p>","null","","","","","","","","","","","","","","","","","","","","","","","","","",""
"","","","","","image-keyboard-response","289","1008616","0.0-3.0-7.0-1.32","5c9a7872e2a8d00001585513","A3","batch1","pattern_response","807.2000000001863","stim/yes_22_ver_w1.png","f","pattern_47","f","true","","","","807.2000000001863","true","65","","","","","","","","","","","","","","","","",""
"","","","","","html-keyboard-response","290","1009934","0.0-3.0-7.0-0.33","5c9a7872e2a8d00001585513","A3","batch1","pattern_show_trial_num","null","<p class=block-text>Trial 73 out of 78</p>","null","","","","","","","","","","","","","","","","","","","","","","","","","",""
"","","","","","image-keyboard-response","291","1010744","0.0-3.0-7.0-1.33","5c9a7872e2a8d00001585513","A3","batch1","pattern_response","809.8000000007451","stim/yes_17_dia_w1.png","f","pattern_45","f","true","","","","809.8000000007451","true","66","","","","","","","","","","","","","","","","",""
"","","","","","html-keyboard-response","292","1012056","0.0-3.0-7.0-0.34","5c9a7872e2a8d00001585513","A3","batch1","pattern_show_trial_num","null","<p class=block-text>Trial 74 out of 78</p>","null","","","","","","","","","","","","","","","","","","","","","","","","","",""
"","","","","","image-keyboard-response","293","1015528","0.0-3.0-7.0-1.34","5c9a7872e2a8d00001585513","A3","batch1","pattern_response","3471.5999999996275","stim/no_34_1_b.png","j","pattern_16","j","true","","","","3471.5999999996275","true","67","","","","","","","","","","","","","","","","",""
"","","","","","html-keyboard-response","294","1016841","0.0-3.0-7.0-0.35","5c9a7872e2a8d00001585513","A3","batch1","pattern_show_trial_num","null","<p class=block-text>Trial 75 out of 78</p>","null","","","","","","","","","","","","","","","","","","","","","","","","","",""
"","","","","","image-keyboard-response","295","1019720","0.0-3.0-7.0-1.35","5c9a7872e2a8d00001585513","A3","batch1","pattern_response","2878.0999999996275","stim/yes_35_dia_b1.png","f","pattern_57","f","true","","","","2878.0999999996275","true","68","","","","","","","","","","","","","","","","",""
"","","","","","html-keyboard-response","296","1021033","0.0-3.0-7.0-0.36","5c9a7872e2a8d00001585513","A3","batch1","pattern_show_trial_num","null","<p class=block-text>Trial 76 out of 78</p>","null","","","","","","","","","","","","","","","","","","","","","","","","","",""
"","","","","","image-keyboard-response","297","1022175","0.0-3.0-7.0-1.36","5c9a7872e2a8d00001585513","A3","batch1","pattern_response","1141.2000000001863","stim/yes_45_hor_b2_b.png","f","pattern_67","f","true","","","","1141.2000000001863","true","69","","","","","","","","","","","","","","","","",""
"","","","","","html-keyboard-response","298","1023493","0.0-3.0-7.0-0.37","5c9a7872e2a8d00001585513","A3","batch1","pattern_show_trial_num","null","<p class=block-text>Trial 77 out of 78</p>","null","","","","","","","","","","","","","","","","","","","","","","","","","",""
"","","","","","image-keyboard-response","299","1027560","0.0-3.0-7.0-1.37","5c9a7872e2a8d00001585513","A3","batch1","pattern_response","4065.5999999996275","stim/no_38_1_b.png","j","pattern_20","j","true","","","","4065.5999999996275","true","70","","","","","","","","","","","","","","","","",""
"","","","","","html-keyboard-response","300","1028880","0.0-3.0-7.0-0.38","5c9a7872e2a8d00001585513","A3","batch1","pattern_show_trial_num","null","<p class=block-text>Trial 78 out of 78</p>","null","","","","","","","","","","","","","","","","","","","","","","","","","",""
"","","","","","image-keyboard-response","301","1035431","0.0-3.0-7.0-1.38","5c9a7872e2a8d00001585513","A3","batch1","pattern_response","6550.199999999255","stim/no_50_1.png","f","pattern_30","j","false","","","","6550.199999999255","false","70","","","","","","","","","","","","","","","","",""
"","","","","","html-button-response","302","1038720","0.0-3.0-8.0","5c9a7872e2a8d00001585513","A3","batch1","","2783.2000000001863","<p class = block-text>This concludes the 4-in-a-row detection game.Thank you for your responses!<br>
            You responded correctly on 90% of the trials.<br>
            When you are ready, press ""Continue"" button to continue </p>","0","","","","","","","","","","","","","","","","","","","","","","","","","",""
"true","","","","","fullscreen","303","1045252","0.0-4.0-0.0","5c9a7872e2a8d00001585513","A3","batch1","","","","","","","","","","","","","","","","","","","","","","","","","","","","","",""
"","","","","","instructions","304","1115924","0.0-4.0-1.0-0.0-0.0","5c9a7872e2a8d00001585513","A3","batch1","tol-instructions","70671.59999999963","","","","","","","","[{""page_index"":0,""viewing_time"":26977.599999999627},{""page_index"":1,""viewing_time"":19181.800000000745},{""page_index"":2,""viewing_time"":3098.0999999996275},{""page_index"":3,""viewing_time"":7532},{""page_index"":4,""viewing_time"":2964},{""page_index"":5,""viewing_time"":8814.400000000373},{""page_index"":6,""viewing_time"":2103.5}]","","","","","","","","","","","","","","","","","","","",""
"","","","","","html-button-response","305","1116704","0.0-4.0-1.0-1.0-0.0","5c9a7872e2a8d00001585513","A3","batch1","tol_enter_quiz","779.5","<p class=block-text> Let's answer a few questions <br>","0","","","","","","","","","","","","","","","","","","","","","","","","","",""
"","","","","","html-button-response","306","1121338","0.0-4.0-1.0-1.0-1.0","5c9a7872e2a8d00001585513","A3","batch1","tol_quiz","4633.5","<p class = block-text>True or False: You can only move the ball on top of a peg. <br></p>","0","","","true","","","","","","","","","","","","","","","","","","","","","","",""
"","","","","","html-button-response","307","1122211","0.0-4.0-1.0-1.0-2.0","5c9a7872e2a8d00001585513","A3","batch1","tol_quiz_feedback","871.9000000003725","<p class = block-text>Correct! You can only move the ball on top of a peg.</p>","0","","","","","","","","","","","","","","","","","","","","","","","","","",""
"","","","","","html-button-response","308","1124497","0.0-4.0-1.0-1.0-3.0","5c9a7872e2a8d00001585513","A3","batch1","tol_quiz","2285.699999999255","<p class = block-text>True or False: You should try to match your board with the target board with fewest moves possible. <br></p>","0","","","true","","","","","","","","","","","","","","","","","","","","","","",""
"","","","","","html-button-response","309","1124964","0.0-4.0-1.0-1.0-4.0","5c9a7872e2a8d00001585513","A3","batch1","tol_quiz_feedback","466.59999999962747","<p class = block-text>Correct! </p>","0","","","","","","","","","","","","","","","","","","","","","","","","","",""
"","","","","","html-button-response","310","1125704","0.0-4.0-2.0","5c9a7872e2a8d00001585513","A3","batch1","","739.5","<p class=block-text> Now that you've understood the game, let's practice a few easier examples before we start!<br> <br>","0","","","","","","","","","","","","","","","","","","","","","","","","","",""
"","","","","","single-stim-button","311","1127780","0.0-4.0-3.0-0.0","5c9a7872e2a8d00001585513","A3","batch1","tol_practice","2074","","","","","","","","","","","","","","tol_peg_2","2074","2074","0","[[1,2,0],[0,0],[0]]","1","[[1,2,0],[0,0],[3]]","practice","2074","","","","","",""
"","","","","","single-stim-button","312","1128518","0.0-4.0-3.0-1.0","5c9a7872e2a8d00001585513","A3","batch1","tol_practice","738","","","","","","","","","","","","","","tol_peg_3","738","738","0","[[1,2,0],[0,0],[3]]","1","[[1,2,0],[0,0],[3]]","practice","738","","","","","",""
"","","","","","poldrack-single-stim","313","1129529","0.0-4.0-4.0","5c9a7872e2a8d00001585513","A3","batch1","tol_feedback","-1","","","","","true","","","","","","","","","","1000","1000","500","","","","","","-1","none","true","","0",""
"","","","","","single-stim-button","314","1132582","0.0-4.0-5.0-0.0","5c9a7872e2a8d00001585513","A3","batch1","tol_practice","3053","","","","","","","","","","","","","","tol_peg_1","3053","3053","0","[[1,0,0],[3,0],[0]]","2","[[0,0,0],[3,1],[2]]","practice","3053","","","","","",""
"","","","","","single-stim-button","315","1133782","0.0-4.0-5.0-1.0","5c9a7872e2a8d00001585513","A3","batch1","tol_practice","1199","","","","","","","","","","","","","","tol_peg_3","1199","1199","0","[[1,0,0],[3,0],[2]]","2","[[0,0,0],[3,1],[2]]","practice","1199","","","","","",""
"","","","","","single-stim-button","316","1134290","0.0-4.0-5.1-0.1","5c9a7872e2a8d00001585513","A3","batch1","tol_practice","507","","","","","","","","","","","","","","tol_peg_1","507","507","0","[[0,0,0],[3,0],[2]]","3","[[0,0,0],[3,1],[2]]","practice","507","","","","","",""
"","","","","","single-stim-button","317","1134796","0.0-4.0-5.1-1.1","5c9a7872e2a8d00001585513","A3","batch1","tol_practice","505","","","","","","","","","","","","","","tol_peg_2","505","505","0","[[0,0,0],[3,1],[2]]","3","[[0,0,0],[3,1],[2]]","practice","505","","","","","",""
"","","","","","poldrack-single-stim","318","1135798","0.0-4.0-6.0","5c9a7872e2a8d00001585513","A3","batch1","tol_feedback","-1","","","","","true","","","","","","","","","","1000","1000","500","","","","","","-1","none","true","","0",""
"","","","","","single-stim-button","319","1139461","0.0-4.0-7.0-0.0","5c9a7872e2a8d00001585513","A3","batch1","tol_practice","3663","","","","","","","","","","","","","","tol_peg_2","3663","3663","0","[[1,2,0],[0,0],[0]]","4","[[1,0,0],[2,0],[3]]","practice","3663","","","","","",""
"","","","","","single-stim-button","320","1139998","0.0-4.0-7.0-1.0","5c9a7872e2a8d00001585513","A3","batch1","tol_practice","537","","","","","","","","","","","","","","tol_peg_3","537","537","0","[[1,2,0],[0,0],[3]]","4","[[1,0,0],[2,0],[3]]","practice","537","","","","","",""
"","","","","","single-stim-button","321","1140956","0.0-4.0-7.1-0.1","5c9a7872e2a8d00001585513","A3","batch1","tol_practice","958","","","","","","","","","","","","","","tol_peg_1","958","958","0","[[1,0,0],[0,0],[3]]","5","[[1,0,0],[2,0],[3]]","practice","958","","","","","",""
"","","","","","single-stim-button","322","1141309","0.0-4.0-7.1-1.1","5c9a7872e2a8d00001585513","A3","batch1","tol_practice","352","","","","","","","","","","","","","","tol_peg_2","352","352","0","[[1,0,0],[2,0],[3]]","5","[[1,0,0],[2,0],[3]]","practice","352","","","","","",""
"","","","","","poldrack-single-stim","323","1142310","0.0-4.0-8.0","5c9a7872e2a8d00001585513","A3","batch1","tol_feedback","-1","","","","","true","","","","","","","","","","1000","1000","500","","","","","","-1","none","true","","0",""
"","","","","","html-button-response","324","1144918","0.0-4.0-9.0","5c9a7872e2a8d00001585513","A3","batch1","tol_instruction","2607.7999999998137","<div class = centerbox><p class = center-block-text>Great job! You are done with practice trials<br>You are about to start official trials.<br> <br> Problem <strong>1</strong> out of 25 problems</p></div>","0","","","","","","","","","","","","","","","","","","","","","","","","","",""
"","","","","","single-stim-button","325","1152515","0.0-4.0-10.0-0.0","5c9a7872e2a8d00001585513","A3","batch1","tol_tohand","6596","","","","","","","","","","","","","","tol_peg_2","6596","6596","0","[[1,2,0],[0,0],[0]]","1","[[1,3,0],[2,0],[0]]","0","0","","","","","","3"
"","","","","","single-stim-button","326","1153216","0.0-4.0-10.0-1.0","5c9a7872e2a8d00001585513","A3","batch1","tol_toboard","700","","","","","","","","","","","","","","tol_peg_3","700","700","0","[[1,2,0],[0,0],[3]]","1","[[1,3,0],[2,0],[0]]","0","0","","","","","","3"
"","","","","","single-stim-button","327","1153779","0.0-4.0-10.1-0.1","5c9a7872e2a8d00001585513","A3","batch1","tol_tohand","562","","","","","","","","","","","","","","tol_peg_1","562","562","0","[[1,0,0],[0,0],[3]]","2","[[1,3,0],[2,0],[0]]","0","0","","","","","","3"
"","","","","","single-stim-button","328","1154222","0.0-4.0-10.1-1.1","5c9a7872e2a8d00001585513","A3","batch1","tol_toboard","443","","","","","","","","","","","","","","tol_peg_2","443","443","0","[[1,0,0],[2,0],[3]]","2","[[1,3,0],[2,0],[0]]","0","0","","","","","","3"
"","","","","","single-stim-button","329","1154855","0.0-4.0-10.2-0.2","5c9a7872e2a8d00001585513","A3","batch1","tol_tohand","633","","","","","","","","","","","","","","tol_peg_3","633","633","0","[[1,0,0],[2,0],[0]]","3","[[1,3,0],[2,0],[0]]","0","0","","","","","","3"
"","","","","","single-stim-button","330","1155455","0.0-4.0-10.2-1.2","5c9a7872e2a8d00001585513","A3","batch1","tol_toboard","600","","","","","","","","","","","","","","tol_peg_1","600","600","0","[[1,3,0],[2,0],[0]]","3","[[1,3,0],[2,0],[0]]","0","0","","","","","","3"
"","","","","","poldrack-single-stim","331","1156457","0.0-4.0-11.0","5c9a7872e2a8d00001585513","A3","batch1","tol_feedback","-1","","","","","true","","","","","","","","","","1000","1000","500","","","","","","-1","none","true","6596","7791",""
"","","","","","html-button-response","332","1157278","0.0-4.0-12.0","5c9a7872e2a8d00001585513","A3","batch1","tol_trial_num","821.1000000005588","<div class = centerbox><p class = center-block-text>problem <strong>2</strong> out of 25 problems</p></div>","0","","","","","","","","","","","","","","","","","","","","","","","","","",""
"","","","","","single-stim-button","333","1160859","0.0-4.0-13.0-0.0","5c9a7872e2a8d00001585513","A3","batch1","tol_tohand","3581","","","","","","","","","","","","","","tol_peg_1","3581","3581","0","[[1,0,0],[3,0],[0]]","1","[[2,1,3],[0,0],[0]]","1","0","","","","","","5"
"","","","","","single-stim-button","334","1161622","0.0-4.0-13.0-1.0","5c9a7872e2a8d00001585513","A3","batch1","tol_toboard","763","","","","","","","","","","","","","","tol_peg_3","763","763","0","[[1,0,0],[3,0],[2]]","1","[[2,1,3],[0,0],[0]]","1","0","","","","","","5"
"","","","","","single-stim-button","335","1165147","0.0-4.0-13.1-0.1","5c9a7872e2a8d00001585513","A3","batch1","tol_tohand","3524","","","","","","","","","","","","","","tol_peg_1","3524","3524","0","[[0,0,0],[3,0],[2]]","2","[[2,1,3],[0,0],[0]]","1","0","","","","","","5"
"","","","","","single-stim-button","336","1166628","0.0-4.0-13.1-1.1","5c9a7872e2a8d00001585513","A3","batch1","tol_toboard","1481","","","","","","","","","","","","","","tol_peg_2","1481","1481","0","[[0,0,0],[3,1],[2]]","2","[[2,1,3],[0,0],[0]]","1","0","","","","","","5"
"","","","","","single-stim-button","337","1167158","0.0-4.0-13.2-0.2","5c9a7872e2a8d00001585513","A3","batch1","tol_tohand","529","","","","","","","","","","","","","","tol_peg_3","529","529","0","[[0,0,0],[3,1],[0]]","3","[[2,1,3],[0,0],[0]]","1","0","","","","","","5"
"","","","","","single-stim-button","338","1167869","0.0-4.0-13.2-1.2","5c9a7872e2a8d00001585513","A3","batch1","tol_toboard","710","","","","","","","","","","","","","","tol_peg_1","710","710","0","[[2,0,0],[3,1],[0]]","3","[[2,1,3],[0,0],[0]]","1","0","","","","","","5"
"","","","","","single-stim-button","339","1168437","0.0-4.0-13.3-0.3","5c9a7872e2a8d00001585513","A3","batch1","tol_tohand","568","","","","","","","","","","","","","","tol_peg_2","568","568","0","[[2,0,0],[3,0],[0]]","4","[[2,1,3],[0,0],[0]]","1","0","","","","","","5"
"","","","","","single-stim-button","340","1168875","0.0-4.0-13.3-1.3","5c9a7872e2a8d00001585513","A3","batch1","tol_toboard","438","","","","","","","","","","","","","","tol_peg_1","438","438","0","[[2,1,0],[3,0],[0]]","4","[[2,1,3],[0,0],[0]]","1","0","","","","","","5"
"","","","","","single-stim-button","341","1169310","0.0-4.0-13.4-0.4","5c9a7872e2a8d00001585513","A3","batch1","tol_tohand","435","","","","","","","","","","","","","","tol_peg_2","435","435","0","[[2,1,0],[0,0],[0]]","5","[[2,1,3],[0,0],[0]]","1","0","","","","","","5"
"","","","","","single-stim-button","342","1169872","0.0-4.0-13.4-1.4","5c9a7872e2a8d00001585513","A3","batch1","tol_toboard","562","","","","","","","","","","","","","","tol_peg_1","562","562","0","[[2,1,3],[0,0],[0]]","5","[[2,1,3],[0,0],[0]]","1","0","","","","","","5"
"","","","","","poldrack-single-stim","343","1170873","0.0-4.0-14.0","5c9a7872e2a8d00001585513","A3","batch1","tol_feedback","-1","","","","","true","","","","","","","","","","1000","1000","500","","","","","","-1","none","true","3581","8637",""
"","","","","","html-button-response","344","1171680","0.0-4.0-15.0","5c9a7872e2a8d00001585513","A3","batch1","tol_trial_num","806.1999999992549","<div class = centerbox><p class = center-block-text>problem <strong>3</strong> out of 25 problems</p></div>","0","","","","","","","","","","","","","","","","","","","","","","","","","",""
"","","","","","single-stim-button","345","1176571","0.0-4.0-16.0-0.0","5c9a7872e2a8d00001585513","A3","batch1","tol_tohand","4890","","","","","","","","","","","","","","tol_peg_1","4890","4890","0","[[2,0,0],[0,0],[1]]","1","[[1,2,0],[3,0],[0]]","2","0","","","","","","4"
"","","","","","single-stim-button","346","1177318","0.0-4.0-16.0-1.0","5c9a7872e2a8d00001585513","A3","batch1","tol_toboard","747","","","","","","","","","","","","","","tol_peg_2","747","747","0","[[2,0,0],[3,0],[1]]","1","[[1,2,0],[3,0],[0]]","2","0","","","","","","4"
"","","","","","single-stim-button","347","1178378","0.0-4.0-16.1-0.1","5c9a7872e2a8d00001585513","A3","batch1","tol_tohand","1059","","","","","","","","","","","","","","tol_peg_1","1059","1059","0","[[0,0,0],[3,0],[1]]","2","[[1,2,0],[3,0],[0]]","2","0","","","","","","4"
