"success","timeout","failed_images","failed_audio","failed_video","trial_type","trial_index","time_elapsed","internal_node_id","subject_id","study_id","session_id","task","rt","stimulus","response","item","answer","correct","spm_correct","spm_rt","view_history","fiar_detect_rt","fiar_detect_correct","total_correct_fiar_detect","post_trial_gap","choices","mouse_click","stim_duration","block_duration","timing_post_trial","current_position","tol_num_moves_made","tol_target","tol_problem_id","tol_rt","key_press","possible_responses","tol_correct","preplanning","tol_rt_per_trial","tol_min_moves"
"true","false","[]","[]","[]","preload","0","1091","0.0-0.0","5ca4d7e75d545300110b7545","A3","batch1","","","","","","","","","","","","","","","","","","","","","","","","","","","","","",""
"true","","","","","fullscreen","1","14018","0.0-1.0-0.0","5ca4d7e75d545300110b7545","A3","batch1","","","","","","","","","","","","","","","","","","","","","","","","","","","","","",""
"true","","","","","fullscreen","2","19231","0.0-2.0-0.0","5ca4d7e75d545300110b7545","A3","batch1","spm_fullscreen","","","","","","","","","","","","","","","","","","","","","","","","","","","","",""
"","","","","","html-button-response","3","27793","0.0-2.0-1.0","5ca4d7e75d545300110b7545","A3","batch1","","8559.10000000149","<p class = block-text><b>Instructions</b> <br>This is a widely used intelligence test in research. <br>In this test, a figure with a missing piece will be presented.<br>Below the figure are alternative pieces to complete the figure, only one of which is correct.<br> Different figures might involve different principles for obtaining the missing piece<br>Your job is to select the most logical piece to complete the figure.</p>","0","","","","","","","","","","","","","","","","","","","","","","","","","",""
"","","","","","html-keyboard-response","4","28608","0.0-2.0-2.0-0.0","5ca4d7e75d545300110b7545","A3","batch1","spm_show_trial_num","null","<p class=block-text>Trial 1 out of 60</p>","null","","","","","","","","","","","","","","","","","","","","","","","","","",""
"","","","","","image-button-response","5","39119","0.0-2.0-2.0-1.0","5ca4d7e75d545300110b7545","A3","batch1","spm_respsonse","10505.900000000373","img/question_1_1.jpeg","3","mat_01","4","1","1","10505.900000000373","","","","","","","","","","","","","","","","","","","","",""
"","","","","","html-keyboard-response","6","40175","0.0-2.0-2.0-0.1","5ca4d7e75d545300110b7545","A3","batch1","spm_show_trial_num","null","<p class=block-text>Trial 2 out of 60</p>","null","","","","","","","","","","","","","","","","","","","","","","","","","",""
"","","","","","image-button-response","7","45142","0.0-2.0-2.0-1.1","5ca4d7e75d545300110b7545","A3","batch1","spm_respsonse","4964.5","img/question_1_2.jpeg","4","mat_02","5","1","1","4964.5","","","","","","","","","","","","","","","","","","","","",""
"","","","","","html-keyboard-response","8","46209","0.0-2.0-2.0-0.2","5ca4d7e75d545300110b7545","A3","batch1","spm_show_trial_num","null","<p class=block-text>Trial 3 out of 60</p>","null","","","","","","","","","","","","","","","","","","","","","","","","","",""
"","","","","","image-button-response","9","49847","0.0-2.0-2.0-1.2","5ca4d7e75d545300110b7545","A3","batch1","spm_respsonse","3635.0999999996275","img/question_1_3.jpeg","0","mat_03","1","1","1","3635.0999999996275","","","","","","","","","","","","","","","","","","","","",""
"","","","","","html-keyboard-response","10","50898","0.0-2.0-2.0-0.3","5ca4d7e75d545300110b7545","A3","batch1","spm_show_trial_num","null","<p class=block-text>Trial 4 out of 60</p>","null","","","","","","","","","","","","","","","","","","","","","","","","","",""
"","","","","","image-button-response","11","54656","0.0-2.0-2.0-1.3","5ca4d7e75d545300110b7545","A3","batch1","spm_respsonse","3756.7999999988824","img/question_1_4.jpeg","1","mat_04","2","1","1","3756.7999999988824","","","","","","","","","","","","","","","","","","","","",""
"","","","","","html-keyboard-response","12","55710","0.0-2.0-2.0-0.4","5ca4d7e75d545300110b7545","A3","batch1","spm_show_trial_num","null","<p class=block-text>Trial 5 out of 60</p>","null","","","","","","","","","","","","","","","","","","","","","","","","","",""
"","","","","","image-button-response","13","60333","0.0-2.0-2.0-1.4","5ca4d7e75d545300110b7545","A3","batch1","spm_respsonse","4621.799999998882","img/question_1_5.jpeg","5","mat_05","6","1","1","4621.799999998882","","","","","","","","","","","","","","","","","","","","",""
"","","","","","html-keyboard-response","14","61402","0.0-2.0-2.0-0.5","5ca4d7e75d545300110b7545","A3","batch1","spm_show_trial_num","null","<p class=block-text>Trial 6 out of 60</p>","null","","","","","","","","","","","","","","","","","","","","","","","","","",""
"","","","","","image-button-response","15","68119","0.0-2.0-2.0-1.5","5ca4d7e75d545300110b7545","A3","batch1","spm_respsonse","6713.800000000745","img/question_1_6.jpeg","2","mat_06","3","1","1","6713.800000000745","","","","","","","","","","","","","","","","","","","","",""
"","","","","","html-keyboard-response","16","69171","0.0-2.0-2.0-0.6","5ca4d7e75d545300110b7545","A3","batch1","spm_show_trial_num","null","<p class=block-text>Trial 7 out of 60</p>","null","","","","","","","","","","","","","","","","","","","","","","","","","",""
"","","","","","image-button-response","17","74134","0.0-2.0-2.0-1.6","5ca4d7e75d545300110b7545","A3","batch1","spm_respsonse","4958.5","img/question_1_7.jpeg","5","mat_07","6","1","1","4958.5","","","","","","","","","","","","","","","","","","","","",""
"","","","","","html-keyboard-response","18","75204","0.0-2.0-2.0-0.7","5ca4d7e75d545300110b7545","A3","batch1","spm_show_trial_num","null","<p class=block-text>Trial 8 out of 60</p>","null","","","","","","","","","","","","","","","","","","","","","","","","","",""
"","","","","","image-button-response","19","85442","0.0-2.0-2.0-1.7","5ca4d7e75d545300110b7545","A3","batch1","spm_respsonse","10234.10000000149","img/question_1_8.jpeg","1","mat_08","2","1","1","10234.10000000149","","","","","","","","","","","","","","","","","","","","",""
"","","","","","html-keyboard-response","20","86493","0.0-2.0-2.0-0.8","5ca4d7e75d545300110b7545","A3","batch1","spm_show_trial_num","null","<p class=block-text>Trial 9 out of 60</p>","null","","","","","","","","","","","","","","","","","","","","","","","","","",""
"","","","","","image-button-response","21","90944","0.0-2.0-2.0-1.8","5ca4d7e75d545300110b7545","A3","batch1","spm_respsonse","4446.800000000745","img/question_1_9.jpeg","0","mat_09","1","1","1","4446.800000000745","","","","","","","","","","","","","","","","","","","","",""
"","","","","","html-keyboard-response","22","91996","0.0-2.0-2.0-0.9","5ca4d7e75d545300110b7545","A3","batch1","spm_show_trial_num","null","<p class=block-text>Trial 10 out of 60</p>","null","","","","","","","","","","","","","","","","","","","","","","","","","",""
"","","","","","image-button-response","23","104298","0.0-2.0-2.0-1.9","5ca4d7e75d545300110b7545","A3","batch1","spm_respsonse","12300.199999999255","img/question_1_10.jpeg","2","mat_10","3","1","1","12300.199999999255","","","","","","","","","","","","","","","","","","","","",""
"","","","","","html-keyboard-response","24","105354","0.0-2.0-2.0-0.10","5ca4d7e75d545300110b7545","A3","batch1","spm_show_trial_num","null","<p class=block-text>Trial 11 out of 60</p>","null","","","","","","","","","","","","","","","","","","","","","","","","","",""
"","","","","","image-button-response","25","114087","0.0-2.0-2.0-1.10","5ca4d7e75d545300110b7545","A3","batch1","spm_respsonse","8729.5","img/question_1_11.jpeg","3","mat_11","4","1","1","8729.5","","","","","","","","","","","","","","","","","","","","",""
"","","","","","html-keyboard-response","26","115153","0.0-2.0-2.0-0.11","5ca4d7e75d545300110b7545","A3","batch1","spm_show_trial_num","null","<p class=block-text>Trial 12 out of 60</p>","null","","","","","","","","","","","","","","","","","","","","","","","","","",""
"","","","","","image-button-response","27","128829","0.0-2.0-2.0-1.11","5ca4d7e75d545300110b7545","A3","batch1","spm_respsonse","13675.099999997765","img/question_1_12.jpeg","0","mat_12","5","0","0","13675.099999997765","","","","","","","","","","","","","","","","","","","","",""
"","","","","","html-keyboard-response","28","129881","0.0-2.0-2.0-0.12","5ca4d7e75d545300110b7545","A3","batch1","spm_show_trial_num","null","<p class=block-text>Trial 13 out of 60</p>","null","","","","","","","","","","","","","","","","","","","","","","","","","",""
"","","","","","image-button-response","29","133549","0.0-2.0-2.0-1.12","5ca4d7e75d545300110b7545","A3","batch1","spm_respsonse","3664.5","img/question_2_1.jpeg","1","mat_13","2","1","1","3664.5","","","","","","","","","","","","","","","","","","","","",""
"","","","","","html-keyboard-response","30","134600","0.0-2.0-2.0-0.13","5ca4d7e75d545300110b7545","A3","batch1","spm_show_trial_num","null","<p class=block-text>Trial 14 out of 60</p>","null","","","","","","","","","","","","","","","","","","","","","","","","","",""
"","","","","","image-button-response","31","141058","0.0-2.0-2.0-1.13","5ca4d7e75d545300110b7545","A3","batch1","spm_respsonse","6457.10000000149","img/question_2_2.jpeg","5","mat_14","6","1","1","6457.10000000149","","","","","","","","","","","","","","","","","","","","",""
"","","","","","html-keyboard-response","32","142114","0.0-2.0-2.0-0.14","5ca4d7e75d545300110b7545","A3","batch1","spm_show_trial_num","null","<p class=block-text>Trial 15 out of 60</p>","null","","","","","","","","","","","","","","","","","","","","","","","","","",""
"","","","","","image-button-response","33","144869","0.0-2.0-2.0-1.14","5ca4d7e75d545300110b7545","A3","batch1","spm_respsonse","2752.300000000745","img/question_2_3.jpeg","0","mat_15","1","1","1","2752.300000000745","","","","","","","","","","","","","","","","","","","","",""
"","","","","","html-keyboard-response","34","145921","0.0-2.0-2.0-0.15","5ca4d7e75d545300110b7545","A3","batch1","spm_show_trial_num","null","<p class=block-text>Trial 16 out of 60</p>","null","","","","","","","","","","","","","","","","","","","","","","","","","",""
"","","","","","image-button-response","35","148966","0.0-2.0-2.0-1.15","5ca4d7e75d545300110b7545","A3","batch1","spm_respsonse","3044.2999999970198","img/question_2_4.jpeg","1","mat_16","2","1","1","3044.2999999970198","","","","","","","","","","","","","","","","","","","","",""
"","","","","","html-keyboard-response","36","150021","0.0-2.0-2.0-0.16","5ca4d7e75d545300110b7545","A3","batch1","spm_show_trial_num","null","<p class=block-text>Trial 17 out of 60</p>","null","","","","","","","","","","","","","","","","","","","","","","","","","",""
"","","","","","image-button-response","37","155115","0.0-2.0-2.0-1.16","5ca4d7e75d545300110b7545","A3","batch1","spm_respsonse","5090.800000000745","img/question_2_5.jpeg","0","mat_17","1","1","1","5090.800000000745","","","","","","","","","","","","","","","","","","","","",""
"","","","","","html-keyboard-response","38","156168","0.0-2.0-2.0-0.17","5ca4d7e75d545300110b7545","A3","batch1","spm_show_trial_num","null","<p class=block-text>Trial 18 out of 60</p>","null","","","","","","","","","","","","","","","","","","","","","","","","","",""
"","","","","","image-button-response","39","160883","0.0-2.0-2.0-1.17","5ca4d7e75d545300110b7545","A3","batch1","spm_respsonse","4714","img/question_2_6.jpeg","2","mat_18","3","1","1","4714","","","","","","","","","","","","","","","","","","","","",""
"","","","","","html-keyboard-response","40","161938","0.0-2.0-2.0-0.18","5ca4d7e75d545300110b7545","A3","batch1","spm_show_trial_num","null","<p class=block-text>Trial 19 out of 60</p>","null","","","","","","","","","","","","","","","","","","","","","","","","","",""
"","","","","","image-button-response","41","167098","0.0-2.0-2.0-1.18","5ca4d7e75d545300110b7545","A3","batch1","spm_respsonse","5158.89999999851","img/question_2_7.jpeg","4","mat_19","5","1","1","5158.89999999851","","","","","","","","","","","","","","","","","","","","",""
"","","","","","html-keyboard-response","42","168155","0.0-2.0-2.0-0.19","5ca4d7e75d545300110b7545","A3","batch1","spm_show_trial_num","null","<p class=block-text>Trial 20 out of 60</p>","null","","","","","","","","","","","","","","","","","","","","","","","","","",""
"","","","","","image-button-response","43","174895","0.0-2.0-2.0-1.19","5ca4d7e75d545300110b7545","A3","batch1","spm_respsonse","6736.699999999255","img/question_2_8.jpeg","5","mat_20","6","1","1","6736.699999999255","","","","","","","","","","","","","","","","","","","","",""
"","","","","","html-keyboard-response","44","175951","0.0-2.0-2.0-0.20","5ca4d7e75d545300110b7545","A3","batch1","spm_show_trial_num","null","<p class=block-text>Trial 21 out of 60</p>","null","","","","","","","","","","","","","","","","","","","","","","","","","",""
"","","","","","image-button-response","45","180502","0.0-2.0-2.0-1.20","5ca4d7e75d545300110b7545","A3","batch1","spm_respsonse","4550.300000000745","img/question_2_9.jpeg","3","mat_21","4","1","1","4550.300000000745","","","","","","","","","","","","","","","","","","","","",""
"","","","","","html-keyboard-response","46","181565","0.0-2.0-2.0-0.21","5ca4d7e75d545300110b7545","A3","batch1","spm_show_trial_num","null","<p class=block-text>Trial 22 out of 60</p>","null","","","","","","","","","","","","","","","","","","","","","","","","","",""
"","","","","","image-button-response","47","191268","0.0-2.0-2.0-1.21","5ca4d7e75d545300110b7545","A3","batch1","spm_respsonse","9701.70000000298","img/question_2_10.jpeg","2","mat_22","3","1","1","9701.70000000298","","","","","","","","","","","","","","","","","","","","",""
"","","","","","html-keyboard-response","48","192328","0.0-2.0-2.0-0.22","5ca4d7e75d545300110b7545","A3","batch1","spm_show_trial_num","null","<p class=block-text>Trial 23 out of 60</p>","null","","","","","","","","","","","","","","","","","","","","","","","","","",""
"","","","","","image-button-response","49","198297","0.0-2.0-2.0-1.22","5ca4d7e75d545300110b7545","A3","batch1","spm_respsonse","5968.400000002235","img/question_2_11.jpeg","3","mat_23","4","1","1","5968.400000002235","","","","","","","","","","","","","","","","","","","","",""
"","","","","","html-keyboard-response","50","199363","0.0-2.0-2.0-0.23","5ca4d7e75d545300110b7545","A3","batch1","spm_show_trial_num","null","<p class=block-text>Trial 24 out of 60</p>","null","","","","","","","","","","","","","","","","","","","","","","","","","",""
"","","","","","image-button-response","51","206601","0.0-2.0-2.0-1.23","5ca4d7e75d545300110b7545","A3","batch1","spm_respsonse","7235.60000000149","img/question_2_12.jpeg","4","mat_24","5","1","1","7235.60000000149","","","","","","","","","","","","","","","","","","","","",""
"","","","","","html-button-response","52","208963","0.0-2.0-3.0","5ca4d7e75d545300110b7545","A3","batch1","attention_check","2101.599999997765","<p class = block-text>Attention check: Please choose 1<br></p>","0","","","true","","","","","","","","","","","","","","","","","","","","","","",""
"","","","","","html-keyboard-response","53","209764","0.0-2.0-4.0-0.0","5ca4d7e75d545300110b7545","A3","batch1","spm_show_trial_num","null","<p class=block-text>Trial 25 out of 60</p>","null","","","","","","","","","","","","","","","","","","","","","","","","","",""
"","","","","","image-button-response","54","216638","0.0-2.0-4.0-1.0","5ca4d7e75d545300110b7545","A3","batch1","spm_respsonse","6873.39999999851","img/question_3_1.jpeg","7","mat_25","8","1","1","6873.39999999851","","","","","","","","","","","","","","","","","","","","",""
"","","","","","html-keyboard-response","55","217697","0.0-2.0-4.0-0.1","5ca4d7e75d545300110b7545","A3","batch1","spm_show_trial_num","null","<p class=block-text>Trial 26 out of 60</p>","null","","","","","","","","","","","","","","","","","","","","","","","","","",""
"","","","","","image-button-response","56","226928","0.0-2.0-4.0-1.1","5ca4d7e75d545300110b7545","A3","batch1","spm_respsonse","9227.39999999851","img/question_3_2.jpeg","1","mat_26","2","1","1","9227.39999999851","","","","","","","","","","","","","","","","","","","","",""
"","","","","","html-keyboard-response","57","227991","0.0-2.0-4.0-0.2","5ca4d7e75d545300110b7545","A3","batch1","spm_show_trial_num","null","<p class=block-text>Trial 27 out of 60</p>","null","","","","","","","","","","","","","","","","","","","","","","","","","",""
"","","","","","image-button-response","58","243165","0.0-2.0-4.0-1.2","5ca4d7e75d545300110b7545","A3","batch1","spm_respsonse","15169.89999999851","img/question_3_3.jpeg","2","mat_27","3","1","1","15169.89999999851","","","","","","","","","","","","","","","","","","","","",""
"","","","","","html-keyboard-response","59","244218","0.0-2.0-4.0-0.3","5ca4d7e75d545300110b7545","A3","batch1","spm_show_trial_num","null","<p class=block-text>Trial 28 out of 60</p>","null","","","","","","","","","","","","","","","","","","","","","","","","","",""
"","","","","","image-button-response","60","259093","0.0-2.0-4.0-1.3","5ca4d7e75d545300110b7545","A3","batch1","spm_respsonse","14873.5","img/question_3_4.jpeg","7","mat_28","8","1","1","14873.5","","","","","","","","","","","","","","","","","","","","",""
"","","","","","html-keyboard-response","61","260156","0.0-2.0-4.0-0.4","5ca4d7e75d545300110b7545","A3","batch1","spm_show_trial_num","null","<p class=block-text>Trial 29 out of 60</p>","null","","","","","","","","","","","","","","","","","","","","","","","","","",""
"","","","","","image-button-response","62","271826","0.0-2.0-4.0-1.4","5ca4d7e75d545300110b7545","A3","batch1","spm_respsonse","11666.39999999851","img/question_3_5.jpeg","6","mat_29","7","1","1","11666.39999999851","","","","","","","","","","","","","","","","","","","","",""
"","","","","","html-keyboard-response","63","272889","0.0-2.0-4.0-0.5","5ca4d7e75d545300110b7545","A3","batch1","spm_show_trial_num","null","<p class=block-text>Trial 30 out of 60</p>","null","","","","","","","","","","","","","","","","","","","","","","","","","",""
"","","","","","image-button-response","64","280754","0.0-2.0-4.0-1.5","5ca4d7e75d545300110b7545","A3","batch1","spm_respsonse","7861.60000000149","img/question_3_6.jpeg","3","mat_30","4","1","1","7861.60000000149","","","","","","","","","","","","","","","","","","","","",""
"","","","","","html-keyboard-response","65","281811","0.0-2.0-4.0-0.6","5ca4d7e75d545300110b7545","A3","batch1","spm_show_trial_num","null","<p class=block-text>Trial 31 out of 60</p>","null","","","","","","","","","","","","","","","","","","","","","","","","","",""
"","","","","","image-button-response","66","290367","0.0-2.0-4.0-1.6","5ca4d7e75d545300110b7545","A3","batch1","spm_respsonse","8552.599999997765","img/question_3_7.jpeg","4","mat_31","5","1","1","8552.599999997765","","","","","","","","","","","","","","","","","","","","",""
"","","","","","html-keyboard-response","67","291430","0.0-2.0-4.0-0.7","5ca4d7e75d545300110b7545","A3","batch1","spm_show_trial_num","null","<p class=block-text>Trial 32 out of 60</p>","null","","","","","","","","","","","","","","","","","","","","","","","","","",""
"","","","","","image-button-response","68","342793","0.0-2.0-4.0-1.7","5ca4d7e75d545300110b7545","A3","batch1","spm_respsonse","51360.199999999255","img/question_3_8.jpeg","3","mat_32","1","0","0","51360.199999999255","","","","","","","","","","","","","","","","","","","","",""
"","","","","","html-keyboard-response","69","343856","0.0-2.0-4.0-0.8","5ca4d7e75d545300110b7545","A3","batch1","spm_show_trial_num","null","<p class=block-text>Trial 33 out of 60</p>","null","","","","","","","","","","","","","","","","","","","","","","","","","",""
"","","","","","image-button-response","70","357041","0.0-2.0-4.0-1.8","5ca4d7e75d545300110b7545","A3","batch1","spm_respsonse","13181.5","img/question_3_9.jpeg","6","mat_33","7","1","1","13181.5","","","","","","","","","","","","","","","","","","","","",""
"","","","","","html-keyboard-response","71","358094","0.0-2.0-4.0-0.9","5ca4d7e75d545300110b7545","A3","batch1","spm_show_trial_num","null","<p class=block-text>Trial 34 out of 60</p>","null","","","","","","","","","","","","","","","","","","","","","","","","","",""
"","","","","","image-button-response","72","378651","0.0-2.0-4.0-1.9","5ca4d7e75d545300110b7545","A3","batch1","spm_respsonse","20552.699999999255","img/question_3_10.jpeg","5","mat_34","6","1","1","20552.699999999255","","","","","","","","","","","","","","","","","","","","",""
"","","","","","html-keyboard-response","73","379703","0.0-2.0-4.0-0.10","5ca4d7e75d545300110b7545","A3","batch1","spm_show_trial_num","null","<p class=block-text>Trial 35 out of 60</p>","null","","","","","","","","","","","","","","","","","","","","","","","","","",""
"","","","","","image-button-response","74","402754","0.0-2.0-4.0-1.10","5ca4d7e75d545300110b7545","A3","batch1","spm_respsonse","23050","img/question_3_11.jpeg","0","mat_35","1","1","1","23050","","","","","","","","","","","","","","","","","","","","",""
"","","","","","html-keyboard-response","75","403809","0.0-2.0-4.0-0.11","5ca4d7e75d545300110b7545","A3","batch1","spm_show_trial_num","null","<p class=block-text>Trial 36 out of 60</p>","null","","","","","","","","","","","","","","","","","","","","","","","","","",""
"","","","","","image-button-response","76","425605","0.0-2.0-4.0-1.11","5ca4d7e75d545300110b7545","A3","batch1","spm_respsonse","21793.400000002235","img/question_3_12.jpeg","2","mat_36","2","0","0","21793.400000002235","","","","","","","","","","","","","","","","","","","","",""
"","","","","","html-keyboard-response","77","426656","0.0-2.0-4.0-0.12","5ca4d7e75d545300110b7545","A3","batch1","spm_show_trial_num","null","<p class=block-text>Trial 37 out of 60</p>","null","","","","","","","","","","","","","","","","","","","","","","","","","",""
"","","","","","image-button-response","78","430824","0.0-2.0-4.0-1.12","5ca4d7e75d545300110b7545","A3","batch1","spm_respsonse","4166.699999999255","img/question_4_1.jpeg","2","mat_37","3","1","1","4166.699999999255","","","","","","","","","","","","","","","","","","","","",""
"","","","","","html-keyboard-response","79","431886","0.0-2.0-4.0-0.13","5ca4d7e75d545300110b7545","A3","batch1","spm_show_trial_num","null","<p class=block-text>Trial 38 out of 60</p>","null","","","","","","","","","","","","","","","","","","","","","","","","","",""
"","","","","","image-button-response","80","441893","0.0-2.0-4.0-1.13","5ca4d7e75d545300110b7545","A3","batch1","spm_respsonse","10003.199999999255","img/question_4_2.jpeg","3","mat_38","4","1","1","10003.199999999255","","","","","","","","","","","","","","","","","","","","",""
"","","","","","html-keyboard-response","81","442944","0.0-2.0-4.0-0.14","5ca4d7e75d545300110b7545","A3","batch1","spm_show_trial_num","null","<p class=block-text>Trial 39 out of 60</p>","null","","","","","","","","","","","","","","","","","","","","","","","","","",""
"","","","","","image-button-response","82","455348","0.0-2.0-4.0-1.14","5ca4d7e75d545300110b7545","A3","batch1","spm_respsonse","12400.39999999851","img/question_4_3.jpeg","2","mat_39","3","1","1","12400.39999999851","","","","","","","","","","","","","","","","","","","","",""
"","","","","","html-keyboard-response","83","456401","0.0-2.0-4.0-0.15","5ca4d7e75d545300110b7545","A3","batch1","spm_show_trial_num","null","<p class=block-text>Trial 40 out of 60</p>","null","","","","","","","","","","","","","","","","","","","","","","","","","",""
"","","","","","image-button-response","84","464272","0.0-2.0-4.0-1.15","5ca4d7e75d545300110b7545","A3","batch1","spm_respsonse","7869.89999999851","img/question_4_4.jpeg","6","mat_40","7","1","1","7869.89999999851","","","","","","","","","","","","","","","","","","","","",""
"","","","","","html-keyboard-response","85","465326","0.0-2.0-4.0-0.16","5ca4d7e75d545300110b7545","A3","batch1","spm_show_trial_num","null","<p class=block-text>Trial 41 out of 60</p>","null","","","","","","","","","","","","","","","","","","","","","","","","","",""
"","","","","","image-button-response","86","488216","0.0-2.0-4.0-1.16","5ca4d7e75d545300110b7545","A3","batch1","spm_respsonse","22886.699999999255","img/question_4_5.jpeg","7","mat_41","8","1","1","22886.699999999255","","","","","","","","","","","","","","","","","","","","",""
"","","","","","html-keyboard-response","87","489270","0.0-2.0-4.0-0.17","5ca4d7e75d545300110b7545","A3","batch1","spm_show_trial_num","null","<p class=block-text>Trial 42 out of 60</p>","null","","","","","","","","","","","","","","","","","","","","","","","","","",""
"","","","","","image-button-response","88","505208","0.0-2.0-4.0-1.17","5ca4d7e75d545300110b7545","A3","batch1","spm_respsonse","15937.5","img/question_4_6.jpeg","5","mat_42","6","1","1","15937.5","","","","","","","","","","","","","","","","","","","","",""
"","","","","","html-keyboard-response","89","506265","0.0-2.0-4.0-0.18","5ca4d7e75d545300110b7545","A3","batch1","spm_show_trial_num","null","<p class=block-text>Trial 43 out of 60</p>","null","","","","","","","","","","","","","","","","","","","","","","","","","",""
"","","","","","image-button-response","90","517330","0.0-2.0-4.0-1.18","5ca4d7e75d545300110b7545","A3","batch1","spm_respsonse","11063.5","img/question_4_7.jpeg","4","mat_43","5","1","1","11063.5","","","","","","","","","","","","","","","","","","","","",""
"","","","","","html-keyboard-response","91","518382","0.0-2.0-4.0-0.19","5ca4d7e75d545300110b7545","A3","batch1","spm_show_trial_num","null","<p class=block-text>Trial 44 out of 60</p>","null","","","","","","","","","","","","","","","","","","","","","","","","","",""
"","","","","","image-button-response","92","532272","0.0-2.0-4.0-1.19","5ca4d7e75d545300110b7545","A3","batch1","spm_respsonse","13885.89999999851","img/question_4_8.jpeg","3","mat_44","4","1","1","13885.89999999851","","","","","","","","","","","","","","","","","","","","",""
"","","","","","html-keyboard-response","93","533332","0.0-2.0-4.0-0.20","5ca4d7e75d545300110b7545","A3","batch1","spm_show_trial_num","null","<p class=block-text>Trial 45 out of 60</p>","null","","","","","","","","","","","","","","","","","","","","","","","","","",""
"","","","","","image-button-response","94","617701","0.0-2.0-4.0-1.20","5ca4d7e75d545300110b7545","A3","batch1","spm_respsonse","84365","img/question_4_9.jpeg","1","mat_45","1","0","0","84365","","","","","","","","","","","","","","","","","","","","",""
"","","","","","html-keyboard-response","95","618754","0.0-2.0-4.0-0.21","5ca4d7e75d545300110b7545","A3","batch1","spm_show_trial_num","null","<p class=block-text>Trial 46 out of 60</p>","null","","","","","","","","","","","","","","","","","","","","","","","","","",""
"","","","","","image-button-response","96","667299","0.0-2.0-4.0-1.21","5ca4d7e75d545300110b7545","A3","batch1","spm_respsonse","48541","img/question_4_10.jpeg","1","mat_46","2","1","1","48541","","","","","","","","","","","","","","","","","","","","",""
"","","","","","html-keyboard-response","97","668359","0.0-2.0-4.0-0.22","5ca4d7e75d545300110b7545","A3","batch1","spm_show_trial_num","null","<p class=block-text>Trial 47 out of 60</p>","null","","","","","","","","","","","","","","","","","","","","","","","","","",""
"","","","","","image-button-response","98","699760","0.0-2.0-4.0-1.22","5ca4d7e75d545300110b7545","A3","batch1","spm_respsonse","31398.099999997765","img/question_4_11.jpeg","1","mat_47","5","0","0","31398.099999997765","","","","","","","","","","","","","","","","","","","","",""
"","","","","","html-keyboard-response","99","700812","0.0-2.0-4.0-0.23","5ca4d7e75d545300110b7545","A3","batch1","spm_show_trial_num","null","<p class=block-text>Trial 48 out of 60</p>","null","","","","","","","","","","","","","","","","","","","","","","","","","",""
"","","","","","image-button-response","100","750711","0.0-2.0-4.0-1.23","5ca4d7e75d545300110b7545","A3","batch1","spm_respsonse","49895.599999997765","img/question_4_12.jpeg","6","mat_48","6","0","0","49895.599999997765","","","","","","","","","","","","","","","","","","","","",""
"","","","","","html-keyboard-response","101","751775","0.0-2.0-4.0-0.24","5ca4d7e75d545300110b7545","A3","batch1","spm_show_trial_num","null","<p class=block-text>Trial 49 out of 60</p>","null","","","","","","","","","","","","","","","","","","","","","","","","","",""
"","","","","","image-button-response","102","763027","0.0-2.0-4.0-1.24","5ca4d7e75d545300110b7545","A3","batch1","spm_respsonse","11251","img/question_5_1.jpeg","6","mat_49","7","1","1","11251","","","","","","","","","","","","","","","","","","","","",""
"","","","","","html-keyboard-response","103","764089","0.0-2.0-4.0-0.25","5ca4d7e75d545300110b7545","A3","batch1","spm_show_trial_num","null","<p class=block-text>Trial 50 out of 60</p>","null","","","","","","","","","","","","","","","","","","","","","","","","","",""
"","","","","","image-button-response","104","796480","0.0-2.0-4.0-1.25","5ca4d7e75d545300110b7545","A3","batch1","spm_respsonse","32388.099999997765","img/question_5_2.jpeg","5","mat_50","6","1","1","32388.099999997765","","","","","","","","","","","","","","","","","","","","",""
"","","","","","html-keyboard-response","105","797532","0.0-2.0-4.0-0.26","5ca4d7e75d545300110b7545","A3","batch1","spm_show_trial_num","null","<p class=block-text>Trial 51 out of 60</p>","null","","","","","","","","","","","","","","","","","","","","","","","","","",""
"","","","","","image-button-response","106","861342","0.0-2.0-4.0-1.26","5ca4d7e75d545300110b7545","A3","batch1","spm_respsonse","63809","img/question_5_3.jpeg","7","mat_51","8","1","1","63809","","","","","","","","","","","","","","","","","","","","",""
"","","","","","html-keyboard-response","107","862402","0.0-2.0-4.0-0.27","5ca4d7e75d545300110b7545","A3","batch1","spm_show_trial_num","null","<p class=block-text>Trial 52 out of 60</p>","null","","","","","","","","","","","","","","","","","","","","","","","","","",""
"","","","","","image-button-response","108","871308","0.0-2.0-4.0-1.27","5ca4d7e75d545300110b7545","A3","batch1","spm_respsonse","8902.400000002235","img/question_5_4.jpeg","1","mat_52","2","1","1","8902.400000002235","","","","","","","","","","","","","","","","","","","","",""
"","","","","","html-keyboard-response","109","872369","0.0-2.0-4.0-0.28","5ca4d7e75d545300110b7545","A3","batch1","spm_show_trial_num","null","<p class=block-text>Trial 53 out of 60</p>","null","","","","","","","","","","","","","","","","","","","","","","","","","",""
"","","","","","image-button-response","110","946516","0.0-2.0-4.0-1.28","5ca4d7e75d545300110b7545","A3","batch1","spm_respsonse","74143.69999999925","img/question_5_5.jpeg","0","mat_53","1","1","1","74143.69999999925","","","","","","","","","","","","","","","","","","","","",""
"","","","","","html-keyboard-response","111","947568","0.0-2.0-4.0-0.29","5ca4d7e75d545300110b7545","A3","batch1","spm_show_trial_num","null","<p class=block-text>Trial 54 out of 60</p>","null","","","","","","","","","","","","","","","","","","","","","","","","","",""
"","","","","","image-button-response","112","1017987","0.0-2.0-4.0-1.29","5ca4d7e75d545300110b7545","A3","batch1","spm_respsonse","70415.09999999776","img/question_5_6.jpeg","4","mat_54","5","1","1","70415.09999999776","","","","","","","","","","","","","","","","","","","","",""
"","","","","","html-keyboard-response","113","1019054","0.0-2.0-4.0-0.30","5ca4d7e75d545300110b7545","A3","batch1","spm_show_trial_num","null","<p class=block-text>Trial 55 out of 60</p>","null","","","","","","","","","","","","","","","","","","","","","","","","","",""
"","","","","","image-button-response","114","1095172","0.0-2.0-4.0-1.30","5ca4d7e75d545300110b7545","A3","batch1","spm_respsonse","76116.10000000149","img/question_5_7.jpeg","0","mat_55","1","1","1","76116.10000000149","","","","","","","","","","","","","","","","","","","","",""
"","","","","","html-keyboard-response","115","1096228","0.0-2.0-4.0-0.31","5ca4d7e75d545300110b7545","A3","batch1","spm_show_trial_num","null","<p class=block-text>Trial 56 out of 60</p>","null","","","","","","","","","","","","","","","","","","","","","","","","","",""
"","","","","","image-button-response","116","1143114","0.0-2.0-4.0-1.31","5ca4d7e75d545300110b7545","A3","batch1","spm_respsonse","46881.900000002235","img/question_5_8.jpeg","5","mat_56","6","1","1","46881.900000002235","","","","","","","","","","","","","","","","","","","","",""
"","","","","","html-keyboard-response","117","1144169","0.0-2.0-4.0-0.32","5ca4d7e75d545300110b7545","A3","batch1","spm_show_trial_num","null","<p class=block-text>Trial 57 out of 60</p>","null","","","","","","","","","","","","","","","","","","","","","","","","","",""
"","","","","","image-button-response","118","1180530","0.0-2.0-4.0-1.32","5ca4d7e75d545300110b7545","A3","batch1","spm_respsonse","36358.800000000745","img/question_5_9.jpeg","2","mat_57","3","1","1","36358.800000000745","","","","","","","","","","","","","","","","","","","","",""
"","","","","","html-keyboard-response","119","1181596","0.0-2.0-4.0-0.33","5ca4d7e75d545300110b7545","A3","batch1","spm_show_trial_num","null","<p class=block-text>Trial 58 out of 60</p>","null","","","","","","","","","","","","","","","","","","","","","","","","","",""
"","","","","","image-button-response","120","1262113","0.0-2.0-4.0-1.33","5ca4d7e75d545300110b7545","A3","batch1","spm_respsonse","80513.79999999702","img/question_5_10.jpeg","2","mat_58","2","0","0","80513.79999999702","","","","","","","","","","","","","","","","","","","","",""
"","","","","","html-keyboard-response","121","1263164","0.0-2.0-4.0-0.34","5ca4d7e75d545300110b7545","A3","batch1","spm_show_trial_num","null","<p class=block-text>Trial 59 out of 60</p>","null","","","","","","","","","","","","","","","","","","","","","","","","","",""
"","","","","","image-button-response","122","1343560","0.0-2.0-4.0-1.34","5ca4d7e75d545300110b7545","A3","batch1","spm_respsonse","80391.59999999776","img/question_5_11.jpeg","6","mat_59","4","0","0","80391.59999999776","","","","","","","","","","","","","","","","","","","","",""
"","","","","","html-keyboard-response","123","1344628","0.0-2.0-4.0-0.35","5ca4d7e75d545300110b7545","A3","batch1","spm_show_trial_num","null","<p class=block-text>Trial 60 out of 60</p>","null","","","","","","","","","","","","","","","","","","","","","","","","","",""
"","","","","","image-button-response","124","1400413","0.0-2.0-4.0-1.35","5ca4d7e75d545300110b7545","A3","batch1","spm_respsonse","55782.300000000745","img/question_5_12.jpeg","3","mat_60","5","0","0","55782.300000000745","","","","","","","","","","","","","","","","","","","","",""
"","","","","","html-button-response","125","1403142","0.0-2.0-5.0","5ca4d7e75d545300110b7545","A3","batch1","spm_goodbye","2477.60000000149","<p class= block-text>This concludes the Standard Progressive Matrix game. Thank you for your responses!<br> When you are ready, click the button continue</p>","0","","","","","","","","","","","","","","","","","","","","","","","","","",""
"true","","","","","fullscreen","126","1407165","0.0-3.0-0.0","5ca4d7e75d545300110b7545","A3","batch1","","","","","","","","","","","","","","","","","","","","","","","","","","","","","",""
"","","","","","instructions","127","1420703","0.0-3.0-1.0-0.0","5ca4d7e75d545300110b7545","A3","batch1","","13536.39999999851","","","","","","","","[{""page_index"":0,""viewing_time"":8494.29999999702},{""page_index"":1,""viewing_time"":5042}]","","","","","","","","","","","","","","","","","","","",""
"","","","","","html-button-response","128","1422200","0.0-3.0-1.0-1.0-0.0","5ca4d7e75d545300110b7545","A3","batch1","pattern_enter_quiz","1496.4000000022352","<p class=block-text> Let's answer a few questions <br>","0","","","","","","","","","","","","","","","","","","","","","","","","","",""
"","","","","","html-button-response","129","1424141","0.0-3.0-1.0-1.0-1.0","5ca4d7e75d545300110b7545","A3","batch1","pattern_quiz","1939.9000000022352","<p class = block-text>True or False: You will have as much time as you want to make each choice. <br></p>","1","","","true","","","","","","","","","","","","","","","","","","","","","","",""
"","","","","","html-button-response","130","1425437","0.0-3.0-1.0-1.0-2.0","5ca4d7e75d545300110b7545","A3","batch1","pattern_quiz_feedback","1294.699999999255","<p class = block-text>Correct! You should make your choice <strong> as fast as you can</strong>.</p>","0","","","","","","","","","","","","","","","","","","","","","","","","","",""
"","","","","","html-button-response","131","1429578","0.0-3.0-1.0-1.0-3.0","5ca4d7e75d545300110b7545","A3","batch1","pattern_quiz","4140.300000000745","<p class = block-text>True or False: You will look for 4 pieces in black or white color connected in a row either horizontally, vertically or diagonally. <br></p>","0","","","true","","","","","","","","","","","","","","","","","","","","","","",""
"","","","","","html-button-response","132","1430843","0.0-3.0-1.0-1.0-4.0","5ca4d7e75d545300110b7545","A3","batch1","pattern_quiz_feedback","1264.0999999977648","<p class = block-text>Correct! </p>","0","","","","","","","","","","","","","","","","","","","","","","","","","",""
"","","","","","html-button-response","133","1432517","0.0-3.0-2.0","5ca4d7e75d545300110b7545","A3","batch1","pattern_enter_practice","1672.5","<p class=block-text> Now that you've understood the game, let's do a few practice trials before we start!<br> <br>","0","","","","","","","","","","","","","","","","","","","","","","","","","",""
"","","","","","image-keyboard-response","134","1434610","0.0-3.0-3.0-0.0","5ca4d7e75d545300110b7545","A3","batch1","pattern_practice","2092.400000002235","stim/prac_no_16_1.png","j","","j","true","","","","","","","","","","","","","","","","","","","","","","",""
"","","","","","html-keyboard-response","135","1435618","0.0-3.0-3.0-1.0","5ca4d7e75d545300110b7545","A3","batch1","pattern_feedback","null","<p style=""font-size:30px;color:green;"">Correct!</p>","null","","","","","","","","","","","","","","","","","","","","","","","","","",""
"","","","","","image-keyboard-response","136","1436983","0.0-3.0-3.0-0.1","5ca4d7e75d545300110b7545","A3","batch1","pattern_practice","1364.3999999985099","stim/prac_yes_16_ver_w1.png","f","","f","true","","","","","","","","","","","","","","","","","","","","","","",""
"","","","","","html-keyboard-response","137","1437986","0.0-3.0-3.0-1.1","5ca4d7e75d545300110b7545","A3","batch1","pattern_feedback","null","<p style=""font-size:30px;color:green;"">Correct!</p>","null","","","","","","","","","","","","","","","","","","","","","","","","","",""
"","","","","","image-keyboard-response","138","1439924","0.0-3.0-3.0-0.2","5ca4d7e75d545300110b7545","A3","batch1","pattern_practice","1936.5","stim/prac_yes_20_dia_b1.png","j","","f","false","","","","","","","","","","","","","","","","","","","","","","",""
"","","","","","html-keyboard-response","139","1440938","0.0-3.0-3.0-1.2","5ca4d7e75d545300110b7545","A3","batch1","pattern_feedback","null","<p style=""font-size:30px;color:red;"">Wrong.</p>","null","","","","","","","","","","","","","","","","","","","","","","","","","",""
"","","","","","image-keyboard-response","140","1441975","0.0-3.0-3.0-0.3","5ca4d7e75d545300110b7545","A3","batch1","pattern_practice","1034.4000000022352","stim/prac_yes_18_hor_w1.png","f","","f","true","","","","","","","","","","","","","","","","","","","","","","",""
"","","","","","html-keyboard-response","141","1442980","0.0-3.0-3.0-1.3","5ca4d7e75d545300110b7545","A3","batch1","pattern_feedback","null","<p style=""font-size:30px;color:green;"">Correct!</p>","null","","","","","","","","","","","","","","","","","","","","","","","","","",""
"","","","","","image-keyboard-response","142","1445320","0.0-3.0-3.0-0.4","5ca4d7e75d545300110b7545","A3","batch1","pattern_practice","2337.60000000149","stim/prac_no_18_1.png","j","","j","true","","","","","","","","","","","","","","","","","","","","","","",""
"","","","","","html-keyboard-response","143","1446335","0.0-3.0-3.0-1.4","5ca4d7e75d545300110b7545","A3","batch1","pattern_feedback","null","<p style=""font-size:30px;color:green;"">Correct!</p>","null","","","","","","","","","","","","","","","","","","","","","","","","","",""
"","","","","","html-button-response","144","1450257","0.0-3.0-4.0","5ca4d7e75d545300110b7545","A3","batch1","pattern_enter_official_trials","3918.5","<p class=block-text> Good job! You are done with practice trials!<br>
        You responded correctly on 80% of the trials.<br>
        Press the button below to start official trials. Now you won't see any feedback about your response</p>","0","","","","","","","","","","","","","","","","","","","","","","","","","",""
"","","","","","html-keyboard-response","145","1451057","0.0-3.0-5.0-0.0","5ca4d7e75d545300110b7545","A3","batch1","pattern_show_trial_num","null","<p class=block-text>Trial 1 out of 78</p>","null","","","","","","","","","","","","","","","","","","","","","","","","","",""
"","","","","","image-keyboard-response","146","1456491","0.0-3.0-5.0-1.0","5ca4d7e75d545300110b7545","A3","batch1","pattern_response","5430","stim/no_49_2_b.png","j","pattern_29","j","true","","","","5430","true","1","","","","","","","","","","","","","","","","",""
"","","","","","html-keyboard-response","147","1457811","0.0-3.0-5.0-0.1","5ca4d7e75d545300110b7545","A3","batch1","pattern_show_trial_num","null","<p class=block-text>Trial 2 out of 78</p>","null","","","","","","","","","","","","","","","","","","","","","","","","","",""
"","","","","","image-keyboard-response","148","1465577","0.0-3.0-5.0-1.1","5ca4d7e75d545300110b7545","A3","batch1","pattern_response","7763.5","stim/no_45_1_w.png","j","pattern_25","j","true","","","","7763.5","true","2","","","","","","","","","","","","","","","","",""
"","","","","","html-keyboard-response","149","1466882","0.0-3.0-5.0-0.2","5ca4d7e75d545300110b7545","A3","batch1","pattern_show_trial_num","null","<p class=block-text>Trial 3 out of 78</p>","null","","","","","","","","","","","","","","","","","","","","","","","","","",""
"","","","","","image-keyboard-response","150","1468316","0.0-3.0-5.0-1.2","5ca4d7e75d545300110b7545","A3","batch1","pattern_response","1430.8999999985099","stim/yes_23_ver_b1.png","f","pattern_48","f","true","","","","1430.8999999985099","true","3","","","","","","","","","","","","","","","","",""
"","","","","","html-keyboard-response","151","1469624","0.0-3.0-5.0-0.3","5ca4d7e75d545300110b7545","A3","batch1","pattern_show_trial_num","null","<p class=block-text>Trial 4 out of 78</p>","null","","","","","","","","","","","","","","","","","","","","","","","","","",""
"","","","","","image-keyboard-response","152","1472785","0.0-3.0-5.0-1.3","5ca4d7e75d545300110b7545","A3","batch1","pattern_response","3158.5","stim/no_25_1_b.png","j","pattern_09","j","true","","","","3158.5","true","4","","","","","","","","","","","","","","","","",""
"","","","","","html-keyboard-response","153","1474097","0.0-3.0-5.0-0.4","5ca4d7e75d545300110b7545","A3","batch1","pattern_show_trial_num","null","<p class=block-text>Trial 5 out of 78</p>","null","","","","","","","","","","","","","","","","","","","","","","","","","",""
"","","","","","image-keyboard-response","154","1482287","0.0-3.0-5.0-1.4","5ca4d7e75d545300110b7545","A3","batch1","pattern_response","8187","stim/no_67_1.png","j","pattern_39","j","true","","","","8187","true","5","","","","","","","","","","","","","","","","",""
"","","","","","html-keyboard-response","155","1483597","0.0-3.0-5.0-0.5","5ca4d7e75d545300110b7545","A3","batch1","pattern_show_trial_num","null","<p class=block-text>Trial 6 out of 78</p>","null","","","","","","","","","","","","","","","","","","","","","","","","","",""
"","","","","","image-keyboard-response","156","1491890","0.0-3.0-5.0-1.5","5ca4d7e75d545300110b7545","A3","batch1","pattern_response","8289.89999999851","stim/yes_42_dia_w1_w.png","j","pattern_64","f","false","","","","8289.89999999851","false","5","","","","","","","","","","","","","","","","",""
"","","","","","html-keyboard-response","157","1493206","0.0-3.0-5.0-0.6","5ca4d7e75d545300110b7545","A3","batch1","pattern_show_trial_num","null","<p class=block-text>Trial 7 out of 78</p>","null","","","","","","","","","","","","","","","","","","","","","","","","","",""
"","","","","","image-keyboard-response","158","1494594","0.0-3.0-5.0-1.6","5ca4d7e75d545300110b7545","A3","batch1","pattern_response","1384.8999999985099","stim/yes_36_ver_w1_w.png","f","pattern_58","f","true","","","","1384.8999999985099","true","6","","","","","","","","","","","","","","","","",""
"","","","","","html-keyboard-response","159","1495916","0.0-3.0-5.0-0.7","5ca4d7e75d545300110b7545","A3","batch1","pattern_show_trial_num","null","<p class=block-text>Trial 8 out of 78</p>","null","","","","","","","","","","","","","","","","","","","","","","","","","",""
"","","","","","image-keyboard-response","160","1500920","0.0-3.0-5.0-1.7","5ca4d7e75d545300110b7545","A3","batch1","pattern_response","5002.5","stim/yes_63_dia_b1.png","f","pattern_78","f","true","","","","5002.5","true","7","","","","","","","","","","","","","","","","",""
"","","","","","html-keyboard-response","161","1502233","0.0-3.0-5.0-0.8","5ca4d7e75d545300110b7545","A3","batch1","pattern_show_trial_num","null","<p class=block-text>Trial 9 out of 78</p>","null","","","","","","","","","","","","","","","","","","","","","","","","","",""
"","","","","","image-keyboard-response","162","1503385","0.0-3.0-5.0-1.8","5ca4d7e75d545300110b7545","A3","batch1","pattern_response","1151.5","stim/yes_33_dia_w1_w.png","f","pattern_56","f","true","","","","1151.5","true","8","","","","","","","","","","","","","","","","",""
"","","","","","html-keyboard-response","163","1504692","0.0-3.0-5.0-0.9","5ca4d7e75d545300110b7545","A3","batch1","pattern_show_trial_num","null","<p class=block-text>Trial 10 out of 78</p>","null","","","","","","","","","","","","","","","","","","","","","","","","","",""
"","","","","","image-keyboard-response","164","1511500","0.0-3.0-5.0-1.9","5ca4d7e75d545300110b7545","A3","batch1","pattern_response","6805.599999997765","stim/no_33_1_b.png","j","pattern_15","j","true","","","","6805.599999997765","true","9","","","","","","","","","","","","","","","","",""
"","","","","","html-keyboard-response","165","1512817","0.0-3.0-5.0-0.10","5ca4d7e75d545300110b7545","A3","batch1","pattern_show_trial_num","null","<p class=block-text>Trial 11 out of 78</p>","null","","","","","","","","","","","","","","","","","","","","","","","","","",""
"","","","","","image-keyboard-response","166","1519061","0.0-3.0-5.0-1.10","5ca4d7e75d545300110b7545","A3","batch1","pattern_response","6241","stim/no_22_1_b.png","j","pattern_07","j","true","","","","6241","true","10","","","","","","","","","","","","","","","","",""
"","","","","","html-keyboard-response","167","1520379","0.0-3.0-5.0-0.11","5ca4d7e75d545300110b7545","A3","batch1","pattern_show_trial_num","null","<p class=block-text>Trial 12 out of 78</p>","null","","","","","","","","","","","","","","","","","","","","","","","","","",""
"","","","","","image-keyboard-response","168","1521543","0.0-3.0-5.0-1.11","5ca4d7e75d545300110b7545","A3","batch1","pattern_response","1161.199999999255","stim/yes_17_ver_b1_b.png","f","pattern_46","f","true","","","","1161.199999999255","true","11","","","","","","","","","","","","","","","","",""
"","","","","","html-keyboard-response","169","1522860","0.0-3.0-5.0-0.12","5ca4d7e75d545300110b7545","A3","batch1","pattern_show_trial_num","null","<p class=block-text>Trial 13 out of 78</p>","null","","","","","","","","","","","","","","","","","","","","","","","","","",""
"","","","","","image-keyboard-response","170","1524084","0.0-3.0-5.0-1.12","5ca4d7e75d545300110b7545","A3","batch1","pattern_response","1221.199999999255","stim/yes_39_hor_w1_w.png","f","pattern_62","f","true","","","","1221.199999999255","true","12","","","","","","","","","","","","","","","","",""
"","","","","","html-keyboard-response","171","1525398","0.0-3.0-5.0-0.13","5ca4d7e75d545300110b7545","A3","batch1","pattern_show_trial_num","null","<p class=block-text>Trial 14 out of 78</p>","null","","","","","","","","","","","","","","","","","","","","","","","","","",""
"","","","","","image-keyboard-response","172","1533834","0.0-3.0-5.0-1.13","5ca4d7e75d545300110b7545","A3","batch1","pattern_response","8434.60000000149","stim/no_53_1_b.png","j","pattern_33","j","true","","","","8434.60000000149","true","13","","","","","","","","","","","","","","","","",""
"","","","","","html-keyboard-response","173","1535146","0.0-3.0-5.0-0.14","5ca4d7e75d545300110b7545","A3","batch1","pattern_show_trial_num","null","<p class=block-text>Trial 15 out of 78</p>","null","","","","","","","","","","","","","","","","","","","","","","","","","",""
"","","","","","image-keyboard-response","174","1537058","0.0-3.0-5.0-1.14","5ca4d7e75d545300110b7545","A3","batch1","pattern_response","1909.2999999970198","stim/yes_26_dia_w2_w.png","f","pattern_50","f","true","","","","1909.2999999970198","true","14","","","","","","","","","","","","","","","","",""
"","","","","","html-keyboard-response","175","1538374","0.0-3.0-5.0-0.15","5ca4d7e75d545300110b7545","A3","batch1","pattern_show_trial_num","null","<p class=block-text>Trial 16 out of 78</p>","null","","","","","","","","","","","","","","","","","","","","","","","","","",""
"","","","","","image-keyboard-response","176","1542053","0.0-3.0-5.0-1.15","5ca4d7e75d545300110b7545","A3","batch1","pattern_response","3675.7000000029802","stim/yes_51_dia_b1.png","f","pattern_72","f","true","","","","3675.7000000029802","true","15","","","","","","","","","","","","","","","","",""
"","","","","","html-keyboard-response","177","1543370","0.0-3.0-5.0-0.16","5ca4d7e75d545300110b7545","A3","batch1","pattern_show_trial_num","null","<p class=block-text>Trial 17 out of 78</p>","null","","","","","","","","","","","","","","","","","","","","","","","","","",""
"","","","","","image-keyboard-response","178","1544551","0.0-3.0-5.0-1.16","5ca4d7e75d545300110b7545","A3","batch1","pattern_response","1178.300000000745","stim/yes_15_dia_b1u_b.png","f","pattern_44","f","true","","","","1178.300000000745","true","16","","","","","","","","","","","","","","","","",""
"","","","","","html-keyboard-response","179","1545861","0.0-3.0-5.0-0.17","5ca4d7e75d545300110b7545","A3","batch1","pattern_show_trial_num","null","<p class=block-text>Trial 18 out of 78</p>","null","","","","","","","","","","","","","","","","","","","","","","","","","",""
"","","","","","image-keyboard-response","180","1547296","0.0-3.0-5.0-1.17","5ca4d7e75d545300110b7545","A3","batch1","pattern_response","1433.199999999255","stim/yes_29_hor_b1_b.png","f","pattern_52","f","true","","","","1433.199999999255","true","17","","","","","","","","","","","","","","","","",""
"","","","","","html-keyboard-response","181","1548602","0.0-3.0-5.0-0.18","5ca4d7e75d545300110b7545","A3","batch1","pattern_show_trial_num","null","<p class=block-text>Trial 19 out of 78</p>","null","","","","","","","","","","","","","","","","","","","","","","","","","",""
"","","","","","image-keyboard-response","182","1559146","0.0-3.0-5.0-1.18","5ca4d7e75d545300110b7545","A3","batch1","pattern_response","10541.39999999851","stim/no_58_1_w.png","j","pattern_35","j","true","","","","10541.39999999851","true","18","","","","","","","","","","","","","","","","",""
"","","","","","html-keyboard-response","183","1560448","0.0-3.0-5.0-0.19","5ca4d7e75d545300110b7545","A3","batch1","pattern_show_trial_num","null","<p class=block-text>Trial 20 out of 78</p>","null","","","","","","","","","","","","","","","","","","","","","","","","","",""
"","","","","","image-keyboard-response","184","1565183","0.0-3.0-5.0-1.19","5ca4d7e75d545300110b7545","A3","batch1","pattern_response","4733.60000000149","stim/yes_70_ver_b1.png","f","pattern_80","f","true","","","","4733.60000000149","true","19","","","","","","","","","","","","","","","","",""
"","","","","","html-keyboard-response","185","1566498","0.0-3.0-5.0-0.20","5ca4d7e75d545300110b7545","A3","batch1","pattern_show_trial_num","null","<p class=block-text>Trial 21 out of 78</p>","null","","","","","","","","","","","","","","","","","","","","","","","","","",""
"","","","","","image-keyboard-response","186","1573036","0.0-3.0-5.0-1.20","5ca4d7e75d545300110b7545","A3","batch1","pattern_response","6534.800000000745","stim/no_30_1_b.png","j","pattern_13","j","true","","","","6534.800000000745","true","20","","","","","","","","","","","","","","","","",""
"","","","","","html-keyboard-response","187","1574354","0.0-3.0-5.0-0.21","5ca4d7e75d545300110b7545","A3","batch1","pattern_show_trial_num","null","<p class=block-text>Trial 22 out of 78</p>","null","","","","","","","","","","","","","","","","","","","","","","","","","",""
"","","","","","image-keyboard-response","188","1584495","0.0-3.0-5.0-1.21","5ca4d7e75d545300110b7545","A3","batch1","pattern_response","10137.39999999851","stim/no_39_1_w.png","j","pattern_21","j","true","","","","10137.39999999851","true","21","","","","","","","","","","","","","","","","",""
"","","","","","html-keyboard-response","189","1585808","0.0-3.0-5.0-0.22","5ca4d7e75d545300110b7545","A3","batch1","pattern_show_trial_num","null","<p class=block-text>Trial 23 out of 78</p>","null","","","","","","","","","","","","","","","","","","","","","","","","","",""
"","","","","","image-keyboard-response","190","1587021","0.0-3.0-5.0-1.22","5ca4d7e75d545300110b7545","A3","batch1","pattern_response","1209.8999999985099","stim/yes_46_ver_b1_b.png","f","pattern_68","f","true","","","","1209.8999999985099","true","22","","","","","","","","","","","","","","","","",""
"","","","","","html-keyboard-response","191","1588329","0.0-3.0-5.0-0.23","5ca4d7e75d545300110b7545","A3","batch1","pattern_show_trial_num","null","<p class=block-text>Trial 24 out of 78</p>","null","","","","","","","","","","","","","","","","","","","","","","","","","",""
"","","","","","image-keyboard-response","192","1590415","0.0-3.0-5.0-1.23","5ca4d7e75d545300110b7545","A3","batch1","pattern_response","2083.7999999970198","stim/no_15_1_w.png","j","pattern_03","j","true","","","","2083.7999999970198","true","23","","","","","","","","","","","","","","","","",""
"","","","","","html-keyboard-response","193","1591729","0.0-3.0-5.0-0.24","5ca4d7e75d545300110b7545","A3","batch1","pattern_show_trial_num","null","<p class=block-text>Trial 25 out of 78</p>","null","","","","","","","","","","","","","","","","","","","","","","","","","",""
"","","","","","image-keyboard-response","194","1593659","0.0-3.0-5.0-1.24","5ca4d7e75d545300110b7545","A3","batch1","pattern_response","1924.800000000745","stim/yes_53_ver_b1_b.png","f","pattern_74","f","true","","","","1924.800000000745","true","24","","","","","","","","","","","","","","","","",""
"","","","","","html-keyboard-response","195","1594974","0.0-3.0-5.0-0.25","5ca4d7e75d545300110b7545","A3","batch1","pattern_show_trial_num","null","<p class=block-text>Trial 26 out of 78</p>","null","","","","","","","","","","","","","","","","","","","","","","","","","",""
"","","","","","image-keyboard-response","196","1599435","0.0-3.0-5.0-1.25","5ca4d7e75d545300110b7545","A3","batch1","pattern_response","4459.10000000149","stim/no_28_2.png","j","pattern_11","j","true","","","","4459.10000000149","true","25","","","","","","","","","","","","","","","","",""
"","","","","","html-keyboard-response","197","1600751","0.0-3.0-5.0-0.26","5ca4d7e75d545300110b7545","A3","batch1","pattern_show_trial_num","null","<p class=block-text>Trial 27 out of 78</p>","null","","","","","","","","","","","","","","","","","","","","","","","","","",""
"","","","","","image-keyboard-response","198","1603464","0.0-3.0-5.0-1.26","5ca4d7e75d545300110b7545","A3","batch1","pattern_response","2712.2000000029802","stim/no_18_1_b.png","j","pattern_05","j","true","","","","2712.2000000029802","true","26","","","","","","","","","","","","","","","","",""
"","","","","","html-keyboard-response","199","1604767","0.0-3.0-5.0-0.27","5ca4d7e75d545300110b7545","A3","batch1","pattern_show_trial_num","null","<p class=block-text>Trial 28 out of 78</p>","null","","","","","","","","","","","","","","","","","","","","","","","","","",""
"","","","","","image-keyboard-response","200","1605921","0.0-3.0-5.0-1.27","5ca4d7e75d545300110b7545","A3","batch1","pattern_response","1151.699999999255","stim/yes_49_hor_w1_b.png","f","pattern_70","f","true","","","","1151.699999999255","true","27","","","","","","","","","","","","","","","","",""
"","","","","","html-keyboard-response","201","1607238","0.0-3.0-5.0-0.28","5ca4d7e75d545300110b7545","A3","batch1","pattern_show_trial_num","null","<p class=block-text>Trial 29 out of 78</p>","null","","","","","","","","","","","","","","","","","","","","","","","","","",""
"","","","","","image-keyboard-response","202","1609748","0.0-3.0-5.0-1.28","5ca4d7e75d545300110b7545","A3","batch1","pattern_response","2507.300000000745","stim/no_12_1.png","j","pattern_01","j","true","","","","2507.300000000745","true","28","","","","","","","","","","","","","","","","",""
"","","","","","html-keyboard-response","203","1611068","0.0-3.0-5.0-0.29","5ca4d7e75d545300110b7545","A3","batch1","pattern_show_trial_num","null","<p class=block-text>Trial 30 out of 78</p>","null","","","","","","","","","","","","","","","","","","","","","","","","","",""
"","","","","","image-keyboard-response","204","1612109","0.0-3.0-5.0-1.29","5ca4d7e75d545300110b7545","A3","batch1","pattern_response","1038.8999999985099","stim/yes_12_hor_w1_w.png","f","pattern_42","f","true","","","","1038.8999999985099","true","29","","","","","","","","","","","","","","","","",""
"","","","","","html-keyboard-response","205","1613425","0.0-3.0-5.0-0.30","5ca4d7e75d545300110b7545","A3","batch1","pattern_show_trial_num","null","<p class=block-text>Trial 31 out of 78</p>","null","","","","","","","","","","","","","","","","","","","","","","","","","",""
"","","","","","image-keyboard-response","206","1615217","0.0-3.0-5.0-1.30","5ca4d7e75d545300110b7545","A3","batch1","pattern_response","1789.5999999977648","stim/yes_30_ver_b1_b.png","f","pattern_54","f","true","","","","1789.5999999977648","true","30","","","","","","","","","","","","","","","","",""
"","","","","","html-keyboard-response","207","1616537","0.0-3.0-5.0-0.31","5ca4d7e75d545300110b7545","A3","batch1","pattern_show_trial_num","null","<p class=block-text>Trial 32 out of 78</p>","null","","","","","","","","","","","","","","","","","","","","","","","","","",""
"","","","","","image-keyboard-response","208","1621478","0.0-3.0-5.0-1.31","5ca4d7e75d545300110b7545","A3","batch1","pattern_response","4938.39999999851","stim/no_36_1_b.png","j","pattern_17","j","true","","","","4938.39999999851","true","31","","","","","","","","","","","","","","","","",""
"","","","","","html-keyboard-response","209","1622788","0.0-3.0-5.0-0.32","5ca4d7e75d545300110b7545","A3","batch1","pattern_show_trial_num","null","<p class=block-text>Trial 33 out of 78</p>","null","","","","","","","","","","","","","","","","","","","","","","","","","",""
"","","","","","image-keyboard-response","210","1634471","0.0-3.0-5.0-1.32","5ca4d7e75d545300110b7545","A3","batch1","pattern_response","11679.5","stim/yes_58_dia_w1_w.png","j","pattern_76","f","false","","","","11679.5","false","31","","","","","","","","","","","","","","","","",""
"","","","","","html-keyboard-response","211","1635793","0.0-3.0-5.0-0.33","5ca4d7e75d545300110b7545","A3","batch1","pattern_show_trial_num","null","<p class=block-text>Trial 34 out of 78</p>","null","","","","","","","","","","","","","","","","","","","","","","","","","",""
"","","","","","image-keyboard-response","212","1644018","0.0-3.0-5.0-1.33","5ca4d7e75d545300110b7545","A3","batch1","pattern_response","8222","stim/no_51_1.png","j","pattern_31","j","true","","","","8222","true","32","","","","","","","","","","","","","","","","",""
"","","","","","html-keyboard-response","213","1645333","0.0-3.0-5.0-0.34","5ca4d7e75d545300110b7545","A3","batch1","pattern_show_trial_num","null","<p class=block-text>Trial 35 out of 78</p>","null","","","","","","","","","","","","","","","","","","","","","","","","","",""
"","","","","","image-keyboard-response","214","1650116","0.0-3.0-5.0-1.34","5ca4d7e75d545300110b7545","A3","batch1","pattern_response","4779.900000002235","stim/yes_44_ver_w1_w.png","f","pattern_66","f","true","","","","4779.900000002235","true","33","","","","","","","","","","","","","","","","",""
"","","","","","html-keyboard-response","215","1651429","0.0-3.0-5.0-0.35","5ca4d7e75d545300110b7545","A3","batch1","pattern_show_trial_num","null","<p class=block-text>Trial 36 out of 78</p>","null","","","","","","","","","","","","","","","","","","","","","","","","","",""
"","","","","","image-keyboard-response","216","1663825","0.0-3.0-5.0-1.35","5ca4d7e75d545300110b7545","A3","batch1","pattern_response","12393.39999999851","stim/no_47_1_b.png","j","pattern_27","j","true","","","","12393.39999999851","true","34","","","","","","","","","","","","","","","","",""
"","","","","","html-keyboard-response","217","1665138","0.0-3.0-5.0-0.36","5ca4d7e75d545300110b7545","A3","batch1","pattern_show_trial_num","null","<p class=block-text>Trial 37 out of 78</p>","null","","","","","","","","","","","","","","","","","","","","","","","","","",""
"","","","","","image-keyboard-response","218","1676082","0.0-3.0-5.0-1.36","5ca4d7e75d545300110b7545","A3","batch1","pattern_response","10940.599999997765","stim/no_43_2_b.png","j","pattern_23","j","true","","","","10940.599999997765","true","35","","","","","","","","","","","","","","","","",""
"","","","","","html-keyboard-response","219","1677396","0.0-3.0-5.0-0.37","5ca4d7e75d545300110b7545","A3","batch1","pattern_show_trial_num","null","<p class=block-text>Trial 38 out of 78</p>","null","","","","","","","","","","","","","","","","","","","","","","","","","",""
"","","","","","image-keyboard-response","220","1691258","0.0-3.0-5.0-1.37","5ca4d7e75d545300110b7545","A3","batch1","pattern_response","13859.300000000745","stim/no_37_2_w.png","j","pattern_19","j","true","","","","13859.300000000745","true","36","","","","","","","","","","","","","","","","",""
"","","","","","html-keyboard-response","221","1692576","0.0-3.0-5.0-0.38","5ca4d7e75d545300110b7545","A3","batch1","pattern_show_trial_num","null","<p class=block-text>Trial 39 out of 78</p>","null","","","","","","","","","","","","","","","","","","","","","","","","","",""
"","","","","","image-keyboard-response","222","1693766","0.0-3.0-5.0-1.38","5ca4d7e75d545300110b7545","A3","batch1","pattern_response","1187.699999999255","stim/yes_37_hor_w1_w.png","f","pattern_60","f","true","","","","1187.699999999255","true","37","","","","","","","","","","","","","","","","",""
"","","","","","image-keyboard-response","223","1697533","0.0-3.0-6.0","5ca4d7e75d545300110b7545","A3","batch1","attention_check","3251.400000002235","stim/empty_board.png","j","","j","true","","","","","","","500","[""f"",""j""]","","","","","","","","","","","","","","",""
"","","","","","html-keyboard-response","224","1698336","0.0-3.0-7.0-0.0","5ca4d7e75d545300110b7545","A3","batch1","pattern_show_trial_num","null","<p class=block-text>Trial 40 out of 78</p>","null","","","","","","","","","","","","","","","","","","","","","","","","","",""
"","","","","","image-keyboard-response","225","1713993","0.0-3.0-7.0-1.0","5ca4d7e75d545300110b7545","A3","batch1","pattern_response","15656.199999999255","stim/no_50_1.png","j","pattern_30","j","true","","","","15656.199999999255","true","38","","","","","","","","","","","","","","","","",""
"","","","","","html-keyboard-response","226","1715308","0.0-3.0-7.0-0.1","5ca4d7e75d545300110b7545","A3","batch1","pattern_show_trial_num","null","<p class=block-text>Trial 41 out of 78</p>","null","","","","","","","","","","","","","","","","","","","","","","","","","",""
"","","","","","image-keyboard-response","227","1721073","0.0-3.0-7.0-1.1","5ca4d7e75d545300110b7545","A3","batch1","pattern_response","5762.199999999255","stim/yes_50_dia_w1.png","f","pattern_71","f","true","","","","5762.199999999255","true","39","","","","","","","","","","","","","","","","",""
"","","","","","html-keyboard-response","228","1722393","0.0-3.0-7.0-0.2","5ca4d7e75d545300110b7545","A3","batch1","pattern_show_trial_num","null","<p class=block-text>Trial 42 out of 78</p>","null","","","","","","","","","","","","","","","","","","","","","","","","","",""
"","","","","","image-keyboard-response","229","1750411","0.0-3.0-7.0-1.2","5ca4d7e75d545300110b7545","A3","batch1","pattern_response","28016.800000000745","stim/no_34_1_b.png","j","pattern_16","j","true","","","","28016.800000000745","true","40","","","","","","","","","","","","","","","","",""
"","","","","","html-keyboard-response","230","1751720","0.0-3.0-7.0-0.3","5ca4d7e75d545300110b7545","A3","batch1","pattern_show_trial_num","null","<p class=block-text>Trial 43 out of 78</p>","null","","","","","","","","","","","","","","","","","","","","","","","","","",""
"","","","","","image-keyboard-response","231","1753001","0.0-3.0-7.0-1.3","5ca4d7e75d545300110b7545","A3","batch1","pattern_response","1278","stim/yes_43_ver_w1_w.png","f","pattern_65","f","true","","","","1278","true","41","","","","","","","","","","","","","","","","",""
"","","","","","html-keyboard-response","232","1754315","0.0-3.0-7.0-0.4","5ca4d7e75d545300110b7545","A3","batch1","pattern_show_trial_num","null","<p class=block-text>Trial 44 out of 78</p>","null","","","","","","","","","","","","","","","","","","","","","","","","","",""
"","","","","","image-keyboard-response","233","1755797","0.0-3.0-7.0-1.4","5ca4d7e75d545300110b7545","A3","batch1","pattern_response","1480","stim/yes_60_ver_b1_b.png","f","pattern_77","f","true","","","","1480","true","42","","","","","","","","","","","","","","","","",""
"","","","","","html-keyboard-response","234","1757106","0.0-3.0-7.0-0.5","5ca4d7e75d545300110b7545","A3","batch1","pattern_show_trial_num","null","<p class=block-text>Trial 45 out of 78</p>","null","","","","","","","","","","","","","","","","","","","","","","","","","",""
"","","","","","image-keyboard-response","235","1763557","0.0-3.0-7.0-1.5","5ca4d7e75d545300110b7545","A3","batch1","pattern_response","6448.89999999851","stim/no_38_1_b.png","j","pattern_20","j","true","","","","6448.89999999851","true","43","","","","","","","","","","","","","","","","",""
"","","","","","html-keyboard-response","236","1764872","0.0-3.0-7.0-0.6","5ca4d7e75d545300110b7545","A3","batch1","pattern_show_trial_num","null","<p class=block-text>Trial 46 out of 78</p>","null","","","","","","","","","","","","","","","","","","","","","","","","","",""
"","","","","","image-keyboard-response","237","1770440","0.0-3.0-7.0-1.6","5ca4d7e75d545300110b7545","A3","batch1","pattern_response","5566.099999997765","stim/yes_35_dia_b1.png","f","pattern_57","f","true","","","","5566.099999997765","true","44","","","","","","","","","","","","","","","","",""
"","","","","","html-keyboard-response","238","1771748","0.0-3.0-7.0-0.7","5ca4d7e75d545300110b7545","A3","batch1","pattern_show_trial_num","null","<p class=block-text>Trial 47 out of 78</p>","null","","","","","","","","","","","","","","","","","","","","","","","","","",""
"","","","","","image-keyboard-response","239","1777107","0.0-3.0-7.0-1.7","5ca4d7e75d545300110b7545","A3","batch1","pattern_response","5358.5","stim/no_26_1_w.png","j","pattern_10","j","true","","","","5358.5","true","45","","","","","","","","","","","","","","","","",""
"","","","","","html-keyboard-response","240","1778410","0.0-3.0-7.0-0.8","5ca4d7e75d545300110b7545","A3","batch1","pattern_show_trial_num","null","<p class=block-text>Trial 48 out of 78</p>","null","","","","","","","","","","","","","","","","","","","","","","","","","",""
"","","","","","image-keyboard-response","241","1779704","0.0-3.0-7.0-1.8","5ca4d7e75d545300110b7545","A3","batch1","pattern_response","1290.8999999985099","stim/yes_28_ver_b1.png","f","pattern_51","f","true","","","","1290.8999999985099","true","46","","","","","","","","","","","","","","","","",""
"","","","","","html-keyboard-response","242","1781016","0.0-3.0-7.0-0.9","5ca4d7e75d545300110b7545","A3","batch1","pattern_show_trial_num","null","<p class=block-text>Trial 49 out of 78</p>","null","","","","","","","","","","","","","","","","","","","","","","","","","",""
"","","","","","image-keyboard-response","243","1787149","0.0-3.0-7.0-1.9","5ca4d7e75d545300110b7545","A3","batch1","pattern_response","6131.400000002235","stim/no_48_1_w.png","j","pattern_28","j","true","","","","6131.400000002235","true","47","","","","","","","","","","","","","","","","",""
"","","","","","html-keyboard-response","244","1788453","0.0-3.0-7.0-0.10","5ca4d7e75d545300110b7545","A3","batch1","pattern_show_trial_num","null","<p class=block-text>Trial 50 out of 78</p>","null","","","","","","","","","","","","","","","","","","","","","","","","","",""
"","","","","","image-keyboard-response","245","1791008","0.0-3.0-7.0-1.10","5ca4d7e75d545300110b7545","A3","batch1","pattern_response","2551.199999999255","stim/no_20_1_w.png","j","pattern_06","j","true","","","","2551.199999999255","true","48","","","","","","","","","","","","","","","","",""
"","","","","","html-keyboard-response","246","1792327","0.0-3.0-7.0-0.11","5ca4d7e75d545300110b7545","A3","batch1","pattern_show_trial_num","null","<p class=block-text>Trial 51 out of 78</p>","null","","","","","","","","","","","","","","","","","","","","","","","","","",""
"","","","","","image-keyboard-response","247","1801211","0.0-3.0-7.0-1.11","5ca4d7e75d545300110b7545","A3","batch1","pattern_response","8882","stim/yes_48_dia_w1_w.png","j","pattern_69","f","false","","","","8882","false","48","","","","","","","","","","","","","","","","",""
"","","","","","html-keyboard-response","248","1802520","0.0-3.0-7.0-0.12","5ca4d7e75d545300110b7545","A3","batch1","pattern_show_trial_num","null","<p class=block-text>Trial 52 out of 78</p>","null","","","","","","","","","","","","","","","","","","","","","","","","","",""
"","","","","","image-keyboard-response","249","1803588","0.0-3.0-7.0-1.12","5ca4d7e75d545300110b7545","A3","batch1","pattern_response","1065.6000000014901","stim/yes_14_hor_b1_w.png","f","pattern_43","f","true","","","","1065.6000000014901","true","49","","","","","","","","","","","","","","","","",""
"","","","","","html-keyboard-response","250","1804909","0.0-3.0-7.0-0.13","5ca4d7e75d545300110b7545","A3","batch1","pattern_show_trial_num","null","<p class=block-text>Trial 53 out of 78</p>","null","","","","","","","","","","","","","","","","","","","","","","","","","",""
"","","","","","image-keyboard-response","251","1807579","0.0-3.0-7.0-1.13","5ca4d7e75d545300110b7545","A3","batch1","pattern_response","2668.199999999255","stim/yes_45_hor_b2_b.png","f","pattern_67","f","true","","","","2668.199999999255","true","50","","","","","","","","","","","","","","","","",""
"","","","","","html-keyboard-response","252","1808886","0.0-3.0-7.0-0.14","5ca4d7e75d545300110b7545","A3","batch1","pattern_show_trial_num","null","<p class=block-text>Trial 54 out of 78</p>","null","","","","","","","","","","","","","","","","","","","","","","","","","",""
"","","","","","image-keyboard-response","253","1810345","0.0-3.0-7.0-1.14","5ca4d7e75d545300110b7545","A3","batch1","pattern_response","1457.6000000014901","stim/yes_17_dia_w1.png","f","pattern_45","f","true","","","","1457.6000000014901","true","51","","","","","","","","","","","","","","","","",""
"","","","","","html-keyboard-response","254","1811654","0.0-3.0-7.0-0.15","5ca4d7e75d545300110b7545","A3","batch1","pattern_show_trial_num","null","<p class=block-text>Trial 55 out of 78</p>","null","","","","","","","","","","","","","","","","","","","","","","","","","",""
"","","","","","image-keyboard-response","255","1824835","0.0-3.0-7.0-1.15","5ca4d7e75d545300110b7545","A3","batch1","pattern_response","13179.20000000298","stim/no_52_1.png","j","pattern_32","j","true","","","","13179.20000000298","true","52","","","","","","","","","","","","","","","","",""
"","","","","","html-keyboard-response","256","1826151","0.0-3.0-7.0-0.16","5ca4d7e75d545300110b7545","A3","batch1","pattern_show_trial_num","null","<p class=block-text>Trial 56 out of 78</p>","null","","","","","","","","","","","","","","","","","","","","","","","","","",""
"","","","","","image-keyboard-response","257","1827327","0.0-3.0-7.0-1.16","5ca4d7e75d545300110b7545","A3","batch1","pattern_response","1172.699999999255","stim/yes_22_ver_w1.png","f","pattern_47","f","true","","","","1172.699999999255","true","53","","","","","","","","","","","","","","","","",""
"","","","","","html-keyboard-response","258","1828642","0.0-3.0-7.0-0.17","5ca4d7e75d545300110b7545","A3","batch1","pattern_show_trial_num","null","<p class=block-text>Trial 57 out of 78</p>","null","","","","","","","","","","","","","","","","","","","","","","","","","",""
"","","","","","image-keyboard-response","259","1833899","0.0-3.0-7.0-1.17","5ca4d7e75d545300110b7545","A3","batch1","pattern_response","5255.300000000745","stim/no_29_1_b.png","j","pattern_12","j","true","","","","5255.300000000745","true","54","","","","","","","","","","","","","","","","",""
"","","","","","html-keyboard-response","260","1835211","0.0-3.0-7.0-0.18","5ca4d7e75d545300110b7545","A3","batch1","pattern_show_trial_num","null","<p class=block-text>Trial 58 out of 78</p>","null","","","","","","","","","","","","","","","","","","","","","","","","","",""
"","","","","","image-keyboard-response","261","1837943","0.0-3.0-7.0-1.18","5ca4d7e75d545300110b7545","A3","batch1","pattern_response","2729","stim/yes_31_hor_b1.png","f","pattern_55","f","true","","","","2729","true","55","","","","","","","","","","","","","","","","",""
"","","","","","html-keyboard-response","262","1839250","0.0-3.0-7.0-0.19","5ca4d7e75d545300110b7545","A3","batch1","pattern_show_trial_num","null","<p class=block-text>Trial 59 out of 78</p>","null","","","","","","","","","","","","","","","","","","","","","","","","","",""
"","","","","","image-keyboard-response","263","1845345","0.0-3.0-7.0-1.19","5ca4d7e75d545300110b7545","A3","batch1","pattern_response","6092.199999999255","stim/yes_40_dia_b1_b.png","f","pattern_63","f","true","","","","6092.199999999255","true","56","","","","","","","","","","","","","","","","",""
"","","","","","html-keyboard-response","264","1846667","0.0-3.0-7.0-0.20","5ca4d7e75d545300110b7545","A3","batch1","pattern_show_trial_num","null","<p class=block-text>Trial 60 out of 78</p>","null","","","","","","","","","","","","","","","","","","","","","","","","","",""
"","","","","","image-keyboard-response","265","1857240","0.0-3.0-7.0-1.20","5ca4d7e75d545300110b7545","A3","batch1","pattern_response","10570.60000000149","stim/no_42_1_w.png","j","pattern_22","j","true","","","","10570.60000000149","true","57","","","","","","","","","","","","","","","","",""
"","","","","","html-keyboard-response","266","1858553","0.0-3.0-7.0-0.21","5ca4d7e75d545300110b7545","A3","batch1","pattern_show_trial_num","null","<p class=block-text>Trial 61 out of 78</p>","null","","","","","","","","","","","","","","","","","","","","","","","","","",""
"","","","","","image-keyboard-response","267","1861834","0.0-3.0-7.0-1.21","5ca4d7e75d545300110b7545","A3","batch1","pattern_response","3278.10000000149","stim/no_23_1.png","j","pattern_08","j","true","","","","3278.10000000149","true","58","","","","","","","","","","","","","","","","",""
"","","","","","html-keyboard-response","268","1863154","0.0-3.0-7.0-0.22","5ca4d7e75d545300110b7545","A3","batch1","pattern_show_trial_num","null","<p class=block-text>Trial 62 out of 78</p>","null","","","","","","","","","","","","","","","","","","","","","","","","","",""
"","","","","","image-keyboard-response","269","1874021","0.0-3.0-7.0-1.22","5ca4d7e75d545300110b7545","A3","batch1","pattern_response","10866.199999999255","stim/no_32_1_w.png","j","pattern_14","j","true","","","","10866.199999999255","true","59","","","","","","","","","","","","","","","","",""
"","","","","","html-keyboard-response","270","1875331","0.0-3.0-7.0-0.23","5ca4d7e75d545300110b7545","A3","batch1","pattern_show_trial_num","null","<p class=block-text>Trial 63 out of 78</p>","null","","","","","","","","","","","","","","","","","","","","","","","","","",""
"","","","","","image-keyboard-response","271","1891907","0.0-3.0-7.0-1.23","5ca4d7e75d545300110b7545","A3","batch1","pattern_response","16574.300000000745","stim/no_65_1_b.png","j","pattern_38","j","true","","","","16574.300000000745","true","60","","","","","","","","","","","","","","","","",""
"","","","","","html-keyboard-response","272","1893219","0.0-3.0-7.0-0.24","5ca4d7e75d545300110b7545","A3","batch1","pattern_show_trial_num","null","<p class=block-text>Trial 64 out of 78</p>","null","","","","","","","","","","","","","","","","","","","","","","","","","",""
"","","","","","image-keyboard-response","273","1897215","0.0-3.0-7.0-1.24","5ca4d7e75d545300110b7545","A3","batch1","pattern_response","3995.099999997765","stim/no_13_2_b.png","j","pattern_02","j","true","","","","3995.099999997765","true","61","","","","","","","","","","","","","","","","",""
"","","","","","html-keyboard-response","274","1898531","0.0-3.0-7.0-0.25","5ca4d7e75d545300110b7545","A3","batch1","pattern_show_trial_num","null","<p class=block-text>Trial 65 out of 78</p>","null","","","","","","","","","","","","","","","","","","","","","","","","","",""
"","","","","","image-keyboard-response","275","1901657","0.0-3.0-7.0-1.25","5ca4d7e75d545300110b7545","A3","batch1","pattern_response","3122.5","stim/yes_37_dia_w1.png","f","pattern_59","f","true","","","","3122.5","true","62","","","","","","","","","","","","","","","","",""
"","","","","","html-keyboard-response","276","1902974","0.0-3.0-7.0-0.26","5ca4d7e75d545300110b7545","A3","batch1","pattern_show_trial_num","null","<p class=block-text>Trial 66 out of 78</p>","null","","","","","","","","","","","","","","","","","","","","","","","","","",""
"","","","","","image-keyboard-response","277","1904800","0.0-3.0-7.0-1.26","5ca4d7e75d545300110b7545","A3","batch1","pattern_response","1824.6000000014901","stim/yes_55_hor_w1_w.png","f","pattern_75","f","true","","","","1824.6000000014901","true","63","","","","","","","","","","","","","","","","",""
"","","","","","html-keyboard-response","278","1906110","0.0-3.0-7.0-0.27","5ca4d7e75d545300110b7545","A3","batch1","pattern_show_trial_num","null","<p class=block-text>Trial 67 out of 78</p>","null","","","","","","","","","","","","","","","","","","","","","","","","","",""
"","","","","","image-keyboard-response","279","1921888","0.0-3.0-7.0-1.27","5ca4d7e75d545300110b7545","A3","batch1","pattern_response","15775.79999999702","stim/no_62_1_w.png","j","pattern_36","j","true","","","","15775.79999999702","true","64","","","","","","","","","","","","","","","","",""
"","","","","","html-keyboard-response","280","1923197","0.0-3.0-7.0-0.28","5ca4d7e75d545300110b7545","A3","batch1","pattern_show_trial_num","null","<p class=block-text>Trial 68 out of 78</p>","null","","","","","","","","","","","","","","","","","","","","","","","","","",""
"","","","","","image-keyboard-response","281","1924553","0.0-3.0-7.0-1.28","5ca4d7e75d545300110b7545","A3","batch1","pattern_response","1352.8999999985099","stim/yes_29_ver_w1.png","f","pattern_53","f","true","","","","1352.8999999985099","true","65","","","","","","","","","","","","","","","","",""
"","","","","","html-keyboard-response","282","1925857","0.0-3.0-7.0-0.29","5ca4d7e75d545300110b7545","A3","batch1","pattern_show_trial_num","null","<p class=block-text>Trial 69 out of 78</p>","null","","","","","","","","","","","","","","","","","","","","","","","","","",""
"","","","","","image-keyboard-response","283","1938480","0.0-3.0-7.0-1.29","5ca4d7e75d545300110b7545","A3","batch1","pattern_response","12621.29999999702","stim/no_70_2.png","j","pattern_40","j","true","","","","12621.29999999702","true","66","","","","","","","","","","","","","","","","",""
"","","","","","html-keyboard-response","284","1939781","0.0-3.0-7.0-0.30","5ca4d7e75d545300110b7545","A3","batch1","pattern_show_trial_num","null","<p class=block-text>Trial 70 out of 78</p>","null","","","","","","","","","","","","","","","","","","","","","","","","","",""
"","","","","","image-keyboard-response","285","1946228","0.0-3.0-7.0-1.30","5ca4d7e75d545300110b7545","A3","batch1","pattern_response","6443.5","stim/no_55_1_w.png","j","pattern_34","j","true","","","","6443.5","true","67","","","","","","","","","","","","","","","","",""
"","","","","","html-keyboard-response","286","1947538","0.0-3.0-7.0-0.31","5ca4d7e75d545300110b7545","A3","batch1","pattern_show_trial_num","null","<p class=block-text>Trial 71 out of 78</p>","null","","","","","","","","","","","","","","","","","","","","","","","","","",""
"","","","","","image-keyboard-response","287","1949707","0.0-3.0-7.0-1.31","5ca4d7e75d545300110b7545","A3","batch1","pattern_response","2165.5","stim/no_17_1_w.png","j","pattern_04","j","true","","","","2165.5","true","68","","","","","","","","","","","","","","","","",""
"","","","","","html-keyboard-response","288","1951016","0.0-3.0-7.0-0.32","5ca4d7e75d545300110b7545","A3","batch1","pattern_show_trial_num","null","<p class=block-text>Trial 72 out of 78</p>","null","","","","","","","","","","","","","","","","","","","","","","","","","",""
"","","","","","image-keyboard-response","289","1952314","0.0-3.0-7.0-1.32","5ca4d7e75d545300110b7545","A3","batch1","pattern_response","1296.0999999977648","stim/yes_67_hor_b1.png","f","pattern_79","f","true","","","","1296.0999999977648","true","69","","","","","","","","","","","","","","","","",""
"","","","","","html-keyboard-response","290","1953629","0.0-3.0-7.0-0.33","5ca4d7e75d545300110b7545","A3","batch1","pattern_show_trial_num","null","<p class=block-text>Trial 73 out of 78</p>","null","","","","","","","","","","","","","","","","","","","","","","","","","",""
"","","","","","image-keyboard-response","291","1962306","0.0-3.0-7.0-1.33","5ca4d7e75d545300110b7545","A3","batch1","pattern_response","8674.5","stim/no_46_1_b.png","j","pattern_26","j","true","","","","8674.5","true","70","","","","","","","","","","","","","","","","",""
"","","","","","html-keyboard-response","292","1963630","0.0-3.0-7.0-0.34","5ca4d7e75d545300110b7545","A3","batch1","pattern_show_trial_num","null","<p class=block-text>Trial 74 out of 78</p>","null","","","","","","","","","","","","","","","","","","","","","","","","","",""
"","","","","","image-keyboard-response","293","1965405","0.0-3.0-7.0-1.34","5ca4d7e75d545300110b7545","A3","batch1","pattern_response","1774.3999999985099","stim/yes_38_hor_b1_b.png","f","pattern_61","f","true","","","","1774.3999999985099","true","71","","","","","","","","","","","","","","","","",""
"","","","","","html-keyboard-response","294","1966710","0.0-3.0-7.0-0.35","5ca4d7e75d545300110b7545","A3","batch1","pattern_show_trial_num","null","<p class=block-text>Trial 75 out of 78</p>","null","","","","","","","","","","","","","","","","","","","","","","","","","",""
"","","","","","image-keyboard-response","295","1979530","0.0-3.0-7.0-1.35","5ca4d7e75d545300110b7545","A3","batch1","pattern_response","12813.800000000745","stim/no_36_2_w.png","j","pattern_18","j","true","","","","12813.800000000745","true","72","","","","","","","","","","","","","","","","",""
"","","","","","html-keyboard-response","296","1980851","0.0-3.0-7.0-0.36","5ca4d7e75d545300110b7545","A3","batch1","pattern_show_trial_num","null","<p class=block-text>Trial 76 out of 78</p>","null","","","","","","","","","","","","","","","","","","","","","","","","","",""
"","","","","","image-keyboard-response","297","1982576","0.0-3.0-7.0-1.36","5ca4d7e75d545300110b7545","A3","batch1","pattern_response","1722.3999999985099","stim/yes_52_ver_w1.png","f","pattern_73","f","true","","","","1722.3999999985099","true","73","","","","","","","","","","","","","","","","",""
"","","","","","html-keyboard-response","298","1983882","0.0-3.0-7.0-0.37","5ca4d7e75d545300110b7545","A3","batch1","pattern_show_trial_num","null","<p class=block-text>Trial 77 out of 78</p>","null","","","","","","","","","","","","","","","","","","","","","","","","","",""
"","","","","","image-keyboard-response","299","1985060","0.0-3.0-7.0-1.37","5ca4d7e75d545300110b7545","A3","batch1","pattern_response","1176.5","stim/yes_25_hor_b1_b.png","f","pattern_49","f","true","","","","1176.5","true","74","","","","","","","","","","","","","","","","",""
"","","","","","html-keyboard-response","300","1986389","0.0-3.0-7.0-0.38","5ca4d7e75d545300110b7545","A3","batch1","pattern_show_trial_num","null","<p class=block-text>Trial 78 out of 78</p>","null","","","","","","","","","","","","","","","","","","","","","","","","","",""
"","","","","","image-keyboard-response","301","1992727","0.0-3.0-7.0-1.38","5ca4d7e75d545300110b7545","A3","batch1","pattern_response","6335.20000000298","stim/no_44_1.png","j","pattern_24","j","true","","","","6335.20000000298","true","75","","","","","","","","","","","","","","","","",""
"","","","","","html-button-response","302","2002010","0.0-3.0-8.0","5ca4d7e75d545300110b7545","A3","batch1","","8767.10000000149","<p class = block-text>This concludes the 4-in-a-row detection game.Thank you for your responses!<br>
            You responded correctly on 96% of the trials.<br>
            When you are ready, press ""Continue"" button to continue </p>","0","","","","","","","","","","","","","","","","","","","","","","","","","",""
"true","","","","","fullscreen","303","2018245","0.0-4.0-0.0","5ca4d7e75d545300110b7545","A3","batch1","","","","","","","","","","","","","","","","","","","","","","","","","","","","","",""
"","","","","","instructions","304","2072490","0.0-4.0-1.0-0.0-0.0","5ca4d7e75d545300110b7545","A3","batch1","tol-instructions","54243.5","","","","","","","","[{""page_index"":0,""viewing_time"":10971.60000000149},{""page_index"":1,""viewing_time"":5012.29999999702},{""page_index"":2,""viewing_time"":2390.300000000745},{""page_index"":3,""viewing_time"":18117.800000000745},{""page_index"":4,""viewing_time"":7858.199999999255},{""page_index"":5,""viewing_time"":7461.800000000745},{""page_index"":6,""viewing_time"":2431.300000000745}]","","","","","","","","","","","","","","","","","","","",""
"","","","","","html-button-response","305","2073246","0.0-4.0-1.0-1.0-0.0","5ca4d7e75d545300110b7545","A3","batch1","tol_enter_quiz","755.2000000029802","<p class=block-text> Let's answer a few questions <br>","0","","","","","","","","","","","","","","","","","","","","","","","","","",""
"","","","","","html-button-response","306","2075249","0.0-4.0-1.0-1.0-1.0","5ca4d7e75d545300110b7545","A3","batch1","tol_quiz","2002.1000000014901","<p class = block-text>True or False: You can only move the ball on top of a peg. <br></p>","0","","","true","","","","","","","","","","","","","","","","","","","","","","",""
"","","","","","html-button-response","307","2076026","0.0-4.0-1.0-1.0-2.0","5ca4d7e75d545300110b7545","A3","batch1","tol_quiz_feedback","775.8000000007451","<p class = block-text>Correct! You can only move the ball on top of a peg.</p>","0","","","","","","","","","","","","","","","","","","","","","","","","","",""
"","","","","","html-button-response","308","2079954","0.0-4.0-1.0-1.0-3.0","5ca4d7e75d545300110b7545","A3","batch1","tol_quiz","3928.099999997765","<p class = block-text>True or False: You should try to match your board with the target board with fewest moves possible. <br></p>","0","","","true","","","","","","","","","","","","","","","","","","","","","","",""
"","","","","","html-button-response","309","2080499","0.0-4.0-1.0-1.0-4.0","5ca4d7e75d545300110b7545","A3","batch1","tol_quiz_feedback","544.0999999977648","<p class = block-text>Correct! </p>","0","","","","","","","","","","","","","","","","","","","","","","","","","",""
"","","","","","html-button-response","310","2081293","0.0-4.0-2.0","5ca4d7e75d545300110b7545","A3","batch1","","793.3999999985099","<p class=block-text> Now that you've understood the game, let's practice a few easier examples before we start!<br> <br>","0","","","","","","","","","","","","","","","","","","","","","","","","","",""
"","","","","","single-stim-button","311","2087038","0.0-4.0-3.0-0.0","5ca4d7e75d545300110b7545","A3","batch1","tol_practice","5743","","","","","","","","","","","","","","tol_peg_2","5743","5743","0","[[1,2,0],[0,0],[0]]","1","[[1,2,0],[0,0],[3]]","practice","5743","","","","","",""
"","","","","","single-stim-button","312","2087984","0.0-4.0-3.0-1.0","5ca4d7e75d545300110b7545","A3","batch1","tol_practice","946","","","","","","","","","","","","","","tol_peg_3","946","946","0","[[1,2,0],[0,0],[3]]","1","[[1,2,0],[0,0],[3]]","practice","946","","","","","",""
"","","","","","poldrack-single-stim","313","2088987","0.0-4.0-4.0","5ca4d7e75d545300110b7545","A3","batch1","tol_feedback","-1","","","","","true","","","","","","","","","","1000","1000","500","","","","","","-1","none","true","","0",""
"","","","","","single-stim-button","314","2098949","0.0-4.0-5.0-0.0","5ca4d7e75d545300110b7545","A3","batch1","tol_practice","9960","","","","","","","","","","","","","","tol_peg_1","9960","9960","0","[[1,0,0],[3,0],[0]]","2","[[0,0,0],[3,1],[2]]","practice","9960","","","","","",""
"","","","","","single-stim-button","315","2099844","0.0-4.0-5.0-1.0","5ca4d7e75d545300110b7545","A3","batch1","tol_practice","895","","","","","","","","","","","","","","tol_peg_3","895","895","0","[[1,0,0],[3,0],[2]]","2","[[0,0,0],[3,1],[2]]","practice","895","","","","","",""
"","","","","","single-stim-button","316","2100267","0.0-4.0-5.1-0.1","5ca4d7e75d545300110b7545","A3","batch1","tol_practice","423","","","","","","","","","","","","","","tol_peg_1","423","423","0","[[0,0,0],[3,0],[2]]","3","[[0,0,0],[3,1],[2]]","practice","423","","","","","",""
"","","","","","single-stim-button","317","2100769","0.0-4.0-5.1-1.1","5ca4d7e75d545300110b7545","A3","batch1","tol_practice","502","","","","","","","","","","","","","","tol_peg_2","502","502","0","[[0,0,0],[3,1],[2]]","3","[[0,0,0],[3,1],[2]]","practice","502","","","","","",""
"","","","","","poldrack-single-stim","318","2101771","0.0-4.0-6.0","5ca4d7e75d545300110b7545","A3","batch1","tol_feedback","-1","","","","","true","","","","","","","","","","1000","1000","500","","","","","","-1","none","true","","0",""
"","","","","","single-stim-button","319","2110739","0.0-4.0-7.0-0.0","5ca4d7e75d545300110b7545","A3","batch1","tol_practice","8966","","","","","","","","","","","","","","tol_peg_2","8966","8966","0","[[1,2,0],[0,0],[0]]","4","[[1,0,0],[2,0],[3]]","practice","8966","","","","","",""
"","","","","","single-stim-button","320","2111210","0.0-4.0-7.0-1.0","5ca4d7e75d545300110b7545","A3","batch1","tol_practice","471","","","","","","","","","","","","","","tol_peg_3","471","471","0","[[1,2,0],[0,0],[3]]","4","[[1,0,0],[2,0],[3]]","practice","471","","","","","",""
"","","","","","single-stim-button","321","2111670","0.0-4.0-7.1-0.1","5ca4d7e75d545300110b7545","A3","batch1","tol_practice","459","","","","","","","","","","","","","","tol_peg_1","459","459","0","[[1,0,0],[0,0],[3]]","5","[[1,0,0],[2,0],[3]]","practice","459","","","","","",""
"","","","","","single-stim-button","322","2112091","0.0-4.0-7.1-1.1","5ca4d7e75d545300110b7545","A3","batch1","tol_practice","420","","","","","","","","","","","","","","tol_peg_2","420","420","0","[[1,0,0],[2,0],[3]]","5","[[1,0,0],[2,0],[3]]","practice","420","","","","","",""
"","","","","","poldrack-single-stim","323","2113092","0.0-4.0-8.0","5ca4d7e75d545300110b7545","A3","batch1","tol_feedback","-1","","","","","true","","","","","","","","","","1000","1000","500","","","","","","-1","none","true","","0",""
"","","","","","html-button-response","324","2116604","0.0-4.0-9.0","5ca4d7e75d545300110b7545","A3","batch1","tol_instruction","3510.60000000149","<div class = centerbox><p class = center-block-text>Great job! You are done with practice trials<br>You are about to start official trials.<br> <br> Problem <strong>1</strong> out of 25 problems</p></div>","0","","","","","","","","","","","","","","","","","","","","","","","","","",""
"","","","","","single-stim-button","325","2128868","0.0-4.0-10.0-0.0","5ca4d7e75d545300110b7545","A3","batch1","tol_tohand","11263","","","","","","","","","","","","","","tol_peg_2","11263","11263","0","[[1,2,0],[0,0],[0]]","1","[[1,3,0],[2,0],[0]]","0","0","","","","","","3"
"","","","","","single-stim-button","326","2129586","0.0-4.0-10.0-1.0","5ca4d7e75d545300110b7545","A3","batch1","tol_toboard","716","","","","","","","","","","","","","","tol_peg_3","716","716","0","[[1,2,0],[0,0],[3]]","1","[[1,3,0],[2,0],[0]]","0","0","","","","","","3"
"","","","","","single-stim-button","327","2130020","0.0-4.0-10.1-0.1","5ca4d7e75d545300110b7545","A3","batch1","tol_tohand","434","","","","","","","","","","","","","","tol_peg_1","434","434","0","[[1,0,0],[0,0],[3]]","2","[[1,3,0],[2,0],[0]]","0","0","","","","","","3"
"","","","","","single-stim-button","328","2130399","0.0-4.0-10.1-1.1","5ca4d7e75d545300110b7545","A3","batch1","tol_toboard","379","","","","","","","","","","","","","","tol_peg_2","379","379","0","[[1,0,0],[2,0],[3]]","2","[[1,3,0],[2,0],[0]]","0","0","","","","","","3"
"","","","","","single-stim-button","329","2131044","0.0-4.0-10.2-0.2","5ca4d7e75d545300110b7545","A3","batch1","tol_tohand","644","","","","","","","","","","","","","","tol_peg_3","644","644","0","[[1,0,0],[2,0],[0]]","3","[[1,3,0],[2,0],[0]]","0","0","","","","","","3"
"","","","","","single-stim-button","330","2131559","0.0-4.0-10.2-1.2","5ca4d7e75d545300110b7545","A3","batch1","tol_toboard","514","","","","","","","","","","","","","","tol_peg_1","514","514","0","[[1,3,0],[2,0],[0]]","3","[[1,3,0],[2,0],[0]]","0","0","","","","","","3"
"","","","","","poldrack-single-stim","331","2132561","0.0-4.0-11.0","5ca4d7e75d545300110b7545","A3","batch1","tol_feedback","-1","","","","","true","","","","","","","","","","1000","1000","500","","","","","","-1","none","true","11263","12341",""
"","","","","","html-button-response","332","2134327","0.0-4.0-12.0","5ca4d7e75d545300110b7545","A3","batch1","tol_trial_num","1763.699999999255","<div class = centerbox><p class = center-block-text>problem <strong>2</strong> out of 25 problems</p></div>","0","","","","","","","","","","","","","","","","","","","","","","","","","",""
"","","","","","single-stim-button","333","2141563","0.0-4.0-13.0-0.0","5ca4d7e75d545300110b7545","A3","batch1","tol_tohand","7236","","","","","","","","","","","","","","tol_peg_1","7236","7236","0","[[1,0,0],[3,0],[0]]","1","[[2,1,3],[0,0],[0]]","1","0","","","","","","5"
"","","","","","single-stim-button","334","2142963","0.0-4.0-13.0-1.0","5ca4d7e75d545300110b7545","A3","batch1","tol_toboard","1400","","","","","","","","","","","","","","tol_peg_3","1400","1400","0","[[1,0,0],[3,0],[2]]","1","[[2,1,3],[0,0],[0]]","1","0","","","","","","5"
"","","","","","single-stim-button","335","2143985","0.0-4.0-13.1-0.1","5ca4d7e75d545300110b7545","A3","batch1","tol_tohand","1022","","","","","","","","","","","","","","tol_peg_1","1022","1022","0","[[0,0,0],[3,0],[2]]","2","[[2,1,3],[0,0],[0]]","1","0","","","","","","5"
"","","","","","single-stim-button","336","2144479","0.0-4.0-13.1-1.1","5ca4d7e75d545300110b7545","A3","batch1","tol_toboard","493","","","","","","","","","","","","","","tol_peg_2","493","493","0","[[0,0,0],[3,1],[2]]","2","[[2,1,3],[0,0],[0]]","1","0","","","","","","5"
"","","","","","single-stim-button","337","2144815","0.0-4.0-13.2-0.2","5ca4d7e75d545300110b7545","A3","batch1","tol_tohand","335","","","","","","","","","","","","","","tol_peg_3","335","335","0","[[0,0,0],[3,1],[0]]","3","[[2,1,3],[0,0],[0]]","1","0","","","","","","5"
"","","","","","single-stim-button","338","2145367","0.0-4.0-13.2-1.2","5ca4d7e75d545300110b7545","A3","batch1","tol_toboard","552","","","","","","","","","","","","","","tol_peg_1","552","552","0","[[2,0,0],[3,1],[0]]","3","[[2,1,3],[0,0],[0]]","1","0","","","","","","5"
"","","","","","single-stim-button","339","2145823","0.0-4.0-13.3-0.3","5ca4d7e75d545300110b7545","A3","batch1","tol_tohand","455","","","","","","","","","","","","","","tol_peg_2","455","455","0","[[2,0,0],[3,0],[0]]","4","[[2,1,3],[0,0],[0]]","1","0","","","","","","5"
"","","","","","single-stim-button","340","2146263","0.0-4.0-13.3-1.3","5ca4d7e75d545300110b7545","A3","batch1","tol_toboard","440","","","","","","","","","","","","","","tol_peg_1","440","440","0","[[2,1,0],[3,0],[0]]","4","[[2,1,3],[0,0],[0]]","1","0","","","","","","5"
"","","","","","single-stim-button","341","2147104","0.0-4.0-13.4-0.4","5ca4d7e75d545300110b7545","A3","batch1","tol_tohand","841","","","","","","","","","","","","","","tol_peg_2","841","841","0","[[2,1,0],[0,0],[0]]","5","[[2,1,3],[0,0],[0]]","1","0","","","","","","5"
"","","","","","single-stim-button","342","2147582","0.0-4.0-13.4-1.4","5ca4d7e75d545300110b7545","A3","batch1","tol_toboard","477","","","","","","","","","","","","","","tol_peg_1","477","477","0","[[2,1,3],[0,0],[0]]","5","[[2,1,3],[0,0],[0]]","1","0","","","","","","5"
"","","","","","poldrack-single-stim","343","2148583","0.0-4.0-14.0","5ca4d7e75d545300110b7545","A3","batch1","tol_feedback","-1","","","","","true","","","","","","","","","","1000","1000","500","","","","","","-1","none","true","7236","9889",""
"","","","","","html-button-response","344","2149784","0.0-4.0-15.0","5ca4d7e75d545300110b7545","A3","batch1","tol_trial_num","1200.6000000014901","<div class = centerbox><p class = center-block-text>problem <strong>3</strong> out of 25 problems</p></div>","0","","","","","","","","","","","","","","","","","","","","","","","","","",""
"","","","","","single-stim-button","345","2155333","0.0-4.0-16.0-0.0","5ca4d7e75d545300110b7545","A3","batch1","tol_tohand","5549","","","","","","","","","","","","","","tol_peg_1","5549","5549","0","[[2,0,0],[0,0],[1]]","1","[[1,2,0],[3,0],[0]]","2","0","","","","","","4"
"","","","","","single-stim-button","346","2155808","0.0-4.0-16.0-1.0","5ca4d7e75d545300110b7545","A3","batch1","tol_toboard","475","","","","","","","","","","","","","","tol_peg_2","475","475","0","[[2,0,0],[3,0],[1]]","1","[[1,2,0],[3,0],[0]]","2","0","","","","","","4"
"","","","","","single-stim-button","347","2156250","0.0-4.0-16.1-0.1","5ca4d7e75d545300110b7545","A3","batch1","tol_tohand","442","","","","","","","","","","","","","","tol_peg_1","442","442","0","[[0,0,0],[3,0],[1]]","2","[[1,2,0],[3,0],[0]]","2","0","","","","","","4"
