"success","timeout","failed_images","failed_audio","failed_video","trial_type","trial_index","time_elapsed","internal_node_id","subject_id","study_id","session_id","view_history","rt","stimulus","response","task","correct","answer","item","fiar_detect_rt","fiar_detect_correct","total_correct_fiar_detect","post_trial_gap","choices","mouse_click","stim_duration","block_duration","timing_post_trial","current_position","tol_num_moves_made","tol_target","tol_problem_id","tol_rt","key_press","possible_responses","tol_correct","preplanning","tol_rt_per_trial","tol_min_moves","spm_correct","spm_rt"
"true","false","[]","[]","[]","preload","0","1433","0.0-0.0","5cbf75531864210001fb4db2","E1","batch5","","","","","","","","","","","","","","","","","","","","","","","","","","","","","",""
"true","","","","","fullscreen","1","9508","0.0-1.0-0.0","5cbf75531864210001fb4db2","E1","batch5","","","","","","","","","","","","","","","","","","","","","","","","","","","","","",""
"true","","","","","fullscreen","2","13531","0.0-2.0-0.0","5cbf75531864210001fb4db2","E1","batch5","","","","","","","","","","","","","","","","","","","","","","","","","","","","","",""
"","","","","","instructions","3","25874","0.0-2.0-1.0-0.0","5cbf75531864210001fb4db2","E1","batch5","[{""page_index"":0,""viewing_time"":8274.5},{""page_index"":1,""viewing_time"":4066.1999999284744}]","12341.099999904633","","","","","","","","","","","","","","","","","","","","","","","","","","","",""
"","","","","","html-button-response","4","27090","0.0-2.0-1.0-1.0-0.0","5cbf75531864210001fb4db2","E1","batch5","","1214.7999999523163","<p class=block-text> Let's answer a few questions <br>","0","pattern_enter_quiz","","","","","","","","","","","","","","","","","","","","","","","","",""
"","","","","","html-button-response","5","29341","0.0-2.0-1.0-1.0-1.0","5cbf75531864210001fb4db2","E1","batch5","","2249.399999976158","<p class = block-text>True or False: You will have as much time as you want to make each choice. <br></p>","1","pattern_quiz","true","","","","","","","","","","","","","","","","","","","","","","","",""
"","","","","","html-button-response","6","31107","0.0-2.0-1.0-1.0-2.0","5cbf75531864210001fb4db2","E1","batch5","","1764.5","<p class = block-text>Correct! You should make your choice <strong> as fast as you can</strong>.</p>","0","pattern_quiz_feedback","","","","","","","","","","","","","","","","","","","","","","","","",""
"","","","","","html-button-response","7","34172","0.0-2.0-1.0-1.0-3.0","5cbf75531864210001fb4db2","E1","batch5","","3064.7999999523163","<p class = block-text>True or False: You will look for 4 pieces in black or white color connected in a row either horizontally, vertically or diagonally. <br></p>","0","pattern_quiz","true","","","","","","","","","","","","","","","","","","","","","","","",""
"","","","","","html-button-response","8","35091","0.0-2.0-1.0-1.0-4.0","5cbf75531864210001fb4db2","E1","batch5","","917.3999999761581","<p class = block-text>Correct! </p>","0","pattern_quiz_feedback","","","","","","","","","","","","","","","","","","","","","","","","",""
"","","","","","html-button-response","9","37206","0.0-2.0-2.0","5cbf75531864210001fb4db2","E1","batch5","","2114.5","<p class=block-text> Now that you've understood the game, let's do a few practice trials before we start!<br> <br>","0","pattern_enter_practice","","","","","","","","","","","","","","","","","","","","","","","","",""
"","","","","","image-keyboard-response","10","39462","0.0-2.0-3.0-0.0","5cbf75531864210001fb4db2","E1","batch5","","2251.399999976158","stim/prac_yes_16_ver_w1.png","f","pattern_practice","true","f","","","","","","","","","","","","","","","","","","","","","","",""
"","","","","","html-keyboard-response","11","40482","0.0-2.0-3.0-1.0","5cbf75531864210001fb4db2","E1","batch5","","null","<p style=""font-size:30px;color:green;"">Correct!</p>","null","pattern_feedback","","","","","","","","","","","","","","","","","","","","","","","","",""
"","","","","","image-keyboard-response","12","41967","0.0-2.0-3.0-0.1","5cbf75531864210001fb4db2","E1","batch5","","1484.6000000238419","stim/prac_yes_20_dia_b1.png","j","pattern_practice","false","f","","","","","","","","","","","","","","","","","","","","","","",""
"","","","","","html-keyboard-response","13","42983","0.0-2.0-3.0-1.1","5cbf75531864210001fb4db2","E1","batch5","","null","<p style=""font-size:30px;color:red;"">Wrong.</p>","null","pattern_feedback","","","","","","","","","","","","","","","","","","","","","","","","",""
"","","","","","image-keyboard-response","14","44662","0.0-2.0-3.0-0.2","5cbf75531864210001fb4db2","E1","batch5","","1676.7000000476837","stim/prac_no_18_1.png","j","pattern_practice","true","j","","","","","","","","","","","","","","","","","","","","","","",""
"","","","","","html-keyboard-response","15","45682","0.0-2.0-3.0-1.2","5cbf75531864210001fb4db2","E1","batch5","","null","<p style=""font-size:30px;color:green;"">Correct!</p>","null","pattern_feedback","","","","","","","","","","","","","","","","","","","","","","","","",""
"","","","","","image-keyboard-response","16","47613","0.0-2.0-3.0-0.3","5cbf75531864210001fb4db2","E1","batch5","","1929.3999999761581","stim/prac_no_16_1.png","j","pattern_practice","true","j","","","","","","","","","","","","","","","","","","","","","","",""
"","","","","","html-keyboard-response","17","48616","0.0-2.0-3.0-1.3","5cbf75531864210001fb4db2","E1","batch5","","null","<p style=""font-size:30px;color:green;"">Correct!</p>","null","pattern_feedback","","","","","","","","","","","","","","","","","","","","","","","","",""
"","","","","","image-keyboard-response","18","49536","0.0-2.0-3.0-0.4","5cbf75531864210001fb4db2","E1","batch5","","919","stim/prac_yes_18_hor_w1.png","f","pattern_practice","true","f","","","","","","","","","","","","","","","","","","","","","","",""
"","","","","","html-keyboard-response","19","50552","0.0-2.0-3.0-1.4","5cbf75531864210001fb4db2","E1","batch5","","null","<p style=""font-size:30px;color:green;"">Correct!</p>","null","pattern_feedback","","","","","","","","","","","","","","","","","","","","","","","","",""
"","","","","","html-button-response","20","55207","0.0-2.0-4.0","5cbf75531864210001fb4db2","E1","batch5","","4653.699999928474","<p class=block-text> Good job! You are done with practice trials!<br>
        You responded correctly on 80% of the trials.<br>
        Press the button below to start official trials. Now you won't see any feedback about your response</p>","0","pattern_enter_official_trials","","","","","","","","","","","","","","","","","","","","","","","","",""
"","","","","","html-keyboard-response","21","56013","0.0-2.0-5.0-0.0","5cbf75531864210001fb4db2","E1","batch5","","null","<p class=block-text>Trial 1 out of 78</p>","null","pattern_show_trial_num","","","","","","","","","","","","","","","","","","","","","","","","",""
"","","","","","image-keyboard-response","22","58723","0.0-2.0-5.0-1.0","5cbf75531864210001fb4db2","E1","batch5","","2708.399999976158","stim/no_36_1_b.png","j","pattern_response","true","j","pattern_17","2708.399999976158","true","1","","","","","","","","","","","","","","","","","","",""
"","","","","","html-keyboard-response","23","60048","0.0-2.0-5.0-0.1","5cbf75531864210001fb4db2","E1","batch5","","null","<p class=block-text>Trial 2 out of 78</p>","null","pattern_show_trial_num","","","","","","","","","","","","","","","","","","","","","","","","",""
"","","","","","image-keyboard-response","24","61318","0.0-2.0-5.0-1.1","5cbf75531864210001fb4db2","E1","batch5","","1268.7000000476837","stim/yes_37_hor_w1_w.png","f","pattern_response","true","f","pattern_60","1268.7000000476837","true","2","","","","","","","","","","","","","","","","","","",""
"","","","","","html-keyboard-response","25","62646","0.0-2.0-5.0-0.2","5cbf75531864210001fb4db2","E1","batch5","","null","<p class=block-text>Trial 3 out of 78</p>","null","pattern_show_trial_num","","","","","","","","","","","","","","","","","","","","","","","","",""
"","","","","","image-keyboard-response","26","64967","0.0-2.0-5.0-1.2","5cbf75531864210001fb4db2","E1","batch5","","2319.2999999523163","stim/no_22_1_b.png","j","pattern_response","true","j","pattern_07","2319.2999999523163","true","3","","","","","","","","","","","","","","","","","","",""
"","","","","","html-keyboard-response","27","66298","0.0-2.0-5.0-0.3","5cbf75531864210001fb4db2","E1","batch5","","null","<p class=block-text>Trial 4 out of 78</p>","null","pattern_show_trial_num","","","","","","","","","","","","","","","","","","","","","","","","",""
"","","","","","image-keyboard-response","28","69940","0.0-2.0-5.0-1.3","5cbf75531864210001fb4db2","E1","batch5","","3639.5","stim/no_49_2_b.png","j","pattern_response","true","j","pattern_29","3639.5","true","4","","","","","","","","","","","","","","","","","","",""
"","","","","","html-keyboard-response","29","71251","0.0-2.0-5.0-0.4","5cbf75531864210001fb4db2","E1","batch5","","null","<p class=block-text>Trial 5 out of 78</p>","null","pattern_show_trial_num","","","","","","","","","","","","","","","","","","","","","","","","",""
"","","","","","image-keyboard-response","30","73023","0.0-2.0-5.0-1.4","5cbf75531864210001fb4db2","E1","batch5","","1770.2999999523163","stim/yes_26_dia_w2_w.png","f","pattern_response","true","f","pattern_50","1770.2999999523163","true","5","","","","","","","","","","","","","","","","","","",""
"","","","","","html-keyboard-response","31","74333","0.0-2.0-5.0-0.5","5cbf75531864210001fb4db2","E1","batch5","","null","<p class=block-text>Trial 6 out of 78</p>","null","pattern_show_trial_num","","","","","","","","","","","","","","","","","","","","","","","","",""
"","","","","","image-keyboard-response","32","77859","0.0-2.0-5.0-1.5","5cbf75531864210001fb4db2","E1","batch5","","3523.600000023842","stim/yes_63_dia_b1.png","j","pattern_response","false","f","pattern_78","3523.600000023842","false","5","","","","","","","","","","","","","","","","","","",""
"","","","","","html-keyboard-response","33","79181","0.0-2.0-5.0-0.6","5cbf75531864210001fb4db2","E1","batch5","","null","<p class=block-text>Trial 7 out of 78</p>","null","pattern_show_trial_num","","","","","","","","","","","","","","","","","","","","","","","","",""
"","","","","","image-keyboard-response","34","80358","0.0-2.0-5.0-1.6","5cbf75531864210001fb4db2","E1","batch5","","1174.9000000953674","stim/yes_33_dia_w1_w.png","f","pattern_response","true","f","pattern_56","1174.9000000953674","true","6","","","","","","","","","","","","","","","","","","",""
"","","","","","html-keyboard-response","35","81666","0.0-2.0-5.0-0.7","5cbf75531864210001fb4db2","E1","batch5","","null","<p class=block-text>Trial 8 out of 78</p>","null","pattern_show_trial_num","","","","","","","","","","","","","","","","","","","","","","","","",""
"","","","","","image-keyboard-response","36","84562","0.0-2.0-5.0-1.7","5cbf75531864210001fb4db2","E1","batch5","","2893.399999976158","stim/no_28_2.png","j","pattern_response","true","j","pattern_11","2893.399999976158","true","7","","","","","","","","","","","","","","","","","","",""
"","","","","","html-keyboard-response","37","85882","0.0-2.0-5.0-0.8","5cbf75531864210001fb4db2","E1","batch5","","null","<p class=block-text>Trial 9 out of 78</p>","null","pattern_show_trial_num","","","","","","","","","","","","","","","","","","","","","","","","",""
"","","","","","image-keyboard-response","38","89936","0.0-2.0-5.0-1.8","5cbf75531864210001fb4db2","E1","batch5","","4052.100000023842","stim/no_43_2_b.png","j","pattern_response","true","j","pattern_23","4052.100000023842","true","8","","","","","","","","","","","","","","","","","","",""
"","","","","","html-keyboard-response","39","91266","0.0-2.0-5.0-0.9","5cbf75531864210001fb4db2","E1","batch5","","null","<p class=block-text>Trial 10 out of 78</p>","null","pattern_show_trial_num","","","","","","","","","","","","","","","","","","","","","","","","",""
"","","","","","image-keyboard-response","40","95794","0.0-2.0-5.0-1.9","5cbf75531864210001fb4db2","E1","batch5","","4524.899999976158","stim/no_39_1_w.png","j","pattern_response","true","j","pattern_21","4524.899999976158","true","9","","","","","","","","","","","","","","","","","","",""
"","","","","","html-keyboard-response","41","97117","0.0-2.0-5.0-0.10","5cbf75531864210001fb4db2","E1","batch5","","null","<p class=block-text>Trial 11 out of 78</p>","null","pattern_show_trial_num","","","","","","","","","","","","","","","","","","","","","","","","",""
"","","","","","image-keyboard-response","42","105566","0.0-2.0-5.0-1.10","5cbf75531864210001fb4db2","E1","batch5","","8446.399999976158","stim/no_53_1_b.png","j","pattern_response","true","j","pattern_33","8446.399999976158","true","10","","","","","","","","","","","","","","","","","","",""
"","","","","","html-keyboard-response","43","106881","0.0-2.0-5.0-0.11","5cbf75531864210001fb4db2","E1","batch5","","null","<p class=block-text>Trial 12 out of 78</p>","null","pattern_show_trial_num","","","","","","","","","","","","","","","","","","","","","","","","",""
"","","","","","image-keyboard-response","44","108043","0.0-2.0-5.0-1.11","5cbf75531864210001fb4db2","E1","batch5","","1159.6000000238419","stim/yes_44_ver_w1_w.png","f","pattern_response","true","f","pattern_66","1159.6000000238419","true","11","","","","","","","","","","","","","","","","","","",""
"","","","","","html-keyboard-response","45","109365","0.0-2.0-5.0-0.12","5cbf75531864210001fb4db2","E1","batch5","","null","<p class=block-text>Trial 13 out of 78</p>","null","pattern_show_trial_num","","","","","","","","","","","","","","","","","","","","","","","","",""
"","","","","","image-keyboard-response","46","112898","0.0-2.0-5.0-1.12","5cbf75531864210001fb4db2","E1","batch5","","3531.5","stim/no_25_1_b.png","j","pattern_response","true","j","pattern_09","3531.5","true","12","","","","","","","","","","","","","","","","","","",""
"","","","","","html-keyboard-response","47","114214","0.0-2.0-5.0-0.13","5cbf75531864210001fb4db2","E1","batch5","","null","<p class=block-text>Trial 14 out of 78</p>","null","pattern_show_trial_num","","","","","","","","","","","","","","","","","","","","","","","","",""
"","","","","","image-keyboard-response","48","115543","0.0-2.0-5.0-1.13","5cbf75531864210001fb4db2","E1","batch5","","1326","stim/yes_30_ver_b1_b.png","f","pattern_response","true","f","pattern_54","1326","true","13","","","","","","","","","","","","","","","","","","",""
"","","","","","html-keyboard-response","49","116867","0.0-2.0-5.0-0.14","5cbf75531864210001fb4db2","E1","batch5","","null","<p class=block-text>Trial 15 out of 78</p>","null","pattern_show_trial_num","","","","","","","","","","","","","","","","","","","","","","","","",""
"","","","","","image-keyboard-response","50","117915","0.0-2.0-5.0-1.14","5cbf75531864210001fb4db2","E1","batch5","","1046.3000000715256","stim/yes_15_dia_b1u_b.png","f","pattern_response","true","f","pattern_44","1046.3000000715256","true","14","","","","","","","","","","","","","","","","","","",""
"","","","","","html-keyboard-response","51","119230","0.0-2.0-5.0-0.15","5cbf75531864210001fb4db2","E1","batch5","","null","<p class=block-text>Trial 16 out of 78</p>","null","pattern_show_trial_num","","","","","","","","","","","","","","","","","","","","","","","","",""
"","","","","","image-keyboard-response","52","122196","0.0-2.0-5.0-1.15","5cbf75531864210001fb4db2","E1","batch5","","2964.100000023842","stim/no_18_1_b.png","j","pattern_response","true","j","pattern_05","2964.100000023842","true","15","","","","","","","","","","","","","","","","","","",""
"","","","","","html-keyboard-response","53","123515","0.0-2.0-5.0-0.16","5cbf75531864210001fb4db2","E1","batch5","","null","<p class=block-text>Trial 17 out of 78</p>","null","pattern_show_trial_num","","","","","","","","","","","","","","","","","","","","","","","","",""
"","","","","","image-keyboard-response","54","125145","0.0-2.0-5.0-1.16","5cbf75531864210001fb4db2","E1","batch5","","1627.1000000238419","stim/no_15_1_w.png","j","pattern_response","true","j","pattern_03","1627.1000000238419","true","16","","","","","","","","","","","","","","","","","","",""
"","","","","","html-keyboard-response","55","126451","0.0-2.0-5.0-0.17","5cbf75531864210001fb4db2","E1","batch5","","null","<p class=block-text>Trial 18 out of 78</p>","null","pattern_show_trial_num","","","","","","","","","","","","","","","","","","","","","","","","",""
"","","","","","image-keyboard-response","56","127218","0.0-2.0-5.0-1.17","5cbf75531864210001fb4db2","E1","batch5","","764.6999999284744","stim/yes_12_hor_w1_w.png","f","pattern_response","true","f","pattern_42","764.6999999284744","true","17","","","","","","","","","","","","","","","","","","",""
"","","","","","html-keyboard-response","57","128548","0.0-2.0-5.0-0.18","5cbf75531864210001fb4db2","E1","batch5","","null","<p class=block-text>Trial 19 out of 78</p>","null","pattern_show_trial_num","","","","","","","","","","","","","","","","","","","","","","","","",""
"","","","","","image-keyboard-response","58","133897","0.0-2.0-5.0-1.18","5cbf75531864210001fb4db2","E1","batch5","","5348.5","stim/no_33_1_b.png","j","pattern_response","true","j","pattern_15","5348.5","true","18","","","","","","","","","","","","","","","","","","",""
"","","","","","html-keyboard-response","59","135216","0.0-2.0-5.0-0.19","5cbf75531864210001fb4db2","E1","batch5","","null","<p class=block-text>Trial 20 out of 78</p>","null","pattern_show_trial_num","","","","","","","","","","","","","","","","","","","","","","","","",""
"","","","","","image-keyboard-response","60","143399","0.0-2.0-5.0-1.19","5cbf75531864210001fb4db2","E1","batch5","","8180.700000047684","stim/no_58_1_w.png","j","pattern_response","true","j","pattern_35","8180.700000047684","true","19","","","","","","","","","","","","","","","","","","",""
"","","","","","html-keyboard-response","61","144716","0.0-2.0-5.0-0.20","5cbf75531864210001fb4db2","E1","batch5","","null","<p class=block-text>Trial 21 out of 78</p>","null","pattern_show_trial_num","","","","","","","","","","","","","","","","","","","","","","","","",""
"","","","","","image-keyboard-response","62","145687","0.0-2.0-5.0-1.20","5cbf75531864210001fb4db2","E1","batch5","","963.8999999761581","stim/yes_29_hor_b1_b.png","f","pattern_response","true","f","pattern_52","963.8999999761581","true","20","","","","","","","","","","","","","","","","","","",""
"","","","","","html-keyboard-response","63","147012","0.0-2.0-5.0-0.21","5cbf75531864210001fb4db2","E1","batch5","","null","<p class=block-text>Trial 22 out of 78</p>","null","pattern_show_trial_num","","","","","","","","","","","","","","","","","","","","","","","","",""
"","","","","","image-keyboard-response","64","148609","0.0-2.0-5.0-1.21","5cbf75531864210001fb4db2","E1","batch5","","1594.5","stim/yes_51_dia_b1.png","f","pattern_response","true","f","pattern_72","1594.5","true","21","","","","","","","","","","","","","","","","","","",""
"","","","","","html-keyboard-response","65","149933","0.0-2.0-5.0-0.22","5cbf75531864210001fb4db2","E1","batch5","","null","<p class=block-text>Trial 23 out of 78</p>","null","pattern_show_trial_num","","","","","","","","","","","","","","","","","","","","","","","","",""
"","","","","","image-keyboard-response","66","150729","0.0-2.0-5.0-1.22","5cbf75531864210001fb4db2","E1","batch5","","794.6000000238419","stim/yes_17_ver_b1_b.png","f","pattern_response","true","f","pattern_46","794.6000000238419","true","22","","","","","","","","","","","","","","","","","","",""
"","","","","","html-keyboard-response","67","152048","0.0-2.0-5.0-0.23","5cbf75531864210001fb4db2","E1","batch5","","null","<p class=block-text>Trial 24 out of 78</p>","null","pattern_show_trial_num","","","","","","","","","","","","","","","","","","","","","","","","",""
"","","","","","image-keyboard-response","68","159751","0.0-2.0-5.0-1.23","5cbf75531864210001fb4db2","E1","batch5","","7700.5","stim/no_47_1_b.png","j","pattern_response","true","j","pattern_27","7700.5","true","23","","","","","","","","","","","","","","","","","","",""
"","","","","","html-keyboard-response","69","161068","0.0-2.0-5.0-0.24","5cbf75531864210001fb4db2","E1","batch5","","null","<p class=block-text>Trial 25 out of 78</p>","null","pattern_show_trial_num","","","","","","","","","","","","","","","","","","","","","","","","",""
"","","","","","image-keyboard-response","70","162737","0.0-2.0-5.0-1.24","5cbf75531864210001fb4db2","E1","batch5","","1666.7999999523163","stim/no_12_1.png","j","pattern_response","true","j","pattern_01","1666.7999999523163","true","24","","","","","","","","","","","","","","","","","","",""
"","","","","","html-keyboard-response","71","164064","0.0-2.0-5.0-0.25","5cbf75531864210001fb4db2","E1","batch5","","null","<p class=block-text>Trial 26 out of 78</p>","null","pattern_show_trial_num","","","","","","","","","","","","","","","","","","","","","","","","",""
"","","","","","image-keyboard-response","72","173097","0.0-2.0-5.0-1.25","5cbf75531864210001fb4db2","E1","batch5","","9031.200000047684","stim/no_45_1_w.png","j","pattern_response","true","j","pattern_25","9031.200000047684","true","25","","","","","","","","","","","","","","","","","","",""
"","","","","","html-keyboard-response","73","174416","0.0-2.0-5.0-0.26","5cbf75531864210001fb4db2","E1","batch5","","null","<p class=block-text>Trial 27 out of 78</p>","null","pattern_show_trial_num","","","","","","","","","","","","","","","","","","","","","","","","",""
"","","","","","image-keyboard-response","74","179793","0.0-2.0-5.0-1.26","5cbf75531864210001fb4db2","E1","batch5","","5373.899999976158","stim/no_37_2_w.png","j","pattern_response","true","j","pattern_19","5373.899999976158","true","26","","","","","","","","","","","","","","","","","","",""
"","","","","","html-keyboard-response","75","181114","0.0-2.0-5.0-0.27","5cbf75531864210001fb4db2","E1","batch5","","null","<p class=block-text>Trial 28 out of 78</p>","null","pattern_show_trial_num","","","","","","","","","","","","","","","","","","","","","","","","",""
"","","","","","image-keyboard-response","76","184629","0.0-2.0-5.0-1.27","5cbf75531864210001fb4db2","E1","batch5","","3512.5","stim/yes_42_dia_w1_w.png","f","pattern_response","true","f","pattern_64","3512.5","true","27","","","","","","","","","","","","","","","","","","",""
"","","","","","html-keyboard-response","77","185947","0.0-2.0-5.0-0.28","5cbf75531864210001fb4db2","E1","batch5","","null","<p class=block-text>Trial 29 out of 78</p>","null","pattern_show_trial_num","","","","","","","","","","","","","","","","","","","","","","","","",""
"","","","","","image-keyboard-response","78","195211","0.0-2.0-5.0-1.28","5cbf75531864210001fb4db2","E1","batch5","","9262.700000047684","stim/no_51_1.png","j","pattern_response","true","j","pattern_31","9262.700000047684","true","28","","","","","","","","","","","","","","","","","","",""
"","","","","","html-keyboard-response","79","196533","0.0-2.0-5.0-0.29","5cbf75531864210001fb4db2","E1","batch5","","null","<p class=block-text>Trial 30 out of 78</p>","null","pattern_show_trial_num","","","","","","","","","","","","","","","","","","","","","","","","",""
"","","","","","image-keyboard-response","80","197656","0.0-2.0-5.0-1.29","5cbf75531864210001fb4db2","E1","batch5","","1120.2999999523163","stim/yes_70_ver_b1.png","f","pattern_response","true","f","pattern_80","1120.2999999523163","true","29","","","","","","","","","","","","","","","","","","",""
"","","","","","html-keyboard-response","81","198968","0.0-2.0-5.0-0.30","5cbf75531864210001fb4db2","E1","batch5","","null","<p class=block-text>Trial 31 out of 78</p>","null","pattern_show_trial_num","","","","","","","","","","","","","","","","","","","","","","","","",""
"","","","","","image-keyboard-response","82","199804","0.0-2.0-5.0-1.30","5cbf75531864210001fb4db2","E1","batch5","","834.3000000715256","stim/yes_36_ver_w1_w.png","f","pattern_response","true","f","pattern_58","834.3000000715256","true","30","","","","","","","","","","","","","","","","","","",""
"","","","","","html-keyboard-response","83","201117","0.0-2.0-5.0-0.31","5cbf75531864210001fb4db2","E1","batch5","","null","<p class=block-text>Trial 32 out of 78</p>","null","pattern_show_trial_num","","","","","","","","","","","","","","","","","","","","","","","","",""
"","","","","","image-keyboard-response","84","205274","0.0-2.0-5.0-1.31","5cbf75531864210001fb4db2","E1","batch5","","4155.700000047684","stim/no_30_1_b.png","j","pattern_response","true","j","pattern_13","4155.700000047684","true","31","","","","","","","","","","","","","","","","","","",""
"","","","","","html-keyboard-response","85","206585","0.0-2.0-5.0-0.32","5cbf75531864210001fb4db2","E1","batch5","","null","<p class=block-text>Trial 33 out of 78</p>","null","pattern_show_trial_num","","","","","","","","","","","","","","","","","","","","","","","","",""
"","","","","","image-keyboard-response","86","207730","0.0-2.0-5.0-1.32","5cbf75531864210001fb4db2","E1","batch5","","1143.7999999523163","stim/yes_53_ver_b1_b.png","f","pattern_response","true","f","pattern_74","1143.7999999523163","true","32","","","","","","","","","","","","","","","","","","",""
"","","","","","html-keyboard-response","87","209047","0.0-2.0-5.0-0.33","5cbf75531864210001fb4db2","E1","batch5","","null","<p class=block-text>Trial 34 out of 78</p>","null","pattern_show_trial_num","","","","","","","","","","","","","","","","","","","","","","","","",""
"","","","","","image-keyboard-response","88","210279","0.0-2.0-5.0-1.33","5cbf75531864210001fb4db2","E1","batch5","","1230","stim/yes_46_ver_b1_b.png","f","pattern_response","true","f","pattern_68","1230","true","33","","","","","","","","","","","","","","","","","","",""
"","","","","","html-keyboard-response","89","211598","0.0-2.0-5.0-0.34","5cbf75531864210001fb4db2","E1","batch5","","null","<p class=block-text>Trial 35 out of 78</p>","null","pattern_show_trial_num","","","","","","","","","","","","","","","","","","","","","","","","",""
"","","","","","image-keyboard-response","90","219561","0.0-2.0-5.0-1.34","5cbf75531864210001fb4db2","E1","batch5","","7961.600000023842","stim/yes_58_dia_w1_w.png","j","pattern_response","false","f","pattern_76","7961.600000023842","false","33","","","","","","","","","","","","","","","","","","",""
"","","","","","html-keyboard-response","91","220883","0.0-2.0-5.0-0.35","5cbf75531864210001fb4db2","E1","batch5","","null","<p class=block-text>Trial 36 out of 78</p>","null","pattern_show_trial_num","","","","","","","","","","","","","","","","","","","","","","","","",""
"","","","","","image-keyboard-response","92","222326","0.0-2.0-5.0-1.35","5cbf75531864210001fb4db2","E1","batch5","","1439.8999999761581","stim/yes_49_hor_w1_b.png","f","pattern_response","true","f","pattern_70","1439.8999999761581","true","34","","","","","","","","","","","","","","","","","","",""
"","","","","","html-keyboard-response","93","223634","0.0-2.0-5.0-0.36","5cbf75531864210001fb4db2","E1","batch5","","null","<p class=block-text>Trial 37 out of 78</p>","null","pattern_show_trial_num","","","","","","","","","","","","","","","","","","","","","","","","",""
"","","","","","image-keyboard-response","94","224921","0.0-2.0-5.0-1.36","5cbf75531864210001fb4db2","E1","batch5","","1285.1000000238419","stim/yes_23_ver_b1.png","f","pattern_response","true","f","pattern_48","1285.1000000238419","true","35","","","","","","","","","","","","","","","","","","",""
"","","","","","html-keyboard-response","95","226235","0.0-2.0-5.0-0.37","5cbf75531864210001fb4db2","E1","batch5","","null","<p class=block-text>Trial 38 out of 78</p>","null","pattern_show_trial_num","","","","","","","","","","","","","","","","","","","","","","","","",""
"","","","","","image-keyboard-response","96","227286","0.0-2.0-5.0-1.37","5cbf75531864210001fb4db2","E1","batch5","","1049.3999999761581","stim/yes_39_hor_w1_w.png","f","pattern_response","true","f","pattern_62","1049.3999999761581","true","36","","","","","","","","","","","","","","","","","","",""
"","","","","","html-keyboard-response","97","228617","0.0-2.0-5.0-0.38","5cbf75531864210001fb4db2","E1","batch5","","null","<p class=block-text>Trial 39 out of 78</p>","null","pattern_show_trial_num","","","","","","","","","","","","","","","","","","","","","","","","",""
"","","","","","image-keyboard-response","98","238609","0.0-2.0-5.0-1.38","5cbf75531864210001fb4db2","E1","batch5","","9991.399999976158","stim/no_67_1.png","j","pattern_response","true","j","pattern_39","9991.399999976158","true","37","","","","","","","","","","","","","","","","","","",""
"","","","","","image-keyboard-response","99","240864","0.0-2.0-6.0","5cbf75531864210001fb4db2","E1","batch5","","1746.6000000238419","stim/empty_board.png","j","attention_check","true","j","","","","","500","[""f"",""j""]","","","","","","","","","","","","","","","","",""
"","","","","","html-keyboard-response","100","241667","0.0-2.0-7.0-0.0","5cbf75531864210001fb4db2","E1","batch5","","null","<p class=block-text>Trial 40 out of 78</p>","null","pattern_show_trial_num","","","","","","","","","","","","","","","","","","","","","","","","",""
"","","","","","image-keyboard-response","101","243386","0.0-2.0-7.0-1.0","5cbf75531864210001fb4db2","E1","batch5","","1716.3000000715256","stim/yes_43_ver_w1_w.png","f","pattern_response","true","f","pattern_65","1716.3000000715256","true","38","","","","","","","","","","","","","","","","","","",""
"","","","","","html-keyboard-response","102","244715","0.0-2.0-7.0-0.1","5cbf75531864210001fb4db2","E1","batch5","","null","<p class=block-text>Trial 41 out of 78</p>","null","pattern_show_trial_num","","","","","","","","","","","","","","","","","","","","","","","","",""
"","","","","","image-keyboard-response","103","245603","0.0-2.0-7.0-1.1","5cbf75531864210001fb4db2","E1","batch5","","886.6000000238419","stim/yes_25_hor_b1_b.png","f","pattern_response","true","f","pattern_49","886.6000000238419","true","39","","","","","","","","","","","","","","","","","","",""
"","","","","","html-keyboard-response","104","246931","0.0-2.0-7.0-0.2","5cbf75531864210001fb4db2","E1","batch5","","null","<p class=block-text>Trial 42 out of 78</p>","null","pattern_show_trial_num","","","","","","","","","","","","","","","","","","","","","","","","",""
"","","","","","image-keyboard-response","105","248537","0.0-2.0-7.0-1.2","5cbf75531864210001fb4db2","E1","batch5","","1604.0999999046326","stim/yes_31_hor_b1.png","f","pattern_response","true","f","pattern_55","1604.0999999046326","true","40","","","","","","","","","","","","","","","","","","",""
"","","","","","html-keyboard-response","106","249866","0.0-2.0-7.0-0.3","5cbf75531864210001fb4db2","E1","batch5","","null","<p class=block-text>Trial 43 out of 78</p>","null","pattern_show_trial_num","","","","","","","","","","","","","","","","","","","","","","","","",""
"","","","","","image-keyboard-response","107","258433","0.0-2.0-7.0-1.3","5cbf75531864210001fb4db2","E1","batch5","","8577.300000071526","stim/no_65_1_b.png","j","pattern_response","true","j","pattern_38","8577.300000071526","true","41","","","","","","","","","","","","","","","","","","",""
"","","","","","html-keyboard-response","108","259754","0.0-2.0-7.0-0.4","5cbf75531864210001fb4db2","E1","batch5","","null","<p class=block-text>Trial 44 out of 78</p>","null","pattern_show_trial_num","","","","","","","","","","","","","","","","","","","","","","","","",""
"","","","","","image-keyboard-response","109","265517","0.0-2.0-7.0-1.4","5cbf75531864210001fb4db2","E1","batch5","","5760.299999952316","stim/no_55_1_w.png","f","pattern_response","false","j","pattern_34","5760.299999952316","false","41","","","","","","","","","","","","","","","","","","",""
"","","","","","html-keyboard-response","110","266840","0.0-2.0-7.0-0.5","5cbf75531864210001fb4db2","E1","batch5","","null","<p class=block-text>Trial 45 out of 78</p>","null","pattern_show_trial_num","","","","","","","","","","","","","","","","","","","","","","","","",""
"","","","","","image-keyboard-response","111","268238","0.0-2.0-7.0-1.5","5cbf75531864210001fb4db2","E1","batch5","","1395.8999999761581","stim/yes_35_dia_b1.png","f","pattern_response","true","f","pattern_57","1395.8999999761581","true","42","","","","","","","","","","","","","","","","","","",""
"","","","","","html-keyboard-response","112","269556","0.0-2.0-7.0-0.6","5cbf75531864210001fb4db2","E1","batch5","","null","<p class=block-text>Trial 46 out of 78</p>","null","pattern_show_trial_num","","","","","","","","","","","","","","","","","","","","","","","","",""
"","","","","","image-keyboard-response","113","270392","0.0-2.0-7.0-1.6","5cbf75531864210001fb4db2","E1","batch5","","833.5999999046326","stim/yes_22_ver_w1.png","f","pattern_response","true","f","pattern_47","833.5999999046326","true","43","","","","","","","","","","","","","","","","","","",""
"","","","","","html-keyboard-response","114","271721","0.0-2.0-7.0-0.7","5cbf75531864210001fb4db2","E1","batch5","","null","<p class=block-text>Trial 47 out of 78</p>","null","pattern_show_trial_num","","","","","","","","","","","","","","","","","","","","","","","","",""
"","","","","","image-keyboard-response","115","272636","0.0-2.0-7.0-1.7","5cbf75531864210001fb4db2","E1","batch5","","913.6999999284744","stim/no_13_2_b.png","j","pattern_response","true","j","pattern_02","913.6999999284744","true","44","","","","","","","","","","","","","","","","","","",""
"","","","","","html-keyboard-response","116","273955","0.0-2.0-7.0-0.8","5cbf75531864210001fb4db2","E1","batch5","","null","<p class=block-text>Trial 48 out of 78</p>","null","pattern_show_trial_num","","","","","","","","","","","","","","","","","","","","","","","","",""
"","","","","","image-keyboard-response","117","284503","0.0-2.0-7.0-1.8","5cbf75531864210001fb4db2","E1","batch5","","10546","stim/no_70_2.png","j","pattern_response","true","j","pattern_40","10546","true","45","","","","","","","","","","","","","","","","","","",""
"","","","","","html-keyboard-response","118","285823","0.0-2.0-7.0-0.9","5cbf75531864210001fb4db2","E1","batch5","","null","<p class=block-text>Trial 49 out of 78</p>","null","pattern_show_trial_num","","","","","","","","","","","","","","","","","","","","","","","","",""
"","","","","","image-keyboard-response","119","291766","0.0-2.0-7.0-1.9","5cbf75531864210001fb4db2","E1","batch5","","5941","stim/no_46_1_b.png","j","pattern_response","true","j","pattern_26","5941","true","46","","","","","","","","","","","","","","","","","","",""
"","","","","","html-keyboard-response","120","293089","0.0-2.0-7.0-0.10","5cbf75531864210001fb4db2","E1","batch5","","null","<p class=block-text>Trial 50 out of 78</p>","null","pattern_show_trial_num","","","","","","","","","","","","","","","","","","","","","","","","",""
"","","","","","image-keyboard-response","121","293964","0.0-2.0-7.0-1.10","5cbf75531864210001fb4db2","E1","batch5","","872.1000000238419","stim/yes_14_hor_b1_w.png","f","pattern_response","true","f","pattern_43","872.1000000238419","true","47","","","","","","","","","","","","","","","","","","",""
"","","","","","html-keyboard-response","122","295288","0.0-2.0-7.0-0.11","5cbf75531864210001fb4db2","E1","batch5","","null","<p class=block-text>Trial 51 out of 78</p>","null","pattern_show_trial_num","","","","","","","","","","","","","","","","","","","","","","","","",""
"","","","","","image-keyboard-response","123","296640","0.0-2.0-7.0-1.11","5cbf75531864210001fb4db2","E1","batch5","","1350.8999999761581","stim/yes_55_hor_w1_w.png","f","pattern_response","true","f","pattern_75","1350.8999999761581","true","48","","","","","","","","","","","","","","","","","","",""
"","","","","","html-keyboard-response","124","297972","0.0-2.0-7.0-0.12","5cbf75531864210001fb4db2","E1","batch5","","null","<p class=block-text>Trial 52 out of 78</p>","null","pattern_show_trial_num","","","","","","","","","","","","","","","","","","","","","","","","",""
"","","","","","image-keyboard-response","125","303737","0.0-2.0-7.0-1.12","5cbf75531864210001fb4db2","E1","batch5","","5763.400000095367","stim/no_36_2_w.png","j","pattern_response","true","j","pattern_18","5763.400000095367","true","49","","","","","","","","","","","","","","","","","","",""
"","","","","","html-keyboard-response","126","305054","0.0-2.0-7.0-0.13","5cbf75531864210001fb4db2","E1","batch5","","null","<p class=block-text>Trial 53 out of 78</p>","null","pattern_show_trial_num","","","","","","","","","","","","","","","","","","","","","","","","",""
"","","","","","image-keyboard-response","127","306109","0.0-2.0-7.0-1.13","5cbf75531864210001fb4db2","E1","batch5","","1052.3999999761581","stim/yes_67_hor_b1.png","f","pattern_response","true","f","pattern_79","1052.3999999761581","true","50","","","","","","","","","","","","","","","","","","",""
"","","","","","html-keyboard-response","128","307425","0.0-2.0-7.0-0.14","5cbf75531864210001fb4db2","E1","batch5","","null","<p class=block-text>Trial 54 out of 78</p>","null","pattern_show_trial_num","","","","","","","","","","","","","","","","","","","","","","","","",""
"","","","","","image-keyboard-response","129","309013","0.0-2.0-7.0-1.14","5cbf75531864210001fb4db2","E1","batch5","","1585.6999999284744","stim/yes_28_ver_b1.png","f","pattern_response","true","f","pattern_51","1585.6999999284744","true","51","","","","","","","","","","","","","","","","","","",""
"","","","","","html-keyboard-response","130","310339","0.0-2.0-7.0-0.15","5cbf75531864210001fb4db2","E1","batch5","","null","<p class=block-text>Trial 55 out of 78</p>","null","pattern_show_trial_num","","","","","","","","","","","","","","","","","","","","","","","","",""
"","","","","","image-keyboard-response","131","311226","0.0-2.0-7.0-1.15","5cbf75531864210001fb4db2","E1","batch5","","885.6000000238419","stim/yes_38_hor_b1_b.png","f","pattern_response","true","f","pattern_61","885.6000000238419","true","52","","","","","","","","","","","","","","","","","","",""
"","","","","","html-keyboard-response","132","312556","0.0-2.0-7.0-0.16","5cbf75531864210001fb4db2","E1","batch5","","null","<p class=block-text>Trial 56 out of 78</p>","null","pattern_show_trial_num","","","","","","","","","","","","","","","","","","","","","","","","",""
"","","","","","image-keyboard-response","133","318462","0.0-2.0-7.0-1.16","5cbf75531864210001fb4db2","E1","batch5","","5899.5","stim/no_34_1_b.png","j","pattern_response","true","j","pattern_16","5899.5","true","53","","","","","","","","","","","","","","","","","","",""
"","","","","","html-keyboard-response","134","319780","0.0-2.0-7.0-0.17","5cbf75531864210001fb4db2","E1","batch5","","null","<p class=block-text>Trial 57 out of 78</p>","null","pattern_show_trial_num","","","","","","","","","","","","","","","","","","","","","","","","",""
"","","","","","image-keyboard-response","135","322232","0.0-2.0-7.0-1.17","5cbf75531864210001fb4db2","E1","batch5","","2450","stim/yes_29_ver_w1.png","f","pattern_response","true","f","pattern_53","2450","true","54","","","","","","","","","","","","","","","","","","",""
"","","","","","html-keyboard-response","136","323546","0.0-2.0-7.0-0.18","5cbf75531864210001fb4db2","E1","batch5","","null","<p class=block-text>Trial 58 out of 78</p>","null","pattern_show_trial_num","","","","","","","","","","","","","","","","","","","","","","","","",""
"","","","","","image-keyboard-response","137","329364","0.0-2.0-7.0-1.18","5cbf75531864210001fb4db2","E1","batch5","","5816","stim/no_48_1_w.png","j","pattern_response","true","j","pattern_28","5816","true","55","","","","","","","","","","","","","","","","","","",""
"","","","","","html-keyboard-response","138","330680","0.0-2.0-7.0-0.19","5cbf75531864210001fb4db2","E1","batch5","","null","<p class=block-text>Trial 59 out of 78</p>","null","pattern_show_trial_num","","","","","","","","","","","","","","","","","","","","","","","","",""
"","","","","","image-keyboard-response","139","331990","0.0-2.0-7.0-1.19","5cbf75531864210001fb4db2","E1","batch5","","1307.3999999761581","stim/yes_45_hor_b2_b.png","f","pattern_response","true","f","pattern_67","1307.3999999761581","true","56","","","","","","","","","","","","","","","","","","",""
"","","","","","html-keyboard-response","140","333310","0.0-2.0-7.0-0.20","5cbf75531864210001fb4db2","E1","batch5","","null","<p class=block-text>Trial 60 out of 78</p>","null","pattern_show_trial_num","","","","","","","","","","","","","","","","","","","","","","","","",""
"","","","","","image-keyboard-response","141","334519","0.0-2.0-7.0-1.20","5cbf75531864210001fb4db2","E1","batch5","","1206.2000000476837","stim/yes_60_ver_b1_b.png","f","pattern_response","true","f","pattern_77","1206.2000000476837","true","57","","","","","","","","","","","","","","","","","","",""
"","","","","","html-keyboard-response","142","335831","0.0-2.0-7.0-0.21","5cbf75531864210001fb4db2","E1","batch5","","null","<p class=block-text>Trial 61 out of 78</p>","null","pattern_show_trial_num","","","","","","","","","","","","","","","","","","","","","","","","",""
"","","","","","image-keyboard-response","143","338096","0.0-2.0-7.0-1.21","5cbf75531864210001fb4db2","E1","batch5","","2263.899999976158","stim/no_20_1_w.png","j","pattern_response","true","j","pattern_06","2263.899999976158","true","58","","","","","","","","","","","","","","","","","","",""
"","","","","","html-keyboard-response","144","339398","0.0-2.0-7.0-0.22","5cbf75531864210001fb4db2","E1","batch5","","null","<p class=block-text>Trial 62 out of 78</p>","null","pattern_show_trial_num","","","","","","","","","","","","","","","","","","","","","","","","",""
"","","","","","image-keyboard-response","145","345418","0.0-2.0-7.0-1.22","5cbf75531864210001fb4db2","E1","batch5","","6017.399999976158","stim/no_44_1.png","j","pattern_response","true","j","pattern_24","6017.399999976158","true","59","","","","","","","","","","","","","","","","","","",""
"","","","","","html-keyboard-response","146","346746","0.0-2.0-7.0-0.23","5cbf75531864210001fb4db2","E1","batch5","","null","<p class=block-text>Trial 63 out of 78</p>","null","pattern_show_trial_num","","","","","","","","","","","","","","","","","","","","","","","","",""
"","","","","","image-keyboard-response","147","349540","0.0-2.0-7.0-1.23","5cbf75531864210001fb4db2","E1","batch5","","2791.7000000476837","stim/no_26_1_w.png","j","pattern_response","true","j","pattern_10","2791.7000000476837","true","60","","","","","","","","","","","","","","","","","","",""
"","","","","","html-keyboard-response","148","350861","0.0-2.0-7.0-0.24","5cbf75531864210001fb4db2","E1","batch5","","null","<p class=block-text>Trial 64 out of 78</p>","null","pattern_show_trial_num","","","","","","","","","","","","","","","","","","","","","","","","",""
"","","","","","image-keyboard-response","149","351829","0.0-2.0-7.0-1.24","5cbf75531864210001fb4db2","E1","batch5","","965.6999999284744","stim/yes_17_dia_w1.png","f","pattern_response","true","f","pattern_45","965.6999999284744","true","61","","","","","","","","","","","","","","","","","","",""
"","","","","","html-keyboard-response","150","353145","0.0-2.0-7.0-0.25","5cbf75531864210001fb4db2","E1","batch5","","null","<p class=block-text>Trial 65 out of 78</p>","null","pattern_show_trial_num","","","","","","","","","","","","","","","","","","","","","","","","",""
"","","","","","image-keyboard-response","151","356184","0.0-2.0-7.0-1.25","5cbf75531864210001fb4db2","E1","batch5","","3037.2999999523163","stim/no_32_1_w.png","j","pattern_response","true","j","pattern_14","3037.2999999523163","true","62","","","","","","","","","","","","","","","","","","",""
"","","","","","html-keyboard-response","152","357512","0.0-2.0-7.0-0.26","5cbf75531864210001fb4db2","E1","batch5","","null","<p class=block-text>Trial 66 out of 78</p>","null","pattern_show_trial_num","","","","","","","","","","","","","","","","","","","","","","","","",""
"","","","","","image-keyboard-response","153","362263","0.0-2.0-7.0-1.26","5cbf75531864210001fb4db2","E1","batch5","","4748.200000047684","stim/no_38_1_b.png","j","pattern_response","true","j","pattern_20","4748.200000047684","true","63","","","","","","","","","","","","","","","","","","",""
"","","","","","html-keyboard-response","154","363577","0.0-2.0-7.0-0.27","5cbf75531864210001fb4db2","E1","batch5","","null","<p class=block-text>Trial 67 out of 78</p>","null","pattern_show_trial_num","","","","","","","","","","","","","","","","","","","","","","","","",""
"","","","","","image-keyboard-response","155","370790","0.0-2.0-7.0-1.27","5cbf75531864210001fb4db2","E1","batch5","","7210.399999976158","stim/yes_50_dia_w1.png","j","pattern_response","false","f","pattern_71","7210.399999976158","false","63","","","","","","","","","","","","","","","","","","",""
"","","","","","html-keyboard-response","156","372098","0.0-2.0-7.0-0.28","5cbf75531864210001fb4db2","E1","batch5","","null","<p class=block-text>Trial 68 out of 78</p>","null","pattern_show_trial_num","","","","","","","","","","","","","","","","","","","","","","","","",""
"","","","","","image-keyboard-response","157","376489","0.0-2.0-7.0-1.28","5cbf75531864210001fb4db2","E1","batch5","","4388.299999952316","stim/no_23_1.png","j","pattern_response","true","j","pattern_08","4388.299999952316","true","64","","","","","","","","","","","","","","","","","","",""
"","","","","","html-keyboard-response","158","377811","0.0-2.0-7.0-0.29","5cbf75531864210001fb4db2","E1","batch5","","null","<p class=block-text>Trial 69 out of 78</p>","null","pattern_show_trial_num","","","","","","","","","","","","","","","","","","","","","","","","",""
"","","","","","image-keyboard-response","159","380917","0.0-2.0-7.0-1.29","5cbf75531864210001fb4db2","E1","batch5","","3107.4000000953674","stim/yes_48_dia_w1_w.png","f","pattern_response","true","f","pattern_69","3107.4000000953674","true","65","","","","","","","","","","","","","","","","","","",""
"","","","","","html-keyboard-response","160","382227","0.0-2.0-7.0-0.30","5cbf75531864210001fb4db2","E1","batch5","","null","<p class=block-text>Trial 70 out of 78</p>","null","pattern_show_trial_num","","","","","","","","","","","","","","","","","","","","","","","","",""
"","","","","","image-keyboard-response","161","391437","0.0-2.0-7.0-1.30","5cbf75531864210001fb4db2","E1","batch5","","9207.600000023842","stim/no_62_1_w.png","j","pattern_response","true","j","pattern_36","9207.600000023842","true","66","","","","","","","","","","","","","","","","","","",""
"","","","","","html-keyboard-response","162","392760","0.0-2.0-7.0-0.31","5cbf75531864210001fb4db2","E1","batch5","","null","<p class=block-text>Trial 71 out of 78</p>","null","pattern_show_trial_num","","","","","","","","","","","","","","","","","","","","","","","","",""
"","","","","","image-keyboard-response","163","402555","0.0-2.0-7.0-1.31","5cbf75531864210001fb4db2","E1","batch5","","9793.299999952316","stim/yes_52_ver_w1.png","j","pattern_response","false","f","pattern_73","9793.299999952316","false","66","","","","","","","","","","","","","","","","","","",""
"","","","","","html-keyboard-response","164","403863","0.0-2.0-7.0-0.32","5cbf75531864210001fb4db2","E1","batch5","","null","<p class=block-text>Trial 72 out of 78</p>","null","pattern_show_trial_num","","","","","","","","","","","","","","","","","","","","","","","","",""
"","","","","","image-keyboard-response","165","411547","0.0-2.0-7.0-1.32","5cbf75531864210001fb4db2","E1","batch5","","7682.100000023842","stim/no_52_1.png","j","pattern_response","true","j","pattern_32","7682.100000023842","true","67","","","","","","","","","","","","","","","","","","",""
"","","","","","html-keyboard-response","166","412861","0.0-2.0-7.0-0.33","5cbf75531864210001fb4db2","E1","batch5","","null","<p class=block-text>Trial 73 out of 78</p>","null","pattern_show_trial_num","","","","","","","","","","","","","","","","","","","","","","","","",""
"","","","","","image-keyboard-response","167","418706","0.0-2.0-7.0-1.33","5cbf75531864210001fb4db2","E1","batch5","","5843","stim/no_50_1.png","j","pattern_response","true","j","pattern_30","5843","true","68","","","","","","","","","","","","","","","","","","",""
"","","","","","html-keyboard-response","168","420027","0.0-2.0-7.0-0.34","5cbf75531864210001fb4db2","E1","batch5","","null","<p class=block-text>Trial 74 out of 78</p>","null","pattern_show_trial_num","","","","","","","","","","","","","","","","","","","","","","","","",""
"","","","","","image-keyboard-response","169","422713","0.0-2.0-7.0-1.34","5cbf75531864210001fb4db2","E1","batch5","","2685.2999999523163","stim/no_17_1_w.png","j","pattern_response","true","j","pattern_04","2685.2999999523163","true","69","","","","","","","","","","","","","","","","","","",""
"","","","","","html-keyboard-response","170","424043","0.0-2.0-7.0-0.35","5cbf75531864210001fb4db2","E1","batch5","","null","<p class=block-text>Trial 75 out of 78</p>","null","pattern_show_trial_num","","","","","","","","","","","","","","","","","","","","","","","","",""
"","","","","","image-keyboard-response","171","425806","0.0-2.0-7.0-1.35","5cbf75531864210001fb4db2","E1","batch5","","1761","stim/yes_37_dia_w1.png","f","pattern_response","true","f","pattern_59","1761","true","70","","","","","","","","","","","","","","","","","","",""
"","","","","","html-keyboard-response","172","427123","0.0-2.0-7.0-0.36","5cbf75531864210001fb4db2","E1","batch5","","null","<p class=block-text>Trial 76 out of 78</p>","null","pattern_show_trial_num","","","","","","","","","","","","","","","","","","","","","","","","",""
"","","","","","image-keyboard-response","173","433444","0.0-2.0-7.0-1.36","5cbf75531864210001fb4db2","E1","batch5","","6320.700000047684","stim/no_42_1_w.png","j","pattern_response","true","j","pattern_22","6320.700000047684","true","71","","","","","","","","","","","","","","","","","","",""
"","","","","","html-keyboard-response","174","434762","0.0-2.0-7.0-0.37","5cbf75531864210001fb4db2","E1","batch5","","null","<p class=block-text>Trial 77 out of 78</p>","null","pattern_show_trial_num","","","","","","","","","","","","","","","","","","","","","","","","",""
"","","","","","image-keyboard-response","175","438982","0.0-2.0-7.0-1.37","5cbf75531864210001fb4db2","E1","batch5","","4217.900000095367","stim/no_29_1_b.png","j","pattern_response","true","j","pattern_12","4217.900000095367","true","72","","","","","","","","","","","","","","","","","","",""
"","","","","","html-keyboard-response","176","440310","0.0-2.0-7.0-0.38","5cbf75531864210001fb4db2","E1","batch5","","null","<p class=block-text>Trial 78 out of 78</p>","null","pattern_show_trial_num","","","","","","","","","","","","","","","","","","","","","","","","",""
"","","","","","image-keyboard-response","177","446779","0.0-2.0-7.0-1.38","5cbf75531864210001fb4db2","E1","batch5","","6463.200000047684","stim/yes_40_dia_b1_b.png","j","pattern_response","false","f","pattern_63","6463.200000047684","false","72","","","","","","","","","","","","","","","","","","",""
"","","","","","html-button-response","178","451174","0.0-2.0-8.0","5cbf75531864210001fb4db2","E1","batch5","","3889.1999999284744","<p class = block-text>This concludes the 4-in-a-row detection game.Thank you for your responses!<br>
            You responded correctly on 92% of the trials.<br>
            When you are ready, press ""Continue"" button to continue </p>","0","","","","","","","","","","","","","","","","","","","","","","","","","",""
"true","","","","","fullscreen","179","454802","0.0-3.0-0.0","5cbf75531864210001fb4db2","E1","batch5","","","","","","","","","","","","","","","","","","","","","","","","","","","","","",""
"","","","","","instructions","180","513451","0.0-3.0-1.0-0.0-0.0","5cbf75531864210001fb4db2","E1","batch5","[{""page_index"":0,""viewing_time"":10770.799999952316},{""page_index"":1,""viewing_time"":4568},{""page_index"":2,""viewing_time"":8466.899999976158},{""page_index"":3,""viewing_time"":7498.100000023842},{""page_index"":4,""viewing_time"":7832.299999952316},{""page_index"":5,""viewing_time"":16770},{""page_index"":6,""viewing_time"":2733.2000000476837}]","58639.699999928474","","","tol-instructions","","","","","","","","","","","","","","","","","","","","","","","","",""
"","","","","","html-button-response","181","514484","0.0-3.0-1.0-1.0-0.0","5cbf75531864210001fb4db2","E1","batch5","","1032.7999999523163","<p class=block-text> Let's answer a few questions <br>","0","tol_enter_quiz","","","","","","","","","","","","","","","","","","","","","","","","",""
"","","","","","html-button-response","182","518068","0.0-3.0-1.0-1.0-1.0","5cbf75531864210001fb4db2","E1","batch5","","3582.100000023842","<p class = block-text>True or False: You can only move the ball on top of a peg. <br></p>","0","tol_quiz","true","","","","","","","","","","","","","","","","","","","","","","","",""
"","","","","","html-button-response","183","519334","0.0-3.0-1.0-1.0-2.0","5cbf75531864210001fb4db2","E1","batch5","","1265.5","<p class = block-text>Correct! You can only move the ball on top of a peg.</p>","0","tol_quiz_feedback","","","","","","","","","","","","","","","","","","","","","","","","",""
"","","","","","html-button-response","184","521982","0.0-3.0-1.0-1.0-3.0","5cbf75531864210001fb4db2","E1","batch5","","2647.5","<p class = block-text>True or False: You should try to match your board with the target board with fewest moves possible. <br></p>","0","tol_quiz","true","","","","","","","","","","","","","","","","","","","","","","","",""
"","","","","","html-button-response","185","522767","0.0-3.0-1.0-1.0-4.0","5cbf75531864210001fb4db2","E1","batch5","","783.8000000715256","<p class = block-text>Correct! </p>","0","tol_quiz_feedback","","","","","","","","","","","","","","","","","","","","","","","","",""
"","","","","","html-button-response","186","524685","0.0-3.0-2.0","5cbf75531864210001fb4db2","E1","batch5","","1917.1000000238419","<p class=block-text> Now that you've understood the game, let's practice a few easier examples before we start!<br> <br>","0","","","","","","","","","","","","","","","","","","","","","","","","","",""
"","","","","","single-stim-button","187","527401","0.0-3.0-3.0-0.0","5cbf75531864210001fb4db2","E1","batch5","","2713","","","tol_practice","","","","","","","","","tol_peg_2","2713","2713","0","[[1,2,0],[0,0],[0]]","1","[[1,2,0],[0,0],[3]]","practice","2713","","","","","","","",""
"","","","","","single-stim-button","188","528734","0.0-3.0-3.0-1.0","5cbf75531864210001fb4db2","E1","batch5","","1333","","","tol_practice","","","","","","","","","tol_peg_3","1333","1333","0","[[1,2,0],[0,0],[3]]","1","[[1,2,0],[0,0],[3]]","practice","1333","","","","","","","",""
"","","","","","poldrack-single-stim","189","529747","0.0-3.0-4.0","5cbf75531864210001fb4db2","E1","batch5","","-1","","","tol_feedback","true","","","","","","","","","1000","1000","500","","","","","","-1","none","true","","0","","",""
"","","","","","single-stim-button","190","533284","0.0-3.0-5.0-0.0","5cbf75531864210001fb4db2","E1","batch5","","3535","","","tol_practice","","","","","","","","","tol_peg_1","3535","3535","0","[[1,0,0],[3,0],[0]]","2","[[0,0,0],[3,1],[2]]","practice","3535","","","","","","","",""
"","","","","","single-stim-button","191","534248","0.0-3.0-5.0-1.0","5cbf75531864210001fb4db2","E1","batch5","","964","","","tol_practice","","","","","","","","","tol_peg_3","964","964","0","[[1,0,0],[3,0],[2]]","2","[[0,0,0],[3,1],[2]]","practice","964","","","","","","","",""
"","","","","","single-stim-button","192","535547","0.0-3.0-5.1-0.1","5cbf75531864210001fb4db2","E1","batch5","","1299","","","tol_practice","","","","","","","","","tol_peg_1","1299","1299","0","[[0,0,0],[3,0],[2]]","3","[[0,0,0],[3,1],[2]]","practice","1299","","","","","","","",""
"","","","","","single-stim-button","193","536236","0.0-3.0-5.1-1.1","5cbf75531864210001fb4db2","E1","batch5","","688","","","tol_practice","","","","","","","","","tol_peg_2","688","688","0","[[0,0,0],[3,1],[2]]","3","[[0,0,0],[3,1],[2]]","practice","688","","","","","","","",""
"","","","","","poldrack-single-stim","194","537247","0.0-3.0-6.0","5cbf75531864210001fb4db2","E1","batch5","","-1","","","tol_feedback","true","","","","","","","","","1000","1000","500","","","","","","-1","none","true","","0","","",""
"","","","","","single-stim-button","195","540116","0.0-3.0-7.0-0.0","5cbf75531864210001fb4db2","E1","batch5","","2868","","","tol_practice","","","","","","","","","tol_peg_2","2868","2868","0","[[1,2,0],[0,0],[0]]","4","[[1,0,0],[2,0],[3]]","practice","2868","","","","","","","",""
"","","","","","single-stim-button","196","541517","0.0-3.0-7.0-1.0","5cbf75531864210001fb4db2","E1","batch5","","1400","","","tol_practice","","","","","","","","","tol_peg_3","1400","1400","0","[[1,2,0],[0,0],[3]]","4","[[1,0,0],[2,0],[3]]","practice","1400","","","","","","","",""
"","","","","","single-stim-button","197","542202","0.0-3.0-7.1-0.1","5cbf75531864210001fb4db2","E1","batch5","","684","","","tol_practice","","","","","","","","","tol_peg_1","684","684","0","[[1,0,0],[0,0],[3]]","5","[[1,0,0],[2,0],[3]]","practice","684","","","","","","","",""
"","","","","","single-stim-button","198","543052","0.0-3.0-7.1-1.1","5cbf75531864210001fb4db2","E1","batch5","","849","","","tol_practice","","","","","","","","","tol_peg_2","849","849","0","[[1,0,0],[2,0],[3]]","5","[[1,0,0],[2,0],[3]]","practice","849","","","","","","","",""
"","","","","","poldrack-single-stim","199","544061","0.0-3.0-8.0","5cbf75531864210001fb4db2","E1","batch5","","-1","","","tol_feedback","true","","","","","","","","","1000","1000","500","","","","","","-1","none","true","","0","","",""
"","","","","","html-button-response","200","546333","0.0-3.0-9.0","5cbf75531864210001fb4db2","E1","batch5","","2270.7000000476837","<div class = centerbox><p class = center-block-text>Great job! You are done with practice trials<br>You are about to start official trials.<br> <br> Problem <strong>1</strong> out of 25 problems</p></div>","0","tol_instruction","","","","","","","","","","","","","","","","","","","","","","","","",""
"","","","","","single-stim-button","201","554400","0.0-3.0-10.0-0.0","5cbf75531864210001fb4db2","E1","batch5","","7057","","","tol_tohand","","","","","","","","","tol_peg_1","7057","7057","0","[[1,0,0],[3,0],[0]]","1","[[1,3,0],[2,0],[0]]","0","0","","","","","","3","",""
"","","","","","single-stim-button","202","556268","0.0-3.0-10.0-1.0","5cbf75531864210001fb4db2","E1","batch5","","1868","","","tol_toboard","","","","","","","","","tol_peg_3","1868","1868","0","[[1,0,0],[3,0],[2]]","1","[[1,3,0],[2,0],[0]]","0","0","","","","","","3","",""
"","","","","","single-stim-button","203","557186","0.0-3.0-10.1-0.1","5cbf75531864210001fb4db2","E1","batch5","","916","","","tol_tohand","","","","","","","","","tol_peg_2","916","916","0","[[1,0,0],[0,0],[2]]","2","[[1,3,0],[2,0],[0]]","0","0","","","","","","3","",""
"","","","","","single-stim-button","204","558068","0.0-3.0-10.1-1.1","5cbf75531864210001fb4db2","E1","batch5","","882","","","tol_toboard","","","","","","","","","tol_peg_1","882","882","0","[[1,3,0],[0,0],[2]]","2","[[1,3,0],[2,0],[0]]","0","0","","","","","","3","",""
"","","","","","single-stim-button","205","558802","0.0-3.0-10.2-0.2","5cbf75531864210001fb4db2","E1","batch5","","733","","","tol_tohand","","","","","","","","","tol_peg_3","733","733","0","[[1,3,0],[0,0],[0]]","3","[[1,3,0],[2,0],[0]]","0","0","","","","","","3","",""
"","","","","","single-stim-button","206","559419","0.0-3.0-10.2-1.2","5cbf75531864210001fb4db2","E1","batch5","","617","","","tol_toboard","","","","","","","","","tol_peg_2","617","617","0","[[1,3,0],[2,0],[0]]","3","[[1,3,0],[2,0],[0]]","0","0","","","","","","3","",""
"","","","","","poldrack-single-stim","207","560431","0.0-3.0-11.0","5cbf75531864210001fb4db2","E1","batch5","","-1","","","tol_feedback","true","","","","","","","","","1000","1000","500","","","","","","-1","none","true","7057","8706","","",""
"","","","","","html-button-response","208","561400","0.0-3.0-12.0","5cbf75531864210001fb4db2","E1","batch5","","968","<div class = centerbox><p class = center-block-text>problem <strong>2</strong> out of 25 problems</p></div>","0","tol_trial_num","","","","","","","","","","","","","","","","","","","","","","","","",""
"","","","","","single-stim-button","209","564801","0.0-3.0-13.0-0.0","5cbf75531864210001fb4db2","E1","batch5","","3401","","","tol_tohand","","","","","","","","","tol_peg_1","3401","3401","0","[[1,0,0],[3,0],[0]]","1","[[2,1,3],[0,0],[0]]","1","0","","","","","","5","",""
"","","","","","single-stim-button","210","565652","0.0-3.0-13.0-1.0","5cbf75531864210001fb4db2","E1","batch5","","849","","","tol_toboard","","","","","","","","","tol_peg_3","849","849","0","[[1,0,0],[3,0],[2]]","1","[[2,1,3],[0,0],[0]]","1","0","","","","","","5","",""
"","","","","","single-stim-button","211","573819","0.0-3.0-13.1-0.1","5cbf75531864210001fb4db2","E1","batch5","","8167","","","tol_tohand","","","","","","","","","tol_peg_1","8167","8167","0","[[0,0,0],[3,0],[2]]","2","[[2,1,3],[0,0],[0]]","1","0","","","","","","5","",""
"","","","","","single-stim-button","212","574469","0.0-3.0-13.1-1.1","5cbf75531864210001fb4db2","E1","batch5","","649","","","tol_toboard","","","","","","","","","tol_peg_2","649","649","0","[[0,0,0],[3,1],[2]]","2","[[2,1,3],[0,0],[0]]","1","0","","","","","","5","",""
"","","","","","single-stim-button","213","575118","0.0-3.0-13.2-0.2","5cbf75531864210001fb4db2","E1","batch5","","648","","","tol_tohand","","","","","","","","","tol_peg_3","648","648","0","[[0,0,0],[3,1],[0]]","3","[[2,1,3],[0,0],[0]]","1","0","","","","","","5","",""
"","","","","","single-stim-button","214","575782","0.0-3.0-13.2-1.2","5cbf75531864210001fb4db2","E1","batch5","","663","","","tol_toboard","","","","","","","","","tol_peg_1","663","663","0","[[2,0,0],[3,1],[0]]","3","[[2,1,3],[0,0],[0]]","1","0","","","","","","5","",""
"","","","","","single-stim-button","215","576419","0.0-3.0-13.3-0.3","5cbf75531864210001fb4db2","E1","batch5","","636","","","tol_tohand","","","","","","","","","tol_peg_2","636","636","0","[[2,0,0],[3,0],[0]]","4","[[2,1,3],[0,0],[0]]","1","0","","","","","","5","",""
"","","","","","single-stim-button","216","576802","0.0-3.0-13.3-1.3","5cbf75531864210001fb4db2","E1","batch5","","383","","","tol_toboard","","","","","","","","","tol_peg_1","383","383","0","[[2,1,0],[3,0],[0]]","4","[[2,1,3],[0,0],[0]]","1","0","","","","","","5","",""
"","","","","","single-stim-button","217","577351","0.0-3.0-13.4-0.4","5cbf75531864210001fb4db2","E1","batch5","","548","","","tol_tohand","","","","","","","","","tol_peg_2","548","548","0","[[2,1,0],[0,0],[0]]","5","[[2,1,3],[0,0],[0]]","1","0","","","","","","5","",""
"","","","","","single-stim-button","218","578085","0.0-3.0-13.4-1.4","5cbf75531864210001fb4db2","E1","batch5","","733","","","tol_toboard","","","","","","","","","tol_peg_1","733","733","0","[[2,1,3],[0,0],[0]]","5","[[2,1,3],[0,0],[0]]","1","0","","","","","","5","",""
"","","","","","poldrack-single-stim","219","579095","0.0-3.0-14.0","5cbf75531864210001fb4db2","E1","batch5","","-1","","","tol_feedback","true","","","","","","","","","1000","1000","500","","","","","","-1","none","true","3401","13400","","",""
"","","","","","html-button-response","220","579968","0.0-3.0-15.0","5cbf75531864210001fb4db2","E1","batch5","","871.1000000238419","<div class = centerbox><p class = center-block-text>problem <strong>3</strong> out of 25 problems</p></div>","0","tol_trial_num","","","","","","","","","","","","","","","","","","","","","","","","",""
"","","","","","single-stim-button","221","582370","0.0-3.0-16.0-0.0","5cbf75531864210001fb4db2","E1","batch5","","2401","","","tol_tohand","","","","","","","","","tol_peg_1","2401","2401","0","[[2,0,0],[0,0],[1]]","1","[[1,2,0],[3,0],[0]]","2","0","","","","","","4","",""
"","","","","","single-stim-button","222","583201","0.0-3.0-16.0-1.0","5cbf75531864210001fb4db2","E1","batch5","","831","","","tol_toboard","","","","","","","","","tol_peg_2","831","831","0","[[2,0,0],[3,0],[1]]","1","[[1,2,0],[3,0],[0]]","2","0","","","","","","4","",""
"","","","","","single-stim-button","223","584452","0.0-3.0-16.1-0.1","5cbf75531864210001fb4db2","E1","batch5","","1251","","","tol_tohand","","","","","","","","","tol_peg_1","1251","1251","0","[[0,0,0],[3,0],[1]]","2","[[1,2,0],[3,0],[0]]","2","0","","","","","","4","",""
"","","","","","single-stim-button","224","584952","0.0-3.0-16.1-1.1","5cbf75531864210001fb4db2","E1","batch5","","499","","","tol_toboard","","","","","","","","","tol_peg_2","499","499","0","[[0,0,0],[3,2],[1]]","2","[[1,2,0],[3,0],[0]]","2","0","","","","","","4","",""
"","","","","","single-stim-button","225","585552","0.0-3.0-16.2-0.2","5cbf75531864210001fb4db2","E1","batch5","","598","","","tol_tohand","","","","","","","","","tol_peg_3","598","598","0","[[0,0,0],[3,2],[0]]","3","[[1,2,0],[3,0],[0]]","2","0","","","","","","4","",""
"","","","","","single-stim-button","226","586085","0.0-3.0-16.2-1.2","5cbf75531864210001fb4db2","E1","batch5","","532","","","tol_toboard","","","","","","","","","tol_peg_1","532","532","0","[[1,0,0],[3,2],[0]]","3","[[1,2,0],[3,0],[0]]","2","0","","","","","","4","",""
"","","","","","single-stim-button","227","586584","0.0-3.0-16.3-0.3","5cbf75531864210001fb4db2","E1","batch5","","499","","","tol_tohand","","","","","","","","","tol_peg_2","499","499","0","[[1,0,0],[3,0],[0]]","4","[[1,2,0],[3,0],[0]]","2","0","","","","","","4","",""
"","","","","","single-stim-button","228","586968","0.0-3.0-16.3-1.3","5cbf75531864210001fb4db2","E1","batch5","","383","","","tol_toboard","","","","","","","","","tol_peg_1","383","383","0","[[1,2,0],[3,0],[0]]","4","[[1,2,0],[3,0],[0]]","2","0","","","","","","4","",""
"","","","","","poldrack-single-stim","229","587979","0.0-3.0-17.0","5cbf75531864210001fb4db2","E1","batch5","","-1","","","tol_feedback","true","","","","","","","","","1000","1000","500","","","","","","-1","none","true","2401","4749","","",""
"","","","","","html-button-response","230","588718","0.0-3.0-18.0","5cbf75531864210001fb4db2","E1","batch5","","738.3999999761581","<div class = centerbox><p class = center-block-text>problem <strong>4</strong> out of 25 problems</p></div>","0","tol_trial_num","","","","","","","","","","","","","","","","","","","","","","","","",""
"","","","","","single-stim-button","231","591570","0.0-3.0-19.0-0.0","5cbf75531864210001fb4db2","E1","batch5","","2851","","","tol_tohand","","","","","","","","","tol_peg_2","2851","2851","0","[[3,0,0],[2,0],[0]]","1","[[3,0,0],[1,0],[2]]","3","0","","","","","","3","",""
"","","","","","single-stim-button","232","592253","0.0-3.0-19.0-1.0","5cbf75531864210001fb4db2","E1","batch5","","683","","","tol_toboard","","","","","","","","","tol_peg_1","683","683","0","[[3,1,0],[2,0],[0]]","1","[[3,0,0],[1,0],[2]]","3","0","","","","","","3","",""
"","","","","","single-stim-button","233","592818","0.0-3.0-19.1-0.1","5cbf75531864210001fb4db2","E1","batch5","","564","","","tol_tohand","","","","","","","","","tol_peg_2","564","564","0","[[3,1,0],[0,0],[0]]","2","[[3,0,0],[1,0],[2]]","3","0","","","","","","3","",""
"","","","","","single-stim-button","234","593136","0.0-3.0-19.1-1.1","5cbf75531864210001fb4db2","E1","batch5","","318","","","tol_toboard","","","","","","","","","tol_peg_3","318","318","0","[[3,1,0],[0,0],[2]]","2","[[3,0,0],[1,0],[2]]","3","0","","","","","","3","",""
"","","","","","single-stim-button","235","593819","0.0-3.0-19.2-0.2","5cbf75531864210001fb4db2","E1","batch5","","682","","","tol_tohand","","","","","","","","","tol_peg_1","682","682","0","[[3,0,0],[0,0],[2]]","3","[[3,0,0],[1,0],[2]]","3","0","","","","","","3","",""
"","","","","","single-stim-button","236","594201","0.0-3.0-19.2-1.2","5cbf75531864210001fb4db2","E1","batch5","","382","","","tol_toboard","","","","","","","","","tol_peg_2","382","382","0","[[3,0,0],[1,0],[2]]","3","[[3,0,0],[1,0],[2]]","3","0","","","","","","3","",""
"","","","","","poldrack-single-stim","237","595212","0.0-3.0-20.0","5cbf75531864210001fb4db2","E1","batch5","","-1","","","tol_feedback","true","","","","","","","","","1000","1000","500","","","","","","-1","none","true","2851","4097","","",""
"","","","","","html-button-response","238","596017","0.0-3.0-21.0","5cbf75531864210001fb4db2","E1","batch5","","804","<div class = centerbox><p class = center-block-text>problem <strong>5</strong> out of 25 problems</p></div>","0","tol_trial_num","","","","","","","","","","","","","","","","","","","","","","","","",""
"","","","","","single-stim-button","239","605116","0.0-3.0-22.0-0.0","5cbf75531864210001fb4db2","E1","batch5","","9099","","","tol_tohand","","","","","","","","","tol_peg_3","9099","9099","0","[[1,0,0],[2,0],[0]]","1","[[0,0,0],[1,2],[3]]","4","0","","","","","","7","",""
"","","","","","single-stim-button","240","605735","0.0-3.0-22.0-1.0","5cbf75531864210001fb4db2","E1","batch5","","618","","","tol_toboard","","","","","","","","","tol_peg_1","618","618","0","[[1,3,0],[2,0],[0]]","1","[[0,0,0],[1,2],[3]]","4","0","","","","","","7","",""
"","","","","","single-stim-button","241","607402","0.0-3.0-22.1-0.1","5cbf75531864210001fb4db2","E1","batch5","","1667","","","tol_tohand","","","","","","","","","tol_peg_2","1667","1667","0","[[1,3,0],[0,0],[0]]","2","[[0,0,0],[1,2],[3]]","4","0","","","","","","7","",""
"","","","","","single-stim-button","242","608070","0.0-3.0-22.1-1.1","5cbf75531864210001fb4db2","E1","batch5","","668","","","tol_toboard","","","","","","","","","tol_peg_3","668","668","0","[[1,3,0],[0,0],[2]]","2","[[0,0,0],[1,2],[3]]","4","0","","","","","","7","",""
"","","","","","single-stim-button","243","610935","0.0-3.0-22.2-0.2","5cbf75531864210001fb4db2","E1","batch5","","2864","","","tol_tohand","","","","","","","","","tol_peg_1","2864","2864","0","[[1,0,0],[0,0],[2]]","3","[[0,0,0],[1,2],[3]]","4","0","","","","","","7","",""
"","","","","","single-stim-button","244","613001","0.0-3.0-22.2-1.2","5cbf75531864210001fb4db2","E1","batch5","","2066","","","tol_toboard","","","","","","","","","tol_peg_1","2066","2066","0","[[1,3,0],[0,0],[2]]","3","[[0,0,0],[1,2],[3]]","4","0","","","","","","7","",""
"","","","","","single-stim-button","245","613685","0.0-3.0-22.3-0.3","5cbf75531864210001fb4db2","E1","batch5","","683","","","tol_tohand","","","","","","","","","tol_peg_3","683","683","0","[[1,3,0],[0,0],[0]]","4","[[0,0,0],[1,2],[3]]","4","0","","","","","","7","",""
"","","","","","single-stim-button","246","614100","0.0-3.0-22.3-1.3","5cbf75531864210001fb4db2","E1","batch5","","414","","","tol_toboard","","","","","","","","","tol_peg_1","414","414","0","[[1,3,2],[0,0],[0]]","4","[[0,0,0],[1,2],[3]]","4","0","","","","","","7","",""
"","","","","","single-stim-button","247","615104","0.0-3.0-22.4-0.4","5cbf75531864210001fb4db2","E1","batch5","","1003","","","tol_tohand","","","","","","","","","tol_peg_1","1003","1003","0","[[1,3,0],[0,0],[0]]","5","[[0,0,0],[1,2],[3]]","4","0","","","","","","7","",""
"","","","","","single-stim-button","248","615618","0.0-3.0-22.4-1.4","5cbf75531864210001fb4db2","E1","batch5","","514","","","tol_toboard","","","","","","","","","tol_peg_3","514","514","0","[[1,3,0],[0,0],[2]]","5","[[0,0,0],[1,2],[3]]","4","0","","","","","","7","",""
"","","","","","single-stim-button","249","616184","0.0-3.0-22.5-0.5","5cbf75531864210001fb4db2","E1","batch5","","565","","","tol_tohand","","","","","","","","","tol_peg_1","565","565","0","[[1,0,0],[0,0],[2]]","6","[[0,0,0],[1,2],[3]]","4","0","","","","","","7","",""
"","","","","","single-stim-button","250","616534","0.0-3.0-22.5-1.5","5cbf75531864210001fb4db2","E1","batch5","","350","","","tol_toboard","","","","","","","","","tol_peg_2","350","350","0","[[1,0,0],[3,0],[2]]","6","[[0,0,0],[1,2],[3]]","4","0","","","","","","7","",""
"","","","","","single-stim-button","251","619302","0.0-3.0-22.6-0.6","5cbf75531864210001fb4db2","E1","batch5","","2767","","","tol_tohand","","","","","","","","","tol_peg_3","2767","2767","0","[[1,0,0],[3,0],[0]]","7","[[0,0,0],[1,2],[3]]","4","0","","","","","","7","",""
"","","","","","single-stim-button","252","619620","0.0-3.0-22.6-1.6","5cbf75531864210001fb4db2","E1","batch5","","318","","","tol_toboard","","","","","","","","","tol_peg_2","318","318","0","[[1,0,0],[3,2],[0]]","7","[[0,0,0],[1,2],[3]]","4","0","","","","","","7","",""
"","","","","","single-stim-button","253","620151","0.0-3.0-22.7-0.7","5cbf75531864210001fb4db2","E1","batch5","","529","","","tol_tohand","","","","","","","","","tol_peg_1","529","529","0","[[0,0,0],[3,2],[0]]","8","[[0,0,0],[1,2],[3]]","4","0","","","","","","7","",""
"","","","","","single-stim-button","254","620786","0.0-3.0-22.7-1.7","5cbf75531864210001fb4db2","E1","batch5","","635","","","tol_toboard","","","","","","","","","tol_peg_3","635","635","0","[[0,0,0],[3,2],[1]]","8","[[0,0,0],[1,2],[3]]","4","0","","","","","","7","",""
"","","","","","single-stim-button","255","624519","0.0-3.0-22.8-0.8","5cbf75531864210001fb4db2","E1","batch5","","3733","","","tol_tohand","","","","","","","","","tol_peg_2","3733","3733","0","[[0,0,0],[3,0],[1]]","9","[[0,0,0],[1,2],[3]]","4","0","","","","","","7","",""
"","","","","","single-stim-button","256","624917","0.0-3.0-22.8-1.8","5cbf75531864210001fb4db2","E1","batch5","","398","","","tol_toboard","","","","","","","","","tol_peg_1","398","398","0","[[2,0,0],[3,0],[1]]","9","[[0,0,0],[1,2],[3]]","4","0","","","","","","7","",""
"","","","","","single-stim-button","257","625686","0.0-3.0-22.9-0.9","5cbf75531864210001fb4db2","E1","batch5","","768","","","tol_tohand","","","","","","","","","tol_peg_2","768","768","0","[[2,0,0],[0,0],[1]]","10","[[0,0,0],[1,2],[3]]","4","0","","","","","","7","",""
"","","","","","single-stim-button","258","626035","0.0-3.0-22.9-1.9","5cbf75531864210001fb4db2","E1","batch5","","348","","","tol_toboard","","","","","","","","","tol_peg_1","348","348","0","[[2,3,0],[0,0],[1]]","10","[[0,0,0],[1,2],[3]]","4","0","","","","","","7","",""
"","","","","","single-stim-button","259","626750","0.0-3.0-22.10-0.10","5cbf75531864210001fb4db2","E1","batch5","","715","","","tol_tohand","","","","","","","","","tol_peg_3","715","715","0","[[2,3,0],[0,0],[0]]","11","[[0,0,0],[1,2],[3]]","4","0","","","","","","7","",""
"","","","","","single-stim-button","260","627303","0.0-3.0-22.10-1.10","5cbf75531864210001fb4db2","E1","batch5","","552","","","tol_toboard","","","","","","","","","tol_peg_2","552","552","0","[[2,3,0],[1,0],[0]]","11","[[0,0,0],[1,2],[3]]","4","0","","","","","","7","",""
"","","","","","single-stim-button","261","628022","0.0-3.0-22.11-0.11","5cbf75531864210001fb4db2","E1","batch5","","719","","","tol_tohand","","","","","","","","","tol_peg_1","719","719","0","[[2,0,0],[1,0],[0]]","12","[[0,0,0],[1,2],[3]]","4","0","","","","","","7","",""
"","","","","","single-stim-button","262","628470","0.0-3.0-22.11-1.11","5cbf75531864210001fb4db2","E1","batch5","","447","","","tol_toboard","","","","","","","","","tol_peg_3","447","447","0","[[2,0,0],[1,0],[3]]","12","[[0,0,0],[1,2],[3]]","4","0","","","","","","7","",""
"","","","","","single-stim-button","263","629053","0.0-3.0-22.12-0.12","5cbf75531864210001fb4db2","E1","batch5","","583","","","tol_tohand","","","","","","","","","tol_peg_1","583","583","0","[[0,0,0],[1,0],[3]]","13","[[0,0,0],[1,2],[3]]","4","0","","","","","","7","",""
"","","","","","single-stim-button","264","629386","0.0-3.0-22.12-1.12","5cbf75531864210001fb4db2","E1","batch5","","332","","","tol_toboard","","","","","","","","","tol_peg_2","332","332","0","[[0,0,0],[1,2],[3]]","13","[[0,0,0],[1,2],[3]]","4","0","","","","","","7","",""
"","","","","","poldrack-single-stim","265","630399","0.0-3.0-23.0","5cbf75531864210001fb4db2","E1","batch5","","-1","","","tol_feedback","true","","","","","","","","","1000","1000","500","","","","","","-1","none","true","9099","25695","","",""
"","","","","","html-button-response","266","631218","0.0-3.0-24.0","5cbf75531864210001fb4db2","E1","batch5","","818.6000000238419","<div class = centerbox><p class = center-block-text>problem <strong>6</strong> out of 25 problems</p></div>","0","tol_trial_num","","","","","","","","","","","","","","","","","","","","","","","","",""
"","","","","","single-stim-button","267","638818","0.0-3.0-25.0-0.0","5cbf75531864210001fb4db2","E1","batch5","","7600","","","tol_tohand","","","","","","","","","tol_peg_2","7600","7600","0","[[0,0,0],[1,0],[3]]","1","[[1,0,0],[2,3],[0]]","5","0","","","","","","6","",""
"","","","","","single-stim-button","268","639252","0.0-3.0-25.0-1.0","5cbf75531864210001fb4db2","E1","batch5","","433","","","tol_toboard","","","","","","","","","tol_peg_1","433","433","0","[[2,0,0],[1,0],[3]]","1","[[1,0,0],[2,3],[0]]","5","0","","","","","","6","",""
"","","","","","single-stim-button","269","641320","0.0-3.0-25.1-0.1","5cbf75531864210001fb4db2","E1","batch5","","2067","","","tol_tohand","","","","","","","","","tol_peg_3","2067","2067","0","[[2,0,0],[1,0],[0]]","2","[[1,0,0],[2,3],[0]]","5","0","","","","","","6","",""
"","","","","","single-stim-button","270","642137","0.0-3.0-25.1-1.1","5cbf75531864210001fb4db2","E1","batch5","","817","","","tol_toboard","","","","","","","","","tol_peg_1","817","817","0","[[2,3,0],[1,0],[0]]","2","[[1,0,0],[2,3],[0]]","5","0","","","","","","6","",""
"","","","","","single-stim-button","271","642703","0.0-3.0-25.2-0.2","5cbf75531864210001fb4db2","E1","batch5","","566","","","tol_tohand","","","","","","","","","tol_peg_2","566","566","0","[[2,3,0],[0,0],[0]]","3","[[1,0,0],[2,3],[0]]","5","0","","","","","","6","",""
"","","","","","single-stim-button","272","643237","0.0-3.0-25.2-1.2","5cbf75531864210001fb4db2","E1","batch5","","534","","","tol_toboard","","","","","","","","","tol_peg_3","534","534","0","[[2,3,0],[0,0],[1]]","3","[[1,0,0],[2,3],[0]]","5","0","","","","","","6","",""
"","","","","","single-stim-button","273","645602","0.0-3.0-25.3-0.3","5cbf75531864210001fb4db2","E1","batch5","","2364","","","tol_tohand","","","","","","","","","tol_peg_1","2364","2364","0","[[2,0,0],[0,0],[1]]","4","[[1,0,0],[2,3],[0]]","5","0","","","","","","6","",""
"","","","","","single-stim-button","274","649020","0.0-3.0-25.3-1.3","5cbf75531864210001fb4db2","E1","batch5","","3417","","","tol_toboard","","","","","","","","","tol_peg_2","3417","3417","0","[[2,0,0],[3,0],[1]]","4","[[1,0,0],[2,3],[0]]","5","0","","","","","","6","",""
"","","","","","single-stim-button","275","650737","0.0-3.0-25.4-0.4","5cbf75531864210001fb4db2","E1","batch5","","1716","","","tol_tohand","","","","","","","","","tol_peg_2","1716","1716","0","[[2,0,0],[0,0],[1]]","5","[[1,0,0],[2,3],[0]]","5","0","","","","","","6","",""
"","","","","","single-stim-button","276","651153","0.0-3.0-25.4-1.4","5cbf75531864210001fb4db2","E1","batch5","","416","","","tol_toboard","","","","","","","","","tol_peg_1","416","416","0","[[2,3,0],[0,0],[1]]","5","[[1,0,0],[2,3],[0]]","5","0","","","","","","6","",""
"","","","","","single-stim-button","277","651754","0.0-3.0-25.5-0.5","5cbf75531864210001fb4db2","E1","batch5","","601","","","tol_tohand","","","","","","","","","tol_peg_3","601","601","0","[[2,3,0],[0,0],[0]]","6","[[1,0,0],[2,3],[0]]","5","0","","","","","","6","",""
"","","","","","single-stim-button","278","652153","0.0-3.0-25.5-1.5","5cbf75531864210001fb4db2","E1","batch5","","399","","","tol_toboard","","","","","","","","","tol_peg_1","399","399","0","[[2,3,1],[0,0],[0]]","6","[[1,0,0],[2,3],[0]]","5","0","","","","","","6","",""
"","","","","","single-stim-button","279","654419","0.0-3.0-25.6-0.6","5cbf75531864210001fb4db2","E1","batch5","","2265","","","tol_tohand","","","","","","","","","tol_peg_1","2265","2265","0","[[2,3,0],[0,0],[0]]","7","[[1,0,0],[2,3],[0]]","5","0","","","","","","6","",""
"","","","","","single-stim-button","280","655037","0.0-3.0-25.6-1.6","5cbf75531864210001fb4db2","E1","batch5","","617","","","tol_toboard","","","","","","","","","tol_peg_2","617","617","0","[[2,3,0],[1,0],[0]]","7","[[1,0,0],[2,3],[0]]","5","0","","","","","","6","",""
"","","","","","single-stim-button","281","656336","0.0-3.0-25.7-0.7","5cbf75531864210001fb4db2","E1","batch5","","1298","","","tol_tohand","","","","","","","","","tol_peg_1","1298","1298","0","[[2,0,0],[1,0],[0]]","8","[[1,0,0],[2,3],[0]]","5","0","","","","","","6","",""
"","","","","","single-stim-button","282","657669","0.0-3.0-25.7-1.7","5cbf75531864210001fb4db2","E1","batch5","","1333","","","tol_toboard","","","","","","","","","tol_peg_3","1333","1333","0","[[2,0,0],[1,0],[3]]","8","[[1,0,0],[2,3],[0]]","5","0","","","","","","6","",""
"","","","","","single-stim-button","283","658570","0.0-3.0-25.8-0.8","5cbf75531864210001fb4db2","E1","batch5","","900","","","tol_tohand","","","","","","","","","tol_peg_2","900","900","0","[[2,0,0],[0,0],[3]]","9","[[1,0,0],[2,3],[0]]","5","0","","","","","","6","",""
"","","","","","single-stim-button","284","659002","0.0-3.0-25.8-1.8","5cbf75531864210001fb4db2","E1","batch5","","431","","","tol_toboard","","","","","","","","","tol_peg_1","431","431","0","[[2,1,0],[0,0],[3]]","9","[[1,0,0],[2,3],[0]]","5","0","","","","","","6","",""
"","","","","","single-stim-button","285","659904","0.0-3.0-25.9-0.9","5cbf75531864210001fb4db2","E1","batch5","","901","","","tol_tohand","","","","","","","","","tol_peg_1","901","901","0","[[2,0,0],[0,0],[3]]","10","[[1,0,0],[2,3],[0]]","5","0","","","","","","6","",""
"","","","","","single-stim-button","286","662702","0.0-3.0-25.9-1.9","5cbf75531864210001fb4db2","E1","batch5","","2798","","","tol_toboard","","","","","","","","","tol_peg_1","2798","2798","0","[[2,1,0],[0,0],[3]]","10","[[1,0,0],[2,3],[0]]","5","0","","","","","","6","",""
"","","","","","single-stim-button","287","663218","0.0-3.0-25.10-0.10","5cbf75531864210001fb4db2","E1","batch5","","515","","","tol_tohand","","","","","","","","","tol_peg_3","515","515","0","[[2,1,0],[0,0],[0]]","11","[[1,0,0],[2,3],[0]]","5","0","","","","","","6","",""
"","","","","","single-stim-button","288","663688","0.0-3.0-25.10-1.10","5cbf75531864210001fb4db2","E1","batch5","","469","","","tol_toboard","","","","","","","","","tol_peg_1","469","469","0","[[2,1,3],[0,0],[0]]","11","[[1,0,0],[2,3],[0]]","5","0","","","","","","6","",""
"","","","","","single-stim-button","289","664768","0.0-3.0-25.11-0.11","5cbf75531864210001fb4db2","E1","batch5","","1080","","","tol_tohand","","","","","","","","","tol_peg_1","1080","1080","0","[[2,1,0],[0,0],[0]]","12","[[1,0,0],[2,3],[0]]","5","0","","","","","","6","",""
"","","","","","single-stim-button","290","665334","0.0-3.0-25.11-1.11","5cbf75531864210001fb4db2","E1","batch5","","566","","","tol_toboard","","","","","","","","","tol_peg_2","566","566","0","[[2,1,0],[3,0],[0]]","12","[[1,0,0],[2,3],[0]]","5","0","","","","","","6","",""
"","","","","","single-stim-button","291","665903","0.0-3.0-25.12-0.12","5cbf75531864210001fb4db2","E1","batch5","","568","","","tol_tohand","","","","","","","","","tol_peg_1","568","568","0","[[2,0,0],[3,0],[0]]","13","[[1,0,0],[2,3],[0]]","5","0","","","","","","6","",""
"","","","","","single-stim-button","292","666388","0.0-3.0-25.12-1.12","5cbf75531864210001fb4db2","E1","batch5","","484","","","tol_toboard","","","","","","","","","tol_peg_3","484","484","0","[[2,0,0],[3,0],[1]]","13","[[1,0,0],[2,3],[0]]","5","0","","","","","","6","",""
"","","","","","single-stim-button","293","668286","0.0-3.0-25.13-0.13","5cbf75531864210001fb4db2","E1","batch5","","1898","","","tol_tohand","","","","","","","","","tol_peg_2","1898","1898","0","[[2,0,0],[0,0],[1]]","14","[[1,0,0],[2,3],[0]]","5","0","","","","","","6","",""
"","","","","","single-stim-button","294","668588","0.0-3.0-25.13-1.13","5cbf75531864210001fb4db2","E1","batch5","","301","","","tol_toboard","","","","","","","","","tol_peg_1","301","301","0","[[2,3,0],[0,0],[1]]","14","[[1,0,0],[2,3],[0]]","5","0","","","","","","6","",""
"","","","","","single-stim-button","295","672354","0.0-3.0-25.14-0.14","5cbf75531864210001fb4db2","E1","batch5","","3765","","","tol_tohand","","","","","","","","","tol_peg_1","3765","3765","0","[[2,0,0],[0,0],[1]]","15","[[1,0,0],[2,3],[0]]","5","0","","","","","","6","",""
"","","","","","single-stim-button","296","672754","0.0-3.0-25.14-1.14","5cbf75531864210001fb4db2","E1","batch5","","399","","","tol_toboard","","","","","","","","","tol_peg_2","399","399","0","[[2,0,0],[3,0],[1]]","15","[[1,0,0],[2,3],[0]]","5","0","","","","","","6","",""
"","","","","","single-stim-button","297","673267","0.0-3.0-25.15-0.15","5cbf75531864210001fb4db2","E1","batch5","","513","","","tol_tohand","","","","","","","","","tol_peg_1","513","513","0","[[0,0,0],[3,0],[1]]","16","[[1,0,0],[2,3],[0]]","5","0","","","","","","6","",""
"","","","","","single-stim-button","298","673587","0.0-3.0-25.15-1.15","5cbf75531864210001fb4db2","E1","batch5","","319","","","tol_toboard","","","","","","","","","tol_peg_2","319","319","0","[[0,0,0],[3,2],[1]]","16","[[1,0,0],[2,3],[0]]","5","0","","","","","","6","",""
"","","","","","single-stim-button","299","676137","0.0-3.0-25.16-0.16","5cbf75531864210001fb4db2","E1","batch5","","2550","","","tol_tohand","","","","","","","","","tol_peg_3","2550","2550","0","[[0,0,0],[3,2],[0]]","17","[[1,0,0],[2,3],[0]]","5","0","","","","","","6","",""
"","","","","","single-stim-button","300","676570","0.0-3.0-25.16-1.16","5cbf75531864210001fb4db2","E1","batch5","","431","","","tol_toboard","","","","","","","","","tol_peg_1","431","431","0","[[1,0,0],[3,2],[0]]","17","[[1,0,0],[2,3],[0]]","5","0","","","","","","6","",""
"","","","","","single-stim-button","301","677154","0.0-3.0-25.17-0.17","5cbf75531864210001fb4db2","E1","batch5","","583","","","tol_tohand","","","","","","","","","tol_peg_2","583","583","0","[[1,0,0],[3,0],[0]]","18","[[1,0,0],[2,3],[0]]","5","0","","","","","","6","",""
"","","","","","single-stim-button","302","677819","0.0-3.0-25.17-1.17","5cbf75531864210001fb4db2","E1","batch5","","665","","","tol_toboard","","","","","","","","","tol_peg_3","665","665","0","[[1,0,0],[3,0],[2]]","18","[[1,0,0],[2,3],[0]]","5","0","","","","","","6","",""
"","","","","","single-stim-button","303","678403","0.0-3.0-25.18-0.18","5cbf75531864210001fb4db2","E1","batch5","","583","","","tol_tohand","","","","","","","","","tol_peg_2","583","583","0","[[1,0,0],[0,0],[2]]","19","[[1,0,0],[2,3],[0]]","5","0","","","","","","6","",""
"","","","","","single-stim-button","304","678754","0.0-3.0-25.18-1.18","5cbf75531864210001fb4db2","E1","batch5","","350","","","tol_toboard","","","","","","","","","tol_peg_1","350","350","0","[[1,3,0],[0,0],[2]]","19","[[1,0,0],[2,3],[0]]","5","0","","","","","","6","",""
"","","","","","single-stim-button","305","679305","0.0-3.0-25.19-0.19","5cbf75531864210001fb4db2","E1","batch5","","551","","","tol_tohand","","","","","","","","","tol_peg_3","551","551","0","[[1,3,0],[0,0],[0]]","20","[[1,0,0],[2,3],[0]]","5","0","","","","","","6","",""
"","","","","","single-stim-button","306","679904","0.0-3.0-25.19-1.19","5cbf75531864210001fb4db2","E1","batch5","","598","","","tol_toboard","","","","","","","","","tol_peg_2","598","598","0","[[1,3,0],[2,0],[0]]","20","[[1,0,0],[2,3],[0]]","5","0","","","","","","6","",""
"","","","","","single-stim-button","307","680452","0.0-3.0-25.20-0.20","5cbf75531864210001fb4db2","E1","batch5","","548","","","tol_tohand","","","","","","","","","tol_peg_1","548","548","0","[[1,0,0],[2,0],[0]]","21","[[1,0,0],[2,3],[0]]","5","0","","","","","","6","",""
"","","","","","single-stim-button","308","680869","0.0-3.0-25.20-1.20","5cbf75531864210001fb4db2","E1","batch5","","416","","","tol_toboard","","","","","","","","","tol_peg_2","416","416","0","[[1,0,0],[2,3],[0]]","21","[[1,0,0],[2,3],[0]]","5","0","","","","","","6","",""
"","","","","","poldrack-single-stim","309","681885","0.0-3.0-26.0","5cbf75531864210001fb4db2","E1","batch5","","-1","","","tol_feedback","true","","","","","","","","","1000","1000","500","","","","","","-1","none","true","7600","33432","","",""
"","","","","","html-button-response","310","682753","0.0-3.0-27.0","5cbf75531864210001fb4db2","E1","batch5","","867.5","<div class = centerbox><p class = center-block-text>problem <strong>7</strong> out of 25 problems</p></div>","0","tol_trial_num","","","","","","","","","","","","","","","","","","","","","","","","",""
"","","","","","single-stim-button","311","692254","0.0-3.0-28.0-0.0","5cbf75531864210001fb4db2","E1","batch5","","9500","","","tol_tohand","","","","","","","","","tol_peg_3","9500","9500","0","[[2,1,0],[0,0],[0]]","1","[[1,2,0],[3,0],[0]]","6","0","","","","","","5","",""
"","","","","","single-stim-button","312","692586","0.0-3.0-28.0-1.0","5cbf75531864210001fb4db2","E1","batch5","","331","","","tol_toboard","","","","","","","","","tol_peg_2","331","331","0","[[2,1,0],[3,0],[0]]","1","[[1,2,0],[3,0],[0]]","6","0","","","","","","5","",""
"","","","","","single-stim-button","313","693486","0.0-3.0-28.1-0.1","5cbf75531864210001fb4db2","E1","batch5","","900","","","tol_tohand","","","","","","","","","tol_peg_1","900","900","0","[[2,0,0],[3,0],[0]]","2","[[1,2,0],[3,0],[0]]","6","0","","","","","","5","",""
"","","","","","single-stim-button","314","693837","0.0-3.0-28.1-1.1","5cbf75531864210001fb4db2","E1","batch5","","350","","","tol_toboard","","","","","","","","","tol_peg_2","350","350","0","[[2,0,0],[3,1],[0]]","2","[[1,2,0],[3,0],[0]]","6","0","","","","","","5","",""
"","","","","","single-stim-button","315","695271","0.0-3.0-28.2-0.2","5cbf75531864210001fb4db2","E1","batch5","","1433","","","tol_tohand","","","","","","","","","tol_peg_1","1433","1433","0","[[0,0,0],[3,1],[0]]","3","[[1,2,0],[3,0],[0]]","6","0","","","","","","5","",""
"","","","","","single-stim-button","316","695703","0.0-3.0-28.2-1.2","5cbf75531864210001fb4db2","E1","batch5","","432","","","tol_toboard","","","","","","","","","tol_peg_3","432","432","0","[[0,0,0],[3,1],[2]]","3","[[1,2,0],[3,0],[0]]","6","0","","","","","","5","",""
"","","","","","single-stim-button","317","696104","0.0-3.0-28.3-0.3","5cbf75531864210001fb4db2","E1","batch5","","401","","","tol_tohand","","","","","","","","","tol_peg_2","401","401","0","[[0,0,0],[3,0],[2]]","4","[[1,2,0],[3,0],[0]]","6","0","","","","","","5","",""
"","","","","","single-stim-button","318","696470","0.0-3.0-28.3-1.3","5cbf75531864210001fb4db2","E1","batch5","","364","","","tol_toboard","","","","","","","","","tol_peg_1","364","364","0","[[1,0,0],[3,0],[2]]","4","[[1,2,0],[3,0],[0]]","6","0","","","","","","5","",""
"","","","","","single-stim-button","319","697204","0.0-3.0-28.4-0.4","5cbf75531864210001fb4db2","E1","batch5","","733","","","tol_tohand","","","","","","","","","tol_peg_3","733","733","0","[[1,0,0],[3,0],[0]]","5","[[1,2,0],[3,0],[0]]","6","0","","","","","","5","",""
"","","","","","single-stim-button","320","697554","0.0-3.0-28.4-1.4","5cbf75531864210001fb4db2","E1","batch5","","349","","","tol_toboard","","","","","","","","","tol_peg_1","349","349","0","[[1,2,0],[3,0],[0]]","5","[[1,2,0],[3,0],[0]]","6","0","","","","","","5","",""
"","","","","","poldrack-single-stim","321","698567","0.0-3.0-29.0","5cbf75531864210001fb4db2","E1","batch5","","-1","","","tol_feedback","true","","","","","","","","","1000","1000","500","","","","","","-1","none","true","9500","12967","","",""
"","","","","","html-button-response","322","699356","0.0-3.0-30.0","5cbf75531864210001fb4db2","E1","batch5","","789.1000000238419","<div class = centerbox><p class = center-block-text>problem <strong>8</strong> out of 25 problems</p></div>","0","tol_trial_num","","","","","","","","","","","","","","","","","","","","","","","","",""
"","","","","","single-stim-button","323","703138","0.0-3.0-31.0-0.0","5cbf75531864210001fb4db2","E1","batch5","","3780","","","tol_tohand","","","","","","","","","tol_peg_3","3780","3780","0","[[0,0,0],[2,3],[0]]","1","[[1,2,0],[3,0],[0]]","7","0","","","","","","4","",""
"","","","","","single-stim-button","324","703887","0.0-3.0-31.0-1.0","5cbf75531864210001fb4db2","E1","batch5","","749","","","tol_toboard","","","","","","","","","tol_peg_1","749","749","0","[[1,0,0],[2,3],[0]]","1","[[1,2,0],[3,0],[0]]","7","0","","","","","","4","",""
"","","","","","single-stim-button","325","704971","0.0-3.0-31.1-0.1","5cbf75531864210001fb4db2","E1","batch5","","1083","","","tol_tohand","","","","","","","","","tol_peg_2","1083","1083","0","[[1,0,0],[2,0],[0]]","2","[[1,2,0],[3,0],[0]]","7","0","","","","","","4","",""
"","","","","","single-stim-button","326","705604","0.0-3.0-31.1-1.1","5cbf75531864210001fb4db2","E1","batch5","","632","","","tol_toboard","","","","","","","","","tol_peg_3","632","632","0","[[1,0,0],[2,0],[3]]","2","[[1,2,0],[3,0],[0]]","7","0","","","","","","4","",""
"","","","","","single-stim-button","327","706103","0.0-3.0-31.2-0.2","5cbf75531864210001fb4db2","E1","batch5","","499","","","tol_tohand","","","","","","","","","tol_peg_2","499","499","0","[[1,0,0],[0,0],[3]]","3","[[1,2,0],[3,0],[0]]","7","0","","","","","","4","",""
"","","","","","single-stim-button","328","706704","0.0-3.0-31.2-1.2","5cbf75531864210001fb4db2","E1","batch5","","601","","","tol_toboard","","","","","","","","","tol_peg_1","601","601","0","[[1,2,0],[0,0],[3]]","3","[[1,2,0],[3,0],[0]]","7","0","","","","","","4","",""
"","","","","","single-stim-button","329","707388","0.0-3.0-31.3-0.3","5cbf75531864210001fb4db2","E1","batch5","","682","","","tol_tohand","","","","","","","","","tol_peg_3","682","682","0","[[1,2,0],[0,0],[0]]","4","[[1,2,0],[3,0],[0]]","7","0","","","","","","4","",""
"","","","","","single-stim-button","330","707687","0.0-3.0-31.3-1.3","5cbf75531864210001fb4db2","E1","batch5","","299","","","tol_toboard","","","","","","","","","tol_peg_2","299","299","0","[[1,2,0],[3,0],[0]]","4","[[1,2,0],[3,0],[0]]","7","0","","","","","","4","",""
"","","","","","poldrack-single-stim","331","708699","0.0-3.0-32.0","5cbf75531864210001fb4db2","E1","batch5","","-1","","","tol_feedback","true","","","","","","","","","1000","1000","500","","","","","","-1","none","true","3780","6044","","",""
"","","","","","html-button-response","332","709536","0.0-3.0-33.0","5cbf75531864210001fb4db2","E1","batch5","","835.7000000476837","<div class = centerbox><p class = center-block-text>problem <strong>9</strong> out of 25 problems</p></div>","0","tol_trial_num","","","","","","","","","","","","","","","","","","","","","","","","",""
"","","","","","single-stim-button","333","721503","0.0-3.0-34.0-0.0","5cbf75531864210001fb4db2","E1","batch5","","11965","","","tol_tohand","","","","","","","","","tol_peg_1","11965","11965","0","[[3,0,0],[0,0],[1]]","1","[[2,1,0],[3,0],[0]]","8","0","","","","","","6","",""
"","","","","","single-stim-button","334","721820","0.0-3.0-34.0-1.0","5cbf75531864210001fb4db2","E1","batch5","","317","","","tol_toboard","","","","","","","","","tol_peg_2","317","317","0","[[3,0,0],[2,0],[1]]","1","[[2,1,0],[3,0],[0]]","8","0","","","","","","6","",""
"","","","","","single-stim-button","335","722406","0.0-3.0-34.1-0.1","5cbf75531864210001fb4db2","E1","batch5","","584","","","tol_tohand","","","","","","","","","tol_peg_1","584","584","0","[[0,0,0],[2,0],[1]]","2","[[2,1,0],[3,0],[0]]","8","0","","","","","","6","",""
"","","","","","single-stim-button","336","722688","0.0-3.0-34.1-1.1","5cbf75531864210001fb4db2","E1","batch5","","282","","","tol_toboard","","","","","","","","","tol_peg_2","282","282","0","[[0,0,0],[2,3],[1]]","2","[[2,1,0],[3,0],[0]]","8","0","","","","","","6","",""
"","","","","","single-stim-button","337","726419","0.0-3.0-34.2-0.2","5cbf75531864210001fb4db2","E1","batch5","","3730","","","tol_tohand","","","","","","","","","tol_peg_2","3730","3730","0","[[0,0,0],[2,0],[1]]","3","[[2,1,0],[3,0],[0]]","8","0","","","","","","6","",""
"","","","","","single-stim-button","338","726685","0.0-3.0-34.2-1.2","5cbf75531864210001fb4db2","E1","batch5","","266","","","tol_toboard","","","","","","","","","tol_peg_1","266","266","0","[[3,0,0],[2,0],[1]]","3","[[2,1,0],[3,0],[0]]","8","0","","","","","","6","",""
"","","","","","single-stim-button","339","727203","0.0-3.0-34.3-0.3","5cbf75531864210001fb4db2","E1","batch5","","518","","","tol_tohand","","","","","","","","","tol_peg_3","518","518","0","[[3,0,0],[2,0],[0]]","4","[[2,1,0],[3,0],[0]]","8","0","","","","","","6","",""
"","","","","","single-stim-button","340","727452","0.0-3.0-34.3-1.3","5cbf75531864210001fb4db2","E1","batch5","","248","","","tol_toboard","","","","","","","","","tol_peg_2","248","248","0","[[3,0,0],[2,1],[0]]","4","[[2,1,0],[3,0],[0]]","8","0","","","","","","6","",""
"","","","","","single-stim-button","341","727954","0.0-3.0-34.4-0.4","5cbf75531864210001fb4db2","E1","batch5","","502","","","tol_tohand","","","","","","","","","tol_peg_1","502","502","0","[[0,0,0],[2,1],[0]]","5","[[2,1,0],[3,0],[0]]","8","0","","","","","","6","",""
"","","","","","single-stim-button","342","728386","0.0-3.0-34.4-1.4","5cbf75531864210001fb4db2","E1","batch5","","430","","","tol_toboard","","","","","","","","","tol_peg_3","430","430","0","[[0,0,0],[2,1],[3]]","5","[[2,1,0],[3,0],[0]]","8","0","","","","","","6","",""
"","","","","","single-stim-button","343","730254","0.0-3.0-34.5-0.5","5cbf75531864210001fb4db2","E1","batch5","","1868","","","tol_tohand","","","","","","","","","tol_peg_2","1868","1868","0","[[0,0,0],[2,0],[3]]","6","[[2,1,0],[3,0],[0]]","8","0","","","","","","6","",""
"","","","","","single-stim-button","344","730834","0.0-3.0-34.5-1.5","5cbf75531864210001fb4db2","E1","batch5","","579","","","tol_toboard","","","","","","","","","tol_peg_1","579","579","0","[[1,0,0],[2,0],[3]]","6","[[2,1,0],[3,0],[0]]","8","0","","","","","","6","",""
"","","","","","single-stim-button","345","734605","0.0-3.0-34.6-0.6","5cbf75531864210001fb4db2","E1","batch5","","3771","","","tol_tohand","","","","","","","","","tol_peg_3","3771","3771","0","[[1,0,0],[2,0],[0]]","7","[[2,1,0],[3,0],[0]]","8","0","","","","","","6","",""
"","","","","","single-stim-button","346","734888","0.0-3.0-34.6-1.6","5cbf75531864210001fb4db2","E1","batch5","","283","","","tol_toboard","","","","","","","","","tol_peg_2","283","283","0","[[1,0,0],[2,3],[0]]","7","[[2,1,0],[3,0],[0]]","8","0","","","","","","6","",""
"","","","","","single-stim-button","347","735337","0.0-3.0-34.7-0.7","5cbf75531864210001fb4db2","E1","batch5","","448","","","tol_tohand","","","","","","","","","tol_peg_1","448","448","0","[[0,0,0],[2,3],[0]]","8","[[2,1,0],[3,0],[0]]","8","0","","","","","","6","",""
"","","","","","single-stim-button","348","735854","0.0-3.0-34.7-1.7","5cbf75531864210001fb4db2","E1","batch5","","517","","","tol_toboard","","","","","","","","","tol_peg_3","517","517","0","[[0,0,0],[2,3],[1]]","8","[[2,1,0],[3,0],[0]]","8","0","","","","","","6","",""
"","","","","","single-stim-button","349","740073","0.0-3.0-34.8-0.8","5cbf75531864210001fb4db2","E1","batch5","","4218","","","tol_tohand","","","","","","","","","tol_peg_2","4218","4218","0","[[0,0,0],[2,0],[1]]","9","[[2,1,0],[3,0],[0]]","8","0","","","","","","6","",""
