"success","timeout","failed_images","failed_audio","failed_video","trial_type","trial_index","time_elapsed","internal_node_id","subject_id","study_id","session_id","view_history","rt","task","stimulus","response","correct","mouse_click","stim_duration","block_duration","timing_post_trial","current_position","tol_num_moves_made","tol_target","tol_problem_id","tol_rt","key_press","possible_responses","tol_correct","preplanning","tol_rt_per_trial","tol_min_moves","item","answer","spm_correct","spm_rt","fiar_detect_rt","fiar_detect_correct","total_correct_fiar_detect","post_trial_gap","choices"
"true","false","[]","[]","[]","preload","0","904","0.0-0.0","5cc166b25899270017dd60e2","A3","batch1","","","","","","","","","","","","","","","","","","","","","","","","","","","","","",""
"true","","","","","fullscreen","1","27523","0.0-1.0-0.0","5cc166b25899270017dd60e2","A3","batch1","","","","","","","","","","","","","","","","","","","","","","","","","","","","","",""
"true","","","","","fullscreen","2","31487","0.0-2.0-0.0","5cc166b25899270017dd60e2","A3","batch1","","","","","","","","","","","","","","","","","","","","","","","","","","","","","",""
"","","","","","instructions","3","124992","0.0-2.0-1.0-0.0-0.0","5cc166b25899270017dd60e2","A3","batch1","[{""page_index"":0,""viewing_time"":15496},{""page_index"":1,""viewing_time"":7152.899999976158},{""page_index"":2,""viewing_time"":11151.400000035763},{""page_index"":3,""viewing_time"":22839},{""page_index"":4,""viewing_time"":7976},{""page_index"":5,""viewing_time"":24151},{""page_index"":6,""viewing_time"":4736.899999976158}]","93503.59999996424","tol-instructions","","","","","","","","","","","","","","","","","","","","","","","","","","",""
"","","","","","html-button-response","4","126017","0.0-2.0-1.0-1.0-0.0","5cc166b25899270017dd60e2","A3","batch1","","1022.8999999761581","tol_enter_quiz","<p class=block-text> Let's answer a few questions <br>","0","","","","","","","","","","","","","","","","","","","","","","","","",""
"","","","","","html-button-response","5","129224","0.0-2.0-1.0-1.0-1.0","5cc166b25899270017dd60e2","A3","batch1","","3204.899999976158","tol_quiz","<p class = block-text>True or False: You can only move the ball on top of a peg. <br></p>","1","false","","","","","","","","","","","","","","","","","","","","","","","",""
"","","","","","html-button-response","6","132960","0.0-2.0-1.0-1.0-2.0","5cc166b25899270017dd60e2","A3","batch1","","3734.399999976158","tol_quiz_feedback","<p class = block-text>Incorrect. Remember, you can only move the ball on top of a peg.</p>","0","","","","","","","","","","","","","","","","","","","","","","","","",""
"","","","","","html-button-response","7","137000","0.0-2.0-1.0-1.0-3.0","5cc166b25899270017dd60e2","A3","batch1","","4039","tol_quiz","<p class = block-text>True or False: You should try to match your board with the target board with fewest moves possible. <br></p>","0","true","","","","","","","","","","","","","","","","","","","","","","","",""
"","","","","","html-button-response","8","137837","0.0-2.0-1.0-1.0-4.0","5cc166b25899270017dd60e2","A3","batch1","","836","tol_quiz_feedback","<p class = block-text>Correct! </p>","0","","","","","","","","","","","","","","","","","","","","","","","","",""
"","","","","","html-button-response","9","139408","0.0-2.0-1.0-2.0-0.0","5cc166b25899270017dd60e2","A3","batch1","","1568.9000000357628","","<p class = block-text>You made too many incorrect choices.</p><p class = block-text>You will now repeat the instructions and quiz</p>","0","","","","","","","","","","","","","","","","","","","","","","","","",""
"","","","","","instructions","10","146360","0.0-2.0-1.1-0.1-0.1","5cc166b25899270017dd60e2","A3","batch1","[{""page_index"":0,""viewing_time"":1103.300000011921},{""page_index"":1,""viewing_time"":552},{""page_index"":2,""viewing_time"":480.10000002384186},{""page_index"":3,""viewing_time"":1070.3999999761581},{""page_index"":4,""viewing_time"":585.3999999761581},{""page_index"":5,""viewing_time"":1336.800000011921},{""page_index"":6,""viewing_time"":1823.4000000357628}]","6951.800000011921","tol-instructions","","","","","","","","","","","","","","","","","","","","","","","","","","",""
"","","","","","html-button-response","11","147221","0.0-2.0-1.1-1.1-0.1","5cc166b25899270017dd60e2","A3","batch1","","858.6999999880791","tol_enter_quiz","<p class=block-text> Let's answer a few questions <br>","0","","","","","","","","","","","","","","","","","","","","","","","","",""
"","","","","","html-button-response","12","148617","0.0-2.0-1.1-1.1-1.1","5cc166b25899270017dd60e2","A3","batch1","","1393.5999999642372","tol_quiz","<p class = block-text>True or False: You can only move the ball on top of a peg. <br></p>","0","true","","","","","","","","","","","","","","","","","","","","","","","",""
"","","","","","html-button-response","13","149464","0.0-2.0-1.1-1.1-2.1","5cc166b25899270017dd60e2","A3","batch1","","841.8000000119209","tol_quiz_feedback","<p class = block-text>Correct! You can only move the ball on top of a peg.</p>","0","","","","","","","","","","","","","","","","","","","","","","","","",""
"","","","","","html-button-response","14","151688","0.0-2.0-1.1-1.1-3.1","5cc166b25899270017dd60e2","A3","batch1","","2222.699999988079","tol_quiz","<p class = block-text>True or False: You should try to match your board with the target board with fewest moves possible. <br></p>","0","true","","","","","","","","","","","","","","","","","","","","","","","",""
"","","","","","html-button-response","15","152407","0.0-2.0-1.1-1.1-4.1","5cc166b25899270017dd60e2","A3","batch1","","717.3000000119209","tol_quiz_feedback","<p class = block-text>Correct! </p>","0","","","","","","","","","","","","","","","","","","","","","","","","",""
"","","","","","html-button-response","16","155825","0.0-2.0-2.0","5cc166b25899270017dd60e2","A3","batch1","","3415.699999988079","","<p class=block-text> Now that you've understood the game, let's practice a few easier examples before we start!<br> <br>","0","","","","","","","","","","","","","","","","","","","","","","","","",""
"","","","","","single-stim-button","17","158200","0.0-2.0-3.0-0.0","5cc166b25899270017dd60e2","A3","batch1","","2373","tol_practice","","","","tol_peg_2","2373","2373","0","[[1,2,0],[0,0],[0]]","1","[[1,2,0],[0,0],[3]]","practice","2373","","","","","","","","","","","","","","",""
"","","","","","single-stim-button","18","159505","0.0-2.0-3.0-1.0","5cc166b25899270017dd60e2","A3","batch1","","1304","tol_practice","","","","tol_peg_3","1304","1304","0","[[1,2,0],[0,0],[3]]","1","[[1,2,0],[0,0],[3]]","practice","1304","","","","","","","","","","","","","","",""
"","","","","","poldrack-single-stim","19","160520","0.0-2.0-4.0","5cc166b25899270017dd60e2","A3","batch1","","-1","tol_feedback","","","true","","1000","1000","500","","","","","","-1","none","true","","0","","","","","","","","","",""
"","","","","","single-stim-button","20","163746","0.0-2.0-5.0-0.0","5cc166b25899270017dd60e2","A3","batch1","","3225","tol_practice","","","","tol_peg_1","3225","3225","0","[[1,0,0],[3,0],[0]]","2","[[0,0,0],[3,1],[2]]","practice","3225","","","","","","","","","","","","","","",""
"","","","","","single-stim-button","21","165033","0.0-2.0-5.0-1.0","5cc166b25899270017dd60e2","A3","batch1","","1286","tol_practice","","","","tol_peg_3","1286","1286","0","[[1,0,0],[3,0],[2]]","2","[[0,0,0],[3,1],[2]]","practice","1286","","","","","","","","","","","","","","",""
"","","","","","single-stim-button","22","173832","0.0-2.0-5.1-0.1","5cc166b25899270017dd60e2","A3","batch1","","8798","tol_practice","","","","tol_peg_1","8798","8798","0","[[0,0,0],[3,0],[2]]","3","[[0,0,0],[3,1],[2]]","practice","8798","","","","","","","","","","","","","","",""
"","","","","","single-stim-button","23","174888","0.0-2.0-5.1-1.1","5cc166b25899270017dd60e2","A3","batch1","","1055","tol_practice","","","","tol_peg_2","1055","1055","0","[[0,0,0],[3,1],[2]]","3","[[0,0,0],[3,1],[2]]","practice","1055","","","","","","","","","","","","","","",""
"","","","","","poldrack-single-stim","24","175890","0.0-2.0-6.0","5cc166b25899270017dd60e2","A3","batch1","","-1","tol_feedback","","","true","","1000","1000","500","","","","","","-1","none","true","","0","","","","","","","","","",""
"","","","","","single-stim-button","25","178160","0.0-2.0-7.0-0.0","5cc166b25899270017dd60e2","A3","batch1","","2269","tol_practice","","","","tol_peg_2","2269","2269","0","[[1,2,0],[0,0],[0]]","4","[[1,0,0],[2,0],[3]]","practice","2269","","","","","","","","","","","","","","",""
"","","","","","single-stim-button","26","178840","0.0-2.0-7.0-1.0","5cc166b25899270017dd60e2","A3","batch1","","680","tol_practice","","","","tol_peg_3","680","680","0","[[1,2,0],[0,0],[3]]","4","[[1,0,0],[2,0],[3]]","practice","680","","","","","","","","","","","","","","",""
"","","","","","single-stim-button","27","179584","0.0-2.0-7.1-0.1","5cc166b25899270017dd60e2","A3","batch1","","743","tol_practice","","","","tol_peg_1","743","743","0","[[1,0,0],[0,0],[3]]","5","[[1,0,0],[2,0],[3]]","practice","743","","","","","","","","","","","","","","",""
"","","","","","single-stim-button","28","180320","0.0-2.0-7.1-1.1","5cc166b25899270017dd60e2","A3","batch1","","736","tol_practice","","","","tol_peg_2","736","736","0","[[1,0,0],[2,0],[3]]","5","[[1,0,0],[2,0],[3]]","practice","736","","","","","","","","","","","","","","",""
"","","","","","poldrack-single-stim","29","181323","0.0-2.0-8.0","5cc166b25899270017dd60e2","A3","batch1","","-1","tol_feedback","","","true","","1000","1000","500","","","","","","-1","none","true","","0","","","","","","","","","",""
"","","","","","html-button-response","30","185232","0.0-2.0-9.0","5cc166b25899270017dd60e2","A3","batch1","","3908.800000011921","tol_instruction","<div class = centerbox><p class = center-block-text>Great job! You are done with practice trials<br>You are about to start official trials.<br> <br> Problem <strong>1</strong> out of 25 problems</p></div>","0","","","","","","","","","","","","","","","","","","","","","","","","",""
"","","","","","single-stim-button","31","189648","0.0-2.0-10.0-0.0","5cc166b25899270017dd60e2","A3","batch1","","3401","tol_tohand","","","","tol_peg_1","3401","3401","0","[[1,0,0],[3,0],[0]]","1","[[1,3,0],[2,0],[0]]","0","0","","","","","","3","","","","","","","","",""
"","","","","","single-stim-button","32","192968","0.0-2.0-10.0-1.0","5cc166b25899270017dd60e2","A3","batch1","","3320","tol_toboard","","","","tol_peg_3","3320","3320","0","[[1,0,0],[3,0],[2]]","1","[[1,3,0],[2,0],[0]]","0","0","","","","","","3","","","","","","","","",""
"","","","","","single-stim-button","33","193792","0.0-2.0-10.1-0.1","5cc166b25899270017dd60e2","A3","batch1","","823","tol_tohand","","","","tol_peg_2","823","823","0","[[1,0,0],[0,0],[2]]","2","[[1,3,0],[2,0],[0]]","0","0","","","","","","3","","","","","","","","",""
"","","","","","single-stim-button","34","194808","0.0-2.0-10.1-1.1","5cc166b25899270017dd60e2","A3","batch1","","1014","tol_toboard","","","","tol_peg_1","1014","1014","0","[[1,3,0],[0,0],[2]]","2","[[1,3,0],[2,0],[0]]","0","0","","","","","","3","","","","","","","","",""
"","","","","","single-stim-button","35","196200","0.0-2.0-10.2-0.2","5cc166b25899270017dd60e2","A3","batch1","","1391","tol_tohand","","","","tol_peg_3","1391","1391","0","[[1,3,0],[0,0],[0]]","3","[[1,3,0],[2,0],[0]]","0","0","","","","","","3","","","","","","","","",""
"","","","","","single-stim-button","36","197152","0.0-2.0-10.2-1.2","5cc166b25899270017dd60e2","A3","batch1","","951","tol_toboard","","","","tol_peg_2","951","951","0","[[1,3,0],[2,0],[0]]","3","[[1,3,0],[2,0],[0]]","0","0","","","","","","3","","","","","","","","",""
"","","","","","poldrack-single-stim","37","198155","0.0-2.0-11.0","5cc166b25899270017dd60e2","A3","batch1","","-1","tol_feedback","","","true","","1000","1000","500","","","","","","-1","none","true","3401","5615","","","","","","","","","",""
"","","","","","html-button-response","38","199656","0.0-2.0-12.0","5cc166b25899270017dd60e2","A3","batch1","","1500.1000000238419","tol_trial_num","<div class = centerbox><p class = center-block-text>problem <strong>2</strong> out of 25 problems</p></div>","0","","","","","","","","","","","","","","","","","","","","","","","","",""
"","","","","","single-stim-button","39","208640","0.0-2.0-13.0-0.0","5cc166b25899270017dd60e2","A3","batch1","","8984","tol_tohand","","","","tol_peg_1","8984","8984","0","[[1,0,0],[3,0],[0]]","1","[[2,1,3],[0,0],[0]]","1","0","","","","","","5","","","","","","","","",""
"","","","","","single-stim-button","40","209584","0.0-2.0-13.0-1.0","5cc166b25899270017dd60e2","A3","batch1","","942","tol_toboard","","","","tol_peg_3","942","942","0","[[1,0,0],[3,0],[2]]","1","[[2,1,3],[0,0],[0]]","1","0","","","","","","5","","","","","","","","",""
"","","","","","single-stim-button","41","210416","0.0-2.0-13.1-0.1","5cc166b25899270017dd60e2","A3","batch1","","831","tol_tohand","","","","tol_peg_1","831","831","0","[[0,0,0],[3,0],[2]]","2","[[2,1,3],[0,0],[0]]","1","0","","","","","","5","","","","","","","","",""
"","","","","","single-stim-button","42","211352","0.0-2.0-13.1-1.1","5cc166b25899270017dd60e2","A3","batch1","","935","tol_toboard","","","","tol_peg_2","935","935","0","[[0,0,0],[3,1],[2]]","2","[[2,1,3],[0,0],[0]]","1","0","","","","","","5","","","","","","","","",""
"","","","","","single-stim-button","43","212216","0.0-2.0-13.2-0.2","5cc166b25899270017dd60e2","A3","batch1","","862","tol_tohand","","","","tol_peg_3","862","862","0","[[0,0,0],[3,1],[0]]","3","[[2,1,3],[0,0],[0]]","1","0","","","","","","5","","","","","","","","",""
"","","","","","single-stim-button","44","213000","0.0-2.0-13.2-1.2","5cc166b25899270017dd60e2","A3","batch1","","784","tol_toboard","","","","tol_peg_1","784","784","0","[[2,0,0],[3,1],[0]]","3","[[2,1,3],[0,0],[0]]","1","0","","","","","","5","","","","","","","","",""
"","","","","","single-stim-button","45","213760","0.0-2.0-13.3-0.3","5cc166b25899270017dd60e2","A3","batch1","","758","tol_tohand","","","","tol_peg_2","758","758","0","[[2,0,0],[3,0],[0]]","4","[[2,1,3],[0,0],[0]]","1","0","","","","","","5","","","","","","","","",""
"","","","","","single-stim-button","46","214448","0.0-2.0-13.3-1.3","5cc166b25899270017dd60e2","A3","batch1","","687","tol_toboard","","","","tol_peg_1","687","687","0","[[2,1,0],[3,0],[0]]","4","[[2,1,3],[0,0],[0]]","1","0","","","","","","5","","","","","","","","",""
"","","","","","single-stim-button","47","215168","0.0-2.0-13.4-0.4","5cc166b25899270017dd60e2","A3","batch1","","719","tol_tohand","","","","tol_peg_2","719","719","0","[[2,1,0],[0,0],[0]]","5","[[2,1,3],[0,0],[0]]","1","0","","","","","","5","","","","","","","","",""
"","","","","","single-stim-button","48","215768","0.0-2.0-13.4-1.4","5cc166b25899270017dd60e2","A3","batch1","","600","tol_toboard","","","","tol_peg_1","600","600","0","[[2,1,3],[0,0],[0]]","5","[[2,1,3],[0,0],[0]]","1","0","","","","","","5","","","","","","","","",""
"","","","","","poldrack-single-stim","49","216771","0.0-2.0-14.0","5cc166b25899270017dd60e2","A3","batch1","","-1","tol_feedback","","","true","","1000","1000","500","","","","","","-1","none","true","8984","12154","","","","","","","","","",""
"","","","","","html-button-response","50","217864","0.0-2.0-15.0","5cc166b25899270017dd60e2","A3","batch1","","1091.8999999761581","tol_trial_num","<div class = centerbox><p class = center-block-text>problem <strong>3</strong> out of 25 problems</p></div>","0","","","","","","","","","","","","","","","","","","","","","","","","",""
"","","","","","single-stim-button","51","221113","0.0-2.0-16.0-0.0","5cc166b25899270017dd60e2","A3","batch1","","3249","tol_tohand","","","","tol_peg_1","3249","3249","0","[[2,0,0],[0,0],[1]]","1","[[1,2,0],[3,0],[0]]","2","0","","","","","","4","","","","","","","","",""
"","","","","","single-stim-button","52","223832","0.0-2.0-16.0-1.0","5cc166b25899270017dd60e2","A3","batch1","","2718","tol_toboard","","","","tol_peg_2","2718","2718","0","[[2,0,0],[3,0],[1]]","1","[[1,2,0],[3,0],[0]]","2","0","","","","","","4","","","","","","","","",""
"","","","","","single-stim-button","53","224896","0.0-2.0-16.1-0.1","5cc166b25899270017dd60e2","A3","batch1","","1063","tol_tohand","","","","tol_peg_1","1063","1063","0","[[0,0,0],[3,0],[1]]","2","[[1,2,0],[3,0],[0]]","2","0","","","","","","4","","","","","","","","",""
"","","","","","single-stim-button","54","225753","0.0-2.0-16.1-1.1","5cc166b25899270017dd60e2","A3","batch1","","856","tol_toboard","","","","tol_peg_2","856","856","0","[[0,0,0],[3,2],[1]]","2","[[1,2,0],[3,0],[0]]","2","0","","","","","","4","","","","","","","","",""
"","","","","","single-stim-button","55","226442","0.0-2.0-16.2-0.2","5cc166b25899270017dd60e2","A3","batch1","","688","tol_tohand","","","","tol_peg_3","688","688","0","[[0,0,0],[3,2],[0]]","3","[[1,2,0],[3,0],[0]]","2","0","","","","","","4","","","","","","","","",""
"","","","","","single-stim-button","56","227353","0.0-2.0-16.2-1.2","5cc166b25899270017dd60e2","A3","batch1","","910","tol_toboard","","","","tol_peg_1","910","910","0","[[1,0,0],[3,2],[0]]","3","[[1,2,0],[3,0],[0]]","2","0","","","","","","4","","","","","","","","",""
"","","","","","single-stim-button","57","228041","0.0-2.0-16.3-0.3","5cc166b25899270017dd60e2","A3","batch1","","687","tol_tohand","","","","tol_peg_2","687","687","0","[[1,0,0],[3,0],[0]]","4","[[1,2,0],[3,0],[0]]","2","0","","","","","","4","","","","","","","","",""
"","","","","","single-stim-button","58","228920","0.0-2.0-16.3-1.3","5cc166b25899270017dd60e2","A3","batch1","","879","tol_toboard","","","","tol_peg_1","879","879","0","[[1,2,0],[3,0],[0]]","4","[[1,2,0],[3,0],[0]]","2","0","","","","","","4","","","","","","","","",""
"","","","","","poldrack-single-stim","59","229922","0.0-2.0-17.0","5cc166b25899270017dd60e2","A3","batch1","","-1","tol_feedback","","","true","","1000","1000","500","","","","","","-1","none","true","3249","5687","","","","","","","","","",""
"","","","","","html-button-response","60","231001","0.0-2.0-18.0","5cc166b25899270017dd60e2","A3","batch1","","1078.300000011921","tol_trial_num","<div class = centerbox><p class = center-block-text>problem <strong>4</strong> out of 25 problems</p></div>","0","","","","","","","","","","","","","","","","","","","","","","","","",""
"","","","","","single-stim-button","61","233297","0.0-2.0-19.0-0.0","5cc166b25899270017dd60e2","A3","batch1","","2295","tol_tohand","","","","tol_peg_2","2295","2295","0","[[3,0,0],[2,0],[0]]","1","[[3,0,0],[1,0],[2]]","3","0","","","","","","3","","","","","","","","",""
"","","","","","single-stim-button","62","235081","0.0-2.0-19.0-1.0","5cc166b25899270017dd60e2","A3","batch1","","1784","tol_toboard","","","","tol_peg_1","1784","1784","0","[[3,1,0],[2,0],[0]]","1","[[3,0,0],[1,0],[2]]","3","0","","","","","","3","","","","","","","","",""
"","","","","","single-stim-button","63","235753","0.0-2.0-19.1-0.1","5cc166b25899270017dd60e2","A3","batch1","","671","tol_tohand","","","","tol_peg_2","671","671","0","[[3,1,0],[0,0],[0]]","2","[[3,0,0],[1,0],[2]]","3","0","","","","","","3","","","","","","","","",""
"","","","","","single-stim-button","64","236393","0.0-2.0-19.1-1.1","5cc166b25899270017dd60e2","A3","batch1","","639","tol_toboard","","","","tol_peg_3","639","639","0","[[3,1,0],[0,0],[2]]","2","[[3,0,0],[1,0],[2]]","3","0","","","","","","3","","","","","","","","",""
"","","","","","single-stim-button","65","237041","0.0-2.0-19.2-0.2","5cc166b25899270017dd60e2","A3","batch1","","648","tol_tohand","","","","tol_peg_1","648","648","0","[[3,0,0],[0,0],[2]]","3","[[3,0,0],[1,0],[2]]","3","0","","","","","","3","","","","","","","","",""
"","","","","","single-stim-button","66","237849","0.0-2.0-19.2-1.2","5cc166b25899270017dd60e2","A3","batch1","","807","tol_toboard","","","","tol_peg_2","807","807","0","[[3,0,0],[1,0],[2]]","3","[[3,0,0],[1,0],[2]]","3","0","","","","","","3","","","","","","","","",""
"","","","","","poldrack-single-stim","67","238857","0.0-2.0-20.0","5cc166b25899270017dd60e2","A3","batch1","","-1","tol_feedback","","","true","","1000","1000","500","","","","","","-1","none","true","2295","3614","","","","","","","","","",""
"","","","","","html-button-response","68","240153","0.0-2.0-21.0","5cc166b25899270017dd60e2","A3","batch1","","1294.5","tol_trial_num","<div class = centerbox><p class = center-block-text>problem <strong>5</strong> out of 25 problems</p></div>","0","","","","","","","","","","","","","","","","","","","","","","","","",""
"","","","","","single-stim-button","69","259481","0.0-2.0-22.0-0.0","5cc166b25899270017dd60e2","A3","batch1","","19327","tol_tohand","","","","tol_peg_1","19327","19327","0","[[0,0,0],[2,0],[3]]","1","[[0,0,0],[1,2],[3]]","4","0","","","","","","7","","","","","","","","",""
"","","","","","single-stim-button","70","262625","0.0-2.0-22.0-1.0","5cc166b25899270017dd60e2","A3","batch1","","3143","tol_toboard","","","","tol_peg_1","3143","3143","0","[[1,0,0],[2,0],[3]]","1","[[0,0,0],[1,2],[3]]","4","0","","","","","","7","","","","","","","","",""
"","","","","","single-stim-button","71","266361","0.0-2.0-22.1-0.1","5cc166b25899270017dd60e2","A3","batch1","","3736","tol_tohand","","","","tol_peg_2","3736","3736","0","[[1,0,0],[0,0],[3]]","2","[[0,0,0],[1,2],[3]]","4","0","","","","","","7","","","","","","","","",""
"","","","","","single-stim-button","72","268913","0.0-2.0-22.1-1.1","5cc166b25899270017dd60e2","A3","batch1","","2551","tol_toboard","","","","tol_peg_1","2551","2551","0","[[1,2,0],[0,0],[3]]","2","[[0,0,0],[1,2],[3]]","4","0","","","","","","7","","","","","","","","",""
"","","","","","single-stim-button","73","272817","0.0-2.0-22.2-0.2","5cc166b25899270017dd60e2","A3","batch1","","3903","tol_tohand","","","","tol_peg_1","3903","3903","0","[[1,0,0],[0,0],[3]]","3","[[0,0,0],[1,2],[3]]","4","0","","","","","","7","","","","","","","","",""
"","","","","","single-stim-button","74","273841","0.0-2.0-22.2-1.2","5cc166b25899270017dd60e2","A3","batch1","","1024","tol_toboard","","","","tol_peg_2","1024","1024","0","[[1,0,0],[2,0],[3]]","3","[[0,0,0],[1,2],[3]]","4","0","","","","","","7","","","","","","","","",""
"","","","","","single-stim-button","75","277337","0.0-2.0-22.3-0.3","5cc166b25899270017dd60e2","A3","batch1","","3494","tol_tohand","","","","tol_peg_3","3494","3494","0","[[1,0,0],[2,0],[0]]","4","[[0,0,0],[1,2],[3]]","4","0","","","","","","7","","","","","","","","",""
"","","","","","single-stim-button","76","278049","0.0-2.0-22.3-1.3","5cc166b25899270017dd60e2","A3","batch1","","711","tol_toboard","","","","tol_peg_2","711","711","0","[[1,0,0],[2,3],[0]]","4","[[0,0,0],[1,2],[3]]","4","0","","","","","","7","","","","","","","","",""
"","","","","","single-stim-button","77","278930","0.0-2.0-22.4-0.4","5cc166b25899270017dd60e2","A3","batch1","","880","tol_tohand","","","","tol_peg_1","880","880","0","[[0,0,0],[2,3],[0]]","5","[[0,0,0],[1,2],[3]]","4","0","","","","","","7","","","","","","","","",""
"","","","","","single-stim-button","78","281920","0.0-2.0-22.4-1.4","5cc166b25899270017dd60e2","A3","batch1","","2990","tol_toboard","","","","tol_peg_3","2990","2990","0","[[0,0,0],[2,3],[1]]","5","[[0,0,0],[1,2],[3]]","4","0","","","","","","7","","","","","","","","",""
"","","","","","single-stim-button","79","282513","0.0-2.0-22.5-0.5","5cc166b25899270017dd60e2","A3","batch1","","592","tol_tohand","","","","tol_peg_2","592","592","0","[[0,0,0],[2,0],[1]]","6","[[0,0,0],[1,2],[3]]","4","0","","","","","","7","","","","","","","","",""
"","","","","","single-stim-button","80","284721","0.0-2.0-22.5-1.5","5cc166b25899270017dd60e2","A3","batch1","","2207","tol_toboard","","","","tol_peg_1","2207","2207","0","[[3,0,0],[2,0],[1]]","6","[[0,0,0],[1,2],[3]]","4","0","","","","","","7","","","","","","","","",""
"","","","","","single-stim-button","81","285224","0.0-2.0-22.6-0.6","5cc166b25899270017dd60e2","A3","batch1","","503","tol_tohand","","","","tol_peg_2","503","503","0","[[3,0,0],[0,0],[1]]","7","[[0,0,0],[1,2],[3]]","4","0","","","","","","7","","","","","","","","",""
"","","","","","single-stim-button","82","285656","0.0-2.0-22.6-1.6","5cc166b25899270017dd60e2","A3","batch1","","432","tol_toboard","","","","tol_peg_1","432","432","0","[[3,2,0],[0,0],[1]]","7","[[0,0,0],[1,2],[3]]","4","0","","","","","","7","","","","","","","","",""
"","","","","","single-stim-button","83","286353","0.0-2.0-22.7-0.7","5cc166b25899270017dd60e2","A3","batch1","","696","tol_tohand","","","","tol_peg_3","696","696","0","[[3,2,0],[0,0],[0]]","8","[[0,0,0],[1,2],[3]]","4","0","","","","","","7","","","","","","","","",""
"","","","","","single-stim-button","84","286857","0.0-2.0-22.7-1.7","5cc166b25899270017dd60e2","A3","batch1","","503","tol_toboard","","","","tol_peg_2","503","503","0","[[3,2,0],[1,0],[0]]","8","[[0,0,0],[1,2],[3]]","4","0","","","","","","7","","","","","","","","",""
"","","","","","single-stim-button","85","287456","0.0-2.0-22.8-0.8","5cc166b25899270017dd60e2","A3","batch1","","598","tol_tohand","","","","tol_peg_1","598","598","0","[[3,0,0],[1,0],[0]]","9","[[0,0,0],[1,2],[3]]","4","0","","","","","","7","","","","","","","","",""
"","","","","","single-stim-button","86","287937","0.0-2.0-22.8-1.8","5cc166b25899270017dd60e2","A3","batch1","","480","tol_toboard","","","","tol_peg_2","480","480","0","[[3,0,0],[1,2],[0]]","9","[[0,0,0],[1,2],[3]]","4","0","","","","","","7","","","","","","","","",""
"","","","","","single-stim-button","87","288482","0.0-2.0-22.9-0.9","5cc166b25899270017dd60e2","A3","batch1","","544","tol_tohand","","","","tol_peg_1","544","544","0","[[0,0,0],[1,2],[0]]","10","[[0,0,0],[1,2],[3]]","4","0","","","","","","7","","","","","","","","",""
"","","","","","single-stim-button","88","289321","0.0-2.0-22.9-1.9","5cc166b25899270017dd60e2","A3","batch1","","838","tol_toboard","","","","tol_peg_3","838","838","0","[[0,0,0],[1,2],[3]]","10","[[0,0,0],[1,2],[3]]","4","0","","","","","","7","","","","","","","","",""
"","","","","","poldrack-single-stim","89","290334","0.0-2.0-23.0","5cc166b25899270017dd60e2","A3","batch1","","-1","tol_feedback","","","true","","1000","1000","500","","","","","","-1","none","true","19327","34273","","","","","","","","","",""
"","","","","","html-button-response","90","291402","0.0-2.0-24.0","5cc166b25899270017dd60e2","A3","batch1","","1066.5","tol_trial_num","<div class = centerbox><p class = center-block-text>problem <strong>6</strong> out of 25 problems</p></div>","0","","","","","","","","","","","","","","","","","","","","","","","","",""
"","","","","","single-stim-button","91","296617","0.0-2.0-25.0-0.0","5cc166b25899270017dd60e2","A3","batch1","","5214","tol_tohand","","","","tol_peg_3","5214","5214","0","[[0,0,0],[1,2],[0]]","1","[[1,0,0],[2,3],[0]]","5","0","","","","","","6","","","","","","","","",""
"","","","","","single-stim-button","92","297601","0.0-2.0-25.0-1.0","5cc166b25899270017dd60e2","A3","batch1","","983","tol_toboard","","","","tol_peg_1","983","983","0","[[3,0,0],[1,2],[0]]","1","[[1,0,0],[2,3],[0]]","5","0","","","","","","6","","","","","","","","",""
"","","","","","single-stim-button","93","298153","0.0-2.0-25.1-0.1","5cc166b25899270017dd60e2","A3","batch1","","551","tol_tohand","","","","tol_peg_2","551","551","0","[[3,0,0],[1,0],[0]]","2","[[1,0,0],[2,3],[0]]","5","0","","","","","","6","","","","","","","","",""
"","","","","","single-stim-button","94","298762","0.0-2.0-25.1-1.1","5cc166b25899270017dd60e2","A3","batch1","","608","tol_toboard","","","","tol_peg_3","608","608","0","[[3,0,0],[1,0],[2]]","2","[[1,0,0],[2,3],[0]]","5","0","","","","","","6","","","","","","","","",""
"","","","","","single-stim-button","95","307841","0.0-2.0-25.2-0.2","5cc166b25899270017dd60e2","A3","batch1","","9079","tol_tohand","","","","tol_peg_2","9079","9079","0","[[3,0,0],[0,0],[2]]","3","[[1,0,0],[2,3],[0]]","5","0","","","","","","6","","","","","","","","",""
"","","","","","single-stim-button","96","308937","0.0-2.0-25.2-1.2","5cc166b25899270017dd60e2","A3","batch1","","1095","tol_toboard","","","","tol_peg_1","1095","1095","0","[[3,1,0],[0,0],[2]]","3","[[1,0,0],[2,3],[0]]","5","0","","","","","","6","","","","","","","","",""
"","","","","","single-stim-button","97","309881","0.0-2.0-25.3-0.3","5cc166b25899270017dd60e2","A3","batch1","","944","tol_tohand","","","","tol_peg_3","944","944","0","[[3,1,0],[0,0],[0]]","4","[[1,0,0],[2,3],[0]]","5","0","","","","","","6","","","","","","","","",""
"","","","","","single-stim-button","98","310361","0.0-2.0-25.3-1.3","5cc166b25899270017dd60e2","A3","batch1","","480","tol_toboard","","","","tol_peg_2","480","480","0","[[3,1,0],[2,0],[0]]","4","[[1,0,0],[2,3],[0]]","5","0","","","","","","6","","","","","","","","",""
"","","","","","single-stim-button","99","311120","0.0-2.0-25.4-0.4","5cc166b25899270017dd60e2","A3","batch1","","758","tol_tohand","","","","tol_peg_1","758","758","0","[[3,0,0],[2,0],[0]]","5","[[1,0,0],[2,3],[0]]","5","0","","","","","","6","","","","","","","","",""
"","","","","","single-stim-button","100","311697","0.0-2.0-25.4-1.4","5cc166b25899270017dd60e2","A3","batch1","","576","tol_toboard","","","","tol_peg_3","576","576","0","[[3,0,0],[2,0],[1]]","5","[[1,0,0],[2,3],[0]]","5","0","","","","","","6","","","","","","","","",""
"","","","","","single-stim-button","101","312521","0.0-2.0-25.5-0.5","5cc166b25899270017dd60e2","A3","batch1","","824","tol_tohand","","","","tol_peg_1","824","824","0","[[0,0,0],[2,0],[1]]","6","[[1,0,0],[2,3],[0]]","5","0","","","","","","6","","","","","","","","",""
"","","","","","single-stim-button","102","313169","0.0-2.0-25.5-1.5","5cc166b25899270017dd60e2","A3","batch1","","647","tol_toboard","","","","tol_peg_2","647","647","0","[[0,0,0],[2,3],[1]]","6","[[1,0,0],[2,3],[0]]","5","0","","","","","","6","","","","","","","","",""
"","","","","","single-stim-button","103","314113","0.0-2.0-25.6-0.6","5cc166b25899270017dd60e2","A3","batch1","","944","tol_tohand","","","","tol_peg_3","944","944","0","[[0,0,0],[2,3],[0]]","7","[[1,0,0],[2,3],[0]]","5","0","","","","","","6","","","","","","","","",""
"","","","","","single-stim-button","104","314681","0.0-2.0-25.6-1.6","5cc166b25899270017dd60e2","A3","batch1","","568","tol_toboard","","","","tol_peg_1","568","568","0","[[1,0,0],[2,3],[0]]","7","[[1,0,0],[2,3],[0]]","5","0","","","","","","6","","","","","","","","",""
"","","","","","poldrack-single-stim","105","315683","0.0-2.0-26.0","5cc166b25899270017dd60e2","A3","batch1","","-1","tol_feedback","","","true","","1000","1000","500","","","","","","-1","none","true","5214","18314","","","","","","","","","",""
"","","","","","html-button-response","106","316825","0.0-2.0-27.0","5cc166b25899270017dd60e2","A3","batch1","","1141.300000011921","tol_trial_num","<div class = centerbox><p class = center-block-text>problem <strong>7</strong> out of 25 problems</p></div>","0","","","","","","","","","","","","","","","","","","","","","","","","",""
"","","","","","single-stim-button","107","326226","0.0-2.0-28.0-0.0","5cc166b25899270017dd60e2","A3","batch1","","9399","tol_tohand","","","","tol_peg_1","9399","9399","0","[[2,0,0],[0,0],[3]]","1","[[1,2,0],[3,0],[0]]","6","0","","","","","","5","","","","","","","","",""
"","","","","","single-stim-button","108","326825","0.0-2.0-28.0-1.0","5cc166b25899270017dd60e2","A3","batch1","","598","tol_toboard","","","","tol_peg_2","598","598","0","[[2,0,0],[1,0],[3]]","1","[[1,2,0],[3,0],[0]]","6","0","","","","","","5","","","","","","","","",""
"","","","","","single-stim-button","109","327378","0.0-2.0-28.1-0.1","5cc166b25899270017dd60e2","A3","batch1","","552","tol_tohand","","","","tol_peg_1","552","552","0","[[0,0,0],[1,0],[3]]","2","[[1,2,0],[3,0],[0]]","6","0","","","","","","5","","","","","","","","",""
"","","","","","single-stim-button","110","330145","0.0-2.0-28.1-1.1","5cc166b25899270017dd60e2","A3","batch1","","2767","tol_toboard","","","","tol_peg_1","2767","2767","0","[[2,0,0],[1,0],[3]]","2","[[1,2,0],[3,0],[0]]","6","0","","","","","","5","","","","","","","","",""
"","","","","","single-stim-button","111","331186","0.0-2.0-28.2-0.2","5cc166b25899270017dd60e2","A3","batch1","","1039","tol_tohand","","","","tol_peg_2","1039","1039","0","[[2,0,0],[0,0],[3]]","3","[[1,2,0],[3,0],[0]]","6","0","","","","","","5","","","","","","","","",""
"","","","","","single-stim-button","112","331753","0.0-2.0-28.2-1.2","5cc166b25899270017dd60e2","A3","batch1","","567","tol_toboard","","","","tol_peg_1","567","567","0","[[2,1,0],[0,0],[3]]","3","[[1,2,0],[3,0],[0]]","6","0","","","","","","5","","","","","","","","",""
"","","","","","single-stim-button","113","332521","0.0-2.0-28.3-0.3","5cc166b25899270017dd60e2","A3","batch1","","768","tol_tohand","","","","tol_peg_3","768","768","0","[[2,1,0],[0,0],[0]]","4","[[1,2,0],[3,0],[0]]","6","0","","","","","","5","","","","","","","","",""
"","","","","","single-stim-button","114","333777","0.0-2.0-28.3-1.3","5cc166b25899270017dd60e2","A3","batch1","","1255","tol_toboard","","","","tol_peg_2","1255","1255","0","[[2,1,0],[3,0],[0]]","4","[[1,2,0],[3,0],[0]]","6","0","","","","","","5","","","","","","","","",""
"","","","","","single-stim-button","115","334457","0.0-2.0-28.4-0.4","5cc166b25899270017dd60e2","A3","batch1","","679","tol_tohand","","","","tol_peg_1","679","679","0","[[2,0,0],[3,0],[0]]","5","[[1,2,0],[3,0],[0]]","6","0","","","","","","5","","","","","","","","",""
"","","","","","single-stim-button","116","335249","0.0-2.0-28.4-1.4","5cc166b25899270017dd60e2","A3","batch1","","791","tol_toboard","","","","tol_peg_3","791","791","0","[[2,0,0],[3,0],[1]]","5","[[1,2,0],[3,0],[0]]","6","0","","","","","","5","","","","","","","","",""
"","","","","","single-stim-button","117","336233","0.0-2.0-28.5-0.5","5cc166b25899270017dd60e2","A3","batch1","","984","tol_tohand","","","","tol_peg_1","984","984","0","[[0,0,0],[3,0],[1]]","6","[[1,2,0],[3,0],[0]]","6","0","","","","","","5","","","","","","","","",""
"","","","","","single-stim-button","118","336905","0.0-2.0-28.5-1.5","5cc166b25899270017dd60e2","A3","batch1","","671","tol_toboard","","","","tol_peg_2","671","671","0","[[0,0,0],[3,2],[1]]","6","[[1,2,0],[3,0],[0]]","6","0","","","","","","5","","","","","","","","",""
"","","","","","single-stim-button","119","337553","0.0-2.0-28.6-0.6","5cc166b25899270017dd60e2","A3","batch1","","647","tol_tohand","","","","tol_peg_3","647","647","0","[[0,0,0],[3,2],[0]]","7","[[1,2,0],[3,0],[0]]","6","0","","","","","","5","","","","","","","","",""
"","","","","","single-stim-button","120","338282","0.0-2.0-28.6-1.6","5cc166b25899270017dd60e2","A3","batch1","","727","tol_toboard","","","","tol_peg_1","727","727","0","[[1,0,0],[3,2],[0]]","7","[[1,2,0],[3,0],[0]]","6","0","","","","","","5","","","","","","","","",""
"","","","","","single-stim-button","121","338914","0.0-2.0-28.7-0.7","5cc166b25899270017dd60e2","A3","batch1","","631","tol_tohand","","","","tol_peg_2","631","631","0","[[1,0,0],[3,0],[0]]","8","[[1,2,0],[3,0],[0]]","6","0","","","","","","5","","","","","","","","",""
"","","","","","single-stim-button","122","339457","0.0-2.0-28.7-1.7","5cc166b25899270017dd60e2","A3","batch1","","543","tol_toboard","","","","tol_peg_1","543","543","0","[[1,2,0],[3,0],[0]]","8","[[1,2,0],[3,0],[0]]","6","0","","","","","","5","","","","","","","","",""
"","","","","","poldrack-single-stim","123","340470","0.0-2.0-29.0","5cc166b25899270017dd60e2","A3","batch1","","-1","tol_feedback","","","true","","1000","1000","500","","","","","","-1","none","true","9399","14699","","","","","","","","","",""
"","","","","","html-button-response","124","341497","0.0-2.0-30.0","5cc166b25899270017dd60e2","A3","batch1","","1026","tol_trial_num","<div class = centerbox><p class = center-block-text>problem <strong>8</strong> out of 25 problems</p></div>","0","","","","","","","","","","","","","","","","","","","","","","","","",""
"","","","","","single-stim-button","125","345305","0.0-2.0-31.0-0.0","5cc166b25899270017dd60e2","A3","batch1","","3807","tol_tohand","","","","tol_peg_3","3807","3807","0","[[0,0,0],[2,3],[0]]","1","[[1,2,0],[3,0],[0]]","7","0","","","","","","4","","","","","","","","",""
"","","","","","single-stim-button","126","346161","0.0-2.0-31.0-1.0","5cc166b25899270017dd60e2","A3","batch1","","854","tol_toboard","","","","tol_peg_1","854","854","0","[[1,0,0],[2,3],[0]]","1","[[1,2,0],[3,0],[0]]","7","0","","","","","","4","","","","","","","","",""
"","","","","","single-stim-button","127","346825","0.0-2.0-31.1-0.1","5cc166b25899270017dd60e2","A3","batch1","","664","tol_tohand","","","","tol_peg_2","664","664","0","[[1,0,0],[2,0],[0]]","2","[[1,2,0],[3,0],[0]]","7","0","","","","","","4","","","","","","","","",""
"","","","","","single-stim-button","128","347474","0.0-2.0-31.1-1.1","5cc166b25899270017dd60e2","A3","batch1","","647","tol_toboard","","","","tol_peg_3","647","647","0","[[1,0,0],[2,0],[3]]","2","[[1,2,0],[3,0],[0]]","7","0","","","","","","4","","","","","","","","",""
"","","","","","single-stim-button","129","348034","0.0-2.0-31.2-0.2","5cc166b25899270017dd60e2","A3","batch1","","559","tol_tohand","","","","tol_peg_2","559","559","0","[[1,0,0],[0,0],[3]]","3","[[1,2,0],[3,0],[0]]","7","0","","","","","","4","","","","","","","","",""
"","","","","","single-stim-button","130","348577","0.0-2.0-31.2-1.2","5cc166b25899270017dd60e2","A3","batch1","","543","tol_toboard","","","","tol_peg_1","543","543","0","[[1,2,0],[0,0],[3]]","3","[[1,2,0],[3,0],[0]]","7","0","","","","","","4","","","","","","","","",""
"","","","","","single-stim-button","131","349162","0.0-2.0-31.3-0.3","5cc166b25899270017dd60e2","A3","batch1","","584","tol_tohand","","","","tol_peg_3","584","584","0","[[1,2,0],[0,0],[0]]","4","[[1,2,0],[3,0],[0]]","7","0","","","","","","4","","","","","","","","",""
"","","","","","single-stim-button","132","349680","0.0-2.0-31.3-1.3","5cc166b25899270017dd60e2","A3","batch1","","518","tol_toboard","","","","tol_peg_2","518","518","0","[[1,2,0],[3,0],[0]]","4","[[1,2,0],[3,0],[0]]","7","0","","","","","","4","","","","","","","","",""
"","","","","","poldrack-single-stim","133","350683","0.0-2.0-32.0","5cc166b25899270017dd60e2","A3","batch1","","-1","tol_feedback","","","true","","1000","1000","500","","","","","","-1","none","true","3807","5614","","","","","","","","","",""
"","","","","","html-button-response","134","351690","0.0-2.0-33.0","5cc166b25899270017dd60e2","A3","batch1","","1006.4000000357628","tol_trial_num","<div class = centerbox><p class = center-block-text>problem <strong>9</strong> out of 25 problems</p></div>","0","","","","","","","","","","","","","","","","","","","","","","","","",""
"","","","","","single-stim-button","135","359864","0.0-2.0-34.0-0.0","5cc166b25899270017dd60e2","A3","batch1","","8172","tol_tohand","","","","tol_peg_3","8172","8172","0","[[3,2,0],[0,0],[0]]","1","[[2,1,0],[3,0],[0]]","8","0","","","","","","6","","","","","","","","",""
"","","","","","single-stim-button","136","362849","0.0-2.0-34.0-1.0","5cc166b25899270017dd60e2","A3","batch1","","2985","tol_toboard","","","","tol_peg_2","2985","2985","0","[[3,2,0],[1,0],[0]]","1","[[2,1,0],[3,0],[0]]","8","0","","","","","","6","","","","","","","","",""
"","","","","","single-stim-button","137","364336","0.0-2.0-34.1-0.1","5cc166b25899270017dd60e2","A3","batch1","","1486","tol_tohand","","","","tol_peg_1","1486","1486","0","[[3,0,0],[1,0],[0]]","2","[[2,1,0],[3,0],[0]]","8","0","","","","","","6","","","","","","","","",""
"","","","","","single-stim-button","138","368288","0.0-2.0-34.1-1.1","5cc166b25899270017dd60e2","A3","batch1","","3952","tol_toboard","","","","tol_peg_2","3952","3952","0","[[3,0,0],[1,2],[0]]","2","[[2,1,0],[3,0],[0]]","8","0","","","","","","6","","","","","","","","",""
"","","","","","single-stim-button","139","368864","0.0-2.0-34.2-0.2","5cc166b25899270017dd60e2","A3","batch1","","575","tol_tohand","","","","tol_peg_1","575","575","0","[[0,0,0],[1,2],[0]]","3","[[2,1,0],[3,0],[0]]","8","0","","","","","","6","","","","","","","","",""
"","","","","","single-stim-button","140","369761","0.0-2.0-34.2-1.2","5cc166b25899270017dd60e2","A3","batch1","","896","tol_toboard","","","","tol_peg_3","896","896","0","[[0,0,0],[1,2],[3]]","3","[[2,1,0],[3,0],[0]]","8","0","","","","","","6","","","","","","","","",""
"","","","","","single-stim-button","141","373385","0.0-2.0-34.3-0.3","5cc166b25899270017dd60e2","A3","batch1","","3624","tol_tohand","","","","tol_peg_2","3624","3624","0","[[0,0,0],[1,0],[3]]","4","[[2,1,0],[3,0],[0]]","8","0","","","","","","6","","","","","","","","",""
"","","","","","single-stim-button","142","375209","0.0-2.0-34.3-1.3","5cc166b25899270017dd60e2","A3","batch1","","1824","tol_toboard","","","","tol_peg_1","1824","1824","0","[[2,0,0],[1,0],[3]]","4","[[2,1,0],[3,0],[0]]","8","0","","","","","","6","","","","","","","","",""
"","","","","","single-stim-button","143","375953","0.0-2.0-34.4-0.4","5cc166b25899270017dd60e2","A3","batch1","","743","tol_tohand","","","","tol_peg_2","743","743","0","[[2,0,0],[0,0],[3]]","5","[[2,1,0],[3,0],[0]]","8","0","","","","","","6","","","","","","","","",""
"","","","","","single-stim-button","144","376497","0.0-2.0-34.4-1.4","5cc166b25899270017dd60e2","A3","batch1","","543","tol_toboard","","","","tol_peg_1","543","543","0","[[2,1,0],[0,0],[3]]","5","[[2,1,0],[3,0],[0]]","8","0","","","","","","6","","","","","","","","",""
"","","","","","single-stim-button","145","379536","0.0-2.0-34.5-0.5","5cc166b25899270017dd60e2","A3","batch1","","3039","tol_tohand","","","","tol_peg_3","3039","3039","0","[[2,1,0],[0,0],[0]]","6","[[2,1,0],[3,0],[0]]","8","0","","","","","","6","","","","","","","","",""
"","","","","","single-stim-button","146","380441","0.0-2.0-34.5-1.5","5cc166b25899270017dd60e2","A3","batch1","","904","tol_toboard","","","","tol_peg_2","904","904","0","[[2,1,0],[3,0],[0]]","6","[[2,1,0],[3,0],[0]]","8","0","","","","","","6","","","","","","","","",""
"","","","","","poldrack-single-stim","147","381443","0.0-2.0-35.0","5cc166b25899270017dd60e2","A3","batch1","","-1","tol_feedback","","","true","","1000","1000","500","","","","","","-1","none","true","8172","17639","","","","","","","","","",""
"","","","","","html-button-response","148","382496","0.0-2.0-36.0","5cc166b25899270017dd60e2","A3","batch1","","1052.7999999523163","tol_trial_num","<div class = centerbox><p class = center-block-text>problem <strong>10</strong> out of 25 problems</p></div>","0","","","","","","","","","","","","","","","","","","","","","","","","",""
"","","","","","single-stim-button","149","386353","0.0-2.0-37.0-0.0","5cc166b25899270017dd60e2","A3","batch1","","3855","tol_tohand","","","","tol_peg_2","3855","3855","0","[[3,0,0],[0,0],[2]]","1","[[3,0,0],[2,1],[0]]","9","0","","","","","","3","","","","","","","","",""
"","","","","","single-stim-button","150","386753","0.0-2.0-37.0-1.0","5cc166b25899270017dd60e2","A3","batch1","","400","tol_toboard","","","","tol_peg_1","400","400","0","[[3,1,0],[0,0],[2]]","1","[[3,0,0],[2,1],[0]]","9","0","","","","","","3","","","","","","","","",""
"","","","","","single-stim-button","151","387416","0.0-2.0-37.1-0.1","5cc166b25899270017dd60e2","A3","batch1","","662","tol_tohand","","","","tol_peg_3","662","662","0","[[3,1,0],[0,0],[0]]","2","[[3,0,0],[2,1],[0]]","9","0","","","","","","3","","","","","","","","",""
"","","","","","single-stim-button","152","387897","0.0-2.0-37.1-1.1","5cc166b25899270017dd60e2","A3","batch1","","480","tol_toboard","","","","tol_peg_2","480","480","0","[[3,1,0],[2,0],[0]]","2","[[3,0,0],[2,1],[0]]","9","0","","","","","","3","","","","","","","","",""
"","","","","","single-stim-button","153","388417","0.0-2.0-37.2-0.2","5cc166b25899270017dd60e2","A3","batch1","","518","tol_tohand","","","","tol_peg_1","518","518","0","[[3,0,0],[2,0],[0]]","3","[[3,0,0],[2,1],[0]]","9","0","","","","","","3","","","","","","","","",""
"","","","","","single-stim-button","154","388913","0.0-2.0-37.2-1.2","5cc166b25899270017dd60e2","A3","batch1","","495","tol_toboard","","","","tol_peg_2","495","495","0","[[3,0,0],[2,1],[0]]","3","[[3,0,0],[2,1],[0]]","9","0","","","","","","3","","","","","","","","",""
"","","","","","poldrack-single-stim","155","389914","0.0-2.0-38.0","5cc166b25899270017dd60e2","A3","batch1","","-1","tol_feedback","","","true","","1000","1000","500","","","","","","-1","none","true","3855","5035","","","","","","","","","",""
"","","","","","html-button-response","156","390873","0.0-2.0-39.0","5cc166b25899270017dd60e2","A3","batch1","","957.6999999880791","tol_trial_num","<div class = centerbox><p class = center-block-text>problem <strong>11</strong> out of 25 problems</p></div>","0","","","","","","","","","","","","","","","","","","","","","","","","",""
"","","","","","single-stim-button","157","396024","0.0-2.0-40.0-0.0","5cc166b25899270017dd60e2","A3","batch1","","5151","tol_tohand","","","","tol_peg_2","5151","5151","0","[[1,2,0],[0,0],[0]]","1","[[2,0,0],[1,3],[0]]","10","0","","","","","","6","","","","","","","","",""
"","","","","","single-stim-button","158","397649","0.0-2.0-40.0-1.0","5cc166b25899270017dd60e2","A3","batch1","","1624","tol_toboard","","","","tol_peg_2","1624","1624","0","[[1,2,0],[3,0],[0]]","1","[[2,0,0],[1,3],[0]]","10","0","","","","","","6","","","","","","","","",""
"","","","","","single-stim-button","159","398336","0.0-2.0-40.1-0.1","5cc166b25899270017dd60e2","A3","batch1","","685","tol_tohand","","","","tol_peg_1","685","685","0","[[1,0,0],[3,0],[0]]","2","[[2,0,0],[1,3],[0]]","10","0","","","","","","6","","","","","","","","",""
"","","","","","single-stim-button","160","399113","0.0-2.0-40.1-1.1","5cc166b25899270017dd60e2","A3","batch1","","777","tol_toboard","","","","tol_peg_3","777","777","0","[[1,0,0],[3,0],[2]]","2","[[2,0,0],[1,3],[0]]","10","0","","","","","","6","","","","","","","","",""
"","","","","","single-stim-button","161","403609","0.0-2.0-40.2-0.2","5cc166b25899270017dd60e2","A3","batch1","","4496","tol_tohand","","","","tol_peg_2","4496","4496","0","[[1,0,0],[0,0],[2]]","3","[[2,0,0],[1,3],[0]]","10","0","","","","","","6","","","","","","","","",""
"","","","","","single-stim-button","162","405761","0.0-2.0-40.2-1.2","5cc166b25899270017dd60e2","A3","batch1","","2151","tol_toboard","","","","tol_peg_2","2151","2151","0","[[1,0,0],[3,0],[2]]","3","[[2,0,0],[1,3],[0]]","10","0","","","","","","6","","","","","","","","",""
"","","","","","single-stim-button","163","407634","0.0-2.0-40.3-0.3","5cc166b25899270017dd60e2","A3","batch1","","1871","tol_tohand","","","","tol_peg_3","1871","1871","0","[[1,0,0],[3,0],[0]]","4","[[2,0,0],[1,3],[0]]","10","0","","","","","","6","","","","","","","","",""
"","","","","","single-stim-button","164","408249","0.0-2.0-40.3-1.3","5cc166b25899270017dd60e2","A3","batch1","","613","tol_toboard","","","","tol_peg_1","613","613","0","[[1,2,0],[3,0],[0]]","4","[[2,0,0],[1,3],[0]]","10","0","","","","","","6","","","","","","","","",""
"","","","","","single-stim-button","165","409129","0.0-2.0-40.4-0.4","5cc166b25899270017dd60e2","A3","batch1","","879","tol_tohand","","","","tol_peg_2","879","879","0","[[1,2,0],[0,0],[0]]","5","[[2,0,0],[1,3],[0]]","10","0","","","","","","6","","","","","","","","",""
"","","","","","single-stim-button","166","409753","0.0-2.0-40.4-1.4","5cc166b25899270017dd60e2","A3","batch1","","624","tol_toboard","","","","tol_peg_3","624","624","0","[[1,2,0],[0,0],[3]]","5","[[2,0,0],[1,3],[0]]","10","0","","","","","","6","","","","","","","","",""
"","","","","","single-stim-button","167","412529","0.0-2.0-40.5-0.5","5cc166b25899270017dd60e2","A3","batch1","","2775","tol_tohand","","","","tol_peg_1","2775","2775","0","[[1,0,0],[0,0],[3]]","6","[[2,0,0],[1,3],[0]]","10","0","","","","","","6","","","","","","","","",""
"","","","","","single-stim-button","168","413233","0.0-2.0-40.5-1.5","5cc166b25899270017dd60e2","A3","batch1","","703","tol_toboard","","","","tol_peg_2","703","703","0","[[1,0,0],[2,0],[3]]","6","[[2,0,0],[1,3],[0]]","10","0","","","","","","6","","","","","","","","",""
"","","","","","single-stim-button","169","414553","0.0-2.0-40.6-0.6","5cc166b25899270017dd60e2","A3","batch1","","1319","tol_tohand","","","","tol_peg_1","1319","1319","0","[[0,0,0],[2,0],[3]]","7","[[2,0,0],[1,3],[0]]","10","0","","","","","","6","","","","","","","","",""
"","","","","","single-stim-button","170","416121","0.0-2.0-40.6-1.6","5cc166b25899270017dd60e2","A3","batch1","","1566","tol_toboard","","","","tol_peg_2","1566","1566","0","[[0,0,0],[2,1],[3]]","7","[[2,0,0],[1,3],[0]]","10","0","","","","","","6","","","","","","","","",""
"","","","","","single-stim-button","171","418481","0.0-2.0-40.7-0.7","5cc166b25899270017dd60e2","A3","batch1","","2359","tol_tohand","","","","tol_peg_3","2359","2359","0","[[0,0,0],[2,1],[0]]","8","[[2,0,0],[1,3],[0]]","10","0","","","","","","6","","","","","","","","",""
"","","","","","single-stim-button","172","419201","0.0-2.0-40.7-1.7","5cc166b25899270017dd60e2","A3","batch1","","719","tol_toboard","","","","tol_peg_1","719","719","0","[[3,0,0],[2,1],[0]]","8","[[2,0,0],[1,3],[0]]","10","0","","","","","","6","","","","","","","","",""
"","","","","","single-stim-button","173","419872","0.0-2.0-40.8-0.8","5cc166b25899270017dd60e2","A3","batch1","","671","tol_tohand","","","","tol_peg_2","671","671","0","[[3,0,0],[2,0],[0]]","9","[[2,0,0],[1,3],[0]]","10","0","","","","","","6","","","","","","","","",""
"","","","","","single-stim-button","174","420360","0.0-2.0-40.8-1.8","5cc166b25899270017dd60e2","A3","batch1","","487","tol_toboard","","","","tol_peg_3","487","487","0","[[3,0,0],[2,0],[1]]","9","[[2,0,0],[1,3],[0]]","10","0","","","","","","6","","","","","","","","",""
"","","","","","single-stim-button","175","420818","0.0-2.0-40.9-0.9","5cc166b25899270017dd60e2","A3","batch1","","458","tol_tohand","","","","tol_peg_2","458","458","0","[[3,0,0],[0,0],[1]]","10","[[2,0,0],[1,3],[0]]","10","0","","","","","","6","","","","","","","","",""
"","","","","","single-stim-button","176","421329","0.0-2.0-40.9-1.9","5cc166b25899270017dd60e2","A3","batch1","","511","tol_toboard","","","","tol_peg_1","511","511","0","[[3,2,0],[0,0],[1]]","10","[[2,0,0],[1,3],[0]]","10","0","","","","","","6","","","","","","","","",""
"","","","","","single-stim-button","177","421952","0.0-2.0-40.10-0.10","5cc166b25899270017dd60e2","A3","batch1","","622","tol_tohand","","","","tol_peg_3","622","622","0","[[3,2,0],[0,0],[0]]","11","[[2,0,0],[1,3],[0]]","10","0","","","","","","6","","","","","","","","",""
"","","","","","single-stim-button","178","422377","0.0-2.0-40.10-1.10","5cc166b25899270017dd60e2","A3","batch1","","423","tol_toboard","","","","tol_peg_2","423","423","0","[[3,2,0],[1,0],[0]]","11","[[2,0,0],[1,3],[0]]","10","0","","","","","","6","","","","","","","","",""
"","","","","","single-stim-button","179","423592","0.0-2.0-40.11-0.11","5cc166b25899270017dd60e2","A3","batch1","","1215","tol_tohand","","","","tol_peg_1","1215","1215","0","[[3,0,0],[1,0],[0]]","12","[[2,0,0],[1,3],[0]]","10","0","","","","","","6","","","","","","","","",""
"","","","","","single-stim-button","180","424136","0.0-2.0-40.11-1.11","5cc166b25899270017dd60e2","A3","batch1","","543","tol_toboard","","","","tol_peg_3","543","543","0","[[3,0,0],[1,0],[2]]","12","[[2,0,0],[1,3],[0]]","10","0","","","","","","6","","","","","","","","",""
"","","","","","single-stim-button","181","424689","0.0-2.0-40.12-0.12","5cc166b25899270017dd60e2","A3","batch1","","551","tol_tohand","","","","tol_peg_1","551","551","0","[[0,0,0],[1,0],[2]]","13","[[2,0,0],[1,3],[0]]","10","0","","","","","","6","","","","","","","","",""
"","","","","","single-stim-button","182","425297","0.0-2.0-40.12-1.12","5cc166b25899270017dd60e2","A3","batch1","","607","tol_toboard","","","","tol_peg_2","607","607","0","[[0,0,0],[1,3],[2]]","13","[[2,0,0],[1,3],[0]]","10","0","","","","","","6","","","","","","","","",""
"","","","","","single-stim-button","183","425736","0.0-2.0-40.13-0.13","5cc166b25899270017dd60e2","A3","batch1","","439","tol_tohand","","","","tol_peg_3","439","439","0","[[0,0,0],[1,3],[0]]","14","[[2,0,0],[1,3],[0]]","10","0","","","","","","6","","","","","","","","",""
"","","","","","single-stim-button","184","426912","0.0-2.0-40.13-1.13","5cc166b25899270017dd60e2","A3","batch1","","1176","tol_toboard","","","","tol_peg_1","1176","1176","0","[[2,0,0],[1,3],[0]]","14","[[2,0,0],[1,3],[0]]","10","0","","","","","","6","","","","","","","","",""
"","","","","","poldrack-single-stim","185","427914","0.0-2.0-41.0","5cc166b25899270017dd60e2","A3","batch1","","-1","tol_feedback","","","true","","1000","1000","500","","","","","","-1","none","true","5151","23491","","","","","","","","","",""
"","","","","","html-button-response","186","428984","0.0-2.0-42.0","5cc166b25899270017dd60e2","A3","batch1","","1069","tol_trial_num","<div class = centerbox><p class = center-block-text>problem <strong>12</strong> out of 25 problems</p></div>","0","","","","","","","","","","","","","","","","","","","","","","","","",""
"","","","","","single-stim-button","187","434641","0.0-2.0-43.0-0.0","5cc166b25899270017dd60e2","A3","batch1","","5655","tol_tohand","","","","tol_peg_1","5655","5655","0","[[1,0,0],[3,0],[0]]","1","[[2,3,0],[0,0],[1]]","11","0","","","","","","4","","","","","","","","",""
"","","","","","single-stim-button","188","435584","0.0-2.0-43.0-1.0","5cc166b25899270017dd60e2","A3","batch1","","943","tol_toboard","","","","tol_peg_2","943","943","0","[[1,0,0],[3,2],[0]]","1","[[2,3,0],[0,0],[1]]","11","0","","","","","","4","","","","","","","","",""
"","","","","","single-stim-button","189","436339","0.0-2.0-43.1-0.1","5cc166b25899270017dd60e2","A3","batch1","","753","tol_tohand","","","","tol_peg_1","753","753","0","[[0,0,0],[3,2],[0]]","2","[[2,3,0],[0,0],[1]]","11","0","","","","","","4","","","","","","","","",""
"","","","","","single-stim-button","190","437128","0.0-2.0-43.1-1.1","5cc166b25899270017dd60e2","A3","batch1","","788","tol_toboard","","","","tol_peg_3","788","788","0","[[0,0,0],[3,2],[1]]","2","[[2,3,0],[0,0],[1]]","11","0","","","","","","4","","","","","","","","",""
"","","","","","single-stim-button","191","437649","0.0-2.0-43.2-0.2","5cc166b25899270017dd60e2","A3","batch1","","519","tol_tohand","","","","tol_peg_2","519","519","0","[[0,0,0],[3,0],[1]]","3","[[2,3,0],[0,0],[1]]","11","0","","","","","","4","","","","","","","","",""
"","","","","","single-stim-button","192","438073","0.0-2.0-43.2-1.2","5cc166b25899270017dd60e2","A3","batch1","","423","tol_toboard","","","","tol_peg_1","423","423","0","[[2,0,0],[3,0],[1]]","3","[[2,3,0],[0,0],[1]]","11","0","","","","","","4","","","","","","","","",""
"","","","","","single-stim-button","193","438657","0.0-2.0-43.3-0.3","5cc166b25899270017dd60e2","A3","batch1","","583","tol_tohand","","","","tol_peg_2","583","583","0","[[2,0,0],[0,0],[1]]","4","[[2,3,0],[0,0],[1]]","11","0","","","","","","4","","","","","","","","",""
"","","","","","single-stim-button","194","439080","0.0-2.0-43.3-1.3","5cc166b25899270017dd60e2","A3","batch1","","423","tol_toboard","","","","tol_peg_1","423","423","0","[[2,3,0],[0,0],[1]]","4","[[2,3,0],[0,0],[1]]","11","0","","","","","","4","","","","","","","","",""
"","","","","","poldrack-single-stim","195","440096","0.0-2.0-44.0","5cc166b25899270017dd60e2","A3","batch1","","-1","tol_feedback","","","true","","1000","1000","500","","","","","","-1","none","true","5655","7510","","","","","","","","","",""
"","","","","","html-button-response","196","441145","0.0-2.0-45.0","5cc166b25899270017dd60e2","A3","batch1","","1048","tol_trial_num","<div class = centerbox><p class = center-block-text>problem <strong>13</strong> out of 25 problems</p></div>","0","","","","","","","","","","","","","","","","","","","","","","","","",""
"","","","","","single-stim-button","197","447536","0.0-2.0-46.0-0.0","5cc166b25899270017dd60e2","A3","batch1","","6390","tol_tohand","","","","tol_peg_2","6390","6390","0","[[1,2,0],[0,0],[0]]","1","[[0,0,0],[2,3],[1]]","12","0","","","","","","4","","","","","","","","",""
"","","","","","single-stim-button","198","448129","0.0-2.0-46.0-1.0","5cc166b25899270017dd60e2","A3","batch1","","591","tol_toboard","","","","tol_peg_3","591","591","0","[[1,2,0],[0,0],[3]]","1","[[0,0,0],[2,3],[1]]","12","0","","","","","","4","","","","","","","","",""
"","","","","","single-stim-button","199","448632","0.0-2.0-46.1-0.1","5cc166b25899270017dd60e2","A3","batch1","","503","tol_tohand","","","","tol_peg_1","503","503","0","[[1,0,0],[0,0],[3]]","2","[[0,0,0],[2,3],[1]]","12","0","","","","","","4","","","","","","","","",""
"","","","","","single-stim-button","200","449097","0.0-2.0-46.1-1.1","5cc166b25899270017dd60e2","A3","batch1","","465","tol_toboard","","","","tol_peg_2","465","465","0","[[1,0,0],[2,0],[3]]","2","[[0,0,0],[2,3],[1]]","12","0","","","","","","4","","","","","","","","",""
"","","","","","single-stim-button","201","449744","0.0-2.0-46.2-0.2","5cc166b25899270017dd60e2","A3","batch1","","647","tol_tohand","","","","tol_peg_3","647","647","0","[[1,0,0],[2,0],[0]]","3","[[0,0,0],[2,3],[1]]","12","0","","","","","","4","","","","","","","","",""
"","","","","","single-stim-button","202","450880","0.0-2.0-46.2-1.2","5cc166b25899270017dd60e2","A3","batch1","","1136","tol_toboard","","","","tol_peg_2","1136","1136","0","[[1,0,0],[2,3],[0]]","3","[[0,0,0],[2,3],[1]]","12","0","","","","","","4","","","","","","","","",""
"","","","","","single-stim-button","203","451650","0.0-2.0-46.3-0.3","5cc166b25899270017dd60e2","A3","batch1","","769","tol_tohand","","","","tol_peg_1","769","769","0","[[0,0,0],[2,3],[0]]","4","[[0,0,0],[2,3],[1]]","12","0","","","","","","4","","","","","","","","",""
"","","","","","single-stim-button","204","452368","0.0-2.0-46.3-1.3","5cc166b25899270017dd60e2","A3","batch1","","717","tol_toboard","","","","tol_peg_3","717","717","0","[[0,0,0],[2,3],[1]]","4","[[0,0,0],[2,3],[1]]","12","0","","","","","","4","","","","","","","","",""
"","","","","","poldrack-single-stim","205","453370","0.0-2.0-47.0","5cc166b25899270017dd60e2","A3","batch1","","-1","tol_feedback","","","true","","1000","1000","500","","","","","","-1","none","true","6390","8309","","","","","","","","","",""
"","","","","","html-button-response","206","456136","0.0-2.0-48.0","5cc166b25899270017dd60e2","A3","batch1","","2764.899999976158","attention_check","<p class = block-text>How many balls are in your board<br></p>","1","true","","","","","","","","","","","","","","","","","","","","","","","",""
"","","","","","html-button-response","207","457353","0.0-2.0-49.0","5cc166b25899270017dd60e2","A3","batch1","","1215.800000011921","tol_trial_num","<div class = centerbox><p class = center-block-text>problem <strong>14</strong> out of 25 problems</p></div>","0","","","","","","","","","","","","","","","","","","","","","","","","",""
"","","","","","single-stim-button","208","462768","0.0-2.0-50.0-0.0","5cc166b25899270017dd60e2","A3","batch1","","5413","tol_tohand","","","","tol_peg_1","5413","5413","0","[[2,0,0],[3,0],[0]]","1","[[1,2,0],[3,0],[0]]","13","0","","","","","","4","","","","","","","","",""
"","","","","","single-stim-button","209","463392","0.0-2.0-50.0-1.0","5cc166b25899270017dd60e2","A3","batch1","","624","tol_toboard","","","","tol_peg_3","624","624","0","[[2,0,0],[3,0],[1]]","1","[[1,2,0],[3,0],[0]]","13","0","","","","","","4","","","","","","","","",""
"","","","","","single-stim-button","210","464329","0.0-2.0-50.1-0.1","5cc166b25899270017dd60e2","A3","batch1","","936","tol_tohand","","","","tol_peg_1","936","936","0","[[0,0,0],[3,0],[1]]","2","[[1,2,0],[3,0],[0]]","13","0","","","","","","4","","","","","","","","",""
"","","","","","single-stim-button","211","464752","0.0-2.0-50.1-1.1","5cc166b25899270017dd60e2","A3","batch1","","423","tol_toboard","","","","tol_peg_2","423","423","0","[[0,0,0],[3,2],[1]]","2","[[1,2,0],[3,0],[0]]","13","0","","","","","","4","","","","","","","","",""
"","","","","","single-stim-button","212","465193","0.0-2.0-50.2-0.2","5cc166b25899270017dd60e2","A3","batch1","","439","tol_tohand","","","","tol_peg_3","439","439","0","[[0,0,0],[3,2],[0]]","3","[[1,2,0],[3,0],[0]]","13","0","","","","","","4","","","","","","","","",""
"","","","","","single-stim-button","213","465752","0.0-2.0-50.2-1.2","5cc166b25899270017dd60e2","A3","batch1","","558","tol_toboard","","","","tol_peg_1","558","558","0","[[1,0,0],[3,2],[0]]","3","[[1,2,0],[3,0],[0]]","13","0","","","","","","4","","","","","","","","",""
"","","","","","single-stim-button","214","466345","0.0-2.0-50.3-0.3","5cc166b25899270017dd60e2","A3","batch1","","592","tol_tohand","","","","tol_peg_2","592","592","0","[[1,0,0],[3,0],[0]]","4","[[1,2,0],[3,0],[0]]","13","0","","","","","","4","","","","","","","","",""
"","","","","","single-stim-button","215","466793","0.0-2.0-50.3-1.3","5cc166b25899270017dd60e2","A3","batch1","","447","tol_toboard","","","","tol_peg_1","447","447","0","[[1,2,0],[3,0],[0]]","4","[[1,2,0],[3,0],[0]]","13","0","","","","","","4","","","","","","","","",""
"","","","","","poldrack-single-stim","216","467794","0.0-2.0-51.0","5cc166b25899270017dd60e2","A3","batch1","","-1","tol_feedback","","","true","","1000","1000","500","","","","","","-1","none","true","5413","7380","","","","","","","","","",""
"","","","","","html-button-response","217","468617","0.0-2.0-52.0","5cc166b25899270017dd60e2","A3","batch1","","822.3000000119209","tol_trial_num","<div class = centerbox><p class = center-block-text>problem <strong>15</strong> out of 25 problems</p></div>","0","","","","","","","","","","","","","","","","","","","","","","","","",""
"","","","","","single-stim-button","218","476272","0.0-2.0-53.0-0.0","5cc166b25899270017dd60e2","A3","batch1","","7654","tol_tohand","","","","tol_peg_1","7654","7654","0","[[1,0,0],[3,0],[0]]","1","[[2,0,0],[3,0],[1]]","14","0","","","","","","3","","","","","","","","",""
"","","","","","single-stim-button","219","477992","0.0-2.0-53.0-1.0","5cc166b25899270017dd60e2","A3","batch1","","1718","tol_toboard","","","","tol_peg_2","1718","1718","0","[[1,0,0],[3,2],[0]]","1","[[2,0,0],[3,0],[1]]","14","0","","","","","","3","","","","","","","","",""
"","","","","","single-stim-button","220","478696","0.0-2.0-53.1-0.1","5cc166b25899270017dd60e2","A3","batch1","","704","tol_tohand","","","","tol_peg_1","704","704","0","[[0,0,0],[3,2],[0]]","2","[[2,0,0],[3,0],[1]]","14","0","","","","","","3","","","","","","","","",""
"","","","","","single-stim-button","221","479504","0.0-2.0-53.1-1.1","5cc166b25899270017dd60e2","A3","batch1","","808","tol_toboard","","","","tol_peg_3","808","808","0","[[0,0,0],[3,2],[1]]","2","[[2,0,0],[3,0],[1]]","14","0","","","","","","3","","","","","","","","",""
"","","","","","single-stim-button","222","479976","0.0-2.0-53.2-0.2","5cc166b25899270017dd60e2","A3","batch1","","471","tol_tohand","","","","tol_peg_2","471","471","0","[[0,0,0],[3,0],[1]]","3","[[2,0,0],[3,0],[1]]","14","0","","","","","","3","","","","","","","","",""
"","","","","","single-stim-button","223","480472","0.0-2.0-53.2-1.2","5cc166b25899270017dd60e2","A3","batch1","","495","tol_toboard","","","","tol_peg_1","495","495","0","[[2,0,0],[3,0],[1]]","3","[[2,0,0],[3,0],[1]]","14","0","","","","","","3","","","","","","","","",""
"","","","","","poldrack-single-stim","224","481482","0.0-2.0-54.0","5cc166b25899270017dd60e2","A3","batch1","","-1","tol_feedback","","","true","","1000","1000","500","","","","","","-1","none","true","7654","8829","","","","","","","","","",""
"","","","","","html-button-response","225","482465","0.0-2.0-55.0","5cc166b25899270017dd60e2","A3","batch1","","981.6999999880791","tol_trial_num","<div class = centerbox><p class = center-block-text>problem <strong>16</strong> out of 25 problems</p></div>","0","","","","","","","","","","","","","","","","","","","","","","","","",""
"","","","","","single-stim-button","226","490216","0.0-2.0-56.0-0.0","5cc166b25899270017dd60e2","A3","batch1","","7749","tol_tohand","","","","tol_peg_3","7749","7749","0","[[0,0,0],[2,3],[0]]","1","[[2,3,0],[1,0],[0]]","15","0","","","","","","7","","","","","","","","",""
"","","","","","single-stim-button","227","494057","0.0-2.0-56.0-1.0","5cc166b25899270017dd60e2","A3","batch1","","3839","tol_toboard","","","","tol_peg_3","3839","3839","0","[[0,0,0],[2,3],[1]]","1","[[2,3,0],[1,0],[0]]","15","0","","","","","","7","","","","","","","","",""
"","","","","","single-stim-button","228","499961","0.0-2.0-56.1-0.1","5cc166b25899270017dd60e2","A3","batch1","","5903","tol_tohand","","","","tol_peg_3","5903","5903","0","[[0,0,0],[2,3],[0]]","2","[[2,3,0],[1,0],[0]]","15","0","","","","","","7","","","","","","","","",""
"","","","","","single-stim-button","229","501417","0.0-2.0-56.1-1.1","5cc166b25899270017dd60e2","A3","batch1","","1455","tol_toboard","","","","tol_peg_1","1455","1455","0","[[1,0,0],[2,3],[0]]","2","[[2,3,0],[1,0],[0]]","15","0","","","","","","7","","","","","","","","",""
"","","","","","single-stim-button","230","502081","0.0-2.0-56.2-0.2","5cc166b25899270017dd60e2","A3","batch1","","662","tol_tohand","","","","tol_peg_2","662","662","0","[[1,0,0],[2,0],[0]]","3","[[2,3,0],[1,0],[0]]","15","0","","","","","","7","","","","","","","","",""
"","","","","","single-stim-button","231","504356","0.0-2.0-56.2-1.2","5cc166b25899270017dd60e2","A3","batch1","","2274","tol_toboard","","","","tol_peg_3","2274","2274","0","[[1,0,0],[2,0],[3]]","3","[[2,3,0],[1,0],[0]]","15","0","","","","","","7","","","","","","","","",""
"","","","","","single-stim-button","232","510417","0.0-2.0-56.3-0.3","5cc166b25899270017dd60e2","A3","batch1","","6060","tol_tohand","","","","tol_peg_2","6060","6060","0","[[1,0,0],[0,0],[3]]","4","[[2,3,0],[1,0],[0]]","15","0","","","","","","7","","","","","","","","",""
"","","","","","single-stim-button","233","511288","0.0-2.0-56.3-1.3","5cc166b25899270017dd60e2","A3","batch1","","870","tol_toboard","","","","tol_peg_1","870","870","0","[[1,2,0],[0,0],[3]]","4","[[2,3,0],[1,0],[0]]","15","0","","","","","","7","","","","","","","","",""
"","","","","","single-stim-button","234","512217","0.0-2.0-56.4-0.4","5cc166b25899270017dd60e2","A3","batch1","","928","tol_tohand","","","","tol_peg_1","928","928","0","[[1,0,0],[0,0],[3]]","5","[[2,3,0],[1,0],[0]]","15","0","","","","","","7","","","","","","","","",""
"","","","","","single-stim-button","235","513336","0.0-2.0-56.4-1.4","5cc166b25899270017dd60e2","A3","batch1","","1118","tol_toboard","","","","tol_peg_2","1118","1118","0","[[1,0,0],[2,0],[3]]","5","[[2,3,0],[1,0],[0]]","15","0","","","","","","7","","","","","","","","",""
"","","","","","single-stim-button","236","513889","0.0-2.0-56.5-0.5","5cc166b25899270017dd60e2","A3","batch1","","552","tol_tohand","","","","tol_peg_1","552","552","0","[[0,0,0],[2,0],[3]]","6","[[2,3,0],[1,0],[0]]","15","0","","","","","","7","","","","","","","","",""
"","","","","","single-stim-button","237","516696","0.0-2.0-56.5-1.5","5cc166b25899270017dd60e2","A3","batch1","","2807","tol_toboard","","","","tol_peg_2","2807","2807","0","[[0,0,0],[2,1],[3]]","6","[[2,3,0],[1,0],[0]]","15","0","","","","","","7","","","","","","","","",""
"","","","","","single-stim-button","238","518921","0.0-2.0-56.6-0.6","5cc166b25899270017dd60e2","A3","batch1","","2223","tol_tohand","","","","tol_peg_3","2223","2223","0","[[0,0,0],[2,1],[0]]","7","[[2,3,0],[1,0],[0]]","15","0","","","","","","7","","","","","","","","",""
"","","","","","single-stim-button","239","519720","0.0-2.0-56.6-1.6","5cc166b25899270017dd60e2","A3","batch1","","798","tol_toboard","","","","tol_peg_1","798","798","0","[[3,0,0],[2,1],[0]]","7","[[2,3,0],[1,0],[0]]","15","0","","","","","","7","","","","","","","","",""
"","","","","","single-stim-button","240","521234","0.0-2.0-56.7-0.7","5cc166b25899270017dd60e2","A3","batch1","","1512","tol_tohand","","","","tol_peg_2","1512","1512","0","[[3,0,0],[2,0],[0]]","8","[[2,3,0],[1,0],[0]]","15","0","","","","","","7","","","","","","","","",""
"","","","","","single-stim-button","241","526136","0.0-2.0-56.7-1.7","5cc166b25899270017dd60e2","A3","batch1","","4902","tol_toboard","","","","tol_peg_3","4902","4902","0","[[3,0,0],[2,0],[1]]","8","[[2,3,0],[1,0],[0]]","15","0","","","","","","7","","","","","","","","",""
"","","","","","single-stim-button","242","528712","0.0-2.0-56.8-0.8","5cc166b25899270017dd60e2","A3","batch1","","2575","tol_tohand","","","","tol_peg_1","2575","2575","0","[[0,0,0],[2,0],[1]]","9","[[2,3,0],[1,0],[0]]","15","0","","","","","","7","","","","","","","","",""
"","","","","","single-stim-button","243","530841","0.0-2.0-56.8-1.8","5cc166b25899270017dd60e2","A3","batch1","","2127","tol_toboard","","","","tol_peg_2","2127","2127","0","[[0,0,0],[2,3],[1]]","9","[[2,3,0],[1,0],[0]]","15","0","","","","","","7","","","","","","","","",""
"","","","","","single-stim-button","244","537832","0.0-2.0-56.9-0.9","5cc166b25899270017dd60e2","A3","batch1","","6991","tol_tohand","","","","tol_peg_2","6991","6991","0","[[0,0,0],[2,0],[1]]","10","[[2,3,0],[1,0],[0]]","15","0","","","","","","7","","","","","","","","",""
"","","","","","single-stim-button","245","538569","0.0-2.0-56.9-1.9","5cc166b25899270017dd60e2","A3","batch1","","735","tol_toboard","","","","tol_peg_1","735","735","0","[[3,0,0],[2,0],[1]]","10","[[2,3,0],[1,0],[0]]","15","0","","","","","","7","","","","","","","","",""
"","","","","","single-stim-button","246","539633","0.0-2.0-56.10-0.10","5cc166b25899270017dd60e2","A3","batch1","","1064","tol_tohand","","","","tol_peg_2","1064","1064","0","[[3,0,0],[0,0],[1]]","11","[[2,3,0],[1,0],[0]]","15","0","","","","","","7","","","","","","","","",""
"","","","","","single-stim-button","247","540225","0.0-2.0-56.10-1.10","5cc166b25899270017dd60e2","A3","batch1","","590","tol_toboard","","","","tol_peg_1","590","590","0","[[3,2,0],[0,0],[1]]","11","[[2,3,0],[1,0],[0]]","15","0","","","","","","7","","","","","","","","",""
"","","","","","single-stim-button","248","542697","0.0-2.0-56.11-0.11","5cc166b25899270017dd60e2","A3","batch1","","2471","tol_tohand","","","","tol_peg_3","2471","2471","0","[[3,2,0],[0,0],[0]]","12","[[2,3,0],[1,0],[0]]","15","0","","","","","","7","","","","","","","","",""
"","","","","","single-stim-button","249","543681","0.0-2.0-56.11-1.11","5cc166b25899270017dd60e2","A3","batch1","","983","tol_toboard","","","","tol_peg_2","983","983","0","[[3,2,0],[1,0],[0]]","12","[[2,3,0],[1,0],[0]]","15","0","","","","","","7","","","","","","","","",""
"","","","","","single-stim-button","250","544913","0.0-2.0-56.12-0.12","5cc166b25899270017dd60e2","A3","batch1","","1231","tol_tohand","","","","tol_peg_1","1231","1231","0","[[3,0,0],[1,0],[0]]","13","[[2,3,0],[1,0],[0]]","15","0","","","","","","7","","","","","","","","",""
"","","","","","single-stim-button","251","551561","0.0-2.0-56.12-1.12","5cc166b25899270017dd60e2","A3","batch1","","6648","tol_toboard","","","","tol_peg_2","6648","6648","0","[[3,0,0],[1,2],[0]]","13","[[2,3,0],[1,0],[0]]","15","0","","","","","","7","","","","","","","","",""
"","","","","","single-stim-button","252","552297","0.0-2.0-56.13-0.13","5cc166b25899270017dd60e2","A3","batch1","","735","tol_tohand","","","","tol_peg_1","735","735","0","[[0,0,0],[1,2],[0]]","14","[[2,3,0],[1,0],[0]]","15","0","","","","","","7","","","","","","","","",""
"","","","","","single-stim-button","253","552969","0.0-2.0-56.13-1.13","5cc166b25899270017dd60e2","A3","batch1","","671","tol_toboard","","","","tol_peg_3","671","671","0","[[0,0,0],[1,2],[3]]","14","[[2,3,0],[1,0],[0]]","15","0","","","","","","7","","","","","","","","",""
"","","","","","single-stim-button","254","553577","0.0-2.0-56.14-0.14","5cc166b25899270017dd60e2","A3","batch1","","608","tol_tohand","","","","tol_peg_2","608","608","0","[[0,0,0],[1,0],[3]]","15","[[2,3,0],[1,0],[0]]","15","0","","","","","","7","","","","","","","","",""
"","","","","","single-stim-button","255","553992","0.0-2.0-56.14-1.14","5cc166b25899270017dd60e2","A3","batch1","","415","tol_toboard","","","","tol_peg_1","415","415","0","[[2,0,0],[1,0],[3]]","15","[[2,3,0],[1,0],[0]]","15","0","","","","","","7","","","","","","","","",""
"","","","","","single-stim-button","256","554634","0.0-2.0-56.15-0.15","5cc166b25899270017dd60e2","A3","batch1","","641","tol_tohand","","","","tol_peg_3","641","641","0","[[2,0,0],[1,0],[0]]","16","[[2,3,0],[1,0],[0]]","15","0","","","","","","7","","","","","","","","",""
"","","","","","single-stim-button","257","555233","0.0-2.0-56.15-1.15","5cc166b25899270017dd60e2","A3","batch1","","598","tol_toboard","","","","tol_peg_1","598","598","0","[[2,3,0],[1,0],[0]]","16","[[2,3,0],[1,0],[0]]","15","0","","","","","","7","","","","","","","","",""
"","","","","","poldrack-single-stim","258","556235","0.0-2.0-57.0","5cc166b25899270017dd60e2","A3","batch1","","-1","tol_feedback","","","true","","1000","1000","500","","","","","","-1","none","true","7749","41905","","","","","","","","","",""
"","","","","","html-button-response","259","557409","0.0-2.0-58.0","5cc166b25899270017dd60e2","A3","batch1","","1172.699999988079","tol_trial_num","<div class = centerbox><p class = center-block-text>problem <strong>17</strong> out of 25 problems</p></div>","0","","","","","","","","","","","","","","","","","","","","","","","","",""
"","","","","","single-stim-button","260","560881","0.0-2.0-59.0-0.0","5cc166b25899270017dd60e2","A3","batch1","","3470","tol_tohand","","","","tol_peg_1","3470","3470","0","[[1,0,0],[3,0],[0]]","1","[[3,1,0],[2,0],[0]]","16","0","","","","","","5","","","","","","","","",""
"","","","","","single-stim-button","261","565457","0.0-2.0-59.0-1.0","5cc166b25899270017dd60e2","A3","batch1","","4576","tol_toboard","","","","tol_peg_2","4576","4576","0","[[1,0,0],[3,2],[0]]","1","[[3,1,0],[2,0],[0]]","16","0","","","","","","5","","","","","","","","",""
"","","","","","single-stim-button","262","566153","0.0-2.0-59.1-0.1","5cc166b25899270017dd60e2","A3","batch1","","694","tol_tohand","","","","tol_peg_1","694","694","0","[[0,0,0],[3,2],[0]]","2","[[3,1,0],[2,0],[0]]","16","0","","","","","","5","","","","","","","","",""
"","","","","","single-stim-button","263","569057","0.0-2.0-59.1-1.1","5cc166b25899270017dd60e2","A3","batch1","","2904","tol_toboard","","","","tol_peg_1","2904","2904","0","[[1,0,0],[3,2],[0]]","2","[[3,1,0],[2,0],[0]]","16","0","","","","","","5","","","","","","","","",""
"","","","","","single-stim-button","264","569889","0.0-2.0-59.2-0.2","5cc166b25899270017dd60e2","A3","batch1","","831","tol_tohand","","","","tol_peg_2","831","831","0","[[1,0,0],[3,0],[0]]","3","[[3,1,0],[2,0],[0]]","16","0","","","","","","5","","","","","","","","",""
"","","","","","single-stim-button","265","570825","0.0-2.0-59.2-1.2","5cc166b25899270017dd60e2","A3","batch1","","936","tol_toboard","","","","tol_peg_1","936","936","0","[[1,2,0],[3,0],[0]]","3","[[3,1,0],[2,0],[0]]","16","0","","","","","","5","","","","","","","","",""
"","","","","","single-stim-button","266","571425","0.0-2.0-59.3-0.3","5cc166b25899270017dd60e2","A3","batch1","","598","tol_tohand","","","","tol_peg_2","598","598","0","[[1,2,0],[0,0],[0]]","4","[[3,1,0],[2,0],[0]]","16","0","","","","","","5","","","","","","","","",""
"","","","","","single-stim-button","267","572137","0.0-2.0-59.3-1.3","5cc166b25899270017dd60e2","A3","batch1","","711","tol_toboard","","","","tol_peg_3","711","711","0","[[1,2,0],[0,0],[3]]","4","[[3,1,0],[2,0],[0]]","16","0","","","","","","5","","","","","","","","",""
"","","","","","single-stim-button","268","572969","0.0-2.0-59.4-0.4","5cc166b25899270017dd60e2","A3","batch1","","831","tol_tohand","","","","tol_peg_1","831","831","0","[[1,0,0],[0,0],[3]]","5","[[3,1,0],[2,0],[0]]","16","0","","","","","","5","","","","","","","","",""
"","","","","","single-stim-button","269","574225","0.0-2.0-59.4-1.4","5cc166b25899270017dd60e2","A3","batch1","","1256","tol_toboard","","","","tol_peg_2","1256","1256","0","[[1,0,0],[2,0],[3]]","5","[[3,1,0],[2,0],[0]]","16","0","","","","","","5","","","","","","","","",""
"","","","","","single-stim-button","270","574752","0.0-2.0-59.5-0.5","5cc166b25899270017dd60e2","A3","batch1","","527","tol_tohand","","","","tol_peg_1","527","527","0","[[0,0,0],[2,0],[3]]","6","[[3,1,0],[2,0],[0]]","16","0","","","","","","5","","","","","","","","",""
"","","","","","single-stim-button","271","575248","0.0-2.0-59.5-1.5","5cc166b25899270017dd60e2","A3","batch1","","495","tol_toboard","","","","tol_peg_2","495","495","0","[[0,0,0],[2,1],[3]]","6","[[3,1,0],[2,0],[0]]","16","0","","","","","","5","","","","","","","","",""
"","","","","","single-stim-button","272","575746","0.0-2.0-59.6-0.6","5cc166b25899270017dd60e2","A3","batch1","","497","tol_tohand","","","","tol_peg_3","497","497","0","[[0,0,0],[2,1],[0]]","7","[[3,1,0],[2,0],[0]]","16","0","","","","","","5","","","","","","","","",""
"","","","","","single-stim-button","273","576256","0.0-2.0-59.6-1.6","5cc166b25899270017dd60e2","A3","batch1","","510","tol_toboard","","","","tol_peg_1","510","510","0","[[3,0,0],[2,1],[0]]","7","[[3,1,0],[2,0],[0]]","16","0","","","","","","5","","","","","","","","",""
"","","","","","single-stim-button","274","576832","0.0-2.0-59.7-0.7","5cc166b25899270017dd60e2","A3","batch1","","574","tol_tohand","","","","tol_peg_2","574","574","0","[[3,0,0],[2,0],[0]]","8","[[3,1,0],[2,0],[0]]","16","0","","","","","","5","","","","","","","","",""
"","","","","","single-stim-button","275","577457","0.0-2.0-59.7-1.7","5cc166b25899270017dd60e2","A3","batch1","","624","tol_toboard","","","","tol_peg_1","624","624","0","[[3,1,0],[2,0],[0]]","8","[[3,1,0],[2,0],[0]]","16","0","","","","","","5","","","","","","","","",""
"","","","","","poldrack-single-stim","276","578458","0.0-2.0-60.0","5cc166b25899270017dd60e2","A3","batch1","","-1","tol_feedback","","","true","","1000","1000","500","","","","","","-1","none","true","3470","8022","","","","","","","","","",""
"","","","","","html-button-response","277","579313","0.0-2.0-61.0","5cc166b25899270017dd60e2","A3","batch1","","853.5999999642372","tol_trial_num","<div class = centerbox><p class = center-block-text>problem <strong>18</strong> out of 25 problems</p></div>","0","","","","","","","","","","","","","","","","","","","","","","","","",""
"","","","","","single-stim-button","278","584224","0.0-2.0-62.0-0.0","5cc166b25899270017dd60e2","A3","batch1","","4910","tol_tohand","","","","tol_peg_1","4910","4910","0","[[1,0,0],[3,0],[0]]","1","[[3,0,0],[2,0],[1]]","17","0","","","","","","5","","","","","","","","",""
"","","","","","single-stim-button","279","588492","0.0-2.0-62.0-1.0","5cc166b25899270017dd60e2","A3","batch1","","4268","tol_toboard","","","","tol_peg_1","4268","4268","0","[[1,2,0],[3,0],[0]]","1","[[3,0,0],[2,0],[1]]","17","0","","","","","","5","","","","","","","","",""
"","","","","","single-stim-button","280","589001","0.0-2.0-62.1-0.1","5cc166b25899270017dd60e2","A3","batch1","","502","tol_tohand","","","","tol_peg_2","502","502","0","[[1,2,0],[0,0],[0]]","2","[[3,0,0],[2,0],[1]]","17","0","","","","","","5","","","","","","","","",""
"","","","","","single-stim-button","281","589473","0.0-2.0-62.1-1.1","5cc166b25899270017dd60e2","A3","batch1","","471","tol_toboard","","","","tol_peg_3","471","471","0","[[1,2,0],[0,0],[3]]","2","[[3,0,0],[2,0],[1]]","17","0","","","","","","5","","","","","","","","",""
"","","","","","single-stim-button","282","590584","0.0-2.0-62.2-0.2","5cc166b25899270017dd60e2","A3","batch1","","1111","tol_tohand","","","","tol_peg_1","1111","1111","0","[[1,0,0],[0,0],[3]]","3","[[3,0,0],[2,0],[1]]","17","0","","","","","","5","","","","","","","","",""
"","","","","","single-stim-button","283","591193","0.0-2.0-62.2-1.2","5cc166b25899270017dd60e2","A3","batch1","","607","tol_toboard","","","","tol_peg_2","607","607","0","[[1,0,0],[2,0],[3]]","3","[[3,0,0],[2,0],[1]]","17","0","","","","","","5","","","","","","","","",""
"","","","","","single-stim-button","284","592848","0.0-2.0-62.3-0.3","5cc166b25899270017dd60e2","A3","batch1","","1655","tol_tohand","","","","tol_peg_1","1655","1655","0","[[0,0,0],[2,0],[3]]","4","[[3,0,0],[2,0],[1]]","17","0","","","","","","5","","","","","","","","",""
"","","","","","single-stim-button","285","593473","0.0-2.0-62.3-1.3","5cc166b25899270017dd60e2","A3","batch1","","624","tol_toboard","","","","tol_peg_2","624","624","0","[[0,0,0],[2,1],[3]]","4","[[3,0,0],[2,0],[1]]","17","0","","","","","","5","","","","","","","","",""
"","","","","","single-stim-button","286","594009","0.0-2.0-62.4-0.4","5cc166b25899270017dd60e2","A3","batch1","","535","tol_tohand","","","","tol_peg_3","535","535","0","[[0,0,0],[2,1],[0]]","5","[[3,0,0],[2,0],[1]]","17","0","","","","","","5","","","","","","","","",""
"","","","","","single-stim-button","287","594561","0.0-2.0-62.4-1.4","5cc166b25899270017dd60e2","A3","batch1","","552","tol_toboard","","","","tol_peg_1","552","552","0","[[3,0,0],[2,1],[0]]","5","[[3,0,0],[2,0],[1]]","17","0","","","","","","5","","","","","","","","",""
"","","","","","single-stim-button","288","595040","0.0-2.0-62.5-0.5","5cc166b25899270017dd60e2","A3","batch1","","479","tol_tohand","","","","tol_peg_2","479","479","0","[[3,0,0],[2,0],[0]]","6","[[3,0,0],[2,0],[1]]","17","0","","","","","","5","","","","","","","","",""
"","","","","","single-stim-button","289","595600","0.0-2.0-62.5-1.5","5cc166b25899270017dd60e2","A3","batch1","","559","tol_toboard","","","","tol_peg_3","559","559","0","[[3,0,0],[2,0],[1]]","6","[[3,0,0],[2,0],[1]]","17","0","","","","","","5","","","","","","","","",""
"","","","","","poldrack-single-stim","290","596601","0.0-2.0-63.0","5cc166b25899270017dd60e2","A3","batch1","","-1","tol_feedback","","","true","","1000","1000","500","","","","","","-1","none","true","4910","9192","","","","","","","","","",""
"","","","","","html-button-response","291","604704","0.0-2.0-64.0","5cc166b25899270017dd60e2","A3","batch1","","8102.5","tol_trial_num","<div class = centerbox><p class = center-block-text>problem <strong>19</strong> out of 25 problems</p></div>","0","","","","","","","","","","","","","","","","","","","","","","","","",""
"","","","","","single-stim-button","292","619305","0.0-2.0-65.0-0.0","5cc166b25899270017dd60e2","A3","batch1","","14599","tol_tohand","","","","tol_peg_1","14599","14599","0","[[1,0,0],[3,0],[0]]","1","[[0,0,0],[1,2],[3]]","18","0","","","","","","7","","","","","","","","",""
"","","","","","single-stim-button","293","620017","0.0-2.0-65.0-1.0","5cc166b25899270017dd60e2","A3","batch1","","711","tol_toboard","","","","tol_peg_2","711","711","0","[[1,0,0],[3,2],[0]]","1","[[0,0,0],[1,2],[3]]","18","0","","","","","","7","","","","","","","","",""
"","","","","","single-stim-button","294","620594","0.0-2.0-65.1-0.1","5cc166b25899270017dd60e2","A3","batch1","","576","tol_tohand","","","","tol_peg_1","576","576","0","[[0,0,0],[3,2],[0]]","2","[[0,0,0],[1,2],[3]]","18","0","","","","","","7","","","","","","","","",""
"","","","","","single-stim-button","295","622433","0.0-2.0-65.1-1.1","5cc166b25899270017dd60e2","A3","batch1","","1839","tol_toboard","","","","tol_peg_3","1839","1839","0","[[0,0,0],[3,2],[1]]","2","[[0,0,0],[1,2],[3]]","18","0","","","","","","7","","","","","","","","",""
"","","","","","single-stim-button","296","625513","0.0-2.0-65.2-0.2","5cc166b25899270017dd60e2","A3","batch1","","3079","tol_tohand","","","","tol_peg_2","3079","3079","0","[[0,0,0],[3,0],[1]]","3","[[0,0,0],[1,2],[3]]","18","0","","","","","","7","","","","","","","","",""
"","","","","","single-stim-button","297","629009","0.0-2.0-65.2-1.2","5cc166b25899270017dd60e2","A3","batch1","","3495","tol_toboard","","","","tol_peg_1","3495","3495","0","[[2,0,0],[3,0],[1]]","3","[[0,0,0],[1,2],[3]]","18","0","","","","","","7","","","","","","","","",""
"","","","","","single-stim-button","298","630530","0.0-2.0-65.3-0.3","5cc166b25899270017dd60e2","A3","batch1","","1520","tol_tohand","","","","tol_peg_3","1520","1520","0","[[2,0,0],[3,0],[0]]","4","[[0,0,0],[1,2],[3]]","18","0","","","","","","7","","","","","","","","",""
"","","","","","single-stim-button","299","631153","0.0-2.0-65.3-1.3","5cc166b25899270017dd60e2","A3","batch1","","621","tol_toboard","","","","tol_peg_1","621","621","0","[[2,1,0],[3,0],[0]]","4","[[0,0,0],[1,2],[3]]","18","0","","","","","","7","","","","","","","","",""
"","","","","","single-stim-button","300","632392","0.0-2.0-65.4-0.4","5cc166b25899270017dd60e2","A3","batch1","","1239","tol_tohand","","","","tol_peg_2","1239","1239","0","[[2,1,0],[0,0],[0]]","5","[[0,0,0],[1,2],[3]]","18","0","","","","","","7","","","","","","","","",""
"","","","","","single-stim-button","301","632961","0.0-2.0-65.4-1.4","5cc166b25899270017dd60e2","A3","batch1","","567","tol_toboard","","","","tol_peg_3","567","567","0","[[2,1,0],[0,0],[3]]","5","[[0,0,0],[1,2],[3]]","18","0","","","","","","7","","","","","","","","",""
"","","","","","single-stim-button","302","634120","0.0-2.0-65.5-0.5","5cc166b25899270017dd60e2","A3","batch1","","1159","tol_tohand","","","","tol_peg_1","1159","1159","0","[[2,0,0],[0,0],[3]]","6","[[0,0,0],[1,2],[3]]","18","0","","","","","","7","","","","","","","","",""
"","","","","","single-stim-button","303","634736","0.0-2.0-65.5-1.5","5cc166b25899270017dd60e2","A3","batch1","","614","tol_toboard","","","","tol_peg_2","614","614","0","[[2,0,0],[1,0],[3]]","6","[[0,0,0],[1,2],[3]]","18","0","","","","","","7","","","","","","","","",""
"","","","","","single-stim-button","304","635265","0.0-2.0-65.6-0.6","5cc166b25899270017dd60e2","A3","batch1","","529","tol_tohand","","","","tol_peg_1","529","529","0","[[0,0,0],[1,0],[3]]","7","[[0,0,0],[1,2],[3]]","18","0","","","","","","7","","","","","","","","",""
"","","","","","single-stim-button","305","635993","0.0-2.0-65.6-1.6","5cc166b25899270017dd60e2","A3","batch1","","728","tol_toboard","","","","tol_peg_2","728","728","0","[[0,0,0],[1,2],[3]]","7","[[0,0,0],[1,2],[3]]","18","0","","","","","","7","","","","","","","","",""
"","","","","","poldrack-single-stim","306","636995","0.0-2.0-66.0","5cc166b25899270017dd60e2","A3","batch1","","-1","tol_feedback","","","true","","1000","1000","500","","","","","","-1","none","true","14599","22701","","","","","","","","","",""
"","","","","","html-button-response","307","637969","0.0-2.0-67.0","5cc166b25899270017dd60e2","A3","batch1","","973.6000000238419","tol_trial_num","<div class = centerbox><p class = center-block-text>problem <strong>20</strong> out of 25 problems</p></div>","0","","","","","","","","","","","","","","","","","","","","","","","","",""
"","","","","","single-stim-button","308","645825","0.0-2.0-68.0-0.0","5cc166b25899270017dd60e2","A3","batch1","","7854","tol_tohand","","","","tol_peg_1","7854","7854","0","[[1,0,0],[3,0],[0]]","1","[[2,1,0],[0,0],[3]]","19","0","","","","","","5","","","","","","","","",""
"","","","","","single-stim-button","309","651641","0.0-2.0-68.0-1.0","5cc166b25899270017dd60e2","A3","batch1","","5815","tol_toboard","","","","tol_peg_2","5815","5815","0","[[1,0,0],[3,2],[0]]","1","[[2,1,0],[0,0],[3]]","19","0","","","","","","5","","","","","","","","",""
"","","","","","single-stim-button","310","654664","0.0-2.0-68.1-0.1","5cc166b25899270017dd60e2","A3","batch1","","3023","tol_tohand","","","","tol_peg_1","3023","3023","0","[[0,0,0],[3,2],[0]]","2","[[2,1,0],[0,0],[3]]","19","0","","","","","","5","","","","","","","","",""
"","","","","","single-stim-button","311","655424","0.0-2.0-68.1-1.1","5cc166b25899270017dd60e2","A3","batch1","","759","tol_toboard","","","","tol_peg_3","759","759","0","[[0,0,0],[3,2],[1]]","2","[[2,1,0],[0,0],[3]]","19","0","","","","","","5","","","","","","","","",""
"","","","","","single-stim-button","312","655864","0.0-2.0-68.2-0.2","5cc166b25899270017dd60e2","A3","batch1","","439","tol_tohand","","","","tol_peg_2","439","439","0","[[0,0,0],[3,0],[1]]","3","[[2,1,0],[0,0],[3]]","19","0","","","","","","5","","","","","","","","",""
"","","","","","single-stim-button","313","656289","0.0-2.0-68.2-1.2","5cc166b25899270017dd60e2","A3","batch1","","424","tol_toboard","","","","tol_peg_1","424","424","0","[[2,0,0],[3,0],[1]]","3","[[2,1,0],[0,0],[3]]","19","0","","","","","","5","","","","","","","","",""
"","","","","","single-stim-button","314","656825","0.0-2.0-68.3-0.3","5cc166b25899270017dd60e2","A3","batch1","","535","tol_tohand","","","","tol_peg_3","535","535","0","[[2,0,0],[3,0],[0]]","4","[[2,1,0],[0,0],[3]]","19","0","","","","","","5","","","","","","","","",""
"","","","","","single-stim-button","315","657408","0.0-2.0-68.3-1.3","5cc166b25899270017dd60e2","A3","batch1","","583","tol_toboard","","","","tol_peg_1","583","583","0","[[2,1,0],[3,0],[0]]","4","[[2,1,0],[0,0],[3]]","19","0","","","","","","5","","","","","","","","",""
"","","","","","single-stim-button","316","658033","0.0-2.0-68.4-0.4","5cc166b25899270017dd60e2","A3","batch1","","624","tol_tohand","","","","tol_peg_2","624","624","0","[[2,1,0],[0,0],[0]]","5","[[2,1,0],[0,0],[3]]","19","0","","","","","","5","","","","","","","","",""
"","","","","","single-stim-button","317","658464","0.0-2.0-68.4-1.4","5cc166b25899270017dd60e2","A3","batch1","","431","tol_toboard","","","","tol_peg_3","431","431","0","[[2,1,0],[0,0],[3]]","5","[[2,1,0],[0,0],[3]]","19","0","","","","","","5","","","","","","","","",""
"","","","","","poldrack-single-stim","318","659466","0.0-2.0-69.0","5cc166b25899270017dd60e2","A3","batch1","","-1","tol_feedback","","","true","","1000","1000","500","","","","","","-1","none","true","7854","12475","","","","","","","","","",""
"","","","","","html-button-response","319","660496","0.0-2.0-70.0","5cc166b25899270017dd60e2","A3","batch1","","1030.1000000238419","tol_trial_num","<div class = centerbox><p class = center-block-text>problem <strong>21</strong> out of 25 problems</p></div>","0","","","","","","","","","","","","","","","","","","","","","","","","",""
"","","","","","single-stim-button","320","670883","0.0-2.0-71.0-0.0","5cc166b25899270017dd60e2","A3","batch1","","10385","tol_tohand","","","","tol_peg_2","10385","10385","0","[[1,2,0],[0,0],[0]]","1","[[3,2,0],[0,0],[1]]","20","0","","","","","","6","","","","","","","","",""
"","","","","","single-stim-button","321","673265","0.0-2.0-71.0-1.0","5cc166b25899270017dd60e2","A3","batch1","","2381","tol_toboard","","","","tol_peg_3","2381","2381","0","[[1,2,0],[0,0],[3]]","1","[[3,2,0],[0,0],[1]]","20","0","","","","","","6","","","","","","","","",""
"","","","","","single-stim-button","322","674088","0.0-2.0-71.1-0.1","5cc166b25899270017dd60e2","A3","batch1","","823","tol_tohand","","","","tol_peg_1","823","823","0","[[1,0,0],[0,0],[3]]","2","[[3,2,0],[0,0],[1]]","20","0","","","","","","6","","","","","","","","",""
"","","","","","single-stim-button","323","680633","0.0-2.0-71.1-1.1","5cc166b25899270017dd60e2","A3","batch1","","6544","tol_toboard","","","","tol_peg_2","6544","6544","0","[[1,0,0],[2,0],[3]]","2","[[3,2,0],[0,0],[1]]","20","0","","","","","","6","","","","","","","","",""
"","","","","","single-stim-button","324","684328","0.0-2.0-71.2-0.2","5cc166b25899270017dd60e2","A3","batch1","","3695","tol_tohand","","","","tol_peg_1","3695","3695","0","[[0,0,0],[2,0],[3]]","3","[[3,2,0],[0,0],[1]]","20","0","","","","","","6","","","","","","","","",""
"","","","","","single-stim-button","325","685137","0.0-2.0-71.2-1.2","5cc166b25899270017dd60e2","A3","batch1","","807","tol_toboard","","","","tol_peg_2","807","807","0","[[0,0,0],[2,1],[3]]","3","[[3,2,0],[0,0],[1]]","20","0","","","","","","6","","","","","","","","",""
"","","","","","single-stim-button","326","685809","0.0-2.0-71.3-0.3","5cc166b25899270017dd60e2","A3","batch1","","671","tol_tohand","","","","tol_peg_3","671","671","0","[[0,0,0],[2,1],[0]]","4","[[3,2,0],[0,0],[1]]","20","0","","","","","","6","","","","","","","","",""
"","","","","","single-stim-button","327","686665","0.0-2.0-71.3-1.3","5cc166b25899270017dd60e2","A3","batch1","","855","tol_toboard","","","","tol_peg_1","855","855","0","[[3,0,0],[2,1],[0]]","4","[[3,2,0],[0,0],[1]]","20","0","","","","","","6","","","","","","","","",""
"","","","","","single-stim-button","328","687304","0.0-2.0-71.4-0.4","5cc166b25899270017dd60e2","A3","batch1","","638","tol_tohand","","","","tol_peg_2","638","638","0","[[3,0,0],[2,0],[0]]","5","[[3,2,0],[0,0],[1]]","20","0","","","","","","6","","","","","","","","",""
"","","","","","single-stim-button","329","687832","0.0-2.0-71.4-1.4","5cc166b25899270017dd60e2","A3","batch1","","527","tol_toboard","","","","tol_peg_3","527","527","0","[[3,0,0],[2,0],[1]]","5","[[3,2,0],[0,0],[1]]","20","0","","","","","","6","","","","","","","","",""
"","","","","","single-stim-button","330","688361","0.0-2.0-71.5-0.5","5cc166b25899270017dd60e2","A3","batch1","","528","tol_tohand","","","","tol_peg_2","528","528","0","[[3,0,0],[0,0],[1]]","6","[[3,2,0],[0,0],[1]]","20","0","","","","","","6","","","","","","","","",""
"","","","","","single-stim-button","331","688809","0.0-2.0-71.5-1.5","5cc166b25899270017dd60e2","A3","batch1","","448","tol_toboard","","","","tol_peg_1","448","448","0","[[3,2,0],[0,0],[1]]","6","[[3,2,0],[0,0],[1]]","20","0","","","","","","6","","","","","","","","",""
"","","","","","poldrack-single-stim","332","689811","0.0-2.0-72.0","5cc166b25899270017dd60e2","A3","batch1","","-1","tol_feedback","","","true","","1000","1000","500","","","","","","-1","none","true","10385","16740","","","","","","","","","",""
"","","","","","html-button-response","333","690832","0.0-2.0-73.0","5cc166b25899270017dd60e2","A3","batch1","","1020.3000000119209","tol_trial_num","<div class = centerbox><p class = center-block-text>problem <strong>22</strong> out of 25 problems</p></div>","0","","","","","","","","","","","","","","","","","","","","","","","","",""
"","","","","","single-stim-button","334","696376","0.0-2.0-74.0-0.0","5cc166b25899270017dd60e2","A3","batch1","","5542","tol_tohand","","","","tol_peg_2","5542","5542","0","[[1,0,0],[2,0],[0]]","1","[[0,0,0],[1,2],[3]]","21","0","","","","","","6","","","","","","","","",""
"","","","","","single-stim-button","335","702760","0.0-2.0-74.0-1.0","5cc166b25899270017dd60e2","A3","batch1","","6384","tol_toboard","","","","tol_peg_2","6384","6384","0","[[1,0,0],[2,3],[0]]","1","[[0,0,0],[1,2],[3]]","21","0","","","","","","6","","","","","","","","",""
"","","","","","single-stim-button","336","703984","0.0-2.0-74.1-0.1","5cc166b25899270017dd60e2","A3","batch1","","1222","tol_tohand","","","","tol_peg_1","1222","1222","0","[[0,0,0],[2,3],[0]]","2","[[0,0,0],[1,2],[3]]","21","0","","","","","","6","","","","","","","","",""
"","","","","","single-stim-button","337","705672","0.0-2.0-74.1-1.1","5cc166b25899270017dd60e2","A3","batch1","","1688","tol_toboard","","","","tol_peg_3","1688","1688","0","[[0,0,0],[2,3],[1]]","2","[[0,0,0],[1,2],[3]]","21","0","","","","","","6","","","","","","","","",""
"","","","","","single-stim-button","338","706224","0.0-2.0-74.2-0.2","5cc166b25899270017dd60e2","A3","batch1","","551","tol_tohand","","","","tol_peg_2","551","551","0","[[0,0,0],[2,0],[1]]","3","[[0,0,0],[1,2],[3]]","21","0","","","","","","6","","","","","","","","",""
"","","","","","single-stim-button","339","706896","0.0-2.0-74.2-1.2","5cc166b25899270017dd60e2","A3","batch1","","670","tol_toboard","","","","tol_peg_1","670","670","0","[[3,0,0],[2,0],[1]]","3","[[0,0,0],[1,2],[3]]","21","0","","","","","","6","","","","","","","","",""
"","","","","","single-stim-button","340","707552","0.0-2.0-74.3-0.3","5cc166b25899270017dd60e2","A3","batch1","","655","tol_tohand","","","","tol_peg_2","655","655","0","[[3,0,0],[0,0],[1]]","4","[[0,0,0],[1,2],[3]]","21","0","","","","","","6","","","","","","","","",""
"","","","","","single-stim-button","341","707945","0.0-2.0-74.3-1.3","5cc166b25899270017dd60e2","A3","batch1","","392","tol_toboard","","","","tol_peg_1","392","392","0","[[3,2,0],[0,0],[1]]","4","[[0,0,0],[1,2],[3]]","21","0","","","","","","6","","","","","","","","",""
"","","","","","single-stim-button","342","708480","0.0-2.0-74.4-0.4","5cc166b25899270017dd60e2","A3","batch1","","535","tol_tohand","","","","tol_peg_3","535","535","0","[[3,2,0],[0,0],[0]]","5","[[0,0,0],[1,2],[3]]","21","0","","","","","","6","","","","","","","","",""
"","","","","","single-stim-button","343","708880","0.0-2.0-74.4-1.4","5cc166b25899270017dd60e2","A3","batch1","","398","tol_toboard","","","","tol_peg_2","398","398","0","[[3,2,0],[1,0],[0]]","5","[[0,0,0],[1,2],[3]]","21","0","","","","","","6","","","","","","","","",""
"","","","","","single-stim-button","344","709344","0.0-2.0-74.5-0.5","5cc166b25899270017dd60e2","A3","batch1","","464","tol_tohand","","","","tol_peg_1","464","464","0","[[3,0,0],[1,0],[0]]","6","[[0,0,0],[1,2],[3]]","21","0","","","","","","6","","","","","","","","",""
"","","","","","single-stim-button","345","709761","0.0-2.0-74.5-1.5","5cc166b25899270017dd60e2","A3","batch1","","416","tol_toboard","","","","tol_peg_2","416","416","0","[[3,0,0],[1,2],[0]]","6","[[0,0,0],[1,2],[3]]","21","0","","","","","","6","","","","","","","","",""
"","","","","","single-stim-button","346","710265","0.0-2.0-74.6-0.6","5cc166b25899270017dd60e2","A3","batch1","","503","tol_tohand","","","","tol_peg_1","503","503","0","[[0,0,0],[1,2],[0]]","7","[[0,0,0],[1,2],[3]]","21","0","","","","","","6","","","","","","","","",""
"","","","","","single-stim-button","347","710944","0.0-2.0-74.6-1.6","5cc166b25899270017dd60e2","A3","batch1","","679","tol_toboard","","","","tol_peg_3","679","679","0","[[0,0,0],[1,2],[3]]","7","[[0,0,0],[1,2],[3]]","21","0","","","","","","6","","","","","","","","",""
"","","","","","poldrack-single-stim","348","711945","0.0-2.0-75.0","5cc166b25899270017dd60e2","A3","batch1","","-1","tol_feedback","","","true","","1000","1000","500","","","","","","-1","none","true","5542","9472","","","","","","","","","",""
"","","","","","html-button-response","349","712840","0.0-2.0-76.0","5cc166b25899270017dd60e2","A3","batch1","","894.2000000476837","tol_trial_num","<div class = centerbox><p class = center-block-text>problem <strong>23</strong> out of 25 problems</p></div>","0","","","","","","","","","","","","","","","","","","","","","","","","",""
"","","","","","single-stim-button","350","718552","0.0-2.0-77.0-0.0","5cc166b25899270017dd60e2","A3","batch1","","5710","tol_tohand","","","","tol_peg_1","5710","5710","0","[[1,0,0],[3,0],[0]]","1","[[1,3,2],[0,0],[0]]","22","0","","","","","","3","","","","","","","","",""
"","","","","","single-stim-button","351","719288","0.0-2.0-77.0-1.0","5cc166b25899270017dd60e2","A3","batch1","","736","tol_toboard","","","","tol_peg_3","736","736","0","[[1,0,0],[3,0],[2]]","1","[[1,3,2],[0,0],[0]]","22","0","","","","","","3","","","","","","","","",""
"","","","","","single-stim-button","352","719895","0.0-2.0-77.1-0.1","5cc166b25899270017dd60e2","A3","batch1","","606","tol_tohand","","","","tol_peg_2","606","606","0","[[1,0,0],[0,0],[2]]","2","[[1,3,2],[0,0],[0]]","22","0","","","","","","3","","","","","","","","",""
"","","","","","single-stim-button","353","720576","0.0-2.0-77.1-1.1","5cc166b25899270017dd60e2","A3","batch1","","679","tol_toboard","","","","tol_peg_1","679","679","0","[[1,3,0],[0,0],[2]]","2","[[1,3,2],[0,0],[0]]","22","0","","","","","","3","","","","","","","","",""
