"success","timeout","failed_images","failed_audio","failed_video","trial_type","trial_index","time_elapsed","internal_node_id","subject_id","study_id","session_id","view_history","rt","task","stimulus","response","correct","mouse_click","stim_duration","block_duration","timing_post_trial","current_position","tol_num_moves_made","tol_target","tol_problem_id","tol_rt","key_press","possible_responses","tol_correct","preplanning","tol_rt_per_trial","tol_min_moves","answer","item","fiar_detect_rt","fiar_detect_correct","total_correct_fiar_detect","post_trial_gap","choices","spm_correct","spm_rt"
"true","false","[]","[]","[]","preload","0","61227","0.0-0.0","5cc70e0861e0b90001c54b87","E1","batch5","","","","","","","","","","","","","","","","","","","","","","","","","","","","","",""
"true","","","","","fullscreen","1","179086","0.0-1.0-0.0","5cc70e0861e0b90001c54b87","E1","batch5","","","","","","","","","","","","","","","","","","","","","","","","","","","","","",""
"true","","","","","fullscreen","2","181577","0.0-2.0-0.0","5cc70e0861e0b90001c54b87","E1","batch5","","","","","","","","","","","","","","","","","","","","","","","","","","","","","",""
"","","","","","instructions","3","209161","0.0-2.0-1.0-0.0-0.0","5cc70e0861e0b90001c54b87","E1","batch5","[{""page_index"":0,""viewing_time"":2815.800000190735},{""page_index"":1,""viewing_time"":1314.7999999523163},{""page_index"":2,""viewing_time"":716.5},{""page_index"":3,""viewing_time"":9550},{""page_index"":4,""viewing_time"":2619.399999856949},{""page_index"":5,""viewing_time"":1247.5},{""page_index"":4,""viewing_time"":4950.400000095367},{""page_index"":5,""viewing_time"":2667.5},{""page_index"":6,""viewing_time"":1701.0999999046326}]","27583.300000190735","tol-instructions","","","","","","","","","","","","","","","","","","","","","","","","","","",""
"","","","","","html-button-response","4","209992","0.0-2.0-1.0-1.0-0.0","5cc70e0861e0b90001c54b87","E1","batch5","","830.3999998569489","tol_enter_quiz","<p class=block-text> Let's answer a few questions <br>","0","","","","","","","","","","","","","","","","","","","","","","","","",""
"","","","","","html-button-response","5","212711","0.0-2.0-1.0-1.0-1.0","5cc70e0861e0b90001c54b87","E1","batch5","","2716.600000143051","tol_quiz","<p class = block-text>True or False: You can only move the ball on top of a peg. <br></p>","0","true","","","","","","","","","","","","","","","","","","","","","","","",""
"","","","","","html-button-response","6","213758","0.0-2.0-1.0-1.0-2.0","5cc70e0861e0b90001c54b87","E1","batch5","","1045.5","tol_quiz_feedback","<p class = block-text>Correct! You can only move the ball on top of a peg.</p>","0","","","","","","","","","","","","","","","","","","","","","","","","",""
"","","","","","html-button-response","7","217742","0.0-2.0-1.0-1.0-3.0","5cc70e0861e0b90001c54b87","E1","batch5","","3982.5","tol_quiz","<p class = block-text>True or False: You should try to match your board with the target board with fewest moves possible. <br></p>","0","true","","","","","","","","","","","","","","","","","","","","","","","",""
"","","","","","html-button-response","8","218309","0.0-2.0-1.0-1.0-4.0","5cc70e0861e0b90001c54b87","E1","batch5","","566.4000000953674","tol_quiz_feedback","<p class = block-text>Correct! </p>","0","","","","","","","","","","","","","","","","","","","","","","","","",""
"","","","","","html-button-response","9","221559","0.0-2.0-2.0","5cc70e0861e0b90001c54b87","E1","batch5","","3248.9000000953674","","<p class=block-text> Now that you've understood the game, let's practice a few easier examples before we start!<br> <br>","0","","","","","","","","","","","","","","","","","","","","","","","","",""
"","","","","","single-stim-button","10","224178","0.0-2.0-3.0-0.0","5cc70e0861e0b90001c54b87","E1","batch5","","2617","tol_practice","","","","tol_peg_2","2617","2617","0","[[1,2,0],[0,0],[0]]","1","[[1,2,0],[0,0],[3]]","practice","2617","","","","","","","","","","","","","","",""
"","","","","","single-stim-button","11","226943","0.0-2.0-3.0-1.0","5cc70e0861e0b90001c54b87","E1","batch5","","2765","tol_practice","","","","tol_peg_3","2765","2765","0","[[1,2,0],[0,0],[3]]","1","[[1,2,0],[0,0],[3]]","practice","2765","","","","","","","","","","","","","","",""
"","","","","","poldrack-single-stim","12","227947","0.0-2.0-4.0","5cc70e0861e0b90001c54b87","E1","batch5","","-1","tol_feedback","","","true","","1000","1000","500","","","","","","-1","none","true","","0","","","","","","","","","",""
"","","","","","single-stim-button","13","230576","0.0-2.0-5.0-0.0","5cc70e0861e0b90001c54b87","E1","batch5","","2628","tol_practice","","","","tol_peg_1","2628","2628","0","[[1,0,0],[3,0],[0]]","2","[[0,0,0],[3,1],[2]]","practice","2628","","","","","","","","","","","","","","",""
"","","","","","single-stim-button","14","231558","0.0-2.0-5.0-1.0","5cc70e0861e0b90001c54b87","E1","batch5","","982","tol_practice","","","","tol_peg_3","982","982","0","[[1,0,0],[3,0],[2]]","2","[[0,0,0],[3,1],[2]]","practice","982","","","","","","","","","","","","","","",""
"","","","","","single-stim-button","15","232492","0.0-2.0-5.1-0.1","5cc70e0861e0b90001c54b87","E1","batch5","","932","tol_practice","","","","tol_peg_1","932","932","0","[[0,0,0],[3,0],[2]]","3","[[0,0,0],[3,1],[2]]","practice","932","","","","","","","","","","","","","","",""
"","","","","","single-stim-button","16","233212","0.0-2.0-5.1-1.1","5cc70e0861e0b90001c54b87","E1","batch5","","720","tol_practice","","","","tol_peg_2","720","720","0","[[0,0,0],[3,1],[2]]","3","[[0,0,0],[3,1],[2]]","practice","720","","","","","","","","","","","","","","",""
"","","","","","poldrack-single-stim","17","234222","0.0-2.0-6.0","5cc70e0861e0b90001c54b87","E1","batch5","","-1","tol_feedback","","","true","","1000","1000","500","","","","","","-1","none","true","","0","","","","","","","","","",""
"","","","","","single-stim-button","18","237592","0.0-2.0-7.0-0.0","5cc70e0861e0b90001c54b87","E1","batch5","","3369","tol_practice","","","","tol_peg_2","3369","3369","0","[[1,2,0],[0,0],[0]]","4","[[1,0,0],[2,0],[3]]","practice","3369","","","","","","","","","","","","","","",""
"","","","","","single-stim-button","19","238396","0.0-2.0-7.0-1.0","5cc70e0861e0b90001c54b87","E1","batch5","","804","tol_practice","","","","tol_peg_3","804","804","0","[[1,2,0],[0,0],[3]]","4","[[1,0,0],[2,0],[3]]","practice","804","","","","","","","","","","","","","","",""
"","","","","","single-stim-button","20","239359","0.0-2.0-7.1-0.1","5cc70e0861e0b90001c54b87","E1","batch5","","962","tol_practice","","","","tol_peg_1","962","962","0","[[1,0,0],[0,0],[3]]","5","[[1,0,0],[2,0],[3]]","practice","962","","","","","","","","","","","","","","",""
"","","","","","single-stim-button","21","240143","0.0-2.0-7.1-1.1","5cc70e0861e0b90001c54b87","E1","batch5","","783","tol_practice","","","","tol_peg_2","783","783","0","[[1,0,0],[2,0],[3]]","5","[[1,0,0],[2,0],[3]]","practice","783","","","","","","","","","","","","","","",""
"","","","","","poldrack-single-stim","22","241148","0.0-2.0-8.0","5cc70e0861e0b90001c54b87","E1","batch5","","-1","tol_feedback","","","true","","1000","1000","500","","","","","","-1","none","true","","0","","","","","","","","","",""
"","","","","","html-button-response","23","243192","0.0-2.0-9.0","5cc70e0861e0b90001c54b87","E1","batch5","","2043.5","tol_instruction","<div class = centerbox><p class = center-block-text>Great job! You are done with practice trials<br>You are about to start official trials.<br> <br> Problem <strong>1</strong> out of 25 problems</p></div>","0","","","","","","","","","","","","","","","","","","","","","","","","",""
"","","","","","single-stim-button","24","246110","0.0-2.0-10.0-0.0","5cc70e0861e0b90001c54b87","E1","batch5","","1913","tol_tohand","","","","tol_peg_1","1913","1913","0","[[1,0,0],[3,0],[0]]","1","[[1,3,0],[2,0],[0]]","0","0","","","","","","3","","","","","","","","",""
"","","","","","single-stim-button","25","247192","0.0-2.0-10.0-1.0","5cc70e0861e0b90001c54b87","E1","batch5","","1082","tol_toboard","","","","tol_peg_3","1082","1082","0","[[1,0,0],[3,0],[2]]","1","[[1,3,0],[2,0],[0]]","0","0","","","","","","3","","","","","","","","",""
"","","","","","single-stim-button","26","247918","0.0-2.0-10.1-0.1","5cc70e0861e0b90001c54b87","E1","batch5","","726","tol_tohand","","","","tol_peg_2","726","726","0","[[1,0,0],[0,0],[2]]","2","[[1,3,0],[2,0],[0]]","0","0","","","","","","3","","","","","","","","",""
"","","","","","single-stim-button","27","248661","0.0-2.0-10.1-1.1","5cc70e0861e0b90001c54b87","E1","batch5","","743","tol_toboard","","","","tol_peg_1","743","743","0","[[1,3,0],[0,0],[2]]","2","[[1,3,0],[2,0],[0]]","0","0","","","","","","3","","","","","","","","",""
"","","","","","single-stim-button","28","249376","0.0-2.0-10.2-0.2","5cc70e0861e0b90001c54b87","E1","batch5","","714","tol_tohand","","","","tol_peg_3","714","714","0","[[1,3,0],[0,0],[0]]","3","[[1,3,0],[2,0],[0]]","0","0","","","","","","3","","","","","","","","",""
"","","","","","single-stim-button","29","250142","0.0-2.0-10.2-1.2","5cc70e0861e0b90001c54b87","E1","batch5","","766","tol_toboard","","","","tol_peg_2","766","766","0","[[1,3,0],[2,0],[0]]","3","[[1,3,0],[2,0],[0]]","0","0","","","","","","3","","","","","","","","",""
"","","","","","poldrack-single-stim","30","251146","0.0-2.0-11.0","5cc70e0861e0b90001c54b87","E1","batch5","","-1","tol_feedback","","","true","","1000","1000","500","","","","","","-1","none","true","1913","3353","","","","","","","","","",""
"","","","","","html-button-response","31","252358","0.0-2.0-12.0","5cc70e0861e0b90001c54b87","E1","batch5","","1211.1000001430511","tol_trial_num","<div class = centerbox><p class = center-block-text>problem <strong>2</strong> out of 25 problems</p></div>","0","","","","","","","","","","","","","","","","","","","","","","","","",""
"","","","","","single-stim-button","32","255626","0.0-2.0-13.0-0.0","5cc70e0861e0b90001c54b87","E1","batch5","","3267","tol_tohand","","","","tol_peg_1","3267","3267","0","[[1,0,0],[3,0],[0]]","1","[[2,1,3],[0,0],[0]]","1","0","","","","","","5","","","","","","","","",""
"","","","","","single-stim-button","33","258076","0.0-2.0-13.0-1.0","5cc70e0861e0b90001c54b87","E1","batch5","","2450","tol_toboard","","","","tol_peg_2","2450","2450","0","[[1,0,0],[3,2],[0]]","1","[[2,1,3],[0,0],[0]]","1","0","","","","","","5","","","","","","","","",""
"","","","","","single-stim-button","34","258759","0.0-2.0-13.1-0.1","5cc70e0861e0b90001c54b87","E1","batch5","","683","tol_tohand","","","","tol_peg_1","683","683","0","[[0,0,0],[3,2],[0]]","2","[[2,1,3],[0,0],[0]]","1","0","","","","","","5","","","","","","","","",""
"","","","","","single-stim-button","35","259642","0.0-2.0-13.1-1.1","5cc70e0861e0b90001c54b87","E1","batch5","","882","tol_toboard","","","","tol_peg_3","882","882","0","[[0,0,0],[3,2],[1]]","2","[[2,1,3],[0,0],[0]]","1","0","","","","","","5","","","","","","","","",""
"","","","","","single-stim-button","36","260462","0.0-2.0-13.2-0.2","5cc70e0861e0b90001c54b87","E1","batch5","","820","tol_tohand","","","","tol_peg_2","820","820","0","[[0,0,0],[3,0],[1]]","3","[[2,1,3],[0,0],[0]]","1","0","","","","","","5","","","","","","","","",""
"","","","","","single-stim-button","37","261210","0.0-2.0-13.2-1.2","5cc70e0861e0b90001c54b87","E1","batch5","","747","tol_toboard","","","","tol_peg_1","747","747","0","[[2,0,0],[3,0],[1]]","3","[[2,1,3],[0,0],[0]]","1","0","","","","","","5","","","","","","","","",""
"","","","","","single-stim-button","38","262576","0.0-2.0-13.3-0.3","5cc70e0861e0b90001c54b87","E1","batch5","","1366","tol_tohand","","","","tol_peg_3","1366","1366","0","[[2,0,0],[3,0],[0]]","4","[[2,1,3],[0,0],[0]]","1","0","","","","","","5","","","","","","","","",""
"","","","","","single-stim-button","39","263459","0.0-2.0-13.3-1.3","5cc70e0861e0b90001c54b87","E1","batch5","","883","tol_toboard","","","","tol_peg_1","883","883","0","[[2,1,0],[3,0],[0]]","4","[[2,1,3],[0,0],[0]]","1","0","","","","","","5","","","","","","","","",""
"","","","","","single-stim-button","40","264092","0.0-2.0-13.4-0.4","5cc70e0861e0b90001c54b87","E1","batch5","","633","tol_tohand","","","","tol_peg_2","633","633","0","[[2,1,0],[0,0],[0]]","5","[[2,1,3],[0,0],[0]]","1","0","","","","","","5","","","","","","","","",""
"","","","","","single-stim-button","41","264676","0.0-2.0-13.4-1.4","5cc70e0861e0b90001c54b87","E1","batch5","","583","tol_toboard","","","","tol_peg_1","583","583","0","[[2,1,3],[0,0],[0]]","5","[[2,1,3],[0,0],[0]]","1","0","","","","","","5","","","","","","","","",""
"","","","","","poldrack-single-stim","42","265686","0.0-2.0-14.0","5cc70e0861e0b90001c54b87","E1","batch5","","-1","tol_feedback","","","true","","1000","1000","500","","","","","","-1","none","true","3267","6769","","","","","","","","","",""
"","","","","","html-button-response","43","266893","0.0-2.0-15.0","5cc70e0861e0b90001c54b87","E1","batch5","","1206","tol_trial_num","<div class = centerbox><p class = center-block-text>problem <strong>3</strong> out of 25 problems</p></div>","0","","","","","","","","","","","","","","","","","","","","","","","","",""
"","","","","","single-stim-button","44","268909","0.0-2.0-16.0-0.0","5cc70e0861e0b90001c54b87","E1","batch5","","2015","tol_tohand","","","","tol_peg_1","2015","2015","0","[[2,0,0],[0,0],[1]]","1","[[1,2,0],[3,0],[0]]","2","0","","","","","","4","","","","","","","","",""
"","","","","","single-stim-button","45","271114","0.0-2.0-16.0-1.0","5cc70e0861e0b90001c54b87","E1","batch5","","2204","tol_toboard","","","","tol_peg_2","2204","2204","0","[[2,0,0],[3,0],[1]]","1","[[1,2,0],[3,0],[0]]","2","0","","","","","","4","","","","","","","","",""
"","","","","","single-stim-button","46","272298","0.0-2.0-16.1-0.1","5cc70e0861e0b90001c54b87","E1","batch5","","1184","tol_tohand","","","","tol_peg_3","1184","1184","0","[[2,0,0],[3,0],[0]]","2","[[1,2,0],[3,0],[0]]","2","0","","","","","","4","","","","","","","","",""
"","","","","","single-stim-button","47","273111","0.0-2.0-16.1-1.1","5cc70e0861e0b90001c54b87","E1","batch5","","813","tol_toboard","","","","tol_peg_2","813","813","0","[[2,0,0],[3,1],[0]]","2","[[1,2,0],[3,0],[0]]","2","0","","","","","","4","","","","","","","","",""
"","","","","","single-stim-button","48","273812","0.0-2.0-16.2-0.2","5cc70e0861e0b90001c54b87","E1","batch5","","701","tol_tohand","","","","tol_peg_1","701","701","0","[[0,0,0],[3,1],[0]]","3","[[1,2,0],[3,0],[0]]","2","0","","","","","","4","","","","","","","","",""
"","","","","","single-stim-button","49","274559","0.0-2.0-16.2-1.2","5cc70e0861e0b90001c54b87","E1","batch5","","747","tol_toboard","","","","tol_peg_3","747","747","0","[[0,0,0],[3,1],[2]]","3","[[1,2,0],[3,0],[0]]","2","0","","","","","","4","","","","","","","","",""
"","","","","","single-stim-button","50","275241","0.0-2.0-16.3-0.3","5cc70e0861e0b90001c54b87","E1","batch5","","681","tol_tohand","","","","tol_peg_2","681","681","0","[[0,0,0],[3,0],[2]]","4","[[1,2,0],[3,0],[0]]","2","0","","","","","","4","","","","","","","","",""
"","","","","","single-stim-button","51","275892","0.0-2.0-16.3-1.3","5cc70e0861e0b90001c54b87","E1","batch5","","650","tol_toboard","","","","tol_peg_1","650","650","0","[[1,0,0],[3,0],[2]]","4","[[1,2,0],[3,0],[0]]","2","0","","","","","","4","","","","","","","","",""
"","","","","","single-stim-button","52","276625","0.0-2.0-16.4-0.4","5cc70e0861e0b90001c54b87","E1","batch5","","733","tol_tohand","","","","tol_peg_3","733","733","0","[[1,0,0],[3,0],[0]]","5","[[1,2,0],[3,0],[0]]","2","0","","","","","","4","","","","","","","","",""
"","","","","","single-stim-button","53","277245","0.0-2.0-16.4-1.4","5cc70e0861e0b90001c54b87","E1","batch5","","619","tol_toboard","","","","tol_peg_1","619","619","0","[[1,2,0],[3,0],[0]]","5","[[1,2,0],[3,0],[0]]","2","0","","","","","","4","","","","","","","","",""
"","","","","","poldrack-single-stim","54","278252","0.0-2.0-17.0","5cc70e0861e0b90001c54b87","E1","batch5","","-1","tol_feedback","","","true","","1000","1000","500","","","","","","-1","none","true","2015","5314","","","","","","","","","",""
"","","","","","html-button-response","55","279076","0.0-2.0-18.0","5cc70e0861e0b90001c54b87","E1","batch5","","822.7000000476837","tol_trial_num","<div class = centerbox><p class = center-block-text>problem <strong>4</strong> out of 25 problems</p></div>","0","","","","","","","","","","","","","","","","","","","","","","","","",""
"","","","","","single-stim-button","56","281126","0.0-2.0-19.0-0.0","5cc70e0861e0b90001c54b87","E1","batch5","","2049","tol_tohand","","","","tol_peg_2","2049","2049","0","[[3,0,0],[2,0],[0]]","1","[[3,0,0],[1,0],[2]]","3","0","","","","","","3","","","","","","","","",""
"","","","","","single-stim-button","57","282510","0.0-2.0-19.0-1.0","5cc70e0861e0b90001c54b87","E1","batch5","","1383","tol_toboard","","","","tol_peg_1","1383","1383","0","[[3,1,0],[2,0],[0]]","1","[[3,0,0],[1,0],[2]]","3","0","","","","","","3","","","","","","","","",""
"","","","","","single-stim-button","58","283125","0.0-2.0-19.1-0.1","5cc70e0861e0b90001c54b87","E1","batch5","","615","tol_tohand","","","","tol_peg_2","615","615","0","[[3,1,0],[0,0],[0]]","2","[[3,0,0],[1,0],[2]]","3","0","","","","","","3","","","","","","","","",""
"","","","","","single-stim-button","59","283693","0.0-2.0-19.1-1.1","5cc70e0861e0b90001c54b87","E1","batch5","","567","tol_toboard","","","","tol_peg_3","567","567","0","[[3,1,0],[0,0],[2]]","2","[[3,0,0],[1,0],[2]]","3","0","","","","","","3","","","","","","","","",""
"","","","","","single-stim-button","60","284425","0.0-2.0-19.2-0.2","5cc70e0861e0b90001c54b87","E1","batch5","","732","tol_tohand","","","","tol_peg_1","732","732","0","[[3,0,0],[0,0],[2]]","3","[[3,0,0],[1,0],[2]]","3","0","","","","","","3","","","","","","","","",""
"","","","","","single-stim-button","61","285042","0.0-2.0-19.2-1.2","5cc70e0861e0b90001c54b87","E1","batch5","","617","tol_toboard","","","","tol_peg_2","617","617","0","[[3,0,0],[1,0],[2]]","3","[[3,0,0],[1,0],[2]]","3","0","","","","","","3","","","","","","","","",""
"","","","","","poldrack-single-stim","62","286051","0.0-2.0-20.0","5cc70e0861e0b90001c54b87","E1","batch5","","-1","tol_feedback","","","true","","1000","1000","500","","","","","","-1","none","true","2049","3396","","","","","","","","","",""
"","","","","","html-button-response","63","287042","0.0-2.0-21.0","5cc70e0861e0b90001c54b87","E1","batch5","","990.7000000476837","tol_trial_num","<div class = centerbox><p class = center-block-text>problem <strong>5</strong> out of 25 problems</p></div>","0","","","","","","","","","","","","","","","","","","","","","","","","",""
"","","","","","single-stim-button","64","312092","0.0-2.0-22.0-0.0","5cc70e0861e0b90001c54b87","E1","batch5","","25049","tol_tohand","","","","tol_peg_1","25049","25049","0","[[0,0,0],[2,0],[3]]","1","[[0,0,0],[1,2],[3]]","4","0","","","","","","7","","","","","","","","",""
"","","","","","single-stim-button","65","313193","0.0-2.0-22.0-1.0","5cc70e0861e0b90001c54b87","E1","batch5","","1100","tol_toboard","","","","tol_peg_2","1100","1100","0","[[0,0,0],[2,1],[3]]","1","[[0,0,0],[1,2],[3]]","4","0","","","","","","7","","","","","","","","",""
"","","","","","single-stim-button","66","314112","0.0-2.0-22.1-0.1","5cc70e0861e0b90001c54b87","E1","batch5","","919","tol_tohand","","","","tol_peg_3","919","919","0","[[0,0,0],[2,1],[0]]","2","[[0,0,0],[1,2],[3]]","4","0","","","","","","7","","","","","","","","",""
"","","","","","single-stim-button","67","314876","0.0-2.0-22.1-1.1","5cc70e0861e0b90001c54b87","E1","batch5","","763","tol_toboard","","","","tol_peg_1","763","763","0","[[3,0,0],[2,1],[0]]","2","[[0,0,0],[1,2],[3]]","4","0","","","","","","7","","","","","","","","",""
"","","","","","single-stim-button","68","315792","0.0-2.0-22.2-0.2","5cc70e0861e0b90001c54b87","E1","batch5","","915","tol_tohand","","","","tol_peg_2","915","915","0","[[3,0,0],[2,0],[0]]","3","[[0,0,0],[1,2],[3]]","4","0","","","","","","7","","","","","","","","",""
"","","","","","single-stim-button","69","316611","0.0-2.0-22.2-1.2","5cc70e0861e0b90001c54b87","E1","batch5","","818","tol_toboard","","","","tol_peg_3","818","818","0","[[3,0,0],[2,0],[1]]","3","[[0,0,0],[1,2],[3]]","4","0","","","","","","7","","","","","","","","",""
"","","","","","single-stim-button","70","317242","0.0-2.0-22.3-0.3","5cc70e0861e0b90001c54b87","E1","batch5","","631","tol_tohand","","","","tol_peg_2","631","631","0","[[3,0,0],[0,0],[1]]","4","[[0,0,0],[1,2],[3]]","4","0","","","","","","7","","","","","","","","",""
"","","","","","single-stim-button","71","317876","0.0-2.0-22.3-1.3","5cc70e0861e0b90001c54b87","E1","batch5","","634","tol_toboard","","","","tol_peg_1","634","634","0","[[3,2,0],[0,0],[1]]","4","[[0,0,0],[1,2],[3]]","4","0","","","","","","7","","","","","","","","",""
"","","","","","single-stim-button","72","318526","0.0-2.0-22.4-0.4","5cc70e0861e0b90001c54b87","E1","batch5","","649","tol_tohand","","","","tol_peg_3","649","649","0","[[3,2,0],[0,0],[0]]","5","[[0,0,0],[1,2],[3]]","4","0","","","","","","7","","","","","","","","",""
"","","","","","single-stim-button","73","319408","0.0-2.0-22.4-1.4","5cc70e0861e0b90001c54b87","E1","batch5","","882","tol_toboard","","","","tol_peg_2","882","882","0","[[3,2,0],[1,0],[0]]","5","[[0,0,0],[1,2],[3]]","4","0","","","","","","7","","","","","","","","",""
"","","","","","single-stim-button","74","320042","0.0-2.0-22.5-0.5","5cc70e0861e0b90001c54b87","E1","batch5","","633","tol_tohand","","","","tol_peg_1","633","633","0","[[3,0,0],[1,0],[0]]","6","[[0,0,0],[1,2],[3]]","4","0","","","","","","7","","","","","","","","",""
"","","","","","single-stim-button","75","320642","0.0-2.0-22.5-1.5","5cc70e0861e0b90001c54b87","E1","batch5","","600","tol_toboard","","","","tol_peg_2","600","600","0","[[3,0,0],[1,2],[0]]","6","[[0,0,0],[1,2],[3]]","4","0","","","","","","7","","","","","","","","",""
"","","","","","single-stim-button","76","321192","0.0-2.0-22.6-0.6","5cc70e0861e0b90001c54b87","E1","batch5","","549","tol_tohand","","","","tol_peg_1","549","549","0","[[0,0,0],[1,2],[0]]","7","[[0,0,0],[1,2],[3]]","4","0","","","","","","7","","","","","","","","",""
"","","","","","single-stim-button","77","322026","0.0-2.0-22.6-1.6","5cc70e0861e0b90001c54b87","E1","batch5","","834","tol_toboard","","","","tol_peg_3","834","834","0","[[0,0,0],[1,2],[3]]","7","[[0,0,0],[1,2],[3]]","4","0","","","","","","7","","","","","","","","",""
"","","","","","poldrack-single-stim","78","323036","0.0-2.0-23.0","5cc70e0861e0b90001c54b87","E1","batch5","","-1","tol_feedback","","","true","","1000","1000","500","","","","","","-1","none","true","25049","29345","","","","","","","","","",""
"","","","","","html-button-response","79","323942","0.0-2.0-24.0","5cc70e0861e0b90001c54b87","E1","batch5","","904.5","tol_trial_num","<div class = centerbox><p class = center-block-text>problem <strong>6</strong> out of 25 problems</p></div>","0","","","","","","","","","","","","","","","","","","","","","","","","",""
"","","","","","single-stim-button","80","329979","0.0-2.0-25.0-0.0","5cc70e0861e0b90001c54b87","E1","batch5","","6037","tol_tohand","","","","tol_peg_3","6037","6037","0","[[0,0,0],[1,2],[0]]","1","[[1,0,0],[2,3],[0]]","5","0","","","","","","6","","","","","","","","",""
"","","","","","single-stim-button","81","330726","0.0-2.0-25.0-1.0","5cc70e0861e0b90001c54b87","E1","batch5","","746","tol_toboard","","","","tol_peg_1","746","746","0","[[3,0,0],[1,2],[0]]","1","[[1,0,0],[2,3],[0]]","5","0","","","","","","6","","","","","","","","",""
"","","","","","single-stim-button","82","331260","0.0-2.0-25.1-0.1","5cc70e0861e0b90001c54b87","E1","batch5","","534","tol_tohand","","","","tol_peg_2","534","534","0","[[3,0,0],[1,0],[0]]","2","[[1,0,0],[2,3],[0]]","5","0","","","","","","6","","","","","","","","",""
"","","","","","single-stim-button","83","331909","0.0-2.0-25.1-1.1","5cc70e0861e0b90001c54b87","E1","batch5","","649","tol_toboard","","","","tol_peg_1","649","649","0","[[3,2,0],[1,0],[0]]","2","[[1,0,0],[2,3],[0]]","5","0","","","","","","6","","","","","","","","",""
"","","","","","single-stim-button","84","332713","0.0-2.0-25.2-0.2","5cc70e0861e0b90001c54b87","E1","batch5","","804","tol_tohand","","","","tol_peg_2","804","804","0","[[3,2,0],[0,0],[0]]","3","[[1,0,0],[2,3],[0]]","5","0","","","","","","6","","","","","","","","",""
"","","","","","single-stim-button","85","333576","0.0-2.0-25.2-1.2","5cc70e0861e0b90001c54b87","E1","batch5","","862","tol_toboard","","","","tol_peg_3","862","862","0","[[3,2,0],[0,0],[1]]","3","[[1,0,0],[2,3],[0]]","5","0","","","","","","6","","","","","","","","",""
"","","","","","single-stim-button","86","334226","0.0-2.0-25.3-0.3","5cc70e0861e0b90001c54b87","E1","batch5","","650","tol_tohand","","","","tol_peg_1","650","650","0","[[3,0,0],[0,0],[1]]","4","[[1,0,0],[2,3],[0]]","5","0","","","","","","6","","","","","","","","",""
"","","","","","single-stim-button","87","334859","0.0-2.0-25.3-1.3","5cc70e0861e0b90001c54b87","E1","batch5","","633","tol_toboard","","","","tol_peg_2","633","633","0","[[3,0,0],[2,0],[1]]","4","[[1,0,0],[2,3],[0]]","5","0","","","","","","6","","","","","","","","",""
"","","","","","single-stim-button","88","335593","0.0-2.0-25.4-0.4","5cc70e0861e0b90001c54b87","E1","batch5","","733","tol_tohand","","","","tol_peg_1","733","733","0","[[0,0,0],[2,0],[1]]","5","[[1,0,0],[2,3],[0]]","5","0","","","","","","6","","","","","","","","",""
"","","","","","single-stim-button","89","336142","0.0-2.0-25.4-1.4","5cc70e0861e0b90001c54b87","E1","batch5","","549","tol_toboard","","","","tol_peg_2","549","549","0","[[0,0,0],[2,3],[1]]","5","[[1,0,0],[2,3],[0]]","5","0","","","","","","6","","","","","","","","",""
"","","","","","single-stim-button","90","336860","0.0-2.0-25.5-0.5","5cc70e0861e0b90001c54b87","E1","batch5","","717","tol_tohand","","","","tol_peg_3","717","717","0","[[0,0,0],[2,3],[0]]","6","[[1,0,0],[2,3],[0]]","5","0","","","","","","6","","","","","","","","",""
"","","","","","single-stim-button","91","337492","0.0-2.0-25.5-1.5","5cc70e0861e0b90001c54b87","E1","batch5","","632","tol_toboard","","","","tol_peg_1","632","632","0","[[1,0,0],[2,3],[0]]","6","[[1,0,0],[2,3],[0]]","5","0","","","","","","6","","","","","","","","",""
"","","","","","poldrack-single-stim","92","338497","0.0-2.0-26.0","5cc70e0861e0b90001c54b87","E1","batch5","","-1","tol_feedback","","","true","","1000","1000","500","","","","","","-1","none","true","6037","9475","","","","","","","","","",""
"","","","","","html-button-response","93","339625","0.0-2.0-27.0","5cc70e0861e0b90001c54b87","E1","batch5","","1126.9000000953674","tol_trial_num","<div class = centerbox><p class = center-block-text>problem <strong>7</strong> out of 25 problems</p></div>","0","","","","","","","","","","","","","","","","","","","","","","","","",""
"","","","","","single-stim-button","94","343626","0.0-2.0-28.0-0.0","5cc70e0861e0b90001c54b87","E1","batch5","","4001","tol_tohand","","","","tol_peg_1","4001","4001","0","[[2,0,0],[0,0],[3]]","1","[[1,2,0],[3,0],[0]]","6","0","","","","","","5","","","","","","","","",""
"","","","","","single-stim-button","95","344242","0.0-2.0-28.0-1.0","5cc70e0861e0b90001c54b87","E1","batch5","","616","tol_toboard","","","","tol_peg_2","616","616","0","[[2,0,0],[1,0],[3]]","1","[[1,2,0],[3,0],[0]]","6","0","","","","","","5","","","","","","","","",""
"","","","","","single-stim-button","96","345762","0.0-2.0-28.1-0.1","5cc70e0861e0b90001c54b87","E1","batch5","","1519","tol_tohand","","","","tol_peg_3","1519","1519","0","[[2,0,0],[1,0],[0]]","2","[[1,2,0],[3,0],[0]]","6","0","","","","","","5","","","","","","","","",""
"","","","","","single-stim-button","97","346675","0.0-2.0-28.1-1.1","5cc70e0861e0b90001c54b87","E1","batch5","","913","tol_toboard","","","","tol_peg_2","913","913","0","[[2,0,0],[1,3],[0]]","2","[[1,2,0],[3,0],[0]]","6","0","","","","","","5","","","","","","","","",""
"","","","","","single-stim-button","98","347376","0.0-2.0-28.2-0.2","5cc70e0861e0b90001c54b87","E1","batch5","","700","tol_tohand","","","","tol_peg_1","700","700","0","[[0,0,0],[1,3],[0]]","3","[[1,2,0],[3,0],[0]]","6","0","","","","","","5","","","","","","","","",""
"","","","","","single-stim-button","99","350643","0.0-2.0-28.2-1.2","5cc70e0861e0b90001c54b87","E1","batch5","","3267","tol_toboard","","","","tol_peg_1","3267","3267","0","[[2,0,0],[1,3],[0]]","3","[[1,2,0],[3,0],[0]]","6","0","","","","","","5","","","","","","","","",""
"","","","","","single-stim-button","100","354009","0.0-2.0-28.3-0.3","5cc70e0861e0b90001c54b87","E1","batch5","","3366","tol_tohand","","","","tol_peg_2","3366","3366","0","[[2,0,0],[1,0],[0]]","4","[[1,2,0],[3,0],[0]]","6","0","","","","","","5","","","","","","","","",""
"","","","","","single-stim-button","101","354577","0.0-2.0-28.3-1.3","5cc70e0861e0b90001c54b87","E1","batch5","","567","tol_toboard","","","","tol_peg_1","567","567","0","[[2,3,0],[1,0],[0]]","4","[[1,2,0],[3,0],[0]]","6","0","","","","","","5","","","","","","","","",""
"","","","","","single-stim-button","102","355059","0.0-2.0-28.4-0.4","5cc70e0861e0b90001c54b87","E1","batch5","","482","tol_tohand","","","","tol_peg_2","482","482","0","[[2,3,0],[0,0],[0]]","5","[[1,2,0],[3,0],[0]]","6","0","","","","","","5","","","","","","","","",""
"","","","","","single-stim-button","103","355759","0.0-2.0-28.4-1.4","5cc70e0861e0b90001c54b87","E1","batch5","","700","tol_toboard","","","","tol_peg_3","700","700","0","[[2,3,0],[0,0],[1]]","5","[[1,2,0],[3,0],[0]]","6","0","","","","","","5","","","","","","","","",""
"","","","","","single-stim-button","104","356675","0.0-2.0-28.5-0.5","5cc70e0861e0b90001c54b87","E1","batch5","","916","tol_tohand","","","","tol_peg_1","916","916","0","[[2,0,0],[0,0],[1]]","6","[[1,2,0],[3,0],[0]]","6","0","","","","","","5","","","","","","","","",""
"","","","","","single-stim-button","105","357209","0.0-2.0-28.5-1.5","5cc70e0861e0b90001c54b87","E1","batch5","","534","tol_toboard","","","","tol_peg_2","534","534","0","[[2,0,0],[3,0],[1]]","6","[[1,2,0],[3,0],[0]]","6","0","","","","","","5","","","","","","","","",""
"","","","","","single-stim-button","106","357776","0.0-2.0-28.6-0.6","5cc70e0861e0b90001c54b87","E1","batch5","","566","tol_tohand","","","","tol_peg_1","566","566","0","[[0,0,0],[3,0],[1]]","7","[[1,2,0],[3,0],[0]]","6","0","","","","","","5","","","","","","","","",""
"","","","","","single-stim-button","107","358376","0.0-2.0-28.6-1.6","5cc70e0861e0b90001c54b87","E1","batch5","","600","tol_toboard","","","","tol_peg_2","600","600","0","[[0,0,0],[3,2],[1]]","7","[[1,2,0],[3,0],[0]]","6","0","","","","","","5","","","","","","","","",""
"","","","","","single-stim-button","108","358909","0.0-2.0-28.7-0.7","5cc70e0861e0b90001c54b87","E1","batch5","","533","tol_tohand","","","","tol_peg_3","533","533","0","[[0,0,0],[3,2],[0]]","8","[[1,2,0],[3,0],[0]]","6","0","","","","","","5","","","","","","","","",""
"","","","","","single-stim-button","109","359759","0.0-2.0-28.7-1.7","5cc70e0861e0b90001c54b87","E1","batch5","","850","tol_toboard","","","","tol_peg_1","850","850","0","[[1,0,0],[3,2],[0]]","8","[[1,2,0],[3,0],[0]]","6","0","","","","","","5","","","","","","","","",""
"","","","","","single-stim-button","110","360460","0.0-2.0-28.8-0.8","5cc70e0861e0b90001c54b87","E1","batch5","","701","tol_tohand","","","","tol_peg_2","701","701","0","[[1,0,0],[3,0],[0]]","9","[[1,2,0],[3,0],[0]]","6","0","","","","","","5","","","","","","","","",""
"","","","","","single-stim-button","111","361009","0.0-2.0-28.8-1.8","5cc70e0861e0b90001c54b87","E1","batch5","","548","tol_toboard","","","","tol_peg_1","548","548","0","[[1,2,0],[3,0],[0]]","9","[[1,2,0],[3,0],[0]]","6","0","","","","","","5","","","","","","","","",""
"","","","","","poldrack-single-stim","112","362009","0.0-2.0-29.0","5cc70e0861e0b90001c54b87","E1","batch5","","-1","tol_feedback","","","true","","1000","1000","500","","","","","","-1","none","true","4001","12784","","","","","","","","","",""
"","","","","","html-button-response","113","362927","0.0-2.0-30.0","5cc70e0861e0b90001c54b87","E1","batch5","","917","tol_trial_num","<div class = centerbox><p class = center-block-text>problem <strong>8</strong> out of 25 problems</p></div>","0","","","","","","","","","","","","","","","","","","","","","","","","",""
"","","","","","single-stim-button","114","365576","0.0-2.0-31.0-0.0","5cc70e0861e0b90001c54b87","E1","batch5","","2649","tol_tohand","","","","tol_peg_3","2649","2649","0","[[0,0,0],[2,3],[0]]","1","[[1,2,0],[3,0],[0]]","7","0","","","","","","4","","","","","","","","",""
"","","","","","single-stim-button","115","366159","0.0-2.0-31.0-1.0","5cc70e0861e0b90001c54b87","E1","batch5","","583","tol_toboard","","","","tol_peg_1","583","583","0","[[1,0,0],[2,3],[0]]","1","[[1,2,0],[3,0],[0]]","7","0","","","","","","4","","","","","","","","",""
"","","","","","single-stim-button","116","366742","0.0-2.0-31.1-0.1","5cc70e0861e0b90001c54b87","E1","batch5","","583","tol_tohand","","","","tol_peg_2","583","583","0","[[1,0,0],[2,0],[0]]","2","[[1,2,0],[3,0],[0]]","7","0","","","","","","4","","","","","","","","",""
"","","","","","single-stim-button","117","366842","0.0-2.0-31.1-1.1","5cc70e0861e0b90001c54b87","E1","batch5","","100","tol_toboard","","","","tol_peg_2","100","100","0","[[1,0,0],[2,3],[0]]","2","[[1,2,0],[3,0],[0]]","7","0","","","","","","4","","","","","","","","",""
"","","","","","single-stim-button","118","367342","0.0-2.0-31.2-0.2","5cc70e0861e0b90001c54b87","E1","batch5","","500","tol_tohand","","","","tol_peg_2","500","500","0","[[1,0,0],[2,0],[0]]","3","[[1,2,0],[3,0],[0]]","7","0","","","","","","4","","","","","","","","",""
"","","","","","single-stim-button","119","367959","0.0-2.0-31.2-1.2","5cc70e0861e0b90001c54b87","E1","batch5","","616","tol_toboard","","","","tol_peg_3","616","616","0","[[1,0,0],[2,0],[3]]","3","[[1,2,0],[3,0],[0]]","7","0","","","","","","4","","","","","","","","",""
"","","","","","single-stim-button","120","368459","0.0-2.0-31.3-0.3","5cc70e0861e0b90001c54b87","E1","batch5","","500","tol_tohand","","","","tol_peg_2","500","500","0","[[1,0,0],[0,0],[3]]","4","[[1,2,0],[3,0],[0]]","7","0","","","","","","4","","","","","","","","",""
"","","","","","single-stim-button","121","369075","0.0-2.0-31.3-1.3","5cc70e0861e0b90001c54b87","E1","batch5","","616","tol_toboard","","","","tol_peg_1","616","616","0","[[1,2,0],[0,0],[3]]","4","[[1,2,0],[3,0],[0]]","7","0","","","","","","4","","","","","","","","",""
"","","","","","single-stim-button","122","369642","0.0-2.0-31.4-0.4","5cc70e0861e0b90001c54b87","E1","batch5","","566","tol_tohand","","","","tol_peg_3","566","566","0","[[1,2,0],[0,0],[0]]","5","[[1,2,0],[3,0],[0]]","7","0","","","","","","4","","","","","","","","",""
"","","","","","single-stim-button","123","370392","0.0-2.0-31.4-1.4","5cc70e0861e0b90001c54b87","E1","batch5","","750","tol_toboard","","","","tol_peg_2","750","750","0","[[1,2,0],[3,0],[0]]","5","[[1,2,0],[3,0],[0]]","7","0","","","","","","4","","","","","","","","",""
"","","","","","poldrack-single-stim","124","371403","0.0-2.0-32.0","5cc70e0861e0b90001c54b87","E1","batch5","","-1","tol_feedback","","","true","","1000","1000","500","","","","","","-1","none","true","2649","4798","","","","","","","","","",""
"","","","","","html-button-response","125","372260","0.0-2.0-33.0","5cc70e0861e0b90001c54b87","E1","batch5","","856.0999999046326","tol_trial_num","<div class = centerbox><p class = center-block-text>problem <strong>9</strong> out of 25 problems</p></div>","0","","","","","","","","","","","","","","","","","","","","","","","","",""
"","","","","","single-stim-button","126","376660","0.0-2.0-34.0-0.0","5cc70e0861e0b90001c54b87","E1","batch5","","4398","tol_tohand","","","","tol_peg_3","4398","4398","0","[[3,2,0],[0,0],[0]]","1","[[2,1,0],[3,0],[0]]","8","0","","","","","","6","","","","","","","","",""
"","","","","","single-stim-button","127","377645","0.0-2.0-34.0-1.0","5cc70e0861e0b90001c54b87","E1","batch5","","985","tol_toboard","","","","tol_peg_2","985","985","0","[[3,2,0],[1,0],[0]]","1","[[2,1,0],[3,0],[0]]","8","0","","","","","","6","","","","","","","","",""
"","","","","","single-stim-button","128","378209","0.0-2.0-34.1-0.1","5cc70e0861e0b90001c54b87","E1","batch5","","563","tol_tohand","","","","tol_peg_1","563","563","0","[[3,0,0],[1,0],[0]]","2","[[2,1,0],[3,0],[0]]","8","0","","","","","","6","","","","","","","","",""
"","","","","","single-stim-button","129","378776","0.0-2.0-34.1-1.1","5cc70e0861e0b90001c54b87","E1","batch5","","566","tol_toboard","","","","tol_peg_2","566","566","0","[[3,0,0],[1,2],[0]]","2","[[2,1,0],[3,0],[0]]","8","0","","","","","","6","","","","","","","","",""
"","","","","","single-stim-button","130","379311","0.0-2.0-34.2-0.2","5cc70e0861e0b90001c54b87","E1","batch5","","535","tol_tohand","","","","tol_peg_1","535","535","0","[[0,0,0],[1,2],[0]]","3","[[2,1,0],[3,0],[0]]","8","0","","","","","","6","","","","","","","","",""
"","","","","","single-stim-button","131","379924","0.0-2.0-34.2-1.2","5cc70e0861e0b90001c54b87","E1","batch5","","612","tol_toboard","","","","tol_peg_3","612","612","0","[[0,0,0],[1,2],[3]]","3","[[2,1,0],[3,0],[0]]","8","0","","","","","","6","","","","","","","","",""
"","","","","","single-stim-button","132","380576","0.0-2.0-34.3-0.3","5cc70e0861e0b90001c54b87","E1","batch5","","652","tol_tohand","","","","tol_peg_2","652","652","0","[[0,0,0],[1,0],[3]]","4","[[2,1,0],[3,0],[0]]","8","0","","","","","","6","","","","","","","","",""
"","","","","","single-stim-button","133","381026","0.0-2.0-34.3-1.3","5cc70e0861e0b90001c54b87","E1","batch5","","450","tol_toboard","","","","tol_peg_1","450","450","0","[[2,0,0],[1,0],[3]]","4","[[2,1,0],[3,0],[0]]","8","0","","","","","","6","","","","","","","","",""
"","","","","","single-stim-button","134","381542","0.0-2.0-34.4-0.4","5cc70e0861e0b90001c54b87","E1","batch5","","516","tol_tohand","","","","tol_peg_2","516","516","0","[[2,0,0],[0,0],[3]]","5","[[2,1,0],[3,0],[0]]","8","0","","","","","","6","","","","","","","","",""
"","","","","","single-stim-button","135","382112","0.0-2.0-34.4-1.4","5cc70e0861e0b90001c54b87","E1","batch5","","570","tol_toboard","","","","tol_peg_1","570","570","0","[[2,1,0],[0,0],[3]]","5","[[2,1,0],[3,0],[0]]","8","0","","","","","","6","","","","","","","","",""
"","","","","","single-stim-button","136","383109","0.0-2.0-34.5-0.5","5cc70e0861e0b90001c54b87","E1","batch5","","997","tol_tohand","","","","tol_peg_3","997","997","0","[[2,1,0],[0,0],[0]]","6","[[2,1,0],[3,0],[0]]","8","0","","","","","","6","","","","","","","","",""
"","","","","","single-stim-button","137","383694","0.0-2.0-34.5-1.5","5cc70e0861e0b90001c54b87","E1","batch5","","585","tol_toboard","","","","tol_peg_2","585","585","0","[[2,1,0],[3,0],[0]]","6","[[2,1,0],[3,0],[0]]","8","0","","","","","","6","","","","","","","","",""
"","","","","","poldrack-single-stim","138","384704","0.0-2.0-35.0","5cc70e0861e0b90001c54b87","E1","batch5","","-1","tol_feedback","","","true","","1000","1000","500","","","","","","-1","none","true","4398","7661","","","","","","","","","",""
"","","","","","html-button-response","139","385559","0.0-2.0-36.0","5cc70e0861e0b90001c54b87","E1","batch5","","853.5","tol_trial_num","<div class = centerbox><p class = center-block-text>problem <strong>10</strong> out of 25 problems</p></div>","0","","","","","","","","","","","","","","","","","","","","","","","","",""
"","","","","","single-stim-button","140","388976","0.0-2.0-37.0-0.0","5cc70e0861e0b90001c54b87","E1","batch5","","3416","tol_tohand","","","","tol_peg_2","3416","3416","0","[[3,0,0],[0,0],[2]]","1","[[3,0,0],[2,1],[0]]","9","0","","","","","","3","","","","","","","","",""
"","","","","","single-stim-button","141","389642","0.0-2.0-37.0-1.0","5cc70e0861e0b90001c54b87","E1","batch5","","666","tol_toboard","","","","tol_peg_1","666","666","0","[[3,1,0],[0,0],[2]]","1","[[3,0,0],[2,1],[0]]","9","0","","","","","","3","","","","","","","","",""
"","","","","","single-stim-button","142","390344","0.0-2.0-37.1-0.1","5cc70e0861e0b90001c54b87","E1","batch5","","701","tol_tohand","","","","tol_peg_3","701","701","0","[[3,1,0],[0,0],[0]]","2","[[3,0,0],[2,1],[0]]","9","0","","","","","","3","","","","","","","","",""
"","","","","","single-stim-button","143","390893","0.0-2.0-37.1-1.1","5cc70e0861e0b90001c54b87","E1","batch5","","548","tol_toboard","","","","tol_peg_2","548","548","0","[[3,1,0],[2,0],[0]]","2","[[3,0,0],[2,1],[0]]","9","0","","","","","","3","","","","","","","","",""
"","","","","","single-stim-button","144","391676","0.0-2.0-37.2-0.2","5cc70e0861e0b90001c54b87","E1","batch5","","783","tol_tohand","","","","tol_peg_1","783","783","0","[[3,0,0],[2,0],[0]]","3","[[3,0,0],[2,1],[0]]","9","0","","","","","","3","","","","","","","","",""
"","","","","","single-stim-button","145","392212","0.0-2.0-37.2-1.2","5cc70e0861e0b90001c54b87","E1","batch5","","536","tol_toboard","","","","tol_peg_2","536","536","0","[[3,0,0],[2,1],[0]]","3","[[3,0,0],[2,1],[0]]","9","0","","","","","","3","","","","","","","","",""
"","","","","","poldrack-single-stim","146","393219","0.0-2.0-38.0","5cc70e0861e0b90001c54b87","E1","batch5","","-1","tol_feedback","","","true","","1000","1000","500","","","","","","-1","none","true","3416","4900","","","","","","","","","",""
"","","","","","html-button-response","147","393959","0.0-2.0-39.0","5cc70e0861e0b90001c54b87","E1","batch5","","739.5","tol_trial_num","<div class = centerbox><p class = center-block-text>problem <strong>11</strong> out of 25 problems</p></div>","0","","","","","","","","","","","","","","","","","","","","","","","","",""
"","","","","","single-stim-button","148","396647","0.0-2.0-40.0-0.0","5cc70e0861e0b90001c54b87","E1","batch5","","2687","tol_tohand","","","","tol_peg_1","2687","2687","0","[[1,0,0],[3,0],[0]]","1","[[2,0,0],[1,3],[0]]","10","0","","","","","","6","","","","","","","","",""
"","","","","","single-stim-button","149","398476","0.0-2.0-40.0-1.0","5cc70e0861e0b90001c54b87","E1","batch5","","1829","tol_toboard","","","","tol_peg_1","1829","1829","0","[[1,2,0],[3,0],[0]]","1","[[2,0,0],[1,3],[0]]","10","0","","","","","","6","","","","","","","","",""
"","","","","","single-stim-button","150","402460","0.0-2.0-40.1-0.1","5cc70e0861e0b90001c54b87","E1","batch5","","3984","tol_tohand","","","","tol_peg_2","3984","3984","0","[[1,2,0],[0,0],[0]]","2","[[2,0,0],[1,3],[0]]","10","0","","","","","","6","","","","","","","","",""
"","","","","","single-stim-button","151","411260","0.0-2.0-40.1-1.1","5cc70e0861e0b90001c54b87","E1","batch5","","8799","tol_toboard","","","","tol_peg_2","8799","8799","0","[[1,2,0],[3,0],[0]]","2","[[2,0,0],[1,3],[0]]","10","0","","","","","","6","","","","","","","","",""
"","","","","","single-stim-button","152","411860","0.0-2.0-40.2-0.2","5cc70e0861e0b90001c54b87","E1","batch5","","598","tol_tohand","","","","tol_peg_1","598","598","0","[[1,0,0],[3,0],[0]]","3","[[2,0,0],[1,3],[0]]","10","0","","","","","","6","","","","","","","","",""
"","","","","","single-stim-button","153","412675","0.0-2.0-40.2-1.2","5cc70e0861e0b90001c54b87","E1","batch5","","815","tol_toboard","","","","tol_peg_3","815","815","0","[[1,0,0],[3,0],[2]]","3","[[2,0,0],[1,3],[0]]","10","0","","","","","","6","","","","","","","","",""
"","","","","","single-stim-button","154","413864","0.0-2.0-40.3-0.3","5cc70e0861e0b90001c54b87","E1","batch5","","1187","tol_tohand","","","","tol_peg_1","1187","1187","0","[[0,0,0],[3,0],[2]]","4","[[2,0,0],[1,3],[0]]","10","0","","","","","","6","","","","","","","","",""
"","","","","","single-stim-button","155","414409","0.0-2.0-40.3-1.3","5cc70e0861e0b90001c54b87","E1","batch5","","544","tol_toboard","","","","tol_peg_2","544","544","0","[[0,0,0],[3,1],[2]]","4","[[2,0,0],[1,3],[0]]","10","0","","","","","","6","","","","","","","","",""
"","","","","","single-stim-button","156","415010","0.0-2.0-40.4-0.4","5cc70e0861e0b90001c54b87","E1","batch5","","600","tol_tohand","","","","tol_peg_3","600","600","0","[[0,0,0],[3,1],[0]]","5","[[2,0,0],[1,3],[0]]","10","0","","","","","","6","","","","","","","","",""
"","","","","","single-stim-button","157","415776","0.0-2.0-40.4-1.4","5cc70e0861e0b90001c54b87","E1","batch5","","765","tol_toboard","","","","tol_peg_1","765","765","0","[[2,0,0],[3,1],[0]]","5","[[2,0,0],[1,3],[0]]","10","0","","","","","","6","","","","","","","","",""
"","","","","","single-stim-button","158","416360","0.0-2.0-40.5-0.5","5cc70e0861e0b90001c54b87","E1","batch5","","584","tol_tohand","","","","tol_peg_2","584","584","0","[[2,0,0],[3,0],[0]]","6","[[2,0,0],[1,3],[0]]","10","0","","","","","","6","","","","","","","","",""
"","","","","","single-stim-button","159","416943","0.0-2.0-40.5-1.5","5cc70e0861e0b90001c54b87","E1","batch5","","581","tol_toboard","","","","tol_peg_1","581","581","0","[[2,1,0],[3,0],[0]]","6","[[2,0,0],[1,3],[0]]","10","0","","","","","","6","","","","","","","","",""
"","","","","","single-stim-button","160","417413","0.0-2.0-40.6-0.6","5cc70e0861e0b90001c54b87","E1","batch5","","470","tol_tohand","","","","tol_peg_2","470","470","0","[[2,1,0],[0,0],[0]]","7","[[2,0,0],[1,3],[0]]","10","0","","","","","","6","","","","","","","","",""
"","","","","","single-stim-button","161","417993","0.0-2.0-40.6-1.6","5cc70e0861e0b90001c54b87","E1","batch5","","579","tol_toboard","","","","tol_peg_3","579","579","0","[[2,1,0],[0,0],[3]]","7","[[2,0,0],[1,3],[0]]","10","0","","","","","","6","","","","","","","","",""
"","","","","","single-stim-button","162","418679","0.0-2.0-40.7-0.7","5cc70e0861e0b90001c54b87","E1","batch5","","686","tol_tohand","","","","tol_peg_1","686","686","0","[[2,0,0],[0,0],[3]]","8","[[2,0,0],[1,3],[0]]","10","0","","","","","","6","","","","","","","","",""
"","","","","","single-stim-button","163","419428","0.0-2.0-40.7-1.7","5cc70e0861e0b90001c54b87","E1","batch5","","748","tol_toboard","","","","tol_peg_2","748","748","0","[[2,0,0],[1,0],[3]]","8","[[2,0,0],[1,3],[0]]","10","0","","","","","","6","","","","","","","","",""
"","","","","","single-stim-button","164","420059","0.0-2.0-40.8-0.8","5cc70e0861e0b90001c54b87","E1","batch5","","630","tol_tohand","","","","tol_peg_3","630","630","0","[[2,0,0],[1,0],[0]]","9","[[2,0,0],[1,3],[0]]","10","0","","","","","","6","","","","","","","","",""
"","","","","","single-stim-button","165","420760","0.0-2.0-40.8-1.8","5cc70e0861e0b90001c54b87","E1","batch5","","700","tol_toboard","","","","tol_peg_2","700","700","0","[[2,0,0],[1,3],[0]]","9","[[2,0,0],[1,3],[0]]","10","0","","","","","","6","","","","","","","","",""
"","","","","","poldrack-single-stim","166","421769","0.0-2.0-41.0","5cc70e0861e0b90001c54b87","E1","batch5","","-1","tol_feedback","","","true","","1000","1000","500","","","","","","-1","none","true","2687","11426","","","","","","","","","",""
"","","","","","html-button-response","167","422810","0.0-2.0-42.0","5cc70e0861e0b90001c54b87","E1","batch5","","1040.0999999046326","tol_trial_num","<div class = centerbox><p class = center-block-text>problem <strong>12</strong> out of 25 problems</p></div>","0","","","","","","","","","","","","","","","","","","","","","","","","",""
"","","","","","single-stim-button","168","425176","0.0-2.0-43.0-0.0","5cc70e0861e0b90001c54b87","E1","batch5","","2366","tol_tohand","","","","tol_peg_1","2366","2366","0","[[1,0,0],[3,0],[0]]","1","[[2,3,0],[0,0],[1]]","11","0","","","","","","4","","","","","","","","",""
"","","","","","single-stim-button","169","426113","0.0-2.0-43.0-1.0","5cc70e0861e0b90001c54b87","E1","batch5","","937","tol_toboard","","","","tol_peg_2","937","937","0","[[1,0,0],[3,2],[0]]","1","[[2,3,0],[0,0],[1]]","11","0","","","","","","4","","","","","","","","",""
"","","","","","single-stim-button","170","426775","0.0-2.0-43.1-0.1","5cc70e0861e0b90001c54b87","E1","batch5","","661","tol_tohand","","","","tol_peg_1","661","661","0","[[0,0,0],[3,2],[0]]","2","[[2,3,0],[0,0],[1]]","11","0","","","","","","4","","","","","","","","",""
"","","","","","single-stim-button","171","427576","0.0-2.0-43.1-1.1","5cc70e0861e0b90001c54b87","E1","batch5","","800","tol_toboard","","","","tol_peg_3","800","800","0","[[0,0,0],[3,2],[1]]","2","[[2,3,0],[0,0],[1]]","11","0","","","","","","4","","","","","","","","",""
"","","","","","single-stim-button","172","428142","0.0-2.0-43.2-0.2","5cc70e0861e0b90001c54b87","E1","batch5","","565","tol_tohand","","","","tol_peg_2","565","565","0","[[0,0,0],[3,0],[1]]","3","[[2,3,0],[0,0],[1]]","11","0","","","","","","4","","","","","","","","",""
"","","","","","single-stim-button","173","428725","0.0-2.0-43.2-1.2","5cc70e0861e0b90001c54b87","E1","batch5","","582","tol_toboard","","","","tol_peg_1","582","582","0","[[2,0,0],[3,0],[1]]","3","[[2,3,0],[0,0],[1]]","11","0","","","","","","4","","","","","","","","",""
"","","","","","single-stim-button","174","429280","0.0-2.0-43.3-0.3","5cc70e0861e0b90001c54b87","E1","batch5","","553","tol_tohand","","","","tol_peg_2","553","553","0","[[2,0,0],[0,0],[1]]","4","[[2,3,0],[0,0],[1]]","11","0","","","","","","4","","","","","","","","",""
"","","","","","single-stim-button","175","429876","0.0-2.0-43.3-1.3","5cc70e0861e0b90001c54b87","E1","batch5","","595","tol_toboard","","","","tol_peg_1","595","595","0","[[2,3,0],[0,0],[1]]","4","[[2,3,0],[0,0],[1]]","11","0","","","","","","4","","","","","","","","",""
"","","","","","poldrack-single-stim","176","430882","0.0-2.0-44.0","5cc70e0861e0b90001c54b87","E1","batch5","","-1","tol_feedback","","","true","","1000","1000","500","","","","","","-1","none","true","2366","4145","","","","","","","","","",""
"","","","","","html-button-response","177","431825","0.0-2.0-45.0","5cc70e0861e0b90001c54b87","E1","batch5","","942.2000000476837","tol_trial_num","<div class = centerbox><p class = center-block-text>problem <strong>13</strong> out of 25 problems</p></div>","0","","","","","","","","","","","","","","","","","","","","","","","","",""
"","","","","","single-stim-button","178","433711","0.0-2.0-46.0-0.0","5cc70e0861e0b90001c54b87","E1","batch5","","1885","tol_tohand","","","","tol_peg_1","1885","1885","0","[[1,0,0],[3,0],[0]]","1","[[0,0,0],[2,3],[1]]","12","0","","","","","","4","","","","","","","","",""
"","","","","","single-stim-button","179","434310","0.0-2.0-46.0-1.0","5cc70e0861e0b90001c54b87","E1","batch5","","597","tol_toboard","","","","tol_peg_2","597","597","0","[[1,0,0],[3,2],[0]]","1","[[0,0,0],[2,3],[1]]","12","0","","","","","","4","","","","","","","","",""
"","","","","","single-stim-button","180","434859","0.0-2.0-46.1-0.1","5cc70e0861e0b90001c54b87","E1","batch5","","549","tol_tohand","","","","tol_peg_1","549","549","0","[[0,0,0],[3,2],[0]]","2","[[0,0,0],[2,3],[1]]","12","0","","","","","","4","","","","","","","","",""
"","","","","","single-stim-button","181","435392","0.0-2.0-46.1-1.1","5cc70e0861e0b90001c54b87","E1","batch5","","533","tol_toboard","","","","tol_peg_3","533","533","0","[[0,0,0],[3,2],[1]]","2","[[0,0,0],[2,3],[1]]","12","0","","","","","","4","","","","","","","","",""
"","","","","","single-stim-button","182","436045","0.0-2.0-46.2-0.2","5cc70e0861e0b90001c54b87","E1","batch5","","653","tol_tohand","","","","tol_peg_2","653","653","0","[[0,0,0],[3,0],[1]]","3","[[0,0,0],[2,3],[1]]","12","0","","","","","","4","","","","","","","","",""
"","","","","","single-stim-button","183","436709","0.0-2.0-46.2-1.2","5cc70e0861e0b90001c54b87","E1","batch5","","663","tol_toboard","","","","tol_peg_1","663","663","0","[[2,0,0],[3,0],[1]]","3","[[0,0,0],[2,3],[1]]","12","0","","","","","","4","","","","","","","","",""
"","","","","","single-stim-button","184","437342","0.0-2.0-46.3-0.3","5cc70e0861e0b90001c54b87","E1","batch5","","633","tol_tohand","","","","tol_peg_2","633","633","0","[[2,0,0],[0,0],[1]]","4","[[0,0,0],[2,3],[1]]","12","0","","","","","","4","","","","","","","","",""
"","","","","","single-stim-button","185","439842","0.0-2.0-46.3-1.3","5cc70e0861e0b90001c54b87","E1","batch5","","2500","tol_toboard","","","","tol_peg_2","2500","2500","0","[[2,0,0],[3,0],[1]]","4","[[0,0,0],[2,3],[1]]","12","0","","","","","","4","","","","","","","","",""
"","","","","","single-stim-button","186","440410","0.0-2.0-46.4-0.4","5cc70e0861e0b90001c54b87","E1","batch5","","568","tol_tohand","","","","tol_peg_3","568","568","0","[[2,0,0],[3,0],[0]]","5","[[0,0,0],[2,3],[1]]","12","0","","","","","","4","","","","","","","","",""
"","","","","","single-stim-button","187","441092","0.0-2.0-46.4-1.4","5cc70e0861e0b90001c54b87","E1","batch5","","681","tol_toboard","","","","tol_peg_1","681","681","0","[[2,1,0],[3,0],[0]]","5","[[0,0,0],[2,3],[1]]","12","0","","","","","","4","","","","","","","","",""
"","","","","","single-stim-button","188","441642","0.0-2.0-46.5-0.5","5cc70e0861e0b90001c54b87","E1","batch5","","549","tol_tohand","","","","tol_peg_2","549","549","0","[[2,1,0],[0,0],[0]]","6","[[0,0,0],[2,3],[1]]","12","0","","","","","","4","","","","","","","","",""
"","","","","","single-stim-button","189","442242","0.0-2.0-46.5-1.5","5cc70e0861e0b90001c54b87","E1","batch5","","599","tol_toboard","","","","tol_peg_3","599","599","0","[[2,1,0],[0,0],[3]]","6","[[0,0,0],[2,3],[1]]","12","0","","","","","","4","","","","","","","","",""
"","","","","","single-stim-button","190","443496","0.0-2.0-46.6-0.6","5cc70e0861e0b90001c54b87","E1","batch5","","1253","tol_tohand","","","","tol_peg_1","1253","1253","0","[[2,0,0],[0,0],[3]]","7","[[0,0,0],[2,3],[1]]","12","0","","","","","","4","","","","","","","","",""
"","","","","","single-stim-button","191","444175","0.0-2.0-46.6-1.6","5cc70e0861e0b90001c54b87","E1","batch5","","678","tol_toboard","","","","tol_peg_2","678","678","0","[[2,0,0],[1,0],[3]]","7","[[0,0,0],[2,3],[1]]","12","0","","","","","","4","","","","","","","","",""
"","","","","","single-stim-button","192","447193","0.0-2.0-46.7-0.7","5cc70e0861e0b90001c54b87","E1","batch5","","3017","tol_tohand","","","","tol_peg_1","3017","3017","0","[[0,0,0],[1,0],[3]]","8","[[0,0,0],[2,3],[1]]","12","0","","","","","","4","","","","","","","","",""
"","","","","","single-stim-button","193","447710","0.0-2.0-46.7-1.7","5cc70e0861e0b90001c54b87","E1","batch5","","515","tol_toboard","","","","tol_peg_2","515","515","0","[[0,0,0],[1,2],[3]]","8","[[0,0,0],[2,3],[1]]","12","0","","","","","","4","","","","","","","","",""
"","","","","","single-stim-button","194","449294","0.0-2.0-46.8-0.8","5cc70e0861e0b90001c54b87","E1","batch5","","1584","tol_tohand","","","","tol_peg_3","1584","1584","0","[[0,0,0],[1,2],[0]]","9","[[0,0,0],[2,3],[1]]","12","0","","","","","","4","","","","","","","","",""
"","","","","","single-stim-button","195","450109","0.0-2.0-46.8-1.8","5cc70e0861e0b90001c54b87","E1","batch5","","815","tol_toboard","","","","tol_peg_1","815","815","0","[[3,0,0],[1,2],[0]]","9","[[0,0,0],[2,3],[1]]","12","0","","","","","","4","","","","","","","","",""
"","","","","","single-stim-button","196","451943","0.0-2.0-46.9-0.9","5cc70e0861e0b90001c54b87","E1","batch5","","1834","tol_tohand","","","","tol_peg_2","1834","1834","0","[[3,0,0],[1,0],[0]]","10","[[0,0,0],[2,3],[1]]","12","0","","","","","","4","","","","","","","","",""
"","","","","","single-stim-button","197","452759","0.0-2.0-46.9-1.9","5cc70e0861e0b90001c54b87","E1","batch5","","816","tol_toboard","","","","tol_peg_1","816","816","0","[[3,2,0],[1,0],[0]]","10","[[0,0,0],[2,3],[1]]","12","0","","","","","","4","","","","","","","","",""
"","","","","","single-stim-button","198","453259","0.0-2.0-46.10-0.10","5cc70e0861e0b90001c54b87","E1","batch5","","500","tol_tohand","","","","tol_peg_2","500","500","0","[[3,2,0],[0,0],[0]]","11","[[0,0,0],[2,3],[1]]","12","0","","","","","","4","","","","","","","","",""
"","","","","","single-stim-button","199","454027","0.0-2.0-46.10-1.10","5cc70e0861e0b90001c54b87","E1","batch5","","766","tol_toboard","","","","tol_peg_3","766","766","0","[[3,2,0],[0,0],[1]]","11","[[0,0,0],[2,3],[1]]","12","0","","","","","","4","","","","","","","","",""
"","","","","","single-stim-button","200","455276","0.0-2.0-46.11-0.11","5cc70e0861e0b90001c54b87","E1","batch5","","1249","tol_tohand","","","","tol_peg_1","1249","1249","0","[[3,0,0],[0,0],[1]]","12","[[0,0,0],[2,3],[1]]","12","0","","","","","","4","","","","","","","","",""
"","","","","","single-stim-button","201","455827","0.0-2.0-46.11-1.11","5cc70e0861e0b90001c54b87","E1","batch5","","551","tol_toboard","","","","tol_peg_2","551","551","0","[[3,0,0],[2,0],[1]]","12","[[0,0,0],[2,3],[1]]","12","0","","","","","","4","","","","","","","","",""
"","","","","","single-stim-button","202","456392","0.0-2.0-46.12-0.12","5cc70e0861e0b90001c54b87","E1","batch5","","565","tol_tohand","","","","tol_peg_1","565","565","0","[[0,0,0],[2,0],[1]]","13","[[0,0,0],[2,3],[1]]","12","0","","","","","","4","","","","","","","","",""
"","","","","","single-stim-button","203","456876","0.0-2.0-46.12-1.12","5cc70e0861e0b90001c54b87","E1","batch5","","484","tol_toboard","","","","tol_peg_2","484","484","0","[[0,0,0],[2,3],[1]]","13","[[0,0,0],[2,3],[1]]","12","0","","","","","","4","","","","","","","","",""
"","","","","","poldrack-single-stim","204","457886","0.0-2.0-47.0","5cc70e0861e0b90001c54b87","E1","batch5","","-1","tol_feedback","","","true","","1000","1000","500","","","","","","-1","none","true","1885","14839","","","","","","","","","",""
"","","","","","html-button-response","205","460560","0.0-2.0-48.0","5cc70e0861e0b90001c54b87","E1","batch5","","2672.2000000476837","attention_check","<p class = block-text>How many balls are in your board<br></p>","1","true","","","","","","","","","","","","","","","","","","","","","","","",""
"","","","","","html-button-response","206","461426","0.0-2.0-49.0","5cc70e0861e0b90001c54b87","E1","batch5","","865.3999998569489","tol_trial_num","<div class = centerbox><p class = center-block-text>problem <strong>14</strong> out of 25 problems</p></div>","0","","","","","","","","","","","","","","","","","","","","","","","","",""
"","","","","","single-stim-button","207","464843","0.0-2.0-50.0-0.0","5cc70e0861e0b90001c54b87","E1","batch5","","3416","tol_tohand","","","","tol_peg_1","3416","3416","0","[[2,0,0],[3,0],[0]]","1","[[1,2,0],[3,0],[0]]","13","0","","","","","","4","","","","","","","","",""
"","","","","","single-stim-button","208","465509","0.0-2.0-50.0-1.0","5cc70e0861e0b90001c54b87","E1","batch5","","665","tol_toboard","","","","tol_peg_2","665","665","0","[[2,0,0],[3,1],[0]]","1","[[1,2,0],[3,0],[0]]","13","0","","","","","","4","","","","","","","","",""
"","","","","","single-stim-button","209","466026","0.0-2.0-50.1-0.1","5cc70e0861e0b90001c54b87","E1","batch5","","516","tol_tohand","","","","tol_peg_1","516","516","0","[[0,0,0],[3,1],[0]]","2","[[1,2,0],[3,0],[0]]","13","0","","","","","","4","","","","","","","","",""
"","","","","","single-stim-button","210","466876","0.0-2.0-50.1-1.1","5cc70e0861e0b90001c54b87","E1","batch5","","849","tol_toboard","","","","tol_peg_3","849","849","0","[[0,0,0],[3,1],[2]]","2","[[1,2,0],[3,0],[0]]","13","0","","","","","","4","","","","","","","","",""
"","","","","","single-stim-button","211","467542","0.0-2.0-50.2-0.2","5cc70e0861e0b90001c54b87","E1","batch5","","666","tol_tohand","","","","tol_peg_2","666","666","0","[[0,0,0],[3,0],[2]]","3","[[1,2,0],[3,0],[0]]","13","0","","","","","","4","","","","","","","","",""
"","","","","","single-stim-button","212","468277","0.0-2.0-50.2-1.2","5cc70e0861e0b90001c54b87","E1","batch5","","735","tol_toboard","","","","tol_peg_1","735","735","0","[[1,0,0],[3,0],[2]]","3","[[1,2,0],[3,0],[0]]","13","0","","","","","","4","","","","","","","","",""
"","","","","","single-stim-button","213","468892","0.0-2.0-50.3-0.3","5cc70e0861e0b90001c54b87","E1","batch5","","615","tol_tohand","","","","tol_peg_3","615","615","0","[[1,0,0],[3,0],[0]]","4","[[1,2,0],[3,0],[0]]","13","0","","","","","","4","","","","","","","","",""
"","","","","","single-stim-button","214","469509","0.0-2.0-50.3-1.3","5cc70e0861e0b90001c54b87","E1","batch5","","617","tol_toboard","","","","tol_peg_1","617","617","0","[[1,2,0],[3,0],[0]]","4","[[1,2,0],[3,0],[0]]","13","0","","","","","","4","","","","","","","","",""
"","","","","","poldrack-single-stim","215","470520","0.0-2.0-51.0","5cc70e0861e0b90001c54b87","E1","batch5","","-1","tol_feedback","","","true","","1000","1000","500","","","","","","-1","none","true","3416","5213","","","","","","","","","",""
"","","","","","html-button-response","216","471459","0.0-2.0-52.0","5cc70e0861e0b90001c54b87","E1","batch5","","937.7000000476837","tol_trial_num","<div class = centerbox><p class = center-block-text>problem <strong>15</strong> out of 25 problems</p></div>","0","","","","","","","","","","","","","","","","","","","","","","","","",""
"","","","","","single-stim-button","217","474109","0.0-2.0-53.0-0.0","5cc70e0861e0b90001c54b87","E1","batch5","","2650","tol_tohand","","","","tol_peg_1","2650","2650","0","[[1,0,0],[3,0],[0]]","1","[[2,0,0],[3,0],[1]]","14","0","","","","","","3","","","","","","","","",""
"","","","","","single-stim-button","218","474675","0.0-2.0-53.0-1.0","5cc70e0861e0b90001c54b87","E1","batch5","","566","tol_toboard","","","","tol_peg_2","566","566","0","[[1,0,0],[3,2],[0]]","1","[[2,0,0],[3,0],[1]]","14","0","","","","","","3","","","","","","","","",""
"","","","","","single-stim-button","219","475193","0.0-2.0-53.1-0.1","5cc70e0861e0b90001c54b87","E1","batch5","","517","tol_tohand","","","","tol_peg_1","517","517","0","[[0,0,0],[3,2],[0]]","2","[[2,0,0],[3,0],[1]]","14","0","","","","","","3","","","","","","","","",""
"","","","","","single-stim-button","220","475776","0.0-2.0-53.1-1.1","5cc70e0861e0b90001c54b87","E1","batch5","","583","tol_toboard","","","","tol_peg_3","583","583","0","[[0,0,0],[3,2],[1]]","2","[[2,0,0],[3,0],[1]]","14","0","","","","","","3","","","","","","","","",""
"","","","","","single-stim-button","221","476476","0.0-2.0-53.2-0.2","5cc70e0861e0b90001c54b87","E1","batch5","","699","tol_tohand","","","","tol_peg_2","699","699","0","[[0,0,0],[3,0],[1]]","3","[[2,0,0],[3,0],[1]]","14","0","","","","","","3","","","","","","","","",""
"","","","","","single-stim-button","222","477175","0.0-2.0-53.2-1.2","5cc70e0861e0b90001c54b87","E1","batch5","","699","tol_toboard","","","","tol_peg_1","699","699","0","[[2,0,0],[3,0],[1]]","3","[[2,0,0],[3,0],[1]]","14","0","","","","","","3","","","","","","","","",""
"","","","","","poldrack-single-stim","223","478181","0.0-2.0-54.0","5cc70e0861e0b90001c54b87","E1","batch5","","-1","tol_feedback","","","true","","1000","1000","500","","","","","","-1","none","true","2650","3866","","","","","","","","","",""
"","","","","","html-button-response","224","479109","0.0-2.0-55.0","5cc70e0861e0b90001c54b87","E1","batch5","","927","tol_trial_num","<div class = centerbox><p class = center-block-text>problem <strong>16</strong> out of 25 problems</p></div>","0","","","","","","","","","","","","","","","","","","","","","","","","",""
"","","","","","single-stim-button","225","482009","0.0-2.0-56.0-0.0","5cc70e0861e0b90001c54b87","E1","batch5","","2899","tol_tohand","","","","tol_peg_3","2899","2899","0","[[0,0,0],[2,3],[0]]","1","[[2,3,0],[1,0],[0]]","15","0","","","","","","7","","","","","","","","",""
"","","","","","single-stim-button","226","482860","0.0-2.0-56.0-1.0","5cc70e0861e0b90001c54b87","E1","batch5","","850","tol_toboard","","","","tol_peg_1","850","850","0","[[1,0,0],[2,3],[0]]","1","[[2,3,0],[1,0],[0]]","15","0","","","","","","7","","","","","","","","",""
"","","","","","single-stim-button","227","487730","0.0-2.0-56.1-0.1","5cc70e0861e0b90001c54b87","E1","batch5","","4869","tol_tohand","","","","tol_peg_2","4869","4869","0","[[1,0,0],[2,0],[0]]","2","[[2,3,0],[1,0],[0]]","15","0","","","","","","7","","","","","","","","",""
"","","","","","single-stim-button","228","489175","0.0-2.0-56.1-1.1","5cc70e0861e0b90001c54b87","E1","batch5","","1444","tol_toboard","","","","tol_peg_1","1444","1444","0","[[1,3,0],[2,0],[0]]","2","[[2,3,0],[1,0],[0]]","15","0","","","","","","7","","","","","","","","",""
"","","","","","single-stim-button","229","489729","0.0-2.0-56.2-0.2","5cc70e0861e0b90001c54b87","E1","batch5","","554","tol_tohand","","","","tol_peg_2","554","554","0","[[1,3,0],[0,0],[0]]","3","[[2,3,0],[1,0],[0]]","15","0","","","","","","7","","","","","","","","",""
"","","","","","single-stim-button","230","490393","0.0-2.0-56.2-1.2","5cc70e0861e0b90001c54b87","E1","batch5","","663","tol_toboard","","","","tol_peg_3","663","663","0","[[1,3,0],[0,0],[2]]","3","[[2,3,0],[1,0],[0]]","15","0","","","","","","7","","","","","","","","",""
"","","","","","single-stim-button","231","491560","0.0-2.0-56.3-0.3","5cc70e0861e0b90001c54b87","E1","batch5","","1167","tol_tohand","","","","tol_peg_1","1167","1167","0","[[1,0,0],[0,0],[2]]","4","[[2,3,0],[1,0],[0]]","15","0","","","","","","7","","","","","","","","",""
"","","","","","single-stim-button","232","492193","0.0-2.0-56.3-1.3","5cc70e0861e0b90001c54b87","E1","batch5","","633","tol_toboard","","","","tol_peg_2","633","633","0","[[1,0,0],[3,0],[2]]","4","[[2,3,0],[1,0],[0]]","15","0","","","","","","7","","","","","","","","",""
"","","","","","single-stim-button","233","492743","0.0-2.0-56.4-0.4","5cc70e0861e0b90001c54b87","E1","batch5","","550","tol_tohand","","","","tol_peg_1","550","550","0","[[0,0,0],[3,0],[2]]","5","[[2,3,0],[1,0],[0]]","15","0","","","","","","7","","","","","","","","",""
"","","","","","single-stim-button","234","493242","0.0-2.0-56.4-1.4","5cc70e0861e0b90001c54b87","E1","batch5","","499","tol_toboard","","","","tol_peg_2","499","499","0","[[0,0,0],[3,1],[2]]","5","[[2,3,0],[1,0],[0]]","15","0","","","","","","7","","","","","","","","",""
"","","","","","single-stim-button","235","493826","0.0-2.0-56.5-0.5","5cc70e0861e0b90001c54b87","E1","batch5","","584","tol_tohand","","","","tol_peg_3","584","584","0","[[0,0,0],[3,1],[0]]","6","[[2,3,0],[1,0],[0]]","15","0","","","","","","7","","","","","","","","",""
"","","","","","single-stim-button","236","494410","0.0-2.0-56.5-1.5","5cc70e0861e0b90001c54b87","E1","batch5","","584","tol_toboard","","","","tol_peg_1","584","584","0","[[2,0,0],[3,1],[0]]","6","[[2,3,0],[1,0],[0]]","15","0","","","","","","7","","","","","","","","",""
"","","","","","single-stim-button","237","494976","0.0-2.0-56.6-0.6","5cc70e0861e0b90001c54b87","E1","batch5","","565","tol_tohand","","","","tol_peg_2","565","565","0","[[2,0,0],[3,0],[0]]","7","[[2,3,0],[1,0],[0]]","15","0","","","","","","7","","","","","","","","",""
"","","","","","single-stim-button","238","496693","0.0-2.0-56.6-1.6","5cc70e0861e0b90001c54b87","E1","batch5","","1715","tol_toboard","","","","tol_peg_3","1715","1715","0","[[2,0,0],[3,0],[1]]","7","[[2,3,0],[1,0],[0]]","15","0","","","","","","7","","","","","","","","",""
"","","","","","single-stim-button","239","497225","0.0-2.0-56.7-0.7","5cc70e0861e0b90001c54b87","E1","batch5","","532","tol_tohand","","","","tol_peg_2","532","532","0","[[2,0,0],[0,0],[1]]","8","[[2,3,0],[1,0],[0]]","15","0","","","","","","7","","","","","","","","",""
"","","","","","single-stim-button","240","497926","0.0-2.0-56.7-1.7","5cc70e0861e0b90001c54b87","E1","batch5","","701","tol_toboard","","","","tol_peg_1","701","701","0","[[2,3,0],[0,0],[1]]","8","[[2,3,0],[1,0],[0]]","15","0","","","","","","7","","","","","","","","",""
"","","","","","single-stim-button","241","498759","0.0-2.0-56.8-0.8","5cc70e0861e0b90001c54b87","E1","batch5","","832","tol_tohand","","","","tol_peg_3","832","832","0","[[2,3,0],[0,0],[0]]","9","[[2,3,0],[1,0],[0]]","15","0","","","","","","7","","","","","","","","",""
"","","","","","single-stim-button","242","499326","0.0-2.0-56.8-1.8","5cc70e0861e0b90001c54b87","E1","batch5","","567","tol_toboard","","","","tol_peg_2","567","567","0","[[2,3,0],[1,0],[0]]","9","[[2,3,0],[1,0],[0]]","15","0","","","","","","7","","","","","","","","",""
"","","","","","poldrack-single-stim","243","500335","0.0-2.0-57.0","5cc70e0861e0b90001c54b87","E1","batch5","","-1","tol_feedback","","","true","","1000","1000","500","","","","","","-1","none","true","2899","12552","","","","","","","","","",""
"","","","","","html-button-response","244","501158","0.0-2.0-58.0","5cc70e0861e0b90001c54b87","E1","batch5","","822.5","tol_trial_num","<div class = centerbox><p class = center-block-text>problem <strong>17</strong> out of 25 problems</p></div>","0","","","","","","","","","","","","","","","","","","","","","","","","",""
"","","","","","single-stim-button","245","503026","0.0-2.0-59.0-0.0","5cc70e0861e0b90001c54b87","E1","batch5","","1867","tol_tohand","","","","tol_peg_1","1867","1867","0","[[1,0,0],[3,0],[0]]","1","[[3,1,0],[2,0],[0]]","16","0","","","","","","5","","","","","","","","",""
"","","","","","single-stim-button","246","503912","0.0-2.0-59.0-1.0","5cc70e0861e0b90001c54b87","E1","batch5","","886","tol_toboard","","","","tol_peg_3","886","886","0","[[1,0,0],[3,0],[2]]","1","[[3,1,0],[2,0],[0]]","16","0","","","","","","5","","","","","","","","",""
"","","","","","single-stim-button","247","509195","0.0-2.0-59.1-0.1","5cc70e0861e0b90001c54b87","E1","batch5","","5283","tol_tohand","","","","tol_peg_2","5283","5283","0","[[1,0,0],[0,0],[2]]","2","[[3,1,0],[2,0],[0]]","16","0","","","","","","5","","","","","","","","",""
"","","","","","single-stim-button","248","511109","0.0-2.0-59.1-1.1","5cc70e0861e0b90001c54b87","E1","batch5","","1914","tol_toboard","","","","tol_peg_2","1914","1914","0","[[1,0,0],[3,0],[2]]","2","[[3,1,0],[2,0],[0]]","16","0","","","","","","5","","","","","","","","",""
"","","","","","single-stim-button","249","512659","0.0-2.0-59.2-0.2","5cc70e0861e0b90001c54b87","E1","batch5","","1550","tol_tohand","","","","tol_peg_3","1550","1550","0","[[1,0,0],[3,0],[0]]","3","[[3,1,0],[2,0],[0]]","16","0","","","","","","5","","","","","","","","",""
"","","","","","single-stim-button","250","513376","0.0-2.0-59.2-1.2","5cc70e0861e0b90001c54b87","E1","batch5","","716","tol_toboard","","","","tol_peg_2","716","716","0","[[1,0,0],[3,2],[0]]","3","[[3,1,0],[2,0],[0]]","16","0","","","","","","5","","","","","","","","",""
"","","","","","single-stim-button","251","514026","0.0-2.0-59.3-0.3","5cc70e0861e0b90001c54b87","E1","batch5","","650","tol_tohand","","","","tol_peg_1","650","650","0","[[0,0,0],[3,2],[0]]","4","[[3,1,0],[2,0],[0]]","16","0","","","","","","5","","","","","","","","",""
"","","","","","single-stim-button","252","514609","0.0-2.0-59.3-1.3","5cc70e0861e0b90001c54b87","E1","batch5","","582","tol_toboard","","","","tol_peg_3","582","582","0","[[0,0,0],[3,2],[1]]","4","[[3,1,0],[2,0],[0]]","16","0","","","","","","5","","","","","","","","",""
"","","","","","single-stim-button","253","515443","0.0-2.0-59.4-0.4","5cc70e0861e0b90001c54b87","E1","batch5","","834","tol_tohand","","","","tol_peg_2","834","834","0","[[0,0,0],[3,0],[1]]","5","[[3,1,0],[2,0],[0]]","16","0","","","","","","5","","","","","","","","",""
"","","","","","single-stim-button","254","516042","0.0-2.0-59.4-1.4","5cc70e0861e0b90001c54b87","E1","batch5","","598","tol_toboard","","","","tol_peg_1","598","598","0","[[2,0,0],[3,0],[1]]","5","[[3,1,0],[2,0],[0]]","16","0","","","","","","5","","","","","","","","",""
"","","","","","single-stim-button","255","516596","0.0-2.0-59.5-0.5","5cc70e0861e0b90001c54b87","E1","batch5","","554","tol_tohand","","","","tol_peg_2","554","554","0","[[2,0,0],[0,0],[1]]","6","[[3,1,0],[2,0],[0]]","16","0","","","","","","5","","","","","","","","",""
"","","","","","single-stim-button","256","517894","0.0-2.0-59.5-1.5","5cc70e0861e0b90001c54b87","E1","batch5","","1297","tol_toboard","","","","tol_peg_2","1297","1297","0","[[2,0,0],[3,0],[1]]","6","[[3,1,0],[2,0],[0]]","16","0","","","","","","5","","","","","","","","",""
"","","","","","single-stim-button","257","522592","0.0-2.0-59.6-0.6","5cc70e0861e0b90001c54b87","E1","batch5","","4698","tol_tohand","","","","tol_peg_2","4698","4698","0","[[2,0,0],[0,0],[1]]","7","[[3,1,0],[2,0],[0]]","16","0","","","","","","5","","","","","","","","",""
"","","","","","single-stim-button","258","523293","0.0-2.0-59.6-1.6","5cc70e0861e0b90001c54b87","E1","batch5","","700","tol_toboard","","","","tol_peg_1","700","700","0","[[2,3,0],[0,0],[1]]","7","[[3,1,0],[2,0],[0]]","16","0","","","","","","5","","","","","","","","",""
"","","","","","single-stim-button","259","524276","0.0-2.0-59.7-0.7","5cc70e0861e0b90001c54b87","E1","batch5","","982","tol_tohand","","","","tol_peg_3","982","982","0","[[2,3,0],[0,0],[0]]","8","[[3,1,0],[2,0],[0]]","16","0","","","","","","5","","","","","","","","",""
"","","","","","single-stim-button","260","524843","0.0-2.0-59.7-1.7","5cc70e0861e0b90001c54b87","E1","batch5","","567","tol_toboard","","","","tol_peg_2","567","567","0","[[2,3,0],[1,0],[0]]","8","[[3,1,0],[2,0],[0]]","16","0","","","","","","5","","","","","","","","",""
"","","","","","single-stim-button","261","525876","0.0-2.0-59.8-0.8","5cc70e0861e0b90001c54b87","E1","batch5","","1033","tol_tohand","","","","tol_peg_1","1033","1033","0","[[2,0,0],[1,0],[0]]","9","[[3,1,0],[2,0],[0]]","16","0","","","","","","5","","","","","","","","",""
"","","","","","single-stim-button","262","526392","0.0-2.0-59.8-1.8","5cc70e0861e0b90001c54b87","E1","batch5","","515","tol_toboard","","","","tol_peg_2","515","515","0","[[2,0,0],[1,3],[0]]","9","[[3,1,0],[2,0],[0]]","16","0","","","","","","5","","","","","","","","",""
"","","","","","single-stim-button","263","527059","0.0-2.0-59.9-0.9","5cc70e0861e0b90001c54b87","E1","batch5","","666","tol_tohand","","","","tol_peg_1","666","666","0","[[0,0,0],[1,3],[0]]","10","[[3,1,0],[2,0],[0]]","16","0","","","","","","5","","","","","","","","",""
"","","","","","single-stim-button","264","527860","0.0-2.0-59.9-1.9","5cc70e0861e0b90001c54b87","E1","batch5","","800","tol_toboard","","","","tol_peg_3","800","800","0","[[0,0,0],[1,3],[2]]","10","[[3,1,0],[2,0],[0]]","16","0","","","","","","5","","","","","","","","",""
"","","","","","single-stim-button","265","528610","0.0-2.0-59.10-0.10","5cc70e0861e0b90001c54b87","E1","batch5","","749","tol_tohand","","","","tol_peg_2","749","749","0","[[0,0,0],[1,0],[2]]","11","[[3,1,0],[2,0],[0]]","16","0","","","","","","5","","","","","","","","",""
"","","","","","single-stim-button","266","529109","0.0-2.0-59.10-1.10","5cc70e0861e0b90001c54b87","E1","batch5","","498","tol_toboard","","","","tol_peg_1","498","498","0","[[3,0,0],[1,0],[2]]","11","[[3,1,0],[2,0],[0]]","16","0","","","","","","5","","","","","","","","",""
"","","","","","single-stim-button","267","529626","0.0-2.0-59.11-0.11","5cc70e0861e0b90001c54b87","E1","batch5","","517","tol_tohand","","","","tol_peg_2","517","517","0","[[3,0,0],[0,0],[2]]","12","[[3,1,0],[2,0],[0]]","16","0","","","","","","5","","","","","","","","",""
"","","","","","single-stim-button","268","530161","0.0-2.0-59.11-1.11","5cc70e0861e0b90001c54b87","E1","batch5","","535","tol_toboard","","","","tol_peg_1","535","535","0","[[3,1,0],[0,0],[2]]","12","[[3,1,0],[2,0],[0]]","16","0","","","","","","5","","","","","","","","",""
"","","","","","single-stim-button","269","531248","0.0-2.0-59.12-0.12","5cc70e0861e0b90001c54b87","E1","batch5","","1087","tol_tohand","","","","tol_peg_3","1087","1087","0","[[3,1,0],[0,0],[0]]","13","[[3,1,0],[2,0],[0]]","16","0","","","","","","5","","","","","","","","",""
"","","","","","single-stim-button","270","531775","0.0-2.0-59.12-1.12","5cc70e0861e0b90001c54b87","E1","batch5","","527","tol_toboard","","","","tol_peg_2","527","527","0","[[3,1,0],[2,0],[0]]","13","[[3,1,0],[2,0],[0]]","16","0","","","","","","5","","","","","","","","",""
"","","","","","poldrack-single-stim","271","532780","0.0-2.0-60.0","5cc70e0861e0b90001c54b87","E1","batch5","","-1","tol_feedback","","","true","","1000","1000","500","","","","","","-1","none","true","1867","20470","","","","","","","","","",""
"","","","","","html-button-response","272","534142","0.0-2.0-61.0","5cc70e0861e0b90001c54b87","E1","batch5","","1360.3999998569489","tol_trial_num","<div class = centerbox><p class = center-block-text>problem <strong>18</strong> out of 25 problems</p></div>","0","","","","","","","","","","","","","","","","","","","","","","","","",""
"","","","","","single-stim-button","273","536559","0.0-2.0-62.0-0.0","5cc70e0861e0b90001c54b87","E1","batch5","","2417","tol_tohand","","","","tol_peg_1","2417","2417","0","[[1,0,0],[3,0],[0]]","1","[[3,0,0],[2,0],[1]]","17","0","","","","","","5","","","","","","","","",""
"","","","","","single-stim-button","274","538042","0.0-2.0-62.0-1.0","5cc70e0861e0b90001c54b87","E1","batch5","","1482","tol_toboard","","","","tol_peg_2","1482","1482","0","[[1,0,0],[3,2],[0]]","1","[[3,0,0],[2,0],[1]]","17","0","","","","","","5","","","","","","","","",""
"","","","","","single-stim-button","275","538676","0.0-2.0-62.1-0.1","5cc70e0861e0b90001c54b87","E1","batch5","","633","tol_tohand","","","","tol_peg_1","633","633","0","[[0,0,0],[3,2],[0]]","2","[[3,0,0],[2,0],[1]]","17","0","","","","","","5","","","","","","","","",""
"","","","","","single-stim-button","276","539443","0.0-2.0-62.1-1.1","5cc70e0861e0b90001c54b87","E1","batch5","","766","tol_toboard","","","","tol_peg_3","766","766","0","[[0,0,0],[3,2],[1]]","2","[[3,0,0],[2,0],[1]]","17","0","","","","","","5","","","","","","","","",""
"","","","","","single-stim-button","277","542241","0.0-2.0-62.2-0.2","5cc70e0861e0b90001c54b87","E1","batch5","","2798","tol_tohand","","","","tol_peg_2","2798","2798","0","[[0,0,0],[3,0],[1]]","3","[[3,0,0],[2,0],[1]]","17","0","","","","","","5","","","","","","","","",""
"","","","","","single-stim-button","278","544377","0.0-2.0-62.2-1.2","5cc70e0861e0b90001c54b87","E1","batch5","","2136","tol_toboard","","","","tol_peg_2","2136","2136","0","[[0,0,0],[3,2],[1]]","3","[[3,0,0],[2,0],[1]]","17","0","","","","","","5","","","","","","","","",""
"","","","","","single-stim-button","279","544926","0.0-2.0-62.3-0.3","5cc70e0861e0b90001c54b87","E1","batch5","","549","tol_tohand","","","","tol_peg_3","549","549","0","[[0,0,0],[3,2],[0]]","4","[[3,0,0],[2,0],[1]]","17","0","","","","","","5","","","","","","","","",""
"","","","","","single-stim-button","280","545594","0.0-2.0-62.3-1.3","5cc70e0861e0b90001c54b87","E1","batch5","","668","tol_toboard","","","","tol_peg_1","668","668","0","[[1,0,0],[3,2],[0]]","4","[[3,0,0],[2,0],[1]]","17","0","","","","","","5","","","","","","","","",""
"","","","","","single-stim-button","281","546476","0.0-2.0-62.4-0.4","5cc70e0861e0b90001c54b87","E1","batch5","","882","tol_tohand","","","","tol_peg_2","882","882","0","[[1,0,0],[3,0],[0]]","5","[[3,0,0],[2,0],[1]]","17","0","","","","","","5","","","","","","","","",""
"","","","","","single-stim-button","282","546976","0.0-2.0-62.4-1.4","5cc70e0861e0b90001c54b87","E1","batch5","","500","tol_toboard","","","","tol_peg_1","500","500","0","[[1,2,0],[3,0],[0]]","5","[[3,0,0],[2,0],[1]]","17","0","","","","","","5","","","","","","","","",""
"","","","","","single-stim-button","283","547993","0.0-2.0-62.5-0.5","5cc70e0861e0b90001c54b87","E1","batch5","","1016","tol_tohand","","","","tol_peg_2","1016","1016","0","[[1,2,0],[0,0],[0]]","6","[[3,0,0],[2,0],[1]]","17","0","","","","","","5","","","","","","","","",""
"","","","","","single-stim-button","284","548510","0.0-2.0-62.5-1.5","5cc70e0861e0b90001c54b87","E1","batch5","","516","tol_toboard","","","","tol_peg_3","516","516","0","[[1,2,0],[0,0],[3]]","6","[[3,0,0],[2,0],[1]]","17","0","","","","","","5","","","","","","","","",""
"","","","","","single-stim-button","285","549226","0.0-2.0-62.6-0.6","5cc70e0861e0b90001c54b87","E1","batch5","","716","tol_tohand","","","","tol_peg_1","716","716","0","[[1,0,0],[0,0],[3]]","7","[[3,0,0],[2,0],[1]]","17","0","","","","","","5","","","","","","","","",""
"","","","","","single-stim-button","286","549726","0.0-2.0-62.6-1.6","5cc70e0861e0b90001c54b87","E1","batch5","","500","tol_toboard","","","","tol_peg_2","500","500","0","[[1,0,0],[2,0],[3]]","7","[[3,0,0],[2,0],[1]]","17","0","","","","","","5","","","","","","","","",""
"","","","","","single-stim-button","287","550326","0.0-2.0-62.7-0.7","5cc70e0861e0b90001c54b87","E1","batch5","","600","tol_tohand","","","","tol_peg_3","600","600","0","[[1,0,0],[2,0],[0]]","8","[[3,0,0],[2,0],[1]]","17","0","","","","","","5","","","","","","","","",""
"","","","","","single-stim-button","288","550926","0.0-2.0-62.7-1.7","5cc70e0861e0b90001c54b87","E1","batch5","","600","tol_toboard","","","","tol_peg_2","600","600","0","[[1,0,0],[2,3],[0]]","8","[[3,0,0],[2,0],[1]]","17","0","","","","","","5","","","","","","","","",""
"","","","","","single-stim-button","289","551609","0.0-2.0-62.8-0.8","5cc70e0861e0b90001c54b87","E1","batch5","","683","tol_tohand","","","","tol_peg_1","683","683","0","[[0,0,0],[2,3],[0]]","9","[[3,0,0],[2,0],[1]]","17","0","","","","","","5","","","","","","","","",""
"","","","","","single-stim-button","290","552292","0.0-2.0-62.8-1.8","5cc70e0861e0b90001c54b87","E1","batch5","","682","tol_toboard","","","","tol_peg_3","682","682","0","[[0,0,0],[2,3],[1]]","9","[[3,0,0],[2,0],[1]]","17","0","","","","","","5","","","","","","","","",""
"","","","","","single-stim-button","291","553042","0.0-2.0-62.9-0.9","5cc70e0861e0b90001c54b87","E1","batch5","","749","tol_tohand","","","","tol_peg_2","749","749","0","[[0,0,0],[2,0],[1]]","10","[[3,0,0],[2,0],[1]]","17","0","","","","","","5","","","","","","","","",""
"","","","","","single-stim-button","292","553462","0.0-2.0-62.9-1.9","5cc70e0861e0b90001c54b87","E1","batch5","","418","tol_toboard","","","","tol_peg_1","418","418","0","[[3,0,0],[2,0],[1]]","10","[[3,0,0],[2,0],[1]]","17","0","","","","","","5","","","","","","","","",""
"","","","","","poldrack-single-stim","293","554467","0.0-2.0-63.0","5cc70e0861e0b90001c54b87","E1","batch5","","-1","tol_feedback","","","true","","1000","1000","500","","","","","","-1","none","true","2417","11043","","","","","","","","","",""
"","","","","","html-button-response","294","555411","0.0-2.0-64.0","5cc70e0861e0b90001c54b87","E1","batch5","","942.1000001430511","tol_trial_num","<div class = centerbox><p class = center-block-text>problem <strong>19</strong> out of 25 problems</p></div>","0","","","","","","","","","","","","","","","","","","","","","","","","",""
"","","","","","single-stim-button","295","557143","0.0-2.0-65.0-0.0","5cc70e0861e0b90001c54b87","E1","batch5","","1732","tol_tohand","","","","tol_peg_2","1732","1732","0","[[1,2,0],[0,0],[0]]","1","[[0,0,0],[1,2],[3]]","18","0","","","","","","7","","","","","","","","",""
"","","","","","single-stim-button","296","557726","0.0-2.0-65.0-1.0","5cc70e0861e0b90001c54b87","E1","batch5","","582","tol_toboard","","","","tol_peg_3","582","582","0","[[1,2,0],[0,0],[3]]","1","[[0,0,0],[1,2],[3]]","18","0","","","","","","7","","","","","","","","",""
"","","","","","single-stim-button","297","558293","0.0-2.0-65.1-0.1","5cc70e0861e0b90001c54b87","E1","batch5","","567","tol_tohand","","","","tol_peg_1","567","567","0","[[1,0,0],[0,0],[3]]","2","[[0,0,0],[1,2],[3]]","18","0","","","","","","7","","","","","","","","",""
"","","","","","single-stim-button","298","559042","0.0-2.0-65.1-1.1","5cc70e0861e0b90001c54b87","E1","batch5","","749","tol_toboard","","","","tol_peg_2","749","749","0","[[1,0,0],[2,0],[3]]","2","[[0,0,0],[1,2],[3]]","18","0","","","","","","7","","","","","","","","",""
"","","","","","single-stim-button","299","562945","0.0-2.0-65.2-0.2","5cc70e0861e0b90001c54b87","E1","batch5","","3902","tol_tohand","","","","tol_peg_3","3902","3902","0","[[1,0,0],[2,0],[0]]","3","[[0,0,0],[1,2],[3]]","18","0","","","","","","7","","","","","","","","",""
"","","","","","single-stim-button","300","563693","0.0-2.0-65.2-1.2","5cc70e0861e0b90001c54b87","E1","batch5","","748","tol_toboard","","","","tol_peg_2","748","748","0","[[1,0,0],[2,3],[0]]","3","[[0,0,0],[1,2],[3]]","18","0","","","","","","7","","","","","","","","",""
"","","","","","single-stim-button","301","564643","0.0-2.0-65.3-0.3","5cc70e0861e0b90001c54b87","E1","batch5","","949","tol_tohand","","","","tol_peg_1","949","949","0","[[0,0,0],[2,3],[0]]","4","[[0,0,0],[1,2],[3]]","18","0","","","","","","7","","","","","","","","",""
"","","","","","single-stim-button","302","565195","0.0-2.0-65.3-1.3","5cc70e0861e0b90001c54b87","E1","batch5","","551","tol_toboard","","","","tol_peg_3","551","551","0","[[0,0,0],[2,3],[1]]","4","[[0,0,0],[1,2],[3]]","18","0","","","","","","7","","","","","","","","",""
"","","","","","single-stim-button","303","565826","0.0-2.0-65.4-0.4","5cc70e0861e0b90001c54b87","E1","batch5","","631","tol_tohand","","","","tol_peg_2","631","631","0","[[0,0,0],[2,0],[1]]","5","[[0,0,0],[1,2],[3]]","18","0","","","","","","7","","","","","","","","",""
"","","","","","single-stim-button","304","566459","0.0-2.0-65.4-1.4","5cc70e0861e0b90001c54b87","E1","batch5","","633","tol_toboard","","","","tol_peg_1","633","633","0","[[3,0,0],[2,0],[1]]","5","[[0,0,0],[1,2],[3]]","18","0","","","","","","7","","","","","","","","",""
"","","","","","single-stim-button","305","567059","0.0-2.0-65.5-0.5","5cc70e0861e0b90001c54b87","E1","batch5","","599","tol_tohand","","","","tol_peg_2","599","599","0","[[3,0,0],[0,0],[1]]","6","[[0,0,0],[1,2],[3]]","18","0","","","","","","7","","","","","","","","",""
"","","","","","single-stim-button","306","567692","0.0-2.0-65.5-1.5","5cc70e0861e0b90001c54b87","E1","batch5","","633","tol_toboard","","","","tol_peg_1","633","633","0","[[3,2,0],[0,0],[1]]","6","[[0,0,0],[1,2],[3]]","18","0","","","","","","7","","","","","","","","",""
"","","","","","single-stim-button","307","568293","0.0-2.0-65.6-0.6","5cc70e0861e0b90001c54b87","E1","batch5","","600","tol_tohand","","","","tol_peg_3","600","600","0","[[3,2,0],[0,0],[0]]","7","[[0,0,0],[1,2],[3]]","18","0","","","","","","7","","","","","","","","",""
"","","","","","single-stim-button","308","568826","0.0-2.0-65.6-1.6","5cc70e0861e0b90001c54b87","E1","batch5","","533","tol_toboard","","","","tol_peg_2","533","533","0","[[3,2,0],[1,0],[0]]","7","[[0,0,0],[1,2],[3]]","18","0","","","","","","7","","","","","","","","",""
"","","","","","single-stim-button","309","569343","0.0-2.0-65.7-0.7","5cc70e0861e0b90001c54b87","E1","batch5","","515","tol_tohand","","","","tol_peg_1","515","515","0","[[3,0,0],[1,0],[0]]","8","[[0,0,0],[1,2],[3]]","18","0","","","","","","7","","","","","","","","",""
"","","","","","single-stim-button","310","569859","0.0-2.0-65.7-1.7","5cc70e0861e0b90001c54b87","E1","batch5","","516","tol_toboard","","","","tol_peg_2","516","516","0","[[3,0,0],[1,2],[0]]","8","[[0,0,0],[1,2],[3]]","18","0","","","","","","7","","","","","","","","",""
"","","","","","single-stim-button","311","570526","0.0-2.0-65.8-0.8","5cc70e0861e0b90001c54b87","E1","batch5","","666","tol_tohand","","","","tol_peg_1","666","666","0","[[0,0,0],[1,2],[0]]","9","[[0,0,0],[1,2],[3]]","18","0","","","","","","7","","","","","","","","",""
"","","","","","single-stim-button","312","571192","0.0-2.0-65.8-1.8","5cc70e0861e0b90001c54b87","E1","batch5","","666","tol_toboard","","","","tol_peg_3","666","666","0","[[0,0,0],[1,2],[3]]","9","[[0,0,0],[1,2],[3]]","18","0","","","","","","7","","","","","","","","",""
"","","","","","poldrack-single-stim","313","572195","0.0-2.0-66.0","5cc70e0861e0b90001c54b87","E1","batch5","","-1","tol_feedback","","","true","","1000","1000","500","","","","","","-1","none","true","1732","10161","","","","","","","","","",""
"","","","","","html-button-response","314","573026","0.0-2.0-67.0","5cc70e0861e0b90001c54b87","E1","batch5","","829.5","tol_trial_num","<div class = centerbox><p class = center-block-text>problem <strong>20</strong> out of 25 problems</p></div>","0","","","","","","","","","","","","","","","","","","","","","","","","",""
"","","","","","single-stim-button","315","574444","0.0-2.0-68.0-0.0","5cc70e0861e0b90001c54b87","E1","batch5","","1418","tol_tohand","","","","tol_peg_2","1418","1418","0","[[1,2,0],[0,0],[0]]","1","[[2,1,0],[0,0],[3]]","19","0","","","","","","5","","","","","","","","",""
"","","","","","single-stim-button","316","575376","0.0-2.0-68.0-1.0","5cc70e0861e0b90001c54b87","E1","batch5","","932","tol_toboard","","","","tol_peg_3","932","932","0","[[1,2,0],[0,0],[3]]","1","[[2,1,0],[0,0],[3]]","19","0","","","","","","5","","","","","","","","",""
"","","","","","single-stim-button","317","575942","0.0-2.0-68.1-0.1","5cc70e0861e0b90001c54b87","E1","batch5","","566","tol_tohand","","","","tol_peg_1","566","566","0","[[1,0,0],[0,0],[3]]","2","[[2,1,0],[0,0],[3]]","19","0","","","","","","5","","","","","","","","",""
"","","","","","single-stim-button","318","576610","0.0-2.0-68.1-1.1","5cc70e0861e0b90001c54b87","E1","batch5","","668","tol_toboard","","","","tol_peg_2","668","668","0","[[1,0,0],[2,0],[3]]","2","[[2,1,0],[0,0],[3]]","19","0","","","","","","5","","","","","","","","",""
"","","","","","single-stim-button","319","577098","0.0-2.0-68.2-0.2","5cc70e0861e0b90001c54b87","E1","batch5","","488","tol_tohand","","","","tol_peg_1","488","488","0","[[0,0,0],[2,0],[3]]","3","[[2,1,0],[0,0],[3]]","19","0","","","","","","5","","","","","","","","",""
"","","","","","single-stim-button","320","578210","0.0-2.0-68.2-1.2","5cc70e0861e0b90001c54b87","E1","batch5","","1112","tol_toboard","","","","tol_peg_2","1112","1112","0","[[0,0,0],[2,1],[3]]","3","[[2,1,0],[0,0],[3]]","19","0","","","","","","5","","","","","","","","",""
"","","","","","single-stim-button","321","580611","0.0-2.0-68.3-0.3","5cc70e0861e0b90001c54b87","E1","batch5","","2401","tol_tohand","","","","tol_peg_2","2401","2401","0","[[0,0,0],[2,0],[3]]","4","[[2,1,0],[0,0],[3]]","19","0","","","","","","5","","","","","","","","",""
"","","","","","single-stim-button","322","581342","0.0-2.0-68.3-1.3","5cc70e0861e0b90001c54b87","E1","batch5","","730","tol_toboard","","","","tol_peg_1","730","730","0","[[1,0,0],[2,0],[3]]","4","[[2,1,0],[0,0],[3]]","19","0","","","","","","5","","","","","","","","",""
"","","","","","single-stim-button","323","581826","0.0-2.0-68.4-0.4","5cc70e0861e0b90001c54b87","E1","batch5","","484","tol_tohand","","","","tol_peg_2","484","484","0","[[1,0,0],[0,0],[3]]","5","[[2,1,0],[0,0],[3]]","19","0","","","","","","5","","","","","","","","",""
"","","","","","single-stim-button","324","582247","0.0-2.0-68.4-1.4","5cc70e0861e0b90001c54b87","E1","batch5","","421","tol_toboard","","","","tol_peg_1","421","421","0","[[1,2,0],[0,0],[3]]","5","[[2,1,0],[0,0],[3]]","19","0","","","","","","5","","","","","","","","",""
"","","","","","single-stim-button","325","582976","0.0-2.0-68.5-0.5","5cc70e0861e0b90001c54b87","E1","batch5","","728","tol_tohand","","","","tol_peg_3","728","728","0","[[1,2,0],[0,0],[0]]","6","[[2,1,0],[0,0],[3]]","19","0","","","","","","5","","","","","","","","",""
"","","","","","single-stim-button","326","583609","0.0-2.0-68.5-1.5","5cc70e0861e0b90001c54b87","E1","batch5","","633","tol_toboard","","","","tol_peg_2","633","633","0","[[1,2,0],[3,0],[0]]","6","[[2,1,0],[0,0],[3]]","19","0","","","","","","5","","","","","","","","",""
"","","","","","single-stim-button","327","584193","0.0-2.0-68.6-0.6","5cc70e0861e0b90001c54b87","E1","batch5","","583","tol_tohand","","","","tol_peg_1","583","583","0","[[1,0,0],[3,0],[0]]","7","[[2,1,0],[0,0],[3]]","19","0","","","","","","5","","","","","","","","",""
"","","","","","single-stim-button","328","584613","0.0-2.0-68.6-1.6","5cc70e0861e0b90001c54b87","E1","batch5","","420","tol_toboard","","","","tol_peg_2","420","420","0","[[1,0,0],[3,2],[0]]","7","[[2,1,0],[0,0],[3]]","19","0","","","","","","5","","","","","","","","",""
"","","","","","single-stim-button","329","585209","0.0-2.0-68.7-0.7","5cc70e0861e0b90001c54b87","E1","batch5","","596","tol_tohand","","","","tol_peg_1","596","596","0","[[0,0,0],[3,2],[0]]","8","[[2,1,0],[0,0],[3]]","19","0","","","","","","5","","","","","","","","",""
"","","","","","single-stim-button","330","585765","0.0-2.0-68.7-1.7","5cc70e0861e0b90001c54b87","E1","batch5","","556","tol_toboard","","","","tol_peg_3","556","556","0","[[0,0,0],[3,2],[1]]","8","[[2,1,0],[0,0],[3]]","19","0","","","","","","5","","","","","","","","",""
"","","","","","single-stim-button","331","586245","0.0-2.0-68.8-0.8","5cc70e0861e0b90001c54b87","E1","batch5","","479","tol_tohand","","","","tol_peg_2","479","479","0","[[0,0,0],[3,0],[1]]","9","[[2,1,0],[0,0],[3]]","19","0","","","","","","5","","","","","","","","",""
"","","","","","single-stim-button","332","586776","0.0-2.0-68.8-1.8","5cc70e0861e0b90001c54b87","E1","batch5","","530","tol_toboard","","","","tol_peg_1","530","530","0","[[2,0,0],[3,0],[1]]","9","[[2,1,0],[0,0],[3]]","19","0","","","","","","5","","","","","","","","",""
"","","","","","single-stim-button","333","587376","0.0-2.0-68.9-0.9","5cc70e0861e0b90001c54b87","E1","batch5","","600","tol_tohand","","","","tol_peg_3","600","600","0","[[2,0,0],[3,0],[0]]","10","[[2,1,0],[0,0],[3]]","19","0","","","","","","5","","","","","","","","",""
"","","","","","single-stim-button","334","587943","0.0-2.0-68.9-1.9","5cc70e0861e0b90001c54b87","E1","batch5","","566","tol_toboard","","","","tol_peg_1","566","566","0","[[2,1,0],[3,0],[0]]","10","[[2,1,0],[0,0],[3]]","19","0","","","","","","5","","","","","","","","",""
"","","","","","single-stim-button","335","588579","0.0-2.0-68.10-0.10","5cc70e0861e0b90001c54b87","E1","batch5","","636","tol_tohand","","","","tol_peg_2","636","636","0","[[2,1,0],[0,0],[0]]","11","[[2,1,0],[0,0],[3]]","19","0","","","","","","5","","","","","","","","",""
"","","","","","single-stim-button","336","589160","0.0-2.0-68.10-1.10","5cc70e0861e0b90001c54b87","E1","batch5","","580","tol_toboard","","","","tol_peg_3","580","580","0","[[2,1,0],[0,0],[3]]","11","[[2,1,0],[0,0],[3]]","19","0","","","","","","5","","","","","","","","",""
"","","","","","poldrack-single-stim","337","590162","0.0-2.0-69.0","5cc70e0861e0b90001c54b87","E1","batch5","","-1","tol_feedback","","","true","","1000","1000","500","","","","","","-1","none","true","1418","8979","","","","","","","","","",""
"","","","","","html-button-response","338","591359","0.0-2.0-70.0","5cc70e0861e0b90001c54b87","E1","batch5","","1196.4000000953674","tol_trial_num","<div class = centerbox><p class = center-block-text>problem <strong>21</strong> out of 25 problems</p></div>","0","","","","","","","","","","","","","","","","","","","","","","","","",""
"","","","","","single-stim-button","339","593843","0.0-2.0-71.0-0.0","5cc70e0861e0b90001c54b87","E1","batch5","","2484","tol_tohand","","","","tol_peg_1","2484","2484","0","[[1,0,0],[3,0],[0]]","1","[[3,2,0],[0,0],[1]]","20","0","","","","","","6","","","","","","","","",""
"","","","","","single-stim-button","340","594445","0.0-2.0-71.0-1.0","5cc70e0861e0b90001c54b87","E1","batch5","","601","tol_toboard","","","","tol_peg_2","601","601","0","[[1,0,0],[3,2],[0]]","1","[[3,2,0],[0,0],[1]]","20","0","","","","","","6","","","","","","","","",""
"","","","","","single-stim-button","341","597943","0.0-2.0-71.1-0.1","5cc70e0861e0b90001c54b87","E1","batch5","","3497","tol_tohand","","","","tol_peg_2","3497","3497","0","[[1,0,0],[3,0],[0]]","2","[[3,2,0],[0,0],[1]]","20","0","","","","","","6","","","","","","","","",""
"","","","","","single-stim-button","342","599060","0.0-2.0-71.1-1.1","5cc70e0861e0b90001c54b87","E1","batch5","","1117","tol_toboard","","","","tol_peg_3","1117","1117","0","[[1,0,0],[3,0],[2]]","2","[[3,2,0],[0,0],[1]]","20","0","","","","","","6","","","","","","","","",""
"","","","","","single-stim-button","343","599509","0.0-2.0-71.2-0.2","5cc70e0861e0b90001c54b87","E1","batch5","","449","tol_tohand","","","","tol_peg_2","449","449","0","[[1,0,0],[0,0],[2]]","3","[[3,2,0],[0,0],[1]]","20","0","","","","","","6","","","","","","","","",""
"","","","","","single-stim-button","344","600025","0.0-2.0-71.2-1.2","5cc70e0861e0b90001c54b87","E1","batch5","","515","tol_toboard","","","","tol_peg_1","515","515","0","[[1,3,0],[0,0],[2]]","3","[[3,2,0],[0,0],[1]]","20","0","","","","","","6","","","","","","","","",""
"","","","","","single-stim-button","345","600993","0.0-2.0-71.3-0.3","5cc70e0861e0b90001c54b87","E1","batch5","","967","tol_tohand","","","","tol_peg_3","967","967","0","[[1,3,0],[0,0],[0]]","4","[[3,2,0],[0,0],[1]]","20","0","","","","","","6","","","","","","","","",""
"","","","","","single-stim-button","346","602326","0.0-2.0-71.3-1.3","5cc70e0861e0b90001c54b87","E1","batch5","","1333","tol_toboard","","","","tol_peg_2","1333","1333","0","[[1,3,0],[2,0],[0]]","4","[[3,2,0],[0,0],[1]]","20","0","","","","","","6","","","","","","","","",""
"","","","","","single-stim-button","347","603059","0.0-2.0-71.4-0.4","5cc70e0861e0b90001c54b87","E1","batch5","","733","tol_tohand","","","","tol_peg_1","733","733","0","[[1,0,0],[2,0],[0]]","5","[[3,2,0],[0,0],[1]]","20","0","","","","","","6","","","","","","","","",""
"","","","","","single-stim-button","348","603593","0.0-2.0-71.4-1.4","5cc70e0861e0b90001c54b87","E1","batch5","","533","tol_toboard","","","","tol_peg_2","533","533","0","[[1,0,0],[2,3],[0]]","5","[[3,2,0],[0,0],[1]]","20","0","","","","","","6","","","","","","","","",""
"","","","","","single-stim-button","349","604209","0.0-2.0-71.5-0.5","5cc70e0861e0b90001c54b87","E1","batch5","","616","tol_tohand","","","","tol_peg_1","616","616","0","[[0,0,0],[2,3],[0]]","6","[[3,2,0],[0,0],[1]]","20","0","","","","","","6","","","","","","","","",""
"","","","","","single-stim-button","350","604763","0.0-2.0-71.5-1.5","5cc70e0861e0b90001c54b87","E1","batch5","","552","tol_toboard","","","","tol_peg_3","552","552","0","[[0,0,0],[2,3],[1]]","6","[[3,2,0],[0,0],[1]]","20","0","","","","","","6","","","","","","","","",""
"","","","","","single-stim-button","351","605277","0.0-2.0-71.6-0.6","5cc70e0861e0b90001c54b87","E1","batch5","","513","tol_tohand","","","","tol_peg_2","513","513","0","[[0,0,0],[2,0],[1]]","7","[[3,2,0],[0,0],[1]]","20","0","","","","","","6","","","","","","","","",""
"","","","","","single-stim-button","352","605710","0.0-2.0-71.6-1.6","5cc70e0861e0b90001c54b87","E1","batch5","","432","tol_toboard","","","","tol_peg_1","432","432","0","[[3,0,0],[2,0],[1]]","7","[[3,2,0],[0,0],[1]]","20","0","","","","","","6","","","","","","","","",""
"","","","","","single-stim-button","353","606209","0.0-2.0-71.7-0.7","5cc70e0861e0b90001c54b87","E1","batch5","","499","tol_tohand","","","","tol_peg_2","499","499","0","[[3,0,0],[0,0],[1]]","8","[[3,2,0],[0,0],[1]]","20","0","","","","","","6","","","","","","","","",""
"","","","","","single-stim-button","354","606693","0.0-2.0-71.7-1.7","5cc70e0861e0b90001c54b87","E1","batch5","","483","tol_toboard","","","","tol_peg_1","483","483","0","[[3,2,0],[0,0],[1]]","8","[[3,2,0],[0,0],[1]]","20","0","","","","","","6","","","","","","","","",""
"","","","","","poldrack-single-stim","355","607698","0.0-2.0-72.0","5cc70e0861e0b90001c54b87","E1","batch5","","-1","tol_feedback","","","true","","1000","1000","500","","","","","","-1","none","true","2484","9758","","","","","","","","","",""
"","","","","","html-button-response","356","608609","0.0-2.0-73.0","5cc70e0861e0b90001c54b87","E1","batch5","","910.5","tol_trial_num","<div class = centerbox><p class = center-block-text>problem <strong>22</strong> out of 25 problems</p></div>","0","","","","","","","","","","","","","","","","","","","","","","","","",""
