"success","timeout","failed_images","failed_audio","failed_video","trial_type","trial_index","time_elapsed","internal_node_id","subject_id","study_id","session_id","view_history","rt","task","stimulus","response","correct","mouse_click","stim_duration","block_duration","timing_post_trial","current_position","tol_num_moves_made","tol_target","tol_problem_id","tol_rt","key_press","possible_responses","tol_correct","preplanning","tol_rt_per_trial","tol_min_moves","answer","item","fiar_detect_rt","fiar_detect_correct","total_correct_fiar_detect","post_trial_gap","choices","spm_correct","spm_rt"
"true","false","[]","[]","[]","preload","0","853","0.0-0.0","5ccba9db385fbf0001f55fd6","E1","batch5","","","","","","","","","","","","","","","","","","","","","","","","","","","","","",""
"true","","","","","fullscreen","1","318913","0.0-1.0-0.0","5ccba9db385fbf0001f55fd6","E1","batch5","","","","","","","","","","","","","","","","","","","","","","","","","","","","","",""
"true","","","","","fullscreen","2","324300","0.0-2.0-0.0","5ccba9db385fbf0001f55fd6","E1","batch5","","","","","","","","","","","","","","","","","","","","","","","","","","","","","",""
"","","","","","instructions","3","381744","0.0-2.0-1.0-0.0-0.0","5ccba9db385fbf0001f55fd6","E1","batch5","[{""page_index"":0,""viewing_time"":12736.700000047684},{""page_index"":1,""viewing_time"":5874.899999976158},{""page_index"":2,""viewing_time"":4552.200000047684},{""page_index"":3,""viewing_time"":6876.199999928474},{""page_index"":4,""viewing_time"":1773.3999999761581},{""page_index"":5,""viewing_time"":22190},{""page_index"":6,""viewing_time"":3438}]","57442.10000002384","tol-instructions","","","","","","","","","","","","","","","","","","","","","","","","","","",""
"","","","","","html-button-response","4","383286","0.0-2.0-1.0-1.0-0.0","5ccba9db385fbf0001f55fd6","E1","batch5","","1539.2999999523163","tol_enter_quiz","<p class=block-text> Let's answer a few questions <br>","0","","","","","","","","","","","","","","","","","","","","","","","","",""
"","","","","","html-button-response","5","388947","0.0-2.0-1.0-1.0-1.0","5ccba9db385fbf0001f55fd6","E1","batch5","","5659.100000023842","tol_quiz","<p class = block-text>True or False: You can only move the ball on top of a peg. <br></p>","0","true","","","","","","","","","","","","","","","","","","","","","","","",""
"","","","","","html-button-response","6","390293","0.0-2.0-1.0-1.0-2.0","5ccba9db385fbf0001f55fd6","E1","batch5","","1341.6000000238419","tol_quiz_feedback","<p class = block-text>Correct! You can only move the ball on top of a peg.</p>","0","","","","","","","","","","","","","","","","","","","","","","","","",""
"","","","","","html-button-response","7","393762","0.0-2.0-1.0-1.0-3.0","5ccba9db385fbf0001f55fd6","E1","batch5","","3467.2000000476837","tol_quiz","<p class = block-text>True or False: You should try to match your board with the target board with fewest moves possible. <br></p>","0","true","","","","","","","","","","","","","","","","","","","","","","","",""
"","","","","","html-button-response","8","394842","0.0-2.0-1.0-1.0-4.0","5ccba9db385fbf0001f55fd6","E1","batch5","","1077","tol_quiz_feedback","<p class = block-text>Correct! </p>","0","","","","","","","","","","","","","","","","","","","","","","","","",""
"","","","","","html-button-response","9","396878","0.0-2.0-2.0","5ccba9db385fbf0001f55fd6","E1","batch5","","2032.1000000238419","","<p class=block-text> Now that you've understood the game, let's practice a few easier examples before we start!<br> <br>","0","","","","","","","","","","","","","","","","","","","","","","","","",""
"","","","","","single-stim-button","10","399613","0.0-2.0-3.0-0.0","5ccba9db385fbf0001f55fd6","E1","batch5","","2729","tol_practice","","","","tol_peg_2","2729","2729","0","[[1,2,0],[0,0],[0]]","1","[[1,2,0],[0,0],[3]]","practice","2729","","","","","","","","","","","","","","",""
"","","","","","single-stim-button","11","401182","0.0-2.0-3.0-1.0","5ccba9db385fbf0001f55fd6","E1","batch5","","1566","tol_practice","","","","tol_peg_3","1566","1566","0","[[1,2,0],[0,0],[3]]","1","[[1,2,0],[0,0],[3]]","practice","1566","","","","","","","","","","","","","","",""
"","","","","","poldrack-single-stim","12","402186","0.0-2.0-4.0","5ccba9db385fbf0001f55fd6","E1","batch5","","-1","tol_feedback","","","true","","1000","1000","500","","","","","","-1","none","true","","0","","","","","","","","","",""
"","","","","","single-stim-button","13","405306","0.0-2.0-5.0-0.0","5ccba9db385fbf0001f55fd6","E1","batch5","","3118","tol_practice","","","","tol_peg_1","3118","3118","0","[[1,0,0],[3,0],[0]]","2","[[0,0,0],[3,1],[2]]","practice","3118","","","","","","","","","","","","","","",""
"","","","","","single-stim-button","14","406748","0.0-2.0-5.0-1.0","5ccba9db385fbf0001f55fd6","E1","batch5","","1440","tol_practice","","","","tol_peg_3","1440","1440","0","[[1,0,0],[3,0],[2]]","2","[[0,0,0],[3,1],[2]]","practice","1440","","","","","","","","","","","","","","",""
"","","","","","single-stim-button","15","408029","0.0-2.0-5.1-0.1","5ccba9db385fbf0001f55fd6","E1","batch5","","1277","tol_practice","","","","tol_peg_1","1277","1277","0","[[0,0,0],[3,0],[2]]","3","[[0,0,0],[3,1],[2]]","practice","1277","","","","","","","","","","","","","","",""
"","","","","","single-stim-button","16","409058","0.0-2.0-5.1-1.1","5ccba9db385fbf0001f55fd6","E1","batch5","","1027","tol_practice","","","","tol_peg_2","1027","1027","0","[[0,0,0],[3,1],[2]]","3","[[0,0,0],[3,1],[2]]","practice","1027","","","","","","","","","","","","","","",""
"","","","","","poldrack-single-stim","17","410062","0.0-2.0-6.0","5ccba9db385fbf0001f55fd6","E1","batch5","","-1","tol_feedback","","","true","","1000","1000","500","","","","","","-1","none","true","","0","","","","","","","","","",""
"","","","","","single-stim-button","18","412788","0.0-2.0-7.0-0.0","5ccba9db385fbf0001f55fd6","E1","batch5","","2724","tol_practice","","","","tol_peg_2","2724","2724","0","[[1,2,0],[0,0],[0]]","4","[[1,0,0],[2,0],[3]]","practice","2724","","","","","","","","","","","","","","",""
"","","","","","single-stim-button","19","414266","0.0-2.0-7.0-1.0","5ccba9db385fbf0001f55fd6","E1","batch5","","1477","tol_practice","","","","tol_peg_3","1477","1477","0","[[1,2,0],[0,0],[3]]","4","[[1,0,0],[2,0],[3]]","practice","1477","","","","","","","","","","","","","","",""
"","","","","","single-stim-button","20","415353","0.0-2.0-7.1-0.1","5ccba9db385fbf0001f55fd6","E1","batch5","","1085","tol_practice","","","","tol_peg_1","1085","1085","0","[[1,0,0],[0,0],[3]]","5","[[1,0,0],[2,0],[3]]","practice","1085","","","","","","","","","","","","","","",""
"","","","","","single-stim-button","21","416639","0.0-2.0-7.1-1.1","5ccba9db385fbf0001f55fd6","E1","batch5","","1285","tol_practice","","","","tol_peg_2","1285","1285","0","[[1,0,0],[2,0],[3]]","5","[[1,0,0],[2,0],[3]]","practice","1285","","","","","","","","","","","","","","",""
"","","","","","poldrack-single-stim","22","417643","0.0-2.0-8.0","5ccba9db385fbf0001f55fd6","E1","batch5","","-1","tol_feedback","","","true","","1000","1000","500","","","","","","-1","none","true","","0","","","","","","","","","",""
"","","","","","html-button-response","23","424641","0.0-2.0-9.0","5ccba9db385fbf0001f55fd6","E1","batch5","","6996","tol_instruction","<div class = centerbox><p class = center-block-text>Great job! You are done with practice trials<br>You are about to start official trials.<br> <br> Problem <strong>1</strong> out of 25 problems</p></div>","0","","","","","","","","","","","","","","","","","","","","","","","","",""
"","","","","","single-stim-button","24","432376","0.0-2.0-10.0-0.0","5ccba9db385fbf0001f55fd6","E1","batch5","","6729","tol_tohand","","","","tol_peg_1","6729","6729","0","[[1,0,0],[3,0],[0]]","1","[[1,3,0],[2,0],[0]]","0","0","","","","","","3","","","","","","","","",""
"","","","","","single-stim-button","25","433980","0.0-2.0-10.0-1.0","5ccba9db385fbf0001f55fd6","E1","batch5","","1601","tol_toboard","","","","tol_peg_3","1601","1601","0","[[1,0,0],[3,0],[2]]","1","[[1,3,0],[2,0],[0]]","0","0","","","","","","3","","","","","","","","",""
"","","","","","single-stim-button","26","435191","0.0-2.0-10.1-0.1","5ccba9db385fbf0001f55fd6","E1","batch5","","1209","tol_tohand","","","","tol_peg_2","1209","1209","0","[[1,0,0],[0,0],[2]]","2","[[1,3,0],[2,0],[0]]","0","0","","","","","","3","","","","","","","","",""
"","","","","","single-stim-button","27","436386","0.0-2.0-10.1-1.1","5ccba9db385fbf0001f55fd6","E1","batch5","","1194","tol_toboard","","","","tol_peg_1","1194","1194","0","[[1,3,0],[0,0],[2]]","2","[[1,3,0],[2,0],[0]]","0","0","","","","","","3","","","","","","","","",""
"","","","","","single-stim-button","28","437718","0.0-2.0-10.2-0.2","5ccba9db385fbf0001f55fd6","E1","batch5","","1329","tol_tohand","","","","tol_peg_3","1329","1329","0","[[1,3,0],[0,0],[0]]","3","[[1,3,0],[2,0],[0]]","0","0","","","","","","3","","","","","","","","",""
"","","","","","single-stim-button","29","439426","0.0-2.0-10.2-1.2","5ccba9db385fbf0001f55fd6","E1","batch5","","1707","tol_toboard","","","","tol_peg_2","1707","1707","0","[[1,3,0],[2,0],[0]]","3","[[1,3,0],[2,0],[0]]","0","0","","","","","","3","","","","","","","","",""
"","","","","","poldrack-single-stim","30","440430","0.0-2.0-11.0","5ccba9db385fbf0001f55fd6","E1","batch5","","-1","tol_feedback","","","true","","1000","1000","500","","","","","","-1","none","true","6729","9267","","","","","","","","","",""
"","","","","","html-button-response","31","441547","0.0-2.0-12.0","5ccba9db385fbf0001f55fd6","E1","batch5","","1115.2999999523163","tol_trial_num","<div class = centerbox><p class = center-block-text>problem <strong>2</strong> out of 25 problems</p></div>","0","","","","","","","","","","","","","","","","","","","","","","","","",""
"","","","","","single-stim-button","32","458361","0.0-2.0-13.0-0.0","5ccba9db385fbf0001f55fd6","E1","batch5","","16812","tol_tohand","","","","tol_peg_1","16812","16812","0","[[1,0,0],[3,0],[0]]","1","[[2,1,3],[0,0],[0]]","1","0","","","","","","5","","","","","","","","",""
"","","","","","single-stim-button","33","463315","0.0-2.0-13.0-1.0","5ccba9db385fbf0001f55fd6","E1","batch5","","4952","tol_toboard","","","","tol_peg_2","4952","4952","0","[[1,0,0],[3,2],[0]]","1","[[2,1,3],[0,0],[0]]","1","0","","","","","","5","","","","","","","","",""
"","","","","","single-stim-button","34","464603","0.0-2.0-13.1-0.1","5ccba9db385fbf0001f55fd6","E1","batch5","","1284","tol_tohand","","","","tol_peg_1","1284","1284","0","[[0,0,0],[3,2],[0]]","2","[[2,1,3],[0,0],[0]]","1","0","","","","","","5","","","","","","","","",""
"","","","","","single-stim-button","35","465874","0.0-2.0-13.1-1.1","5ccba9db385fbf0001f55fd6","E1","batch5","","1269","tol_toboard","","","","tol_peg_3","1269","1269","0","[[0,0,0],[3,2],[1]]","2","[[2,1,3],[0,0],[0]]","1","0","","","","","","5","","","","","","","","",""
"","","","","","single-stim-button","36","466855","0.0-2.0-13.2-0.2","5ccba9db385fbf0001f55fd6","E1","batch5","","979","tol_tohand","","","","tol_peg_2","979","979","0","[[0,0,0],[3,0],[1]]","3","[[2,1,3],[0,0],[0]]","1","0","","","","","","5","","","","","","","","",""
"","","","","","single-stim-button","37","468025","0.0-2.0-13.2-1.2","5ccba9db385fbf0001f55fd6","E1","batch5","","1168","tol_toboard","","","","tol_peg_1","1168","1168","0","[[2,0,0],[3,0],[1]]","3","[[2,1,3],[0,0],[0]]","1","0","","","","","","5","","","","","","","","",""
"","","","","","single-stim-button","38","469186","0.0-2.0-13.3-0.3","5ccba9db385fbf0001f55fd6","E1","batch5","","1160","tol_tohand","","","","tol_peg_3","1160","1160","0","[[2,0,0],[3,0],[0]]","4","[[2,1,3],[0,0],[0]]","1","0","","","","","","5","","","","","","","","",""
"","","","","","single-stim-button","39","470747","0.0-2.0-13.3-1.3","5ccba9db385fbf0001f55fd6","E1","batch5","","1559","tol_toboard","","","","tol_peg_1","1559","1559","0","[[2,1,0],[3,0],[0]]","4","[[2,1,3],[0,0],[0]]","1","0","","","","","","5","","","","","","","","",""
"","","","","","single-stim-button","40","472181","0.0-2.0-13.4-0.4","5ccba9db385fbf0001f55fd6","E1","batch5","","1431","tol_tohand","","","","tol_peg_2","1431","1431","0","[[2,1,0],[0,0],[0]]","5","[[2,1,3],[0,0],[0]]","1","0","","","","","","5","","","","","","","","",""
"","","","","","single-stim-button","41","473651","0.0-2.0-13.4-1.4","5ccba9db385fbf0001f55fd6","E1","batch5","","1468","tol_toboard","","","","tol_peg_1","1468","1468","0","[[2,1,3],[0,0],[0]]","5","[[2,1,3],[0,0],[0]]","1","0","","","","","","5","","","","","","","","",""
"","","","","","poldrack-single-stim","42","474654","0.0-2.0-14.0","5ccba9db385fbf0001f55fd6","E1","batch5","","-1","tol_feedback","","","true","","1000","1000","500","","","","","","-1","none","true","16812","21666","","","","","","","","","",""
"","","","","","html-button-response","43","475981","0.0-2.0-15.0","5ccba9db385fbf0001f55fd6","E1","batch5","","1325.6000000238419","tol_trial_num","<div class = centerbox><p class = center-block-text>problem <strong>3</strong> out of 25 problems</p></div>","0","","","","","","","","","","","","","","","","","","","","","","","","",""
"","","","","","single-stim-button","44","483917","0.0-2.0-16.0-0.0","5ccba9db385fbf0001f55fd6","E1","batch5","","7934","tol_tohand","","","","tol_peg_1","7934","7934","0","[[2,0,0],[0,0],[1]]","1","[[1,2,0],[3,0],[0]]","2","0","","","","","","4","","","","","","","","",""
"","","","","","single-stim-button","45","485111","0.0-2.0-16.0-1.0","5ccba9db385fbf0001f55fd6","E1","batch5","","1193","tol_toboard","","","","tol_peg_2","1193","1193","0","[[2,0,0],[3,0],[1]]","1","[[1,2,0],[3,0],[0]]","2","0","","","","","","4","","","","","","","","",""
"","","","","","single-stim-button","46","486128","0.0-2.0-16.1-0.1","5ccba9db385fbf0001f55fd6","E1","batch5","","1015","tol_tohand","","","","tol_peg_1","1015","1015","0","[[0,0,0],[3,0],[1]]","2","[[1,2,0],[3,0],[0]]","2","0","","","","","","4","","","","","","","","",""
"","","","","","single-stim-button","47","488123","0.0-2.0-16.1-1.1","5ccba9db385fbf0001f55fd6","E1","batch5","","1994","tol_toboard","","","","tol_peg_2","1994","1994","0","[[0,0,0],[3,2],[1]]","2","[[1,2,0],[3,0],[0]]","2","0","","","","","","4","","","","","","","","",""
"","","","","","single-stim-button","48","488926","0.0-2.0-16.2-0.2","5ccba9db385fbf0001f55fd6","E1","batch5","","801","tol_tohand","","","","tol_peg_3","801","801","0","[[0,0,0],[3,2],[0]]","3","[[1,2,0],[3,0],[0]]","2","0","","","","","","4","","","","","","","","",""
"","","","","","single-stim-button","49","490229","0.0-2.0-16.2-1.2","5ccba9db385fbf0001f55fd6","E1","batch5","","1301","tol_toboard","","","","tol_peg_1","1301","1301","0","[[1,0,0],[3,2],[0]]","3","[[1,2,0],[3,0],[0]]","2","0","","","","","","4","","","","","","","","",""
"","","","","","single-stim-button","50","491496","0.0-2.0-16.3-0.3","5ccba9db385fbf0001f55fd6","E1","batch5","","1265","tol_tohand","","","","tol_peg_2","1265","1265","0","[[1,0,0],[3,0],[0]]","4","[[1,2,0],[3,0],[0]]","2","0","","","","","","4","","","","","","","","",""
"","","","","","single-stim-button","51","492692","0.0-2.0-16.3-1.3","5ccba9db385fbf0001f55fd6","E1","batch5","","1194","tol_toboard","","","","tol_peg_1","1194","1194","0","[[1,2,0],[3,0],[0]]","4","[[1,2,0],[3,0],[0]]","2","0","","","","","","4","","","","","","","","",""
"","","","","","poldrack-single-stim","52","493698","0.0-2.0-17.0","5ccba9db385fbf0001f55fd6","E1","batch5","","-1","tol_feedback","","","true","","1000","1000","500","","","","","","-1","none","true","7934","11015","","","","","","","","","",""
"","","","","","html-button-response","53","500859","0.0-2.0-18.0","5ccba9db385fbf0001f55fd6","E1","batch5","","7159.5","tol_trial_num","<div class = centerbox><p class = center-block-text>problem <strong>4</strong> out of 25 problems</p></div>","0","","","","","","","","","","","","","","","","","","","","","","","","",""
"","","","","","single-stim-button","54","509466","0.0-2.0-19.0-0.0","5ccba9db385fbf0001f55fd6","E1","batch5","","8604","tol_tohand","","","","tol_peg_2","8604","8604","0","[[3,0,0],[2,0],[0]]","1","[[3,0,0],[1,0],[2]]","3","0","","","","","","3","","","","","","","","",""
"","","","","","single-stim-button","55","510851","0.0-2.0-19.0-1.0","5ccba9db385fbf0001f55fd6","E1","batch5","","1383","tol_toboard","","","","tol_peg_1","1383","1383","0","[[3,1,0],[2,0],[0]]","1","[[3,0,0],[1,0],[2]]","3","0","","","","","","3","","","","","","","","",""
"","","","","","single-stim-button","56","511936","0.0-2.0-19.1-0.1","5ccba9db385fbf0001f55fd6","E1","batch5","","1082","tol_tohand","","","","tol_peg_2","1082","1082","0","[[3,1,0],[0,0],[0]]","2","[[3,0,0],[1,0],[2]]","3","0","","","","","","3","","","","","","","","",""
"","","","","","single-stim-button","57","513096","0.0-2.0-19.1-1.1","5ccba9db385fbf0001f55fd6","E1","batch5","","1158","tol_toboard","","","","tol_peg_3","1158","1158","0","[[3,1,0],[0,0],[2]]","2","[[3,0,0],[1,0],[2]]","3","0","","","","","","3","","","","","","","","",""
"","","","","","single-stim-button","58","514336","0.0-2.0-19.2-0.2","5ccba9db385fbf0001f55fd6","E1","batch5","","1239","tol_tohand","","","","tol_peg_1","1239","1239","0","[[3,0,0],[0,0],[2]]","3","[[3,0,0],[1,0],[2]]","3","0","","","","","","3","","","","","","","","",""
"","","","","","single-stim-button","59","515538","0.0-2.0-19.2-1.2","5ccba9db385fbf0001f55fd6","E1","batch5","","1201","tol_toboard","","","","tol_peg_2","1201","1201","0","[[3,0,0],[1,0],[2]]","3","[[3,0,0],[1,0],[2]]","3","0","","","","","","3","","","","","","","","",""
"","","","","","poldrack-single-stim","60","516541","0.0-2.0-20.0","5ccba9db385fbf0001f55fd6","E1","batch5","","-1","tol_feedback","","","true","","1000","1000","500","","","","","","-1","none","true","8604","10925","","","","","","","","","",""
"","","","","","html-button-response","61","522298","0.0-2.0-21.0","5ccba9db385fbf0001f55fd6","E1","batch5","","5755.700000047684","tol_trial_num","<div class = centerbox><p class = center-block-text>problem <strong>5</strong> out of 25 problems</p></div>","0","","","","","","","","","","","","","","","","","","","","","","","","",""
"","","","","","single-stim-button","62","647746","0.0-2.0-22.0-0.0","5ccba9db385fbf0001f55fd6","E1","batch5","","125445","tol_tohand","","","","tol_peg_1","125445","125445","0","[[0,0,0],[2,0],[3]]","1","[[0,0,0],[1,2],[3]]","4","0","","","","","","7","","","","","","","","",""
"","","","","","single-stim-button","63","649116","0.0-2.0-22.0-1.0","5ccba9db385fbf0001f55fd6","E1","batch5","","1368","tol_toboard","","","","tol_peg_2","1368","1368","0","[[0,0,0],[2,1],[3]]","1","[[0,0,0],[1,2],[3]]","4","0","","","","","","7","","","","","","","","",""
"","","","","","single-stim-button","64","650189","0.0-2.0-22.1-0.1","5ccba9db385fbf0001f55fd6","E1","batch5","","1071","tol_tohand","","","","tol_peg_3","1071","1071","0","[[0,0,0],[2,1],[0]]","2","[[0,0,0],[1,2],[3]]","4","0","","","","","","7","","","","","","","","",""
"","","","","","single-stim-button","65","651622","0.0-2.0-22.1-1.1","5ccba9db385fbf0001f55fd6","E1","batch5","","1432","tol_toboard","","","","tol_peg_1","1432","1432","0","[[3,0,0],[2,1],[0]]","2","[[0,0,0],[1,2],[3]]","4","0","","","","","","7","","","","","","","","",""
"","","","","","single-stim-button","66","652768","0.0-2.0-22.2-0.2","5ccba9db385fbf0001f55fd6","E1","batch5","","1144","tol_tohand","","","","tol_peg_2","1144","1144","0","[[3,0,0],[2,0],[0]]","3","[[0,0,0],[1,2],[3]]","4","0","","","","","","7","","","","","","","","",""
"","","","","","single-stim-button","67","653994","0.0-2.0-22.2-1.2","5ccba9db385fbf0001f55fd6","E1","batch5","","1224","tol_toboard","","","","tol_peg_3","1224","1224","0","[[3,0,0],[2,0],[1]]","3","[[0,0,0],[1,2],[3]]","4","0","","","","","","7","","","","","","","","",""
"","","","","","single-stim-button","68","655294","0.0-2.0-22.3-0.3","5ccba9db385fbf0001f55fd6","E1","batch5","","1297","tol_tohand","","","","tol_peg_2","1297","1297","0","[[3,0,0],[0,0],[1]]","4","[[0,0,0],[1,2],[3]]","4","0","","","","","","7","","","","","","","","",""
"","","","","","single-stim-button","69","656879","0.0-2.0-22.3-1.3","5ccba9db385fbf0001f55fd6","E1","batch5","","1582","tol_toboard","","","","tol_peg_1","1582","1582","0","[[3,2,0],[0,0],[1]]","4","[[0,0,0],[1,2],[3]]","4","0","","","","","","7","","","","","","","","",""
"","","","","","single-stim-button","70","657988","0.0-2.0-22.4-0.4","5ccba9db385fbf0001f55fd6","E1","batch5","","1108","tol_tohand","","","","tol_peg_3","1108","1108","0","[[3,2,0],[0,0],[0]]","5","[[0,0,0],[1,2],[3]]","4","0","","","","","","7","","","","","","","","",""
"","","","","","single-stim-button","71","659352","0.0-2.0-22.4-1.4","5ccba9db385fbf0001f55fd6","E1","batch5","","1363","tol_toboard","","","","tol_peg_2","1363","1363","0","[[3,2,0],[1,0],[0]]","5","[[0,0,0],[1,2],[3]]","4","0","","","","","","7","","","","","","","","",""
"","","","","","single-stim-button","72","660460","0.0-2.0-22.5-0.5","5ccba9db385fbf0001f55fd6","E1","batch5","","1106","tol_tohand","","","","tol_peg_1","1106","1106","0","[[3,0,0],[1,0],[0]]","6","[[0,0,0],[1,2],[3]]","4","0","","","","","","7","","","","","","","","",""
"","","","","","single-stim-button","73","661648","0.0-2.0-22.5-1.5","5ccba9db385fbf0001f55fd6","E1","batch5","","1186","tol_toboard","","","","tol_peg_2","1186","1186","0","[[3,0,0],[1,2],[0]]","6","[[0,0,0],[1,2],[3]]","4","0","","","","","","7","","","","","","","","",""
"","","","","","single-stim-button","74","662571","0.0-2.0-22.6-0.6","5ccba9db385fbf0001f55fd6","E1","batch5","","921","tol_tohand","","","","tol_peg_1","921","921","0","[[0,0,0],[1,2],[0]]","7","[[0,0,0],[1,2],[3]]","4","0","","","","","","7","","","","","","","","",""
"","","","","","single-stim-button","75","663832","0.0-2.0-22.6-1.6","5ccba9db385fbf0001f55fd6","E1","batch5","","1259","tol_toboard","","","","tol_peg_3","1259","1259","0","[[0,0,0],[1,2],[3]]","7","[[0,0,0],[1,2],[3]]","4","0","","","","","","7","","","","","","","","",""
"","","","","","poldrack-single-stim","76","664836","0.0-2.0-23.0","5ccba9db385fbf0001f55fd6","E1","batch5","","-1","tol_feedback","","","true","","1000","1000","500","","","","","","-1","none","true","125445","132092","","","","","","","","","",""
"","","","","","html-button-response","77","671554","0.0-2.0-24.0","5ccba9db385fbf0001f55fd6","E1","batch5","","6716.400000095367","tol_trial_num","<div class = centerbox><p class = center-block-text>problem <strong>6</strong> out of 25 problems</p></div>","0","","","","","","","","","","","","","","","","","","","","","","","","",""
"","","","","","single-stim-button","78","702465","0.0-2.0-25.0-0.0","5ccba9db385fbf0001f55fd6","E1","batch5","","30909","tol_tohand","","","","tol_peg_3","30909","30909","0","[[0,0,0],[1,2],[0]]","1","[[1,0,0],[2,3],[0]]","5","0","","","","","","6","","","","","","","","",""
"","","","","","single-stim-button","79","704540","0.0-2.0-25.0-1.0","5ccba9db385fbf0001f55fd6","E1","batch5","","2073","tol_toboard","","","","tol_peg_1","2073","2073","0","[[3,0,0],[1,2],[0]]","1","[[1,0,0],[2,3],[0]]","5","0","","","","","","6","","","","","","","","",""
"","","","","","single-stim-button","80","705731","0.0-2.0-25.1-0.1","5ccba9db385fbf0001f55fd6","E1","batch5","","1188","tol_tohand","","","","tol_peg_2","1188","1188","0","[[3,0,0],[1,0],[0]]","2","[[1,0,0],[2,3],[0]]","5","0","","","","","","6","","","","","","","","",""
"","","","","","single-stim-button","81","707466","0.0-2.0-25.1-1.1","5ccba9db385fbf0001f55fd6","E1","batch5","","1733","tol_toboard","","","","tol_peg_1","1733","1733","0","[[3,2,0],[1,0],[0]]","2","[[1,0,0],[2,3],[0]]","5","0","","","","","","6","","","","","","","","",""
"","","","","","single-stim-button","82","708535","0.0-2.0-25.2-0.2","5ccba9db385fbf0001f55fd6","E1","batch5","","1067","tol_tohand","","","","tol_peg_2","1067","1067","0","[[3,2,0],[0,0],[0]]","3","[[1,0,0],[2,3],[0]]","5","0","","","","","","6","","","","","","","","",""
"","","","","","single-stim-button","83","709953","0.0-2.0-25.2-1.2","5ccba9db385fbf0001f55fd6","E1","batch5","","1417","tol_toboard","","","","tol_peg_3","1417","1417","0","[[3,2,0],[0,0],[1]]","3","[[1,0,0],[2,3],[0]]","5","0","","","","","","6","","","","","","","","",""
"","","","","","single-stim-button","84","711222","0.0-2.0-25.3-0.3","5ccba9db385fbf0001f55fd6","E1","batch5","","1267","tol_tohand","","","","tol_peg_1","1267","1267","0","[[3,0,0],[0,0],[1]]","4","[[1,0,0],[2,3],[0]]","5","0","","","","","","6","","","","","","","","",""
"","","","","","single-stim-button","85","712382","0.0-2.0-25.3-1.3","5ccba9db385fbf0001f55fd6","E1","batch5","","1159","tol_toboard","","","","tol_peg_2","1159","1159","0","[[3,0,0],[2,0],[1]]","4","[[1,0,0],[2,3],[0]]","5","0","","","","","","6","","","","","","","","",""
"","","","","","single-stim-button","86","713382","0.0-2.0-25.4-0.4","5ccba9db385fbf0001f55fd6","E1","batch5","","998","tol_tohand","","","","tol_peg_1","998","998","0","[[0,0,0],[2,0],[1]]","5","[[1,0,0],[2,3],[0]]","5","0","","","","","","6","","","","","","","","",""
"","","","","","single-stim-button","87","714432","0.0-2.0-25.4-1.4","5ccba9db385fbf0001f55fd6","E1","batch5","","1048","tol_toboard","","","","tol_peg_2","1048","1048","0","[[0,0,0],[2,3],[1]]","5","[[1,0,0],[2,3],[0]]","5","0","","","","","","6","","","","","","","","",""
"","","","","","single-stim-button","88","715384","0.0-2.0-25.5-0.5","5ccba9db385fbf0001f55fd6","E1","batch5","","950","tol_tohand","","","","tol_peg_3","950","950","0","[[0,0,0],[2,3],[0]]","6","[[1,0,0],[2,3],[0]]","5","0","","","","","","6","","","","","","","","",""
"","","","","","single-stim-button","89","716797","0.0-2.0-25.5-1.5","5ccba9db385fbf0001f55fd6","E1","batch5","","1411","tol_toboard","","","","tol_peg_1","1411","1411","0","[[1,0,0],[2,3],[0]]","6","[[1,0,0],[2,3],[0]]","5","0","","","","","","6","","","","","","","","",""
"","","","","","poldrack-single-stim","90","717802","0.0-2.0-26.0","5ccba9db385fbf0001f55fd6","E1","batch5","","-1","tol_feedback","","","true","","1000","1000","500","","","","","","-1","none","true","30909","36379","","","","","","","","","",""
"","","","","","html-button-response","91","725450","0.0-2.0-27.0","5ccba9db385fbf0001f55fd6","E1","batch5","","7647","tol_trial_num","<div class = centerbox><p class = center-block-text>problem <strong>7</strong> out of 25 problems</p></div>","0","","","","","","","","","","","","","","","","","","","","","","","","",""
"","","","","","single-stim-button","92","747210","0.0-2.0-28.0-0.0","5ccba9db385fbf0001f55fd6","E1","batch5","","21757","tol_tohand","","","","tol_peg_3","21757","21757","0","[[2,1,0],[0,0],[0]]","1","[[1,2,0],[3,0],[0]]","6","0","","","","","","5","","","","","","","","",""
"","","","","","single-stim-button","93","749900","0.0-2.0-28.0-1.0","5ccba9db385fbf0001f55fd6","E1","batch5","","2687","tol_toboard","","","","tol_peg_2","2687","2687","0","[[2,1,0],[3,0],[0]]","1","[[1,2,0],[3,0],[0]]","6","0","","","","","","5","","","","","","","","",""
"","","","","","single-stim-button","94","750877","0.0-2.0-28.1-0.1","5ccba9db385fbf0001f55fd6","E1","batch5","","975","tol_tohand","","","","tol_peg_1","975","975","0","[[2,0,0],[3,0],[0]]","2","[[1,2,0],[3,0],[0]]","6","0","","","","","","5","","","","","","","","",""
"","","","","","single-stim-button","95","752530","0.0-2.0-28.1-1.1","5ccba9db385fbf0001f55fd6","E1","batch5","","1652","tol_toboard","","","","tol_peg_3","1652","1652","0","[[2,0,0],[3,0],[1]]","2","[[1,2,0],[3,0],[0]]","6","0","","","","","","5","","","","","","","","",""
"","","","","","single-stim-button","96","754074","0.0-2.0-28.2-0.2","5ccba9db385fbf0001f55fd6","E1","batch5","","1542","tol_tohand","","","","tol_peg_1","1542","1542","0","[[0,0,0],[3,0],[1]]","3","[[1,2,0],[3,0],[0]]","6","0","","","","","","5","","","","","","","","",""
"","","","","","single-stim-button","97","755292","0.0-2.0-28.2-1.2","5ccba9db385fbf0001f55fd6","E1","batch5","","1216","tol_toboard","","","","tol_peg_2","1216","1216","0","[[0,0,0],[3,2],[1]]","3","[[1,2,0],[3,0],[0]]","6","0","","","","","","5","","","","","","","","",""
"","","","","","single-stim-button","98","756469","0.0-2.0-28.3-0.3","5ccba9db385fbf0001f55fd6","E1","batch5","","1175","tol_tohand","","","","tol_peg_3","1175","1175","0","[[0,0,0],[3,2],[0]]","4","[[1,2,0],[3,0],[0]]","6","0","","","","","","5","","","","","","","","",""
"","","","","","single-stim-button","99","757922","0.0-2.0-28.3-1.3","5ccba9db385fbf0001f55fd6","E1","batch5","","1451","tol_toboard","","","","tol_peg_1","1451","1451","0","[[1,0,0],[3,2],[0]]","4","[[1,2,0],[3,0],[0]]","6","0","","","","","","5","","","","","","","","",""
"","","","","","single-stim-button","100","758819","0.0-2.0-28.4-0.4","5ccba9db385fbf0001f55fd6","E1","batch5","","896","tol_tohand","","","","tol_peg_2","896","896","0","[[1,0,0],[3,0],[0]]","5","[[1,2,0],[3,0],[0]]","6","0","","","","","","5","","","","","","","","",""
"","","","","","single-stim-button","101","760154","0.0-2.0-28.4-1.4","5ccba9db385fbf0001f55fd6","E1","batch5","","1334","tol_toboard","","","","tol_peg_1","1334","1334","0","[[1,2,0],[3,0],[0]]","5","[[1,2,0],[3,0],[0]]","6","0","","","","","","5","","","","","","","","",""
"","","","","","poldrack-single-stim","102","761157","0.0-2.0-29.0","5ccba9db385fbf0001f55fd6","E1","batch5","","-1","tol_feedback","","","true","","1000","1000","500","","","","","","-1","none","true","21757","26345","","","","","","","","","",""
"","","","","","html-button-response","103","762209","0.0-2.0-30.0","5ccba9db385fbf0001f55fd6","E1","batch5","","1051","tol_trial_num","<div class = centerbox><p class = center-block-text>problem <strong>8</strong> out of 25 problems</p></div>","0","","","","","","","","","","","","","","","","","","","","","","","","",""
"","","","","","single-stim-button","104","775964","0.0-2.0-31.0-0.0","5ccba9db385fbf0001f55fd6","E1","batch5","","13753","tol_tohand","","","","tol_peg_3","13753","13753","0","[[0,0,0],[2,3],[0]]","1","[[1,2,0],[3,0],[0]]","7","0","","","","","","4","","","","","","","","",""
"","","","","","single-stim-button","105","777545","0.0-2.0-31.0-1.0","5ccba9db385fbf0001f55fd6","E1","batch5","","1579","tol_toboard","","","","tol_peg_1","1579","1579","0","[[1,0,0],[2,3],[0]]","1","[[1,2,0],[3,0],[0]]","7","0","","","","","","4","","","","","","","","",""
"","","","","","single-stim-button","106","778526","0.0-2.0-31.1-0.1","5ccba9db385fbf0001f55fd6","E1","batch5","","979","tol_tohand","","","","tol_peg_2","979","979","0","[[1,0,0],[2,0],[0]]","2","[[1,2,0],[3,0],[0]]","7","0","","","","","","4","","","","","","","","",""
"","","","","","single-stim-button","107","780140","0.0-2.0-31.1-1.1","5ccba9db385fbf0001f55fd6","E1","batch5","","1613","tol_toboard","","","","tol_peg_3","1613","1613","0","[[1,0,0],[2,0],[3]]","2","[[1,2,0],[3,0],[0]]","7","0","","","","","","4","","","","","","","","",""
"","","","","","single-stim-button","108","781141","0.0-2.0-31.2-0.2","5ccba9db385fbf0001f55fd6","E1","batch5","","1000","tol_tohand","","","","tol_peg_2","1000","1000","0","[[1,0,0],[0,0],[3]]","3","[[1,2,0],[3,0],[0]]","7","0","","","","","","4","","","","","","","","",""
"","","","","","single-stim-button","109","782387","0.0-2.0-31.2-1.2","5ccba9db385fbf0001f55fd6","E1","batch5","","1244","tol_toboard","","","","tol_peg_1","1244","1244","0","[[1,2,0],[0,0],[3]]","3","[[1,2,0],[3,0],[0]]","7","0","","","","","","4","","","","","","","","",""
"","","","","","single-stim-button","110","783729","0.0-2.0-31.3-0.3","5ccba9db385fbf0001f55fd6","E1","batch5","","1340","tol_tohand","","","","tol_peg_3","1340","1340","0","[[1,2,0],[0,0],[0]]","4","[[1,2,0],[3,0],[0]]","7","0","","","","","","4","","","","","","","","",""
"","","","","","single-stim-button","111","784939","0.0-2.0-31.3-1.3","5ccba9db385fbf0001f55fd6","E1","batch5","","1208","tol_toboard","","","","tol_peg_2","1208","1208","0","[[1,2,0],[3,0],[0]]","4","[[1,2,0],[3,0],[0]]","7","0","","","","","","4","","","","","","","","",""
"","","","","","poldrack-single-stim","112","785942","0.0-2.0-32.0","5ccba9db385fbf0001f55fd6","E1","batch5","","-1","tol_feedback","","","true","","1000","1000","500","","","","","","-1","none","true","13753","17072","","","","","","","","","",""
"","","","","","html-button-response","113","788374","0.0-2.0-33.0","5ccba9db385fbf0001f55fd6","E1","batch5","","2430.4000000953674","tol_trial_num","<div class = centerbox><p class = center-block-text>problem <strong>9</strong> out of 25 problems</p></div>","0","","","","","","","","","","","","","","","","","","","","","","","","",""
"","","","","","single-stim-button","114","815274","0.0-2.0-34.0-0.0","5ccba9db385fbf0001f55fd6","E1","batch5","","26898","tol_tohand","","","","tol_peg_3","26898","26898","0","[[3,2,0],[0,0],[0]]","1","[[2,1,0],[3,0],[0]]","8","0","","","","","","6","","","","","","","","",""
"","","","","","single-stim-button","115","816506","0.0-2.0-34.0-1.0","5ccba9db385fbf0001f55fd6","E1","batch5","","1230","tol_toboard","","","","tol_peg_2","1230","1230","0","[[3,2,0],[1,0],[0]]","1","[[2,1,0],[3,0],[0]]","8","0","","","","","","6","","","","","","","","",""
"","","","","","single-stim-button","116","817378","0.0-2.0-34.1-0.1","5ccba9db385fbf0001f55fd6","E1","batch5","","870","tol_tohand","","","","tol_peg_1","870","870","0","[[3,0,0],[1,0],[0]]","2","[[2,1,0],[3,0],[0]]","8","0","","","","","","6","","","","","","","","",""
"","","","","","single-stim-button","117","818618","0.0-2.0-34.1-1.1","5ccba9db385fbf0001f55fd6","E1","batch5","","1238","tol_toboard","","","","tol_peg_2","1238","1238","0","[[3,0,0],[1,2],[0]]","2","[[2,1,0],[3,0],[0]]","8","0","","","","","","6","","","","","","","","",""
"","","","","","single-stim-button","118","819751","0.0-2.0-34.2-0.2","5ccba9db385fbf0001f55fd6","E1","batch5","","1131","tol_tohand","","","","tol_peg_1","1131","1131","0","[[0,0,0],[1,2],[0]]","3","[[2,1,0],[3,0],[0]]","8","0","","","","","","6","","","","","","","","",""
"","","","","","single-stim-button","119","821234","0.0-2.0-34.2-1.2","5ccba9db385fbf0001f55fd6","E1","batch5","","1482","tol_toboard","","","","tol_peg_3","1482","1482","0","[[0,0,0],[1,2],[3]]","3","[[2,1,0],[3,0],[0]]","8","0","","","","","","6","","","","","","","","",""
"","","","","","single-stim-button","120","822542","0.0-2.0-34.3-0.3","5ccba9db385fbf0001f55fd6","E1","batch5","","1306","tol_tohand","","","","tol_peg_2","1306","1306","0","[[0,0,0],[1,0],[3]]","4","[[2,1,0],[3,0],[0]]","8","0","","","","","","6","","","","","","","","",""
"","","","","","single-stim-button","121","823611","0.0-2.0-34.3-1.3","5ccba9db385fbf0001f55fd6","E1","batch5","","1067","tol_toboard","","","","tol_peg_1","1067","1067","0","[[2,0,0],[1,0],[3]]","4","[[2,1,0],[3,0],[0]]","8","0","","","","","","6","","","","","","","","",""
"","","","","","single-stim-button","122","824632","0.0-2.0-34.4-0.4","5ccba9db385fbf0001f55fd6","E1","batch5","","1019","tol_tohand","","","","tol_peg_2","1019","1019","0","[[2,0,0],[0,0],[3]]","5","[[2,1,0],[3,0],[0]]","8","0","","","","","","6","","","","","","","","",""
"","","","","","single-stim-button","123","825484","0.0-2.0-34.4-1.4","5ccba9db385fbf0001f55fd6","E1","batch5","","850","tol_toboard","","","","tol_peg_1","850","850","0","[[2,1,0],[0,0],[3]]","5","[[2,1,0],[3,0],[0]]","8","0","","","","","","6","","","","","","","","",""
"","","","","","single-stim-button","124","826415","0.0-2.0-34.5-0.5","5ccba9db385fbf0001f55fd6","E1","batch5","","930","tol_tohand","","","","tol_peg_3","930","930","0","[[2,1,0],[0,0],[0]]","6","[[2,1,0],[3,0],[0]]","8","0","","","","","","6","","","","","","","","",""
"","","","","","single-stim-button","125","828428","0.0-2.0-34.5-1.5","5ccba9db385fbf0001f55fd6","E1","batch5","","2012","tol_toboard","","","","tol_peg_2","2012","2012","0","[[2,1,0],[3,0],[0]]","6","[[2,1,0],[3,0],[0]]","8","0","","","","","","6","","","","","","","","",""
"","","","","","poldrack-single-stim","126","829432","0.0-2.0-35.0","5ccba9db385fbf0001f55fd6","E1","batch5","","-1","tol_feedback","","","true","","1000","1000","500","","","","","","-1","none","true","26898","32154","","","","","","","","","",""
"","","","","","html-button-response","127","831017","0.0-2.0-36.0","5ccba9db385fbf0001f55fd6","E1","batch5","","1583.1999999284744","tol_trial_num","<div class = centerbox><p class = center-block-text>problem <strong>10</strong> out of 25 problems</p></div>","0","","","","","","","","","","","","","","","","","","","","","","","","",""
"","","","","","single-stim-button","128","841082","0.0-2.0-37.0-0.0","5ccba9db385fbf0001f55fd6","E1","batch5","","10063","tol_tohand","","","","tol_peg_2","10063","10063","0","[[3,0,0],[0,0],[2]]","1","[[3,0,0],[2,1],[0]]","9","0","","","","","","3","","","","","","","","",""
"","","","","","single-stim-button","129","842842","0.0-2.0-37.0-1.0","5ccba9db385fbf0001f55fd6","E1","batch5","","1759","tol_toboard","","","","tol_peg_1","1759","1759","0","[[3,1,0],[0,0],[2]]","1","[[3,0,0],[2,1],[0]]","9","0","","","","","","3","","","","","","","","",""
"","","","","","single-stim-button","130","843955","0.0-2.0-37.1-0.1","5ccba9db385fbf0001f55fd6","E1","batch5","","1111","tol_tohand","","","","tol_peg_3","1111","1111","0","[[3,1,0],[0,0],[0]]","2","[[3,0,0],[2,1],[0]]","9","0","","","","","","3","","","","","","","","",""
"","","","","","single-stim-button","131","844901","0.0-2.0-37.1-1.1","5ccba9db385fbf0001f55fd6","E1","batch5","","944","tol_toboard","","","","tol_peg_2","944","944","0","[[3,1,0],[2,0],[0]]","2","[[3,0,0],[2,1],[0]]","9","0","","","","","","3","","","","","","","","",""
"","","","","","single-stim-button","132","845914","0.0-2.0-37.2-0.2","5ccba9db385fbf0001f55fd6","E1","batch5","","1011","tol_tohand","","","","tol_peg_1","1011","1011","0","[[3,0,0],[2,0],[0]]","3","[[3,0,0],[2,1],[0]]","9","0","","","","","","3","","","","","","","","",""
"","","","","","single-stim-button","133","846887","0.0-2.0-37.2-1.2","5ccba9db385fbf0001f55fd6","E1","batch5","","971","tol_toboard","","","","tol_peg_2","971","971","0","[[3,0,0],[2,1],[0]]","3","[[3,0,0],[2,1],[0]]","9","0","","","","","","3","","","","","","","","",""
"","","","","","poldrack-single-stim","134","847890","0.0-2.0-38.0","5ccba9db385fbf0001f55fd6","E1","batch5","","-1","tol_feedback","","","true","","1000","1000","500","","","","","","-1","none","true","10063","12185","","","","","","","","","",""
"","","","","","html-button-response","135","874277","0.0-2.0-39.0","5ccba9db385fbf0001f55fd6","E1","batch5","","26385.799999952316","tol_trial_num","<div class = centerbox><p class = center-block-text>problem <strong>11</strong> out of 25 problems</p></div>","0","","","","","","","","","","","","","","","","","","","","","","","","",""
"","","","","","single-stim-button","136","920236","0.0-2.0-40.0-0.0","5ccba9db385fbf0001f55fd6","E1","batch5","","45956","tol_tohand","","","","tol_peg_1","45956","45956","0","[[1,0,0],[3,0],[0]]","1","[[2,0,0],[1,3],[0]]","10","0","","","","","","6","","","","","","","","",""
"","","","","","single-stim-button","137","921284","0.0-2.0-40.0-1.0","5ccba9db385fbf0001f55fd6","E1","batch5","","1046","tol_toboard","","","","tol_peg_2","1046","1046","0","[[1,0,0],[3,2],[0]]","1","[[2,0,0],[1,3],[0]]","10","0","","","","","","6","","","","","","","","",""
"","","","","","single-stim-button","138","922467","0.0-2.0-40.1-0.1","5ccba9db385fbf0001f55fd6","E1","batch5","","1181","tol_tohand","","","","tol_peg_1","1181","1181","0","[[0,0,0],[3,2],[0]]","2","[[2,0,0],[1,3],[0]]","10","0","","","","","","6","","","","","","","","",""
"","","","","","single-stim-button","139","923705","0.0-2.0-40.1-1.1","5ccba9db385fbf0001f55fd6","E1","batch5","","1237","tol_toboard","","","","tol_peg_3","1237","1237","0","[[0,0,0],[3,2],[1]]","2","[[2,0,0],[1,3],[0]]","10","0","","","","","","6","","","","","","","","",""
"","","","","","single-stim-button","140","925496","0.0-2.0-40.2-0.2","5ccba9db385fbf0001f55fd6","E1","batch5","","1789","tol_tohand","","","","tol_peg_2","1789","1789","0","[[0,0,0],[3,0],[1]]","3","[[2,0,0],[1,3],[0]]","10","0","","","","","","6","","","","","","","","",""
"","","","","","single-stim-button","141","927448","0.0-2.0-40.2-1.2","5ccba9db385fbf0001f55fd6","E1","batch5","","1950","tol_toboard","","","","tol_peg_1","1950","1950","0","[[2,0,0],[3,0],[1]]","3","[[2,0,0],[1,3],[0]]","10","0","","","","","","6","","","","","","","","",""
"","","","","","single-stim-button","142","928468","0.0-2.0-40.3-0.3","5ccba9db385fbf0001f55fd6","E1","batch5","","1018","tol_tohand","","","","tol_peg_2","1018","1018","0","[[2,0,0],[0,0],[1]]","4","[[2,0,0],[1,3],[0]]","10","0","","","","","","6","","","","","","","","",""
"","","","","","single-stim-button","143","929630","0.0-2.0-40.3-1.3","5ccba9db385fbf0001f55fd6","E1","batch5","","1160","tol_toboard","","","","tol_peg_1","1160","1160","0","[[2,3,0],[0,0],[1]]","4","[[2,0,0],[1,3],[0]]","10","0","","","","","","6","","","","","","","","",""
"","","","","","single-stim-button","144","931102","0.0-2.0-40.4-0.4","5ccba9db385fbf0001f55fd6","E1","batch5","","1471","tol_tohand","","","","tol_peg_3","1471","1471","0","[[2,3,0],[0,0],[0]]","5","[[2,0,0],[1,3],[0]]","10","0","","","","","","6","","","","","","","","",""
"","","","","","single-stim-button","145","932258","0.0-2.0-40.4-1.4","5ccba9db385fbf0001f55fd6","E1","batch5","","1154","tol_toboard","","","","tol_peg_2","1154","1154","0","[[2,3,0],[1,0],[0]]","5","[[2,0,0],[1,3],[0]]","10","0","","","","","","6","","","","","","","","",""
"","","","","","single-stim-button","146","933832","0.0-2.0-40.5-0.5","5ccba9db385fbf0001f55fd6","E1","batch5","","1572","tol_tohand","","","","tol_peg_1","1572","1572","0","[[2,0,0],[1,0],[0]]","6","[[2,0,0],[1,3],[0]]","10","0","","","","","","6","","","","","","","","",""
"","","","","","single-stim-button","147","934781","0.0-2.0-40.5-1.5","5ccba9db385fbf0001f55fd6","E1","batch5","","947","tol_toboard","","","","tol_peg_2","947","947","0","[[2,0,0],[1,3],[0]]","6","[[2,0,0],[1,3],[0]]","10","0","","","","","","6","","","","","","","","",""
"","","","","","poldrack-single-stim","148","935785","0.0-2.0-41.0","5ccba9db385fbf0001f55fd6","E1","batch5","","-1","tol_feedback","","","true","","1000","1000","500","","","","","","-1","none","true","45956","52987","","","","","","","","","",""
"","","","","","html-button-response","149","937166","0.0-2.0-42.0","5ccba9db385fbf0001f55fd6","E1","batch5","","1379.7000000476837","tol_trial_num","<div class = centerbox><p class = center-block-text>problem <strong>12</strong> out of 25 problems</p></div>","0","","","","","","","","","","","","","","","","","","","","","","","","",""
"","","","","","single-stim-button","150","962341","0.0-2.0-43.0-0.0","5ccba9db385fbf0001f55fd6","E1","batch5","","25173","tol_tohand","","","","tol_peg_1","25173","25173","0","[[1,0,0],[3,0],[0]]","1","[[2,3,0],[0,0],[1]]","11","0","","","","","","4","","","","","","","","",""
"","","","","","single-stim-button","151","964004","0.0-2.0-43.0-1.0","5ccba9db385fbf0001f55fd6","E1","batch5","","1660","tol_toboard","","","","tol_peg_2","1660","1660","0","[[1,0,0],[3,2],[0]]","1","[[2,3,0],[0,0],[1]]","11","0","","","","","","4","","","","","","","","",""
"","","","","","single-stim-button","152","964773","0.0-2.0-43.1-0.1","5ccba9db385fbf0001f55fd6","E1","batch5","","767","tol_tohand","","","","tol_peg_1","767","767","0","[[0,0,0],[3,2],[0]]","2","[[2,3,0],[0,0],[1]]","11","0","","","","","","4","","","","","","","","",""
"","","","","","single-stim-button","153","965997","0.0-2.0-43.1-1.1","5ccba9db385fbf0001f55fd6","E1","batch5","","1223","tol_toboard","","","","tol_peg_3","1223","1223","0","[[0,0,0],[3,2],[1]]","2","[[2,3,0],[0,0],[1]]","11","0","","","","","","4","","","","","","","","",""
"","","","","","single-stim-button","154","966969","0.0-2.0-43.2-0.2","5ccba9db385fbf0001f55fd6","E1","batch5","","968","tol_tohand","","","","tol_peg_2","968","968","0","[[0,0,0],[3,0],[1]]","3","[[2,3,0],[0,0],[1]]","11","0","","","","","","4","","","","","","","","",""
"","","","","","single-stim-button","155","967976","0.0-2.0-43.2-1.2","5ccba9db385fbf0001f55fd6","E1","batch5","","1006","tol_toboard","","","","tol_peg_1","1006","1006","0","[[2,0,0],[3,0],[1]]","3","[[2,3,0],[0,0],[1]]","11","0","","","","","","4","","","","","","","","",""
"","","","","","single-stim-button","156","968866","0.0-2.0-43.3-0.3","5ccba9db385fbf0001f55fd6","E1","batch5","","888","tol_tohand","","","","tol_peg_2","888","888","0","[[2,0,0],[0,0],[1]]","4","[[2,3,0],[0,0],[1]]","11","0","","","","","","4","","","","","","","","",""
"","","","","","single-stim-button","157","969876","0.0-2.0-43.3-1.3","5ccba9db385fbf0001f55fd6","E1","batch5","","1009","tol_toboard","","","","tol_peg_1","1009","1009","0","[[2,3,0],[0,0],[1]]","4","[[2,3,0],[0,0],[1]]","11","0","","","","","","4","","","","","","","","",""
"","","","","","poldrack-single-stim","158","970880","0.0-2.0-44.0","5ccba9db385fbf0001f55fd6","E1","batch5","","-1","tol_feedback","","","true","","1000","1000","500","","","","","","-1","none","true","25173","27796","","","","","","","","","",""
"","","","","","html-button-response","159","973300","0.0-2.0-45.0","5ccba9db385fbf0001f55fd6","E1","batch5","","2418.0999999046326","tol_trial_num","<div class = centerbox><p class = center-block-text>problem <strong>13</strong> out of 25 problems</p></div>","0","","","","","","","","","","","","","","","","","","","","","","","","",""
"","","","","","single-stim-button","160","995587","0.0-2.0-46.0-0.0","5ccba9db385fbf0001f55fd6","E1","batch5","","22285","tol_tohand","","","","tol_peg_2","22285","22285","0","[[1,2,0],[0,0],[0]]","1","[[0,0,0],[2,3],[1]]","12","0","","","","","","4","","","","","","","","",""
"","","","","","single-stim-button","161","996769","0.0-2.0-46.0-1.0","5ccba9db385fbf0001f55fd6","E1","batch5","","1179","tol_toboard","","","","tol_peg_3","1179","1179","0","[[1,2,0],[0,0],[3]]","1","[[0,0,0],[2,3],[1]]","12","0","","","","","","4","","","","","","","","",""
"","","","","","single-stim-button","162","998001","0.0-2.0-46.1-0.1","5ccba9db385fbf0001f55fd6","E1","batch5","","1230","tol_tohand","","","","tol_peg_1","1230","1230","0","[[1,0,0],[0,0],[3]]","2","[[0,0,0],[2,3],[1]]","12","0","","","","","","4","","","","","","","","",""
"","","","","","single-stim-button","163","999387","0.0-2.0-46.1-1.1","5ccba9db385fbf0001f55fd6","E1","batch5","","1385","tol_toboard","","","","tol_peg_2","1385","1385","0","[[1,0,0],[2,0],[3]]","2","[[0,0,0],[2,3],[1]]","12","0","","","","","","4","","","","","","","","",""
"","","","","","single-stim-button","164","1000420","0.0-2.0-46.2-0.2","5ccba9db385fbf0001f55fd6","E1","batch5","","1031","tol_tohand","","","","tol_peg_3","1031","1031","0","[[1,0,0],[2,0],[0]]","3","[[0,0,0],[2,3],[1]]","12","0","","","","","","4","","","","","","","","",""
"","","","","","single-stim-button","165","1001491","0.0-2.0-46.2-1.2","5ccba9db385fbf0001f55fd6","E1","batch5","","1069","tol_toboard","","","","tol_peg_2","1069","1069","0","[[1,0,0],[2,3],[0]]","3","[[0,0,0],[2,3],[1]]","12","0","","","","","","4","","","","","","","","",""
"","","","","","single-stim-button","166","1002387","0.0-2.0-46.3-0.3","5ccba9db385fbf0001f55fd6","E1","batch5","","894","tol_tohand","","","","tol_peg_1","894","894","0","[[0,0,0],[2,3],[0]]","4","[[0,0,0],[2,3],[1]]","12","0","","","","","","4","","","","","","","","",""
"","","","","","single-stim-button","167","1003442","0.0-2.0-46.3-1.3","5ccba9db385fbf0001f55fd6","E1","batch5","","1054","tol_toboard","","","","tol_peg_3","1054","1054","0","[[0,0,0],[2,3],[1]]","4","[[0,0,0],[2,3],[1]]","12","0","","","","","","4","","","","","","","","",""
"","","","","","poldrack-single-stim","168","1004446","0.0-2.0-47.0","5ccba9db385fbf0001f55fd6","E1","batch5","","-1","tol_feedback","","","true","","1000","1000","500","","","","","","-1","none","true","22285","25440","","","","","","","","","",""
"","","","","","html-button-response","169","1006811","0.0-2.0-48.0","5ccba9db385fbf0001f55fd6","E1","batch5","","2363.2000000476837","attention_check","<p class = block-text>How many balls are in your board<br></p>","1","true","","","","","","","","","","","","","","","","","","","","","","","",""
"","","","","","html-button-response","170","1030292","0.0-2.0-49.0","5ccba9db385fbf0001f55fd6","E1","batch5","","23479.200000047684","tol_trial_num","<div class = centerbox><p class = center-block-text>problem <strong>14</strong> out of 25 problems</p></div>","0","","","","","","","","","","","","","","","","","","","","","","","","",""
"","","","","","single-stim-button","171","1037546","0.0-2.0-50.0-0.0","5ccba9db385fbf0001f55fd6","E1","batch5","","7252","tol_tohand","","","","tol_peg_1","7252","7252","0","[[2,0,0],[3,0],[0]]","1","[[1,2,0],[3,0],[0]]","13","0","","","","","","4","","","","","","","","",""
"","","","","","single-stim-button","172","1041217","0.0-2.0-50.0-1.0","5ccba9db385fbf0001f55fd6","E1","batch5","","3669","tol_toboard","","","","tol_peg_3","3669","3669","0","[[2,0,0],[3,0],[1]]","1","[[1,2,0],[3,0],[0]]","13","0","","","","","","4","","","","","","","","",""
"","","","","","single-stim-button","173","1042477","0.0-2.0-50.1-0.1","5ccba9db385fbf0001f55fd6","E1","batch5","","1257","tol_tohand","","","","tol_peg_1","1257","1257","0","[[0,0,0],[3,0],[1]]","2","[[1,2,0],[3,0],[0]]","13","0","","","","","","4","","","","","","","","",""
"","","","","","single-stim-button","174","1043673","0.0-2.0-50.1-1.1","5ccba9db385fbf0001f55fd6","E1","batch5","","1195","tol_toboard","","","","tol_peg_2","1195","1195","0","[[0,0,0],[3,2],[1]]","2","[[1,2,0],[3,0],[0]]","13","0","","","","","","4","","","","","","","","",""
"","","","","","single-stim-button","175","1044579","0.0-2.0-50.2-0.2","5ccba9db385fbf0001f55fd6","E1","batch5","","904","tol_tohand","","","","tol_peg_3","904","904","0","[[0,0,0],[3,2],[0]]","3","[[1,2,0],[3,0],[0]]","13","0","","","","","","4","","","","","","","","",""
"","","","","","single-stim-button","176","1045732","0.0-2.0-50.2-1.2","5ccba9db385fbf0001f55fd6","E1","batch5","","1152","tol_toboard","","","","tol_peg_1","1152","1152","0","[[1,0,0],[3,2],[0]]","3","[[1,2,0],[3,0],[0]]","13","0","","","","","","4","","","","","","","","",""
"","","","","","single-stim-button","177","1046567","0.0-2.0-50.3-0.3","5ccba9db385fbf0001f55fd6","E1","batch5","","833","tol_tohand","","","","tol_peg_2","833","833","0","[[1,0,0],[3,0],[0]]","4","[[1,2,0],[3,0],[0]]","13","0","","","","","","4","","","","","","","","",""
"","","","","","single-stim-button","178","1047797","0.0-2.0-50.3-1.3","5ccba9db385fbf0001f55fd6","E1","batch5","","1228","tol_toboard","","","","tol_peg_1","1228","1228","0","[[1,2,0],[3,0],[0]]","4","[[1,2,0],[3,0],[0]]","13","0","","","","","","4","","","","","","","","",""
"","","","","","poldrack-single-stim","179","1048800","0.0-2.0-51.0","5ccba9db385fbf0001f55fd6","E1","batch5","","-1","tol_feedback","","","true","","1000","1000","500","","","","","","-1","none","true","7252","10246","","","","","","","","","",""
"","","","","","html-button-response","180","1049874","0.0-2.0-52.0","5ccba9db385fbf0001f55fd6","E1","batch5","","1072.9000000953674","tol_trial_num","<div class = centerbox><p class = center-block-text>problem <strong>15</strong> out of 25 problems</p></div>","0","","","","","","","","","","","","","","","","","","","","","","","","",""
"","","","","","single-stim-button","181","1056071","0.0-2.0-53.0-0.0","5ccba9db385fbf0001f55fd6","E1","batch5","","6195","tol_tohand","","","","tol_peg_1","6195","6195","0","[[1,0,0],[3,0],[0]]","1","[[2,0,0],[3,0],[1]]","14","0","","","","","","3","","","","","","","","",""
"","","","","","single-stim-button","182","1057121","0.0-2.0-53.0-1.0","5ccba9db385fbf0001f55fd6","E1","batch5","","1047","tol_toboard","","","","tol_peg_2","1047","1047","0","[[1,0,0],[3,2],[0]]","1","[[2,0,0],[3,0],[1]]","14","0","","","","","","3","","","","","","","","",""
"","","","","","single-stim-button","183","1058374","0.0-2.0-53.1-0.1","5ccba9db385fbf0001f55fd6","E1","batch5","","1251","tol_tohand","","","","tol_peg_1","1251","1251","0","[[0,0,0],[3,2],[0]]","2","[[2,0,0],[3,0],[1]]","14","0","","","","","","3","","","","","","","","",""
"","","","","","single-stim-button","184","1059707","0.0-2.0-53.1-1.1","5ccba9db385fbf0001f55fd6","E1","batch5","","1333","tol_toboard","","","","tol_peg_3","1333","1333","0","[[0,0,0],[3,2],[1]]","2","[[2,0,0],[3,0],[1]]","14","0","","","","","","3","","","","","","","","",""
"","","","","","single-stim-button","185","1060953","0.0-2.0-53.2-0.2","5ccba9db385fbf0001f55fd6","E1","batch5","","1244","tol_tohand","","","","tol_peg_2","1244","1244","0","[[0,0,0],[3,0],[1]]","3","[[2,0,0],[3,0],[1]]","14","0","","","","","","3","","","","","","","","",""
"","","","","","single-stim-button","186","1062137","0.0-2.0-53.2-1.2","5ccba9db385fbf0001f55fd6","E1","batch5","","1182","tol_toboard","","","","tol_peg_1","1182","1182","0","[[2,0,0],[3,0],[1]]","3","[[2,0,0],[3,0],[1]]","14","0","","","","","","3","","","","","","","","",""
"","","","","","poldrack-single-stim","187","1063140","0.0-2.0-54.0","5ccba9db385fbf0001f55fd6","E1","batch5","","-1","tol_feedback","","","true","","1000","1000","500","","","","","","-1","none","true","6195","8690","","","","","","","","","",""
"","","","","","html-button-response","188","1064598","0.0-2.0-55.0","5ccba9db385fbf0001f55fd6","E1","batch5","","1457.0999999046326","tol_trial_num","<div class = centerbox><p class = center-block-text>problem <strong>16</strong> out of 25 problems</p></div>","0","","","","","","","","","","","","","","","","","","","","","","","","",""
"","","","","","single-stim-button","189","1180465","0.0-2.0-56.0-0.0","5ccba9db385fbf0001f55fd6","E1","batch5","","115865","tol_tohand","","","","tol_peg_2","115865","115865","0","[[0,0,0],[2,0],[1]]","1","[[2,3,0],[1,0],[0]]","15","0","","","","","","7","","","","","","","","",""
"","","","","","single-stim-button","190","1182309","0.0-2.0-56.0-1.0","5ccba9db385fbf0001f55fd6","E1","batch5","","1841","tol_toboard","","","","tol_peg_1","1841","1841","0","[[3,0,0],[2,0],[1]]","1","[[2,3,0],[1,0],[0]]","15","0","","","","","","7","","","","","","","","",""
"","","","","","single-stim-button","191","1183343","0.0-2.0-56.1-0.1","5ccba9db385fbf0001f55fd6","E1","batch5","","1032","tol_tohand","","","","tol_peg_3","1032","1032","0","[[3,0,0],[2,0],[0]]","2","[[2,3,0],[1,0],[0]]","15","0","","","","","","7","","","","","","","","",""
"","","","","","single-stim-button","192","1184657","0.0-2.0-56.1-1.1","5ccba9db385fbf0001f55fd6","E1","batch5","","1312","tol_toboard","","","","tol_peg_1","1312","1312","0","[[3,1,0],[2,0],[0]]","2","[[2,3,0],[1,0],[0]]","15","0","","","","","","7","","","","","","","","",""
"","","","","","single-stim-button","193","1185553","0.0-2.0-56.2-0.2","5ccba9db385fbf0001f55fd6","E1","batch5","","894","tol_tohand","","","","tol_peg_2","894","894","0","[[3,1,0],[0,0],[0]]","3","[[2,3,0],[1,0],[0]]","15","0","","","","","","7","","","","","","","","",""
"","","","","","single-stim-button","194","1186364","0.0-2.0-56.2-1.2","5ccba9db385fbf0001f55fd6","E1","batch5","","808","tol_toboard","","","","tol_peg_3","808","808","0","[[3,1,0],[0,0],[2]]","3","[[2,3,0],[1,0],[0]]","15","0","","","","","","7","","","","","","","","",""
"","","","","","single-stim-button","195","1188627","0.0-2.0-56.3-0.3","5ccba9db385fbf0001f55fd6","E1","batch5","","2261","tol_tohand","","","","tol_peg_1","2261","2261","0","[[3,0,0],[0,0],[2]]","4","[[2,3,0],[1,0],[0]]","15","0","","","","","","7","","","","","","","","",""
"","","","","","single-stim-button","196","1189795","0.0-2.0-56.3-1.3","5ccba9db385fbf0001f55fd6","E1","batch5","","1166","tol_toboard","","","","tol_peg_2","1166","1166","0","[[3,0,0],[1,0],[2]]","4","[[2,3,0],[1,0],[0]]","15","0","","","","","","7","","","","","","","","",""
"","","","","","single-stim-button","197","1190850","0.0-2.0-56.4-0.4","5ccba9db385fbf0001f55fd6","E1","batch5","","1054","tol_tohand","","","","tol_peg_1","1054","1054","0","[[0,0,0],[1,0],[2]]","5","[[2,3,0],[1,0],[0]]","15","0","","","","","","7","","","","","","","","",""
"","","","","","single-stim-button","198","1191891","0.0-2.0-56.4-1.4","5ccba9db385fbf0001f55fd6","E1","batch5","","1039","tol_toboard","","","","tol_peg_2","1039","1039","0","[[0,0,0],[1,3],[2]]","5","[[2,3,0],[1,0],[0]]","15","0","","","","","","7","","","","","","","","",""
"","","","","","single-stim-button","199","1192870","0.0-2.0-56.5-0.5","5ccba9db385fbf0001f55fd6","E1","batch5","","976","tol_tohand","","","","tol_peg_3","976","976","0","[[0,0,0],[1,3],[0]]","6","[[2,3,0],[1,0],[0]]","15","0","","","","","","7","","","","","","","","",""
"","","","","","single-stim-button","200","1194220","0.0-2.0-56.5-1.5","5ccba9db385fbf0001f55fd6","E1","batch5","","1348","tol_toboard","","","","tol_peg_1","1348","1348","0","[[2,0,0],[1,3],[0]]","6","[[2,3,0],[1,0],[0]]","15","0","","","","","","7","","","","","","","","",""
"","","","","","single-stim-button","201","1195653","0.0-2.0-56.6-0.6","5ccba9db385fbf0001f55fd6","E1","batch5","","1431","tol_tohand","","","","tol_peg_2","1431","1431","0","[[2,0,0],[1,0],[0]]","7","[[2,3,0],[1,0],[0]]","15","0","","","","","","7","","","","","","","","",""
"","","","","","single-stim-button","202","1197001","0.0-2.0-56.6-1.6","5ccba9db385fbf0001f55fd6","E1","batch5","","1346","tol_toboard","","","","tol_peg_1","1346","1346","0","[[2,3,0],[1,0],[0]]","7","[[2,3,0],[1,0],[0]]","15","0","","","","","","7","","","","","","","","",""
"","","","","","poldrack-single-stim","203","1198006","0.0-2.0-57.0","5ccba9db385fbf0001f55fd6","E1","batch5","","-1","tol_feedback","","","true","","1000","1000","500","","","","","","-1","none","true","115865","123513","","","","","","","","","",""
"","","","","","html-button-response","204","1199561","0.0-2.0-58.0","5ccba9db385fbf0001f55fd6","E1","batch5","","1553.4000000953674","tol_trial_num","<div class = centerbox><p class = center-block-text>problem <strong>17</strong> out of 25 problems</p></div>","0","","","","","","","","","","","","","","","","","","","","","","","","",""
"","","","","","single-stim-button","205","1214385","0.0-2.0-59.0-0.0","5ccba9db385fbf0001f55fd6","E1","batch5","","14822","tol_tohand","","","","tol_peg_2","14822","14822","0","[[1,2,0],[0,0],[0]]","1","[[3,1,0],[2,0],[0]]","16","0","","","","","","5","","","","","","","","",""
"","","","","","single-stim-button","206","1215533","0.0-2.0-59.0-1.0","5ccba9db385fbf0001f55fd6","E1","batch5","","1146","tol_toboard","","","","tol_peg_3","1146","1146","0","[[1,2,0],[0,0],[3]]","1","[[3,1,0],[2,0],[0]]","16","0","","","","","","5","","","","","","","","",""
"","","","","","single-stim-button","207","1217043","0.0-2.0-59.1-0.1","5ccba9db385fbf0001f55fd6","E1","batch5","","1508","tol_tohand","","","","tol_peg_1","1508","1508","0","[[1,0,0],[0,0],[3]]","2","[[3,1,0],[2,0],[0]]","16","0","","","","","","5","","","","","","","","",""
"","","","","","single-stim-button","208","1218448","0.0-2.0-59.1-1.1","5ccba9db385fbf0001f55fd6","E1","batch5","","1404","tol_toboard","","","","tol_peg_2","1404","1404","0","[[1,0,0],[2,0],[3]]","2","[[3,1,0],[2,0],[0]]","16","0","","","","","","5","","","","","","","","",""
"","","","","","single-stim-button","209","1219811","0.0-2.0-59.2-0.2","5ccba9db385fbf0001f55fd6","E1","batch5","","1361","tol_tohand","","","","tol_peg_1","1361","1361","0","[[0,0,0],[2,0],[3]]","3","[[3,1,0],[2,0],[0]]","16","0","","","","","","5","","","","","","","","",""
"","","","","","single-stim-button","210","1220797","0.0-2.0-59.2-1.2","5ccba9db385fbf0001f55fd6","E1","batch5","","985","tol_toboard","","","","tol_peg_2","985","985","0","[[0,0,0],[2,1],[3]]","3","[[3,1,0],[2,0],[0]]","16","0","","","","","","5","","","","","","","","",""
"","","","","","single-stim-button","211","1221967","0.0-2.0-59.3-0.3","5ccba9db385fbf0001f55fd6","E1","batch5","","1167","tol_tohand","","","","tol_peg_3","1167","1167","0","[[0,0,0],[2,1],[0]]","4","[[3,1,0],[2,0],[0]]","16","0","","","","","","5","","","","","","","","",""
"","","","","","single-stim-button","212","1223399","0.0-2.0-59.3-1.3","5ccba9db385fbf0001f55fd6","E1","batch5","","1430","tol_toboard","","","","tol_peg_1","1430","1430","0","[[3,0,0],[2,1],[0]]","4","[[3,1,0],[2,0],[0]]","16","0","","","","","","5","","","","","","","","",""
"","","","","","single-stim-button","213","1224684","0.0-2.0-59.4-0.4","5ccba9db385fbf0001f55fd6","E1","batch5","","1283","tol_tohand","","","","tol_peg_2","1283","1283","0","[[3,0,0],[2,0],[0]]","5","[[3,1,0],[2,0],[0]]","16","0","","","","","","5","","","","","","","","",""
"","","","","","single-stim-button","214","1226581","0.0-2.0-59.4-1.4","5ccba9db385fbf0001f55fd6","E1","batch5","","1895","tol_toboard","","","","tol_peg_1","1895","1895","0","[[3,1,0],[2,0],[0]]","5","[[3,1,0],[2,0],[0]]","16","0","","","","","","5","","","","","","","","",""
"","","","","","poldrack-single-stim","215","1227586","0.0-2.0-60.0","5ccba9db385fbf0001f55fd6","E1","batch5","","-1","tol_feedback","","","true","","1000","1000","500","","","","","","-1","none","true","14822","20141","","","","","","","","","",""
"","","","","","html-button-response","216","1232020","0.0-2.0-61.0","5ccba9db385fbf0001f55fd6","E1","batch5","","4432.300000071526","tol_trial_num","<div class = centerbox><p class = center-block-text>problem <strong>18</strong> out of 25 problems</p></div>","0","","","","","","","","","","","","","","","","","","","","","","","","",""
"","","","","","single-stim-button","217","1265444","0.0-2.0-62.0-0.0","5ccba9db385fbf0001f55fd6","E1","batch5","","33422","tol_tohand","","","","tol_peg_2","33422","33422","0","[[1,2,0],[0,0],[0]]","1","[[3,0,0],[2,0],[1]]","17","0","","","","","","5","","","","","","","","",""
"","","","","","single-stim-button","218","1266727","0.0-2.0-62.0-1.0","5ccba9db385fbf0001f55fd6","E1","batch5","","1281","tol_toboard","","","","tol_peg_3","1281","1281","0","[[1,2,0],[0,0],[3]]","1","[[3,0,0],[2,0],[1]]","17","0","","","","","","5","","","","","","","","",""
"","","","","","single-stim-button","219","1267725","0.0-2.0-62.1-0.1","5ccba9db385fbf0001f55fd6","E1","batch5","","996","tol_tohand","","","","tol_peg_1","996","996","0","[[1,0,0],[0,0],[3]]","2","[[3,0,0],[2,0],[1]]","17","0","","","","","","5","","","","","","","","",""
"","","","","","single-stim-button","220","1269627","0.0-2.0-62.1-1.1","5ccba9db385fbf0001f55fd6","E1","batch5","","1900","tol_toboard","","","","tol_peg_2","1900","1900","0","[[1,0,0],[2,0],[3]]","2","[[3,0,0],[2,0],[1]]","17","0","","","","","","5","","","","","","","","",""
"","","","","","single-stim-button","221","1270642","0.0-2.0-62.2-0.2","5ccba9db385fbf0001f55fd6","E1","batch5","","1015","tol_tohand","","","","tol_peg_1","1015","1015","0","[[0,0,0],[2,0],[3]]","3","[[3,0,0],[2,0],[1]]","17","0","","","","","","5","","","","","","","","",""
"","","","","","single-stim-button","222","1271578","0.0-2.0-62.2-1.2","5ccba9db385fbf0001f55fd6","E1","batch5","","934","tol_toboard","","","","tol_peg_2","934","934","0","[[0,0,0],[2,1],[3]]","3","[[3,0,0],[2,0],[1]]","17","0","","","","","","5","","","","","","","","",""
"","","","","","single-stim-button","223","1272444","0.0-2.0-62.3-0.3","5ccba9db385fbf0001f55fd6","E1","batch5","","865","tol_tohand","","","","tol_peg_3","865","865","0","[[0,0,0],[2,1],[0]]","4","[[3,0,0],[2,0],[1]]","17","0","","","","","","5","","","","","","","","",""
"","","","","","single-stim-button","224","1273821","0.0-2.0-62.3-1.3","5ccba9db385fbf0001f55fd6","E1","batch5","","1375","tol_toboard","","","","tol_peg_1","1375","1375","0","[[3,0,0],[2,1],[0]]","4","[[3,0,0],[2,0],[1]]","17","0","","","","","","5","","","","","","","","",""
"","","","","","single-stim-button","225","1274676","0.0-2.0-62.4-0.4","5ccba9db385fbf0001f55fd6","E1","batch5","","853","tol_tohand","","","","tol_peg_2","853","853","0","[[3,0,0],[2,0],[0]]","5","[[3,0,0],[2,0],[1]]","17","0","","","","","","5","","","","","","","","",""
"","","","","","single-stim-button","226","1275878","0.0-2.0-62.4-1.4","5ccba9db385fbf0001f55fd6","E1","batch5","","1200","tol_toboard","","","","tol_peg_3","1200","1200","0","[[3,0,0],[2,0],[1]]","5","[[3,0,0],[2,0],[1]]","17","0","","","","","","5","","","","","","","","",""
"","","","","","poldrack-single-stim","227","1276882","0.0-2.0-63.0","5ccba9db385fbf0001f55fd6","E1","batch5","","-1","tol_feedback","","","true","","1000","1000","500","","","","","","-1","none","true","33422","37151","","","","","","","","","",""
"","","","","","html-button-response","228","1278124","0.0-2.0-64.0","5ccba9db385fbf0001f55fd6","E1","batch5","","1240.5","tol_trial_num","<div class = centerbox><p class = center-block-text>problem <strong>19</strong> out of 25 problems</p></div>","0","","","","","","","","","","","","","","","","","","","","","","","","",""
"","","","","","single-stim-button","229","1340955","0.0-2.0-65.0-0.0","5ccba9db385fbf0001f55fd6","E1","batch5","","62830","tol_tohand","","","","tol_peg_1","62830","62830","0","[[1,0,0],[3,0],[0]]","1","[[0,0,0],[1,2],[3]]","18","0","","","","","","7","","","","","","","","",""
"","","","","","single-stim-button","230","1342137","0.0-2.0-65.0-1.0","5ccba9db385fbf0001f55fd6","E1","batch5","","1180","tol_toboard","","","","tol_peg_2","1180","1180","0","[[1,0,0],[3,2],[0]]","1","[[0,0,0],[1,2],[3]]","18","0","","","","","","7","","","","","","","","",""
"","","","","","single-stim-button","231","1343379","0.0-2.0-65.1-0.1","5ccba9db385fbf0001f55fd6","E1","batch5","","1240","tol_tohand","","","","tol_peg_1","1240","1240","0","[[0,0,0],[3,2],[0]]","2","[[0,0,0],[1,2],[3]]","18","0","","","","","","7","","","","","","","","",""
"","","","","","single-stim-button","232","1344567","0.0-2.0-65.1-1.1","5ccba9db385fbf0001f55fd6","E1","batch5","","1187","tol_toboard","","","","tol_peg_3","1187","1187","0","[[0,0,0],[3,2],[1]]","2","[[0,0,0],[1,2],[3]]","18","0","","","","","","7","","","","","","","","",""
"","","","","","single-stim-button","233","1345583","0.0-2.0-65.2-0.2","5ccba9db385fbf0001f55fd6","E1","batch5","","1014","tol_tohand","","","","tol_peg_2","1014","1014","0","[[0,0,0],[3,0],[1]]","3","[[0,0,0],[1,2],[3]]","18","0","","","","","","7","","","","","","","","",""
"","","","","","single-stim-button","234","1346755","0.0-2.0-65.2-1.2","5ccba9db385fbf0001f55fd6","E1","batch5","","1170","tol_toboard","","","","tol_peg_1","1170","1170","0","[[2,0,0],[3,0],[1]]","3","[[0,0,0],[1,2],[3]]","18","0","","","","","","7","","","","","","","","",""
"","","","","","single-stim-button","235","1347964","0.0-2.0-65.3-0.3","5ccba9db385fbf0001f55fd6","E1","batch5","","1206","tol_tohand","","","","tol_peg_2","1206","1206","0","[[2,0,0],[0,0],[1]]","4","[[0,0,0],[1,2],[3]]","18","0","","","","","","7","","","","","","","","",""
"","","","","","single-stim-button","236","1351319","0.0-2.0-65.3-1.3","5ccba9db385fbf0001f55fd6","E1","batch5","","3353","tol_toboard","","","","tol_peg_1","3353","3353","0","[[2,3,0],[0,0],[1]]","4","[[0,0,0],[1,2],[3]]","18","0","","","","","","7","","","","","","","","",""
"","","","","","single-stim-button","237","1352382","0.0-2.0-65.4-0.4","5ccba9db385fbf0001f55fd6","E1","batch5","","1060","tol_tohand","","","","tol_peg_3","1060","1060","0","[[2,3,0],[0,0],[0]]","5","[[0,0,0],[1,2],[3]]","18","0","","","","","","7","","","","","","","","",""
"","","","","","single-stim-button","238","1353614","0.0-2.0-65.4-1.4","5ccba9db385fbf0001f55fd6","E1","batch5","","1231","tol_toboard","","","","tol_peg_2","1231","1231","0","[[2,3,0],[1,0],[0]]","5","[[0,0,0],[1,2],[3]]","18","0","","","","","","7","","","","","","","","",""
"","","","","","single-stim-button","239","1354718","0.0-2.0-65.5-0.5","5ccba9db385fbf0001f55fd6","E1","batch5","","1102","tol_tohand","","","","tol_peg_1","1102","1102","0","[[2,0,0],[1,0],[0]]","6","[[0,0,0],[1,2],[3]]","18","0","","","","","","7","","","","","","","","",""
"","","","","","single-stim-button","240","1356116","0.0-2.0-65.5-1.5","5ccba9db385fbf0001f55fd6","E1","batch5","","1396","tol_toboard","","","","tol_peg_3","1396","1396","0","[[2,0,0],[1,0],[3]]","6","[[0,0,0],[1,2],[3]]","18","0","","","","","","7","","","","","","","","",""
"","","","","","single-stim-button","241","1357484","0.0-2.0-65.6-0.6","5ccba9db385fbf0001f55fd6","E1","batch5","","1366","tol_tohand","","","","tol_peg_1","1366","1366","0","[[0,0,0],[1,0],[3]]","7","[[0,0,0],[1,2],[3]]","18","0","","","","","","7","","","","","","","","",""
"","","","","","single-stim-button","242","1358590","0.0-2.0-65.6-1.6","5ccba9db385fbf0001f55fd6","E1","batch5","","1104","tol_toboard","","","","tol_peg_2","1104","1104","0","[[0,0,0],[1,2],[3]]","7","[[0,0,0],[1,2],[3]]","18","0","","","","","","7","","","","","","","","",""
"","","","","","poldrack-single-stim","243","1359593","0.0-2.0-66.0","5ccba9db385fbf0001f55fd6","E1","batch5","","-1","tol_feedback","","","true","","1000","1000","500","","","","","","-1","none","true","62830","69818","","","","","","","","","",""
"","","","","","html-button-response","244","1366838","0.0-2.0-67.0","5ccba9db385fbf0001f55fd6","E1","batch5","","7242.799999952316","tol_trial_num","<div class = centerbox><p class = center-block-text>problem <strong>20</strong> out of 25 problems</p></div>","0","","","","","","","","","","","","","","","","","","","","","","","","",""
"","","","","","single-stim-button","245","1378480","0.0-2.0-68.0-0.0","5ccba9db385fbf0001f55fd6","E1","batch5","","11640","tol_tohand","","","","tol_peg_1","11640","11640","0","[[1,0,0],[3,0],[0]]","1","[[2,1,0],[0,0],[3]]","19","0","","","","","","5","","","","","","","","",""
"","","","","","single-stim-button","246","1379570","0.0-2.0-68.0-1.0","5ccba9db385fbf0001f55fd6","E1","batch5","","1089","tol_toboard","","","","tol_peg_3","1089","1089","0","[[1,0,0],[3,0],[2]]","1","[[2,1,0],[0,0],[3]]","19","0","","","","","","5","","","","","","","","",""
"","","","","","single-stim-button","247","1380767","0.0-2.0-68.1-0.1","5ccba9db385fbf0001f55fd6","E1","batch5","","1195","tol_tohand","","","","tol_peg_1","1195","1195","0","[[0,0,0],[3,0],[2]]","2","[[2,1,0],[0,0],[3]]","19","0","","","","","","5","","","","","","","","",""
"","","","","","single-stim-button","248","1381632","0.0-2.0-68.1-1.1","5ccba9db385fbf0001f55fd6","E1","batch5","","864","tol_toboard","","","","tol_peg_2","864","864","0","[[0,0,0],[3,1],[2]]","2","[[2,1,0],[0,0],[3]]","19","0","","","","","","5","","","","","","","","",""
"","","","","","single-stim-button","249","1382421","0.0-2.0-68.2-0.2","5ccba9db385fbf0001f55fd6","E1","batch5","","787","tol_tohand","","","","tol_peg_3","787","787","0","[[0,0,0],[3,1],[0]]","3","[[2,1,0],[0,0],[3]]","19","0","","","","","","5","","","","","","","","",""
"","","","","","single-stim-button","250","1383780","0.0-2.0-68.2-1.2","5ccba9db385fbf0001f55fd6","E1","batch5","","1357","tol_toboard","","","","tol_peg_1","1357","1357","0","[[2,0,0],[3,1],[0]]","3","[[2,1,0],[0,0],[3]]","19","0","","","","","","5","","","","","","","","",""
"","","","","","single-stim-button","251","1384772","0.0-2.0-68.3-0.3","5ccba9db385fbf0001f55fd6","E1","batch5","","990","tol_tohand","","","","tol_peg_2","990","990","0","[[2,0,0],[3,0],[0]]","4","[[2,1,0],[0,0],[3]]","19","0","","","","","","5","","","","","","","","",""
"","","","","","single-stim-button","252","1385990","0.0-2.0-68.3-1.3","5ccba9db385fbf0001f55fd6","E1","batch5","","1215","tol_toboard","","","","tol_peg_1","1215","1215","0","[[2,1,0],[3,0],[0]]","4","[[2,1,0],[0,0],[3]]","19","0","","","","","","5","","","","","","","","",""
"","","","","","single-stim-button","253","1386925","0.0-2.0-68.4-0.4","5ccba9db385fbf0001f55fd6","E1","batch5","","934","tol_tohand","","","","tol_peg_2","934","934","0","[[2,1,0],[0,0],[0]]","5","[[2,1,0],[0,0],[3]]","19","0","","","","","","5","","","","","","","","",""
"","","","","","single-stim-button","254","1388189","0.0-2.0-68.4-1.4","5ccba9db385fbf0001f55fd6","E1","batch5","","1262","tol_toboard","","","","tol_peg_3","1262","1262","0","[[2,1,0],[0,0],[3]]","5","[[2,1,0],[0,0],[3]]","19","0","","","","","","5","","","","","","","","",""
"","","","","","poldrack-single-stim","255","1389191","0.0-2.0-69.0","5ccba9db385fbf0001f55fd6","E1","batch5","","-1","tol_feedback","","","true","","1000","1000","500","","","","","","-1","none","true","11640","15546","","","","","","","","","",""
"","","","","","html-button-response","256","1390401","0.0-2.0-70.0","5ccba9db385fbf0001f55fd6","E1","batch5","","1208.7999999523163","tol_trial_num","<div class = centerbox><p class = center-block-text>problem <strong>21</strong> out of 25 problems</p></div>","0","","","","","","","","","","","","","","","","","","","","","","","","",""
"","","","","","single-stim-button","257","1400425","0.0-2.0-71.0-0.0","5ccba9db385fbf0001f55fd6","E1","batch5","","10022","tol_tohand","","","","tol_peg_2","10022","10022","0","[[1,2,0],[0,0],[0]]","1","[[3,2,0],[0,0],[1]]","20","0","","","","","","6","","","","","","","","",""
"","","","","","single-stim-button","258","1408581","0.0-2.0-71.0-1.0","5ccba9db385fbf0001f55fd6","E1","batch5","","8154","tol_toboard","","","","tol_peg_3","8154","8154","0","[[1,2,0],[0,0],[3]]","1","[[3,2,0],[0,0],[1]]","20","0","","","","","","6","","","","","","","","",""
"","","","","","single-stim-button","259","1409764","0.0-2.0-71.1-0.1","5ccba9db385fbf0001f55fd6","E1","batch5","","1179","tol_tohand","","","","tol_peg_1","1179","1179","0","[[1,0,0],[0,0],[3]]","2","[[3,2,0],[0,0],[1]]","20","0","","","","","","6","","","","","","","","",""
"","","","","","single-stim-button","260","1411331","0.0-2.0-71.1-1.1","5ccba9db385fbf0001f55fd6","E1","batch5","","1565","tol_toboard","","","","tol_peg_2","1565","1565","0","[[1,0,0],[2,0],[3]]","2","[[3,2,0],[0,0],[1]]","20","0","","","","","","6","","","","","","","","",""
"","","","","","single-stim-button","261","1412342","0.0-2.0-71.2-0.2","5ccba9db385fbf0001f55fd6","E1","batch5","","1009","tol_tohand","","","","tol_peg_1","1009","1009","0","[[0,0,0],[2,0],[3]]","3","[[3,2,0],[0,0],[1]]","20","0","","","","","","6","","","","","","","","",""
"","","","","","single-stim-button","262","1413377","0.0-2.0-71.2-1.2","5ccba9db385fbf0001f55fd6","E1","batch5","","1033","tol_toboard","","","","tol_peg_2","1033","1033","0","[[0,0,0],[2,1],[3]]","3","[[3,2,0],[0,0],[1]]","20","0","","","","","","6","","","","","","","","",""
"","","","","","single-stim-button","263","1414379","0.0-2.0-71.3-0.3","5ccba9db385fbf0001f55fd6","E1","batch5","","1000","tol_tohand","","","","tol_peg_3","1000","1000","0","[[0,0,0],[2,1],[0]]","4","[[3,2,0],[0,0],[1]]","20","0","","","","","","6","","","","","","","","",""
"","","","","","single-stim-button","264","1415659","0.0-2.0-71.3-1.3","5ccba9db385fbf0001f55fd6","E1","batch5","","1278","tol_toboard","","","","tol_peg_1","1278","1278","0","[[3,0,0],[2,1],[0]]","4","[[3,2,0],[0,0],[1]]","20","0","","","","","","6","","","","","","","","",""
"","","","","","single-stim-button","265","1416602","0.0-2.0-71.4-0.4","5ccba9db385fbf0001f55fd6","E1","batch5","","941","tol_tohand","","","","tol_peg_2","941","941","0","[[3,0,0],[2,0],[0]]","5","[[3,2,0],[0,0],[1]]","20","0","","","","","","6","","","","","","","","",""
"","","","","","single-stim-button","266","1418103","0.0-2.0-71.4-1.4","5ccba9db385fbf0001f55fd6","E1","batch5","","1500","tol_toboard","","","","tol_peg_3","1500","1500","0","[[3,0,0],[2,0],[1]]","5","[[3,2,0],[0,0],[1]]","20","0","","","","","","6","","","","","","","","",""
"","","","","","single-stim-button","267","1418873","0.0-2.0-71.5-0.5","5ccba9db385fbf0001f55fd6","E1","batch5","","768","tol_tohand","","","","tol_peg_2","768","768","0","[[3,0,0],[0,0],[1]]","6","[[3,2,0],[0,0],[1]]","20","0","","","","","","6","","","","","","","","",""
"","","","","","single-stim-button","268","1420037","0.0-2.0-71.5-1.5","5ccba9db385fbf0001f55fd6","E1","batch5","","1162","tol_toboard","","","","tol_peg_1","1162","1162","0","[[3,2,0],[0,0],[1]]","6","[[3,2,0],[0,0],[1]]","20","0","","","","","","6","","","","","","","","",""
"","","","","","poldrack-single-stim","269","1421042","0.0-2.0-72.0","5ccba9db385fbf0001f55fd6","E1","batch5","","-1","tol_feedback","","","true","","1000","1000","500","","","","","","-1","none","true","10022","14919","","","","","","","","","",""
"","","","","","html-button-response","270","1425553","0.0-2.0-73.0","5ccba9db385fbf0001f55fd6","E1","batch5","","4509.600000023842","tol_trial_num","<div class = centerbox><p class = center-block-text>problem <strong>22</strong> out of 25 problems</p></div>","0","","","","","","","","","","","","","","","","","","","","","","","","",""
"","","","","","single-stim-button","271","1449927","0.0-2.0-74.0-0.0","5ccba9db385fbf0001f55fd6","E1","batch5","","24371","tol_tohand","","","","tol_peg_1","24371","24371","0","[[0,0,0],[2,3],[0]]","1","[[0,0,0],[1,2],[3]]","21","0","","","","","","6","","","","","","","","",""
"","","","","","single-stim-button","272","1451257","0.0-2.0-74.0-1.0","5ccba9db385fbf0001f55fd6","E1","batch5","","1327","tol_toboard","","","","tol_peg_3","1327","1327","0","[[0,0,0],[2,3],[1]]","1","[[0,0,0],[1,2],[3]]","21","0","","","","","","6","","","","","","","","",""
"","","","","","single-stim-button","273","1452327","0.0-2.0-74.1-0.1","5ccba9db385fbf0001f55fd6","E1","batch5","","1068","tol_tohand","","","","tol_peg_2","1068","1068","0","[[0,0,0],[2,0],[1]]","2","[[0,0,0],[1,2],[3]]","21","0","","","","","","6","","","","","","","","",""
"","","","","","single-stim-button","274","1453579","0.0-2.0-74.1-1.1","5ccba9db385fbf0001f55fd6","E1","batch5","","1250","tol_toboard","","","","tol_peg_1","1250","1250","0","[[3,0,0],[2,0],[1]]","2","[[0,0,0],[1,2],[3]]","21","0","","","","","","6","","","","","","","","",""
"","","","","","single-stim-button","275","1454528","0.0-2.0-74.2-0.2","5ccba9db385fbf0001f55fd6","E1","batch5","","947","tol_tohand","","","","tol_peg_2","947","947","0","[[3,0,0],[0,0],[1]]","3","[[0,0,0],[1,2],[3]]","21","0","","","","","","6","","","","","","","","",""
"","","","","","single-stim-button","276","1455536","0.0-2.0-74.2-1.2","5ccba9db385fbf0001f55fd6","E1","batch5","","1006","tol_toboard","","","","tol_peg_1","1006","1006","0","[[3,2,0],[0,0],[1]]","3","[[0,0,0],[1,2],[3]]","21","0","","","","","","6","","","","","","","","",""
"","","","","","single-stim-button","277","1456997","0.0-2.0-74.3-0.3","5ccba9db385fbf0001f55fd6","E1","batch5","","1459","tol_tohand","","","","tol_peg_3","1459","1459","0","[[3,2,0],[0,0],[0]]","4","[[0,0,0],[1,2],[3]]","21","0","","","","","","6","","","","","","","","",""
"","","","","","single-stim-button","278","1458145","0.0-2.0-74.3-1.3","5ccba9db385fbf0001f55fd6","E1","batch5","","1146","tol_toboard","","","","tol_peg_2","1146","1146","0","[[3,2,0],[1,0],[0]]","4","[[0,0,0],[1,2],[3]]","21","0","","","","","","6","","","","","","","","",""
"","","","","","single-stim-button","279","1459469","0.0-2.0-74.4-0.4","5ccba9db385fbf0001f55fd6","E1","batch5","","1322","tol_tohand","","","","tol_peg_1","1322","1322","0","[[3,0,0],[1,0],[0]]","5","[[0,0,0],[1,2],[3]]","21","0","","","","","","6","","","","","","","","",""
"","","","","","single-stim-button","280","1461021","0.0-2.0-74.4-1.4","5ccba9db385fbf0001f55fd6","E1","batch5","","1550","tol_toboard","","","","tol_peg_2","1550","1550","0","[[3,0,0],[1,2],[0]]","5","[[0,0,0],[1,2],[3]]","21","0","","","","","","6","","","","","","","","",""
"","","","","","single-stim-button","281","1461823","0.0-2.0-74.5-0.5","5ccba9db385fbf0001f55fd6","E1","batch5","","800","tol_tohand","","","","tol_peg_1","800","800","0","[[0,0,0],[1,2],[0]]","6","[[0,0,0],[1,2],[3]]","21","0","","","","","","6","","","","","","","","",""
"","","","","","single-stim-button","282","1463151","0.0-2.0-74.5-1.5","5ccba9db385fbf0001f55fd6","E1","batch5","","1326","tol_toboard","","","","tol_peg_3","1326","1326","0","[[0,0,0],[1,2],[3]]","6","[[0,0,0],[1,2],[3]]","21","0","","","","","","6","","","","","","","","",""
"","","","","","poldrack-single-stim","283","1464156","0.0-2.0-75.0","5ccba9db385fbf0001f55fd6","E1","batch5","","-1","tol_feedback","","","true","","1000","1000","500","","","","","","-1","none","true","24371","29967","","","","","","","","","",""
"","","","","","html-button-response","284","1465307","0.0-2.0-76.0","5ccba9db385fbf0001f55fd6","E1","batch5","","1149.3000000715256","tol_trial_num","<div class = centerbox><p class = center-block-text>problem <strong>23</strong> out of 25 problems</p></div>","0","","","","","","","","","","","","","","","","","","","","","","","","",""
"","","","","","single-stim-button","285","1470942","0.0-2.0-77.0-0.0","5ccba9db385fbf0001f55fd6","E1","batch5","","5633","tol_tohand","","","","tol_peg_1","5633","5633","0","[[1,0,0],[3,0],[0]]","1","[[1,3,2],[0,0],[0]]","22","0","","","","","","3","","","","","","","","",""
"","","","","","single-stim-button","286","1472734","0.0-2.0-77.0-1.0","5ccba9db385fbf0001f55fd6","E1","batch5","","1789","tol_toboard","","","","tol_peg_3","1789","1789","0","[[1,0,0],[3,0],[2]]","1","[[1,3,2],[0,0],[0]]","22","0","","","","","","3","","","","","","","","",""
"","","","","","single-stim-button","287","1473603","0.0-2.0-77.1-0.1","5ccba9db385fbf0001f55fd6","E1","batch5","","866","tol_tohand","","","","tol_peg_2","866","866","0","[[1,0,0],[0,0],[2]]","2","[[1,3,2],[0,0],[0]]","22","0","","","","","","3","","","","","","","","",""
"","","","","","single-stim-button","288","1474572","0.0-2.0-77.1-1.1","5ccba9db385fbf0001f55fd6","E1","batch5","","968","tol_toboard","","","","tol_peg_1","968","968","0","[[1,3,0],[0,0],[2]]","2","[[1,3,2],[0,0],[0]]","22","0","","","","","","3","","","","","","","","",""
"","","","","","single-stim-button","289","1475546","0.0-2.0-77.2-0.2","5ccba9db385fbf0001f55fd6","E1","batch5","","972","tol_tohand","","","","tol_peg_3","972","972","0","[[1,3,0],[0,0],[0]]","3","[[1,3,2],[0,0],[0]]","22","0","","","","","","3","","","","","","","","",""
"","","","","","single-stim-button","290","1476687","0.0-2.0-77.2-1.2","5ccba9db385fbf0001f55fd6","E1","batch5","","1139","tol_toboard","","","","tol_peg_1","1139","1139","0","[[1,3,2],[0,0],[0]]","3","[[1,3,2],[0,0],[0]]","22","0","","","","","","3","","","","","","","","",""
"","","","","","poldrack-single-stim","291","1477691","0.0-2.0-78.0","5ccba9db385fbf0001f55fd6","E1","batch5","","-1","tol_feedback","","","true","","1000","1000","500","","","","","","-1","none","true","5633","7471","","","","","","","","","",""
"","","","","","html-button-response","292","1481657","0.0-2.0-79.0","5ccba9db385fbf0001f55fd6","E1","batch5","","3964.5","tol_trial_num","<div class = centerbox><p class = center-block-text>problem <strong>24</strong> out of 25 problems</p></div>","0","","","","","","","","","","","","","","","","","","","","","","","","",""
"","","","","","single-stim-button","293","1532573","0.0-2.0-80.0-0.0","5ccba9db385fbf0001f55fd6","E1","batch5","","50914","tol_tohand","","","","tol_peg_3","50914","50914","0","[[0,0,0],[2,3],[0]]","1","[[2,0,0],[3,0],[1]]","23","0","","","","","","7","","","","","","","","",""
"","","","","","single-stim-button","294","1533687","0.0-2.0-80.0-1.0","5ccba9db385fbf0001f55fd6","E1","batch5","","1110","tol_toboard","","","","tol_peg_1","1110","1110","0","[[1,0,0],[2,3],[0]]","1","[[2,0,0],[3,0],[1]]","23","0","","","","","","7","","","","","","","","",""
"","","","","","single-stim-button","295","1534629","0.0-2.0-80.1-0.1","5ccba9db385fbf0001f55fd6","E1","batch5","","940","tol_tohand","","","","tol_peg_2","940","940","0","[[1,0,0],[2,0],[0]]","2","[[2,0,0],[3,0],[1]]","23","0","","","","","","7","","","","","","","","",""
"","","","","","single-stim-button","296","1535939","0.0-2.0-80.1-1.1","5ccba9db385fbf0001f55fd6","E1","batch5","","1309","tol_toboard","","","","tol_peg_3","1309","1309","0","[[1,0,0],[2,0],[3]]","2","[[2,0,0],[3,0],[1]]","23","0","","","","","","7","","","","","","","","",""
"","","","","","single-stim-button","297","1537161","0.0-2.0-80.2-0.2","5ccba9db385fbf0001f55fd6","E1","batch5","","1220","tol_tohand","","","","tol_peg_2","1220","1220","0","[[1,0,0],[0,0],[3]]","3","[[2,0,0],[3,0],[1]]","23","0","","","","","","7","","","","","","","","",""
"","","","","","single-stim-button","298","1538370","0.0-2.0-80.2-1.2","5ccba9db385fbf0001f55fd6","E1","batch5","","1207","tol_toboard","","","","tol_peg_1","1207","1207","0","[[1,2,0],[0,0],[3]]","3","[[2,0,0],[3,0],[1]]","23","0","","","","","","7","","","","","","","","",""
"","","","","","single-stim-button","299","1539434","0.0-2.0-80.3-0.3","5ccba9db385fbf0001f55fd6","E1","batch5","","1062","tol_tohand","","","","tol_peg_3","1062","1062","0","[[1,2,0],[0,0],[0]]","4","[[2,0,0],[3,0],[1]]","23","0","","","","","","7","","","","","","","","",""
"","","","","","single-stim-button","300","1540665","0.0-2.0-80.3-1.3","5ccba9db385fbf0001f55fd6","E1","batch5","","1229","tol_toboard","","","","tol_peg_2","1229","1229","0","[[1,2,0],[3,0],[0]]","4","[[2,0,0],[3,0],[1]]","23","0","","","","","","7","","","","","","","","",""
"","","","","","single-stim-button","301","1541877","0.0-2.0-80.4-0.4","5ccba9db385fbf0001f55fd6","E1","batch5","","1210","tol_tohand","","","","tol_peg_1","1210","1210","0","[[1,0,0],[3,0],[0]]","5","[[2,0,0],[3,0],[1]]","23","0","","","","","","7","","","","","","","","",""
"","","","","","single-stim-button","302","1542826","0.0-2.0-80.4-1.4","5ccba9db385fbf0001f55fd6","E1","batch5","","948","tol_toboard","","","","tol_peg_2","948","948","0","[[1,0,0],[3,2],[0]]","5","[[2,0,0],[3,0],[1]]","23","0","","","","","","7","","","","","","","","",""
"","","","","","single-stim-button","303","1543721","0.0-2.0-80.5-0.5","5ccba9db385fbf0001f55fd6","E1","batch5","","893","tol_tohand","","","","tol_peg_1","893","893","0","[[0,0,0],[3,2],[0]]","6","[[2,0,0],[3,0],[1]]","23","0","","","","","","7","","","","","","","","",""
"","","","","","single-stim-button","304","1544995","0.0-2.0-80.5-1.5","5ccba9db385fbf0001f55fd6","E1","batch5","","1272","tol_toboard","","","","tol_peg_3","1272","1272","0","[[0,0,0],[3,2],[1]]","6","[[2,0,0],[3,0],[1]]","23","0","","","","","","7","","","","","","","","",""
"","","","","","single-stim-button","305","1546084","0.0-2.0-80.6-0.6","5ccba9db385fbf0001f55fd6","E1","batch5","","1087","tol_tohand","","","","tol_peg_2","1087","1087","0","[[0,0,0],[3,0],[1]]","7","[[2,0,0],[3,0],[1]]","23","0","","","","","","7","","","","","","","","",""
"","","","","","single-stim-button","306","1547169","0.0-2.0-80.6-1.6","5ccba9db385fbf0001f55fd6","E1","batch5","","1083","tol_toboard","","","","tol_peg_1","1083","1083","0","[[2,0,0],[3,0],[1]]","7","[[2,0,0],[3,0],[1]]","23","0","","","","","","7","","","","","","","","",""
"","","","","","poldrack-single-stim","307","1548173","0.0-2.0-81.0","5ccba9db385fbf0001f55fd6","E1","batch5","","-1","tol_feedback","","","true","","1000","1000","500","","","","","","-1","none","true","50914","57326","","","","","","","","","",""
"","","","","","html-button-response","308","1549239","0.0-2.0-82.0","5ccba9db385fbf0001f55fd6","E1","batch5","","1063.5","tol_trial_num","<div class = centerbox><p class = center-block-text>problem <strong>25</strong> out of 25 problems</p></div>","0","","","","","","","","","","","","","","","","","","","","","","","","",""
"","","","","","single-stim-button","309","1723457","0.0-2.0-83.0-0.0","5ccba9db385fbf0001f55fd6","E1","batch5","","174217","tol_tohand","","","","tol_peg_2","174217","174217","0","[[1,2,0],[0,0],[0]]","1","[[3,0,0],[1,0],[2]]","24","0","","","","","","7","","","","","","","","",""
"","","","","","single-stim-button","310","1725329","0.0-2.0-83.0-1.0","5ccba9db385fbf0001f55fd6","E1","batch5","","1870","tol_toboard","","","","tol_peg_3","1870","1870","0","[[1,2,0],[0,0],[3]]","1","[[3,0,0],[1,0],[2]]","24","0","","","","","","7","","","","","","","","",""
"","","","","","single-stim-button","311","1728619","0.0-2.0-83.1-0.1","5ccba9db385fbf0001f55fd6","E1","batch5","","3288","tol_tohand","","","","tol_peg_1","3288","3288","0","[[1,0,0],[0,0],[3]]","2","[[3,0,0],[1,0],[2]]","24","0","","","","","","7","","","","","","","","",""
"","","","","","single-stim-button","312","1732762","0.0-2.0-83.1-1.1","5ccba9db385fbf0001f55fd6","E1","batch5","","4141","tol_toboard","","","","tol_peg_2","4141","4141","0","[[1,0,0],[2,0],[3]]","2","[[3,0,0],[1,0],[2]]","24","0","","","","","","7","","","","","","","","",""
"","","","","","single-stim-button","313","1733811","0.0-2.0-83.2-0.2","5ccba9db385fbf0001f55fd6","E1","batch5","","1048","tol_tohand","","","","tol_peg_1","1048","1048","0","[[0,0,0],[2,0],[3]]","3","[[3,0,0],[1,0],[2]]","24","0","","","","","","7","","","","","","","","",""
"","","","","","single-stim-button","314","1736654","0.0-2.0-83.2-1.2","5ccba9db385fbf0001f55fd6","E1","batch5","","2841","tol_toboard","","","","tol_peg_2","2841","2841","0","[[0,0,0],[2,1],[3]]","3","[[3,0,0],[1,0],[2]]","24","0","","","","","","7","","","","","","","","",""
"","","","","","single-stim-button","315","1737493","0.0-2.0-83.3-0.3","5ccba9db385fbf0001f55fd6","E1","batch5","","837","tol_tohand","","","","tol_peg_3","837","837","0","[[0,0,0],[2,1],[0]]","4","[[3,0,0],[1,0],[2]]","24","0","","","","","","7","","","","","","","","",""
"","","","","","single-stim-button","316","1738703","0.0-2.0-83.3-1.3","5ccba9db385fbf0001f55fd6","E1","batch5","","1209","tol_toboard","","","","tol_peg_1","1209","1209","0","[[3,0,0],[2,1],[0]]","4","[[3,0,0],[1,0],[2]]","24","0","","","","","","7","","","","","","","","",""
"","","","","","single-stim-button","317","1740087","0.0-2.0-83.4-0.4","5ccba9db385fbf0001f55fd6","E1","batch5","","1382","tol_tohand","","","","tol_peg_2","1382","1382","0","[[3,0,0],[2,0],[0]]","5","[[3,0,0],[1,0],[2]]","24","0","","","","","","7","","","","","","","","",""
"","","","","","single-stim-button","318","1741183","0.0-2.0-83.4-1.4","5ccba9db385fbf0001f55fd6","E1","batch5","","1095","tol_toboard","","","","tol_peg_1","1095","1095","0","[[3,1,0],[2,0],[0]]","5","[[3,0,0],[1,0],[2]]","24","0","","","","","","7","","","","","","","","",""
"","","","","","single-stim-button","319","1742446","0.0-2.0-83.5-0.5","5ccba9db385fbf0001f55fd6","E1","batch5","","1262","tol_tohand","","","","tol_peg_2","1262","1262","0","[[3,1,0],[0,0],[0]]","6","[[3,0,0],[1,0],[2]]","24","0","","","","","","7","","","","","","","","",""
"","","","","","single-stim-button","320","1743824","0.0-2.0-83.5-1.5","5ccba9db385fbf0001f55fd6","E1","batch5","","1376","tol_toboard","","","","tol_peg_3","1376","1376","0","[[3,1,0],[0,0],[2]]","6","[[3,0,0],[1,0],[2]]","24","0","","","","","","7","","","","","","","","",""
"","","","","","single-stim-button","321","1745104","0.0-2.0-83.6-0.6","5ccba9db385fbf0001f55fd6","E1","batch5","","1277","tol_tohand","","","","tol_peg_1","1277","1277","0","[[3,0,0],[0,0],[2]]","7","[[3,0,0],[1,0],[2]]","24","0","","","","","","7","","","","","","","","",""
"","","","","","single-stim-button","322","1746195","0.0-2.0-83.6-1.6","5ccba9db385fbf0001f55fd6","E1","batch5","","1089","tol_toboard","","","","tol_peg_2","1089","1089","0","[[3,0,0],[1,0],[2]]","7","[[3,0,0],[1,0],[2]]","24","0","","","","","","7","","","","","","","","",""
"","","","","","poldrack-single-stim","323","1747199","0.0-2.0-84.0","5ccba9db385fbf0001f55fd6","E1","batch5","","-1","tol_feedback","","","true","","1000","1000","500","","","","","","-1","none","true","174217","183311","","","","","","","","","",""
"","","","","","html-button-response","324","1750526","0.0-2.0-85.0","5ccba9db385fbf0001f55fd6","E1","batch5","","3325.3000000715256","tol-goodbye","<p class= block-text>This concludes the Tower of London Task. Thank you for your responses!<br> Click the button below to continue</p>","0","","","","","","","","","","","","","","","","","","","","","","","","",""
"true","","","","","fullscreen","325","1754811","0.0-3.0-0.0","5ccba9db385fbf0001f55fd6","E1","batch5","","","","","","","","","","","","","","","","","","","","","","","","","","","","","",""
"","","","","","instructions","326","1920104","0.0-3.0-1.0-0.0","5ccba9db385fbf0001f55fd6","E1","batch5","[{""page_index"":0,""viewing_time"":153884},{""page_index"":1,""viewing_time"":11404.200000047684}]","165288.89999997616","","","","","","","","","","","","","","","","","","","","","","","","","","","",""
"","","","","","html-button-response","327","1923430","0.0-3.0-1.0-1.0-0.0","5ccba9db385fbf0001f55fd6","E1","batch5","","3324.2000000476837","pattern_enter_quiz","<p class=block-text> Let's answer a few questions <br>","0","","","","","","","","","","","","","","","","","","","","","","","","",""
"","","","","","html-button-response","328","1926058","0.0-3.0-1.0-1.0-1.0","5ccba9db385fbf0001f55fd6","E1","batch5","","2624.4000000953674","pattern_quiz","<p class = block-text>True or False: You will have as much time as you want to make each choice. <br></p>","1","true","","","","","","","","","","","","","","","","","","","","","","","",""
"","","","","","html-button-response","329","1927875","0.0-3.0-1.0-1.0-2.0","5ccba9db385fbf0001f55fd6","E1","batch5","","1815.3999999761581","pattern_quiz_feedback","<p class = block-text>Correct! You should make your choice <strong> as fast as you can</strong>.</p>","0","","","","","","","","","","","","","","","","","","","","","","","","",""
"","","","","","html-button-response","330","1931838","0.0-3.0-1.0-1.0-3.0","5ccba9db385fbf0001f55fd6","E1","batch5","","3960.7999999523163","pattern_quiz","<p class = block-text>True or False: You will look for 4 pieces in black or white color connected in a row either horizontally, vertically or diagonally. <br></p>","0","true","","","","","","","","","","","","","","","","","","","","","","","",""
"","","","","","html-button-response","331","1932965","0.0-3.0-1.0-1.0-4.0","5ccba9db385fbf0001f55fd6","E1","batch5","","1124.3000000715256","pattern_quiz_feedback","<p class = block-text>Correct! </p>","0","","","","","","","","","","","","","","","","","","","","","","","","",""
"","","","","","html-button-response","332","1934907","0.0-3.0-2.0","5ccba9db385fbf0001f55fd6","E1","batch5","","1938","pattern_enter_practice","<p class=block-text> Now that you've understood the game, let's do a few practice trials before we start!<br> <br>","0","","","","","","","","","","","","","","","","","","","","","","","","",""
"","","","","","image-keyboard-response","333","1936818","0.0-3.0-3.0-0.0","5ccba9db385fbf0001f55fd6","E1","batch5","","1903.3999999761581","pattern_practice","stim/prac_no_16_1.png","j","true","","","","","","","","","","","","","","","","j","","","","","","","",""
"","","","","","html-keyboard-response","334","1937823","0.0-3.0-3.0-1.0","5ccba9db385fbf0001f55fd6","E1","batch5","","null","pattern_feedback","<p style=""font-size:30px;color:green;"">Correct!</p>","null","","","","","","","","","","","","","","","","","","","","","","","","",""
"","","","","","image-keyboard-response","335","1938635","0.0-3.0-3.0-0.1","5ccba9db385fbf0001f55fd6","E1","batch5","","809.7000000476837","pattern_practice","stim/prac_yes_16_ver_w1.png","f","true","","","","","","","","","","","","","","","","f","","","","","","","",""
"","","","","","html-keyboard-response","336","1939641","0.0-3.0-3.0-1.1","5ccba9db385fbf0001f55fd6","E1","batch5","","null","pattern_feedback","<p style=""font-size:30px;color:green;"">Correct!</p>","null","","","","","","","","","","","","","","","","","","","","","","","","",""
"","","","","","image-keyboard-response","337","1940480","0.0-3.0-3.0-0.2","5ccba9db385fbf0001f55fd6","E1","batch5","","836.3999999761581","pattern_practice","stim/prac_yes_18_hor_w1.png","f","true","","","","","","","","","","","","","","","","f","","","","","","","",""
"","","","","","html-keyboard-response","338","1941485","0.0-3.0-3.0-1.2","5ccba9db385fbf0001f55fd6","E1","batch5","","null","pattern_feedback","<p style=""font-size:30px;color:green;"">Correct!</p>","null","","","","","","","","","","","","","","","","","","","","","","","","",""
"","","","","","image-keyboard-response","339","1942834","0.0-3.0-3.0-0.3","5ccba9db385fbf0001f55fd6","E1","batch5","","1346.7000000476837","pattern_practice","stim/prac_no_18_1.png","j","true","","","","","","","","","","","","","","","","j","","","","","","","",""
"","","","","","html-keyboard-response","340","1943840","0.0-3.0-3.0-1.3","5ccba9db385fbf0001f55fd6","E1","batch5","","null","pattern_feedback","<p style=""font-size:30px;color:green;"">Correct!</p>","null","","","","","","","","","","","","","","","","","","","","","","","","",""
"","","","","","image-keyboard-response","341","1944584","0.0-3.0-3.0-0.4","5ccba9db385fbf0001f55fd6","E1","batch5","","741.2000000476837","pattern_practice","stim/prac_yes_20_dia_b1.png","f","true","","","","","","","","","","","","","","","","f","","","","","","","",""
"","","","","","html-keyboard-response","342","1945589","0.0-3.0-3.0-1.4","5ccba9db385fbf0001f55fd6","E1","batch5","","null","pattern_feedback","<p style=""font-size:30px;color:green;"">Correct!</p>","null","","","","","","","","","","","","","","","","","","","","","","","","",""
"","","","","","html-button-response","343","1967761","0.0-3.0-4.0","5ccba9db385fbf0001f55fd6","E1","batch5","","22168.899999976158","pattern_enter_official_trials","<p class=block-text> Good job! You are done with practice trials!<br>
        You responded correctly on 100% of the trials.<br>
        Press the button below to start official trials. Now you won't see any feedback about your response</p>","0","","","","","","","","","","","","","","","","","","","","","","","","",""
"","","","","","html-keyboard-response","344","1968565","0.0-3.0-5.0-0.0","5ccba9db385fbf0001f55fd6","E1","batch5","","null","pattern_show_trial_num","<p class=block-text>Trial 1 out of 78</p>","null","","","","","","","","","","","","","","","","","","","","","","","","",""
"","","","","","image-keyboard-response","345","1969947","0.0-3.0-5.0-1.0","5ccba9db385fbf0001f55fd6","E1","batch5","","1377.8999999761581","pattern_response","stim/yes_49_hor_w1_b.png","f","true","","","","","","","","","","","","","","","","f","pattern_70","1377.8999999761581","true","1","","","",""
"","","","","","html-keyboard-response","346","1971252","0.0-3.0-5.0-0.1","5ccba9db385fbf0001f55fd6","E1","batch5","","null","pattern_show_trial_num","<p class=block-text>Trial 2 out of 78</p>","null","","","","","","","","","","","","","","","","","","","","","","","","",""
"","","","","","image-keyboard-response","347","1972571","0.0-3.0-5.0-1.1","5ccba9db385fbf0001f55fd6","E1","batch5","","1316.1999999284744","pattern_response","stim/no_30_1_b.png","j","true","","","","","","","","","","","","","","","","j","pattern_13","1316.1999999284744","true","2","","","",""
"","","","","","html-keyboard-response","348","1973876","0.0-3.0-5.0-0.2","5ccba9db385fbf0001f55fd6","E1","batch5","","null","pattern_show_trial_num","<p class=block-text>Trial 3 out of 78</p>","null","","","","","","","","","","","","","","","","","","","","","","","","",""
"","","","","","image-keyboard-response","349","1976000","0.0-3.0-5.0-1.2","5ccba9db385fbf0001f55fd6","E1","batch5","","2121","pattern_response","stim/no_67_1.png","j","true","","","","","","","","","","","","","","","","j","pattern_39","2121","true","3","","","",""
"","","","","","html-keyboard-response","350","1977304","0.0-3.0-5.0-0.3","5ccba9db385fbf0001f55fd6","E1","batch5","","null","pattern_show_trial_num","<p class=block-text>Trial 4 out of 78</p>","null","","","","","","","","","","","","","","","","","","","","","","","","",""
"","","","","","image-keyboard-response","351","1978278","0.0-3.0-5.0-1.3","5ccba9db385fbf0001f55fd6","E1","batch5","","971.3999999761581","pattern_response","stim/yes_15_dia_b1u_b.png","f","true","","","","","","","","","","","","","","","","f","pattern_44","971.3999999761581","true","4","","","",""
