"success","timeout","failed_images","failed_audio","failed_video","trial_type","trial_index","time_elapsed","internal_node_id","subject_id","study_id","session_id","view_history","rt","stimulus","response","task","correct","answer","item","fiar_detect_rt","fiar_detect_correct","total_correct_fiar_detect","post_trial_gap","choices","spm_correct","spm_rt","mouse_click","stim_duration","block_duration","timing_post_trial","current_position","tol_num_moves_made","tol_target","tol_problem_id","tol_rt","key_press","possible_responses","tol_correct","preplanning","tol_rt_per_trial","tol_min_moves"
"true","false","[]","[]","[]","preload","0","41540","0.0-0.0","5cd1b38113a10a00013b9eaa","E1","batch5","","","","","","","","","","","","","","","","","","","","","","","","","","","","","",""
"true","","","","","fullscreen","1","52187","0.0-1.0-0.0","5cd1b38113a10a00013b9eaa","E1","batch5","","","","","","","","","","","","","","","","","","","","","","","","","","","","","",""
"true","","","","","fullscreen","2","56125","0.0-2.0-0.0","5cd1b38113a10a00013b9eaa","E1","batch5","","","","","","","","","","","","","","","","","","","","","","","","","","","","","",""
"","","","","","instructions","3","82405","0.0-2.0-1.0-0.0","5cd1b38113a10a00013b9eaa","E1","batch5","[{""page_index"":0,""viewing_time"":19006.69999998808},{""page_index"":1,""viewing_time"":7271}]","26277.899999976158","","","","","","","","","","","","","","","","","","","","","","","","","","","",""
"","","","","","html-button-response","4","84112","0.0-2.0-1.0-1.0-0.0","5cd1b38113a10a00013b9eaa","E1","batch5","","1705","<p class=block-text> Let's answer a few questions <br>","0","pattern_enter_quiz","","","","","","","","","","","","","","","","","","","","","","","","",""
"","","","","","html-button-response","5","86702","0.0-2.0-1.0-1.0-1.0","5cd1b38113a10a00013b9eaa","E1","batch5","","2587.699999988079","<p class = block-text>True or False: You will have as much time as you want to make each choice. <br></p>","1","pattern_quiz","true","","","","","","","","","","","","","","","","","","","","","","","",""
"","","","","","html-button-response","6","88791","0.0-2.0-1.0-1.0-2.0","5cd1b38113a10a00013b9eaa","E1","batch5","","2087.900000035763","<p class = block-text>Correct! You should make your choice <strong> as fast as you can</strong>.</p>","0","pattern_quiz_feedback","","","","","","","","","","","","","","","","","","","","","","","","",""
"","","","","","html-button-response","7","92757","0.0-2.0-1.0-1.0-3.0","5cd1b38113a10a00013b9eaa","E1","batch5","","3964.399999976158","<p class = block-text>True or False: You will look for 4 pieces in black or white color connected in a row either horizontally, vertically or diagonally. <br></p>","0","pattern_quiz","true","","","","","","","","","","","","","","","","","","","","","","","",""
"","","","","","html-button-response","8","93800","0.0-2.0-1.0-1.0-4.0","5cd1b38113a10a00013b9eaa","E1","batch5","","1042","<p class = block-text>Correct! </p>","0","pattern_quiz_feedback","","","","","","","","","","","","","","","","","","","","","","","","",""
"","","","","","html-button-response","9","95499","0.0-2.0-2.0","5cd1b38113a10a00013b9eaa","E1","batch5","","1696","<p class=block-text> Now that you've understood the game, let's do a few practice trials before we start!<br> <br>","0","pattern_enter_practice","","","","","","","","","","","","","","","","","","","","","","","","",""
"","","","","","image-keyboard-response","10","97832","0.0-2.0-3.0-0.0","5cd1b38113a10a00013b9eaa","E1","batch5","","2328.7999999523163","stim/prac_yes_16_ver_w1.png","f","pattern_practice","true","f","","","","","","","","","","","","","","","","","","","","","","",""
"","","","","","html-keyboard-response","11","98846","0.0-2.0-3.0-1.0","5cd1b38113a10a00013b9eaa","E1","batch5","","null","<p style=""font-size:30px;color:green;"">Correct!</p>","null","pattern_feedback","","","","","","","","","","","","","","","","","","","","","","","","",""
"","","","","","image-keyboard-response","12","100547","0.0-2.0-3.0-0.1","5cd1b38113a10a00013b9eaa","E1","batch5","","1699.3999999761581","stim/prac_no_16_1.png","j","pattern_practice","true","j","","","","","","","","","","","","","","","","","","","","","","",""
"","","","","","html-keyboard-response","13","101550","0.0-2.0-3.0-1.1","5cd1b38113a10a00013b9eaa","E1","batch5","","null","<p style=""font-size:30px;color:green;"">Correct!</p>","null","pattern_feedback","","","","","","","","","","","","","","","","","","","","","","","","",""
"","","","","","image-keyboard-response","14","103329","0.0-2.0-3.0-0.2","5cd1b38113a10a00013b9eaa","E1","batch5","","1777.2999999523163","stim/prac_no_18_1.png","j","pattern_practice","true","j","","","","","","","","","","","","","","","","","","","","","","",""
"","","","","","html-keyboard-response","15","104350","0.0-2.0-3.0-1.2","5cd1b38113a10a00013b9eaa","E1","batch5","","null","<p style=""font-size:30px;color:green;"">Correct!</p>","null","pattern_feedback","","","","","","","","","","","","","","","","","","","","","","","","",""
"","","","","","image-keyboard-response","16","106488","0.0-2.0-3.0-0.3","5cd1b38113a10a00013b9eaa","E1","batch5","","2136.100000023842","stim/prac_yes_20_dia_b1.png","f","pattern_practice","true","f","","","","","","","","","","","","","","","","","","","","","","",""
"","","","","","html-keyboard-response","17","107507","0.0-2.0-3.0-1.3","5cd1b38113a10a00013b9eaa","E1","batch5","","null","<p style=""font-size:30px;color:green;"">Correct!</p>","null","pattern_feedback","","","","","","","","","","","","","","","","","","","","","","","","",""
"","","","","","image-keyboard-response","18","108256","0.0-2.0-3.0-0.4","5cd1b38113a10a00013b9eaa","E1","batch5","","746.1999999880791","stim/prac_yes_18_hor_w1.png","j","pattern_practice","false","f","","","","","","","","","","","","","","","","","","","","","","",""
"","","","","","html-keyboard-response","19","109263","0.0-2.0-3.0-1.4","5cd1b38113a10a00013b9eaa","E1","batch5","","null","<p style=""font-size:30px;color:red;"">Wrong.</p>","null","pattern_feedback","","","","","","","","","","","","","","","","","","","","","","","","",""
"","","","","","html-button-response","20","112478","0.0-2.0-4.0","5cd1b38113a10a00013b9eaa","E1","batch5","","3212.800000011921","<p class=block-text> Good job! You are done with practice trials!<br>
        You responded correctly on 80% of the trials.<br>
        Press the button below to start official trials. Now you won't see any feedback about your response</p>","0","pattern_enter_official_trials","","","","","","","","","","","","","","","","","","","","","","","","",""
"","","","","","html-keyboard-response","21","113289","0.0-2.0-5.0-0.0","5cd1b38113a10a00013b9eaa","E1","batch5","","null","<p class=block-text>Trial 1 out of 78</p>","null","pattern_show_trial_num","","","","","","","","","","","","","","","","","","","","","","","","",""
"","","","","","image-keyboard-response","22","116003","0.0-2.0-5.0-1.0","5cd1b38113a10a00013b9eaa","E1","batch5","","2710.800000011921","stim/yes_42_dia_w1_w.png","f","pattern_response","true","f","pattern_64","2710.800000011921","true","1","","","","","","","","","","","","","","","","","","",""
"","","","","","html-keyboard-response","23","117324","0.0-2.0-5.0-0.1","5cd1b38113a10a00013b9eaa","E1","batch5","","null","<p class=block-text>Trial 2 out of 78</p>","null","pattern_show_trial_num","","","","","","","","","","","","","","","","","","","","","","","","",""
"","","","","","image-keyboard-response","24","119679","0.0-2.0-5.0-1.1","5cd1b38113a10a00013b9eaa","E1","batch5","","2353.099999964237","stim/yes_33_dia_w1_w.png","f","pattern_response","true","f","pattern_56","2353.099999964237","true","2","","","","","","","","","","","","","","","","","","",""
"","","","","","html-keyboard-response","25","120990","0.0-2.0-5.0-0.2","5cd1b38113a10a00013b9eaa","E1","batch5","","null","<p class=block-text>Trial 3 out of 78</p>","null","pattern_show_trial_num","","","","","","","","","","","","","","","","","","","","","","","","",""
"","","","","","image-keyboard-response","26","123420","0.0-2.0-5.0-1.2","5cd1b38113a10a00013b9eaa","E1","batch5","","2427.300000011921","stim/no_18_1_b.png","j","pattern_response","true","j","pattern_05","2427.300000011921","true","3","","","","","","","","","","","","","","","","","","",""
"","","","","","html-keyboard-response","27","124727","0.0-2.0-5.0-0.3","5cd1b38113a10a00013b9eaa","E1","batch5","","null","<p class=block-text>Trial 4 out of 78</p>","null","pattern_show_trial_num","","","","","","","","","","","","","","","","","","","","","","","","",""
"","","","","","image-keyboard-response","28","125666","0.0-2.0-5.0-1.3","5cd1b38113a10a00013b9eaa","E1","batch5","","937.3999999761581","stim/yes_39_hor_w1_w.png","f","pattern_response","true","f","pattern_62","937.3999999761581","true","4","","","","","","","","","","","","","","","","","","",""
"","","","","","html-keyboard-response","29","126978","0.0-2.0-5.0-0.4","5cd1b38113a10a00013b9eaa","E1","batch5","","null","<p class=block-text>Trial 5 out of 78</p>","null","pattern_show_trial_num","","","","","","","","","","","","","","","","","","","","","","","","",""
"","","","","","image-keyboard-response","30","130385","0.0-2.0-5.0-1.4","5cd1b38113a10a00013b9eaa","E1","batch5","","3405.099999964237","stim/no_33_1_b.png","j","pattern_response","true","j","pattern_15","3405.099999964237","true","5","","","","","","","","","","","","","","","","","","",""
"","","","","","html-keyboard-response","31","131687","0.0-2.0-5.0-0.5","5cd1b38113a10a00013b9eaa","E1","batch5","","null","<p class=block-text>Trial 6 out of 78</p>","null","pattern_show_trial_num","","","","","","","","","","","","","","","","","","","","","","","","",""
"","","","","","image-keyboard-response","32","134238","0.0-2.0-5.0-1.5","5cd1b38113a10a00013b9eaa","E1","batch5","","2547.899999976158","stim/no_22_1_b.png","j","pattern_response","true","j","pattern_07","2547.899999976158","true","6","","","","","","","","","","","","","","","","","","",""
"","","","","","html-keyboard-response","33","135549","0.0-2.0-5.0-0.6","5cd1b38113a10a00013b9eaa","E1","batch5","","null","<p class=block-text>Trial 7 out of 78</p>","null","pattern_show_trial_num","","","","","","","","","","","","","","","","","","","","","","","","",""
"","","","","","image-keyboard-response","34","138874","0.0-2.0-5.0-1.6","5cd1b38113a10a00013b9eaa","E1","batch5","","3322.7999999523163","stim/yes_49_hor_w1_b.png","f","pattern_response","true","f","pattern_70","3322.7999999523163","true","7","","","","","","","","","","","","","","","","","","",""
"","","","","","html-keyboard-response","35","140190","0.0-2.0-5.0-0.7","5cd1b38113a10a00013b9eaa","E1","batch5","","null","<p class=block-text>Trial 8 out of 78</p>","null","pattern_show_trial_num","","","","","","","","","","","","","","","","","","","","","","","","",""
"","","","","","image-keyboard-response","36","143992","0.0-2.0-5.0-1.7","5cd1b38113a10a00013b9eaa","E1","batch5","","3798.900000035763","stim/yes_51_dia_b1.png","j","pattern_response","false","f","pattern_72","3798.900000035763","false","7","","","","","","","","","","","","","","","","","","",""
"","","","","","html-keyboard-response","37","145317","0.0-2.0-5.0-0.8","5cd1b38113a10a00013b9eaa","E1","batch5","","null","<p class=block-text>Trial 9 out of 78</p>","null","pattern_show_trial_num","","","","","","","","","","","","","","","","","","","","","","","","",""
"","","","","","image-keyboard-response","38","152156","0.0-2.0-5.0-1.8","5cd1b38113a10a00013b9eaa","E1","batch5","","6837.100000023842","stim/yes_44_ver_w1_w.png","j","pattern_response","false","f","pattern_66","6837.100000023842","false","7","","","","","","","","","","","","","","","","","","",""
"","","","","","html-keyboard-response","39","153472","0.0-2.0-5.0-0.9","5cd1b38113a10a00013b9eaa","E1","batch5","","null","<p class=block-text>Trial 10 out of 78</p>","null","pattern_show_trial_num","","","","","","","","","","","","","","","","","","","","","","","","",""
"","","","","","image-keyboard-response","40","155239","0.0-2.0-5.0-1.9","5cd1b38113a10a00013b9eaa","E1","batch5","","1764.0999999642372","stim/yes_63_dia_b1.png","f","pattern_response","true","f","pattern_78","1764.0999999642372","true","8","","","","","","","","","","","","","","","","","","",""
"","","","","","html-keyboard-response","41","156548","0.0-2.0-5.0-0.10","5cd1b38113a10a00013b9eaa","E1","batch5","","null","<p class=block-text>Trial 11 out of 78</p>","null","pattern_show_trial_num","","","","","","","","","","","","","","","","","","","","","","","","",""
"","","","","","image-keyboard-response","42","157482","0.0-2.0-5.0-1.10","5cd1b38113a10a00013b9eaa","E1","batch5","","932.1999999880791","stim/no_12_1.png","j","pattern_response","true","j","pattern_01","932.1999999880791","true","9","","","","","","","","","","","","","","","","","","",""
"","","","","","html-keyboard-response","43","158796","0.0-2.0-5.0-0.11","5cd1b38113a10a00013b9eaa","E1","batch5","","null","<p class=block-text>Trial 12 out of 78</p>","null","pattern_show_trial_num","","","","","","","","","","","","","","","","","","","","","","","","",""
"","","","","","image-keyboard-response","44","161665","0.0-2.0-5.0-1.11","5cd1b38113a10a00013b9eaa","E1","batch5","","2866.600000023842","stim/no_36_1_b.png","j","pattern_response","true","j","pattern_17","2866.600000023842","true","10","","","","","","","","","","","","","","","","","","",""
"","","","","","html-keyboard-response","45","162983","0.0-2.0-5.0-0.12","5cd1b38113a10a00013b9eaa","E1","batch5","","null","<p class=block-text>Trial 13 out of 78</p>","null","pattern_show_trial_num","","","","","","","","","","","","","","","","","","","","","","","","",""
"","","","","","image-keyboard-response","46","163946","0.0-2.0-5.0-1.12","5cd1b38113a10a00013b9eaa","E1","batch5","","959.6000000238419","stim/yes_29_hor_b1_b.png","f","pattern_response","true","f","pattern_52","959.6000000238419","true","11","","","","","","","","","","","","","","","","","","",""
"","","","","","html-keyboard-response","47","165261","0.0-2.0-5.0-0.13","5cd1b38113a10a00013b9eaa","E1","batch5","","null","<p class=block-text>Trial 14 out of 78</p>","null","pattern_show_trial_num","","","","","","","","","","","","","","","","","","","","","","","","",""
"","","","","","image-keyboard-response","48","166260","0.0-2.0-5.0-1.13","5cd1b38113a10a00013b9eaa","E1","batch5","","997.0999999642372","stim/yes_37_hor_w1_w.png","f","pattern_response","true","f","pattern_60","997.0999999642372","true","12","","","","","","","","","","","","","","","","","","",""
"","","","","","html-keyboard-response","49","167585","0.0-2.0-5.0-0.14","5cd1b38113a10a00013b9eaa","E1","batch5","","null","<p class=block-text>Trial 15 out of 78</p>","null","pattern_show_trial_num","","","","","","","","","","","","","","","","","","","","","","","","",""
"","","","","","image-keyboard-response","50","168551","0.0-2.0-5.0-1.14","5cd1b38113a10a00013b9eaa","E1","batch5","","964.3999999761581","stim/yes_36_ver_w1_w.png","f","pattern_response","true","f","pattern_58","964.3999999761581","true","13","","","","","","","","","","","","","","","","","","",""
"","","","","","html-keyboard-response","51","169860","0.0-2.0-5.0-0.15","5cd1b38113a10a00013b9eaa","E1","batch5","","null","<p class=block-text>Trial 16 out of 78</p>","null","pattern_show_trial_num","","","","","","","","","","","","","","","","","","","","","","","","",""
"","","","","","image-keyboard-response","52","173135","0.0-2.0-5.0-1.15","5cd1b38113a10a00013b9eaa","E1","batch5","","3273.800000011921","stim/no_51_1.png","j","pattern_response","true","j","pattern_31","3273.800000011921","true","14","","","","","","","","","","","","","","","","","","",""
"","","","","","html-keyboard-response","53","174440","0.0-2.0-5.0-0.16","5cd1b38113a10a00013b9eaa","E1","batch5","","null","<p class=block-text>Trial 17 out of 78</p>","null","pattern_show_trial_num","","","","","","","","","","","","","","","","","","","","","","","","",""
"","","","","","image-keyboard-response","54","178686","0.0-2.0-5.0-1.16","5cd1b38113a10a00013b9eaa","E1","batch5","","4242.699999988079","stim/no_39_1_w.png","j","pattern_response","true","j","pattern_21","4242.699999988079","true","15","","","","","","","","","","","","","","","","","","",""
"","","","","","html-keyboard-response","55","179991","0.0-2.0-5.0-0.17","5cd1b38113a10a00013b9eaa","E1","batch5","","null","<p class=block-text>Trial 18 out of 78</p>","null","pattern_show_trial_num","","","","","","","","","","","","","","","","","","","","","","","","",""
"","","","","","image-keyboard-response","56","183259","0.0-2.0-5.0-1.17","5cd1b38113a10a00013b9eaa","E1","batch5","","3264.300000011921","stim/no_28_2.png","j","pattern_response","true","j","pattern_11","3264.300000011921","true","16","","","","","","","","","","","","","","","","","","",""
"","","","","","html-keyboard-response","57","184568","0.0-2.0-5.0-0.18","5cd1b38113a10a00013b9eaa","E1","batch5","","null","<p class=block-text>Trial 19 out of 78</p>","null","pattern_show_trial_num","","","","","","","","","","","","","","","","","","","","","","","","",""
"","","","","","image-keyboard-response","58","192261","0.0-2.0-5.0-1.18","5cd1b38113a10a00013b9eaa","E1","batch5","","7690.399999976158","stim/no_53_1_b.png","j","pattern_response","true","j","pattern_33","7690.399999976158","true","17","","","","","","","","","","","","","","","","","","",""
"","","","","","html-keyboard-response","59","193582","0.0-2.0-5.0-0.19","5cd1b38113a10a00013b9eaa","E1","batch5","","null","<p class=block-text>Trial 20 out of 78</p>","null","pattern_show_trial_num","","","","","","","","","","","","","","","","","","","","","","","","",""
"","","","","","image-keyboard-response","60","196260","0.0-2.0-5.0-1.19","5cd1b38113a10a00013b9eaa","E1","batch5","","2675.599999964237","stim/yes_12_hor_w1_w.png","f","pattern_response","true","f","pattern_42","2675.599999964237","true","18","","","","","","","","","","","","","","","","","","",""
"","","","","","html-keyboard-response","61","197564","0.0-2.0-5.0-0.20","5cd1b38113a10a00013b9eaa","E1","batch5","","null","<p class=block-text>Trial 21 out of 78</p>","null","pattern_show_trial_num","","","","","","","","","","","","","","","","","","","","","","","","",""
"","","","","","image-keyboard-response","62","201091","0.0-2.0-5.0-1.20","5cd1b38113a10a00013b9eaa","E1","batch5","","3523.399999976158","stim/no_43_2_b.png","j","pattern_response","true","j","pattern_23","3523.399999976158","true","19","","","","","","","","","","","","","","","","","","",""
"","","","","","html-keyboard-response","63","202393","0.0-2.0-5.0-0.21","5cd1b38113a10a00013b9eaa","E1","batch5","","null","<p class=block-text>Trial 22 out of 78</p>","null","pattern_show_trial_num","","","","","","","","","","","","","","","","","","","","","","","","",""
"","","","","","image-keyboard-response","64","203357","0.0-2.0-5.0-1.21","5cd1b38113a10a00013b9eaa","E1","batch5","","961.3999999761581","stim/yes_15_dia_b1u_b.png","f","pattern_response","true","f","pattern_44","961.3999999761581","true","20","","","","","","","","","","","","","","","","","","",""
"","","","","","html-keyboard-response","65","204663","0.0-2.0-5.0-0.22","5cd1b38113a10a00013b9eaa","E1","batch5","","null","<p class=block-text>Trial 23 out of 78</p>","null","pattern_show_trial_num","","","","","","","","","","","","","","","","","","","","","","","","",""
"","","","","","image-keyboard-response","66","207600","0.0-2.0-5.0-1.22","5cd1b38113a10a00013b9eaa","E1","batch5","","2933.699999988079","stim/no_58_1_w.png","j","pattern_response","true","j","pattern_35","2933.699999988079","true","21","","","","","","","","","","","","","","","","","","",""
"","","","","","html-keyboard-response","67","208918","0.0-2.0-5.0-0.23","5cd1b38113a10a00013b9eaa","E1","batch5","","null","<p class=block-text>Trial 24 out of 78</p>","null","pattern_show_trial_num","","","","","","","","","","","","","","","","","","","","","","","","",""
"","","","","","image-keyboard-response","68","209868","0.0-2.0-5.0-1.23","5cd1b38113a10a00013b9eaa","E1","batch5","","948.6999999880791","stim/yes_53_ver_b1_b.png","f","pattern_response","true","f","pattern_74","948.6999999880791","true","22","","","","","","","","","","","","","","","","","","",""
"","","","","","html-keyboard-response","69","211192","0.0-2.0-5.0-0.24","5cd1b38113a10a00013b9eaa","E1","batch5","","null","<p class=block-text>Trial 25 out of 78</p>","null","pattern_show_trial_num","","","","","","","","","","","","","","","","","","","","","","","","",""
"","","","","","image-keyboard-response","70","212826","0.0-2.0-5.0-1.24","5cd1b38113a10a00013b9eaa","E1","batch5","","1632","stim/yes_26_dia_w2_w.png","f","pattern_response","true","f","pattern_50","1632","true","23","","","","","","","","","","","","","","","","","","",""
"","","","","","html-keyboard-response","71","214137","0.0-2.0-5.0-0.25","5cd1b38113a10a00013b9eaa","E1","batch5","","null","<p class=block-text>Trial 26 out of 78</p>","null","pattern_show_trial_num","","","","","","","","","","","","","","","","","","","","","","","","",""
"","","","","","image-keyboard-response","72","216596","0.0-2.0-5.0-1.25","5cd1b38113a10a00013b9eaa","E1","batch5","","2457.399999976158","stim/no_30_1_b.png","j","pattern_response","true","j","pattern_13","2457.399999976158","true","24","","","","","","","","","","","","","","","","","","",""
"","","","","","html-keyboard-response","73","217914","0.0-2.0-5.0-0.26","5cd1b38113a10a00013b9eaa","E1","batch5","","null","<p class=block-text>Trial 27 out of 78</p>","null","pattern_show_trial_num","","","","","","","","","","","","","","","","","","","","","","","","",""
"","","","","","image-keyboard-response","74","218954","0.0-2.0-5.0-1.26","5cd1b38113a10a00013b9eaa","E1","batch5","","1038","stim/yes_23_ver_b1.png","f","pattern_response","true","f","pattern_48","1038","true","25","","","","","","","","","","","","","","","","","","",""
"","","","","","html-keyboard-response","75","220260","0.0-2.0-5.0-0.27","5cd1b38113a10a00013b9eaa","E1","batch5","","null","<p class=block-text>Trial 28 out of 78</p>","null","pattern_show_trial_num","","","","","","","","","","","","","","","","","","","","","","","","",""
"","","","","","image-keyboard-response","76","222466","0.0-2.0-5.0-1.27","5cd1b38113a10a00013b9eaa","E1","batch5","","2203.800000011921","stim/yes_58_dia_w1_w.png","f","pattern_response","true","f","pattern_76","2203.800000011921","true","26","","","","","","","","","","","","","","","","","","",""
"","","","","","html-keyboard-response","77","223773","0.0-2.0-5.0-0.28","5cd1b38113a10a00013b9eaa","E1","batch5","","null","<p class=block-text>Trial 29 out of 78</p>","null","pattern_show_trial_num","","","","","","","","","","","","","","","","","","","","","","","","",""
"","","","","","image-keyboard-response","78","226890","0.0-2.0-5.0-1.28","5cd1b38113a10a00013b9eaa","E1","batch5","","3114.699999988079","stim/no_47_1_b.png","j","pattern_response","true","j","pattern_27","3114.699999988079","true","27","","","","","","","","","","","","","","","","","","",""
"","","","","","html-keyboard-response","79","228210","0.0-2.0-5.0-0.29","5cd1b38113a10a00013b9eaa","E1","batch5","","null","<p class=block-text>Trial 30 out of 78</p>","null","pattern_show_trial_num","","","","","","","","","","","","","","","","","","","","","","","","",""
"","","","","","image-keyboard-response","80","234181","0.0-2.0-5.0-1.29","5cd1b38113a10a00013b9eaa","E1","batch5","","5968.700000047684","stim/yes_46_ver_b1_b.png","j","pattern_response","false","f","pattern_68","5968.700000047684","false","27","","","","","","","","","","","","","","","","","","",""
"","","","","","html-keyboard-response","81","235488","0.0-2.0-5.0-0.30","5cd1b38113a10a00013b9eaa","E1","batch5","","null","<p class=block-text>Trial 31 out of 78</p>","null","pattern_show_trial_num","","","","","","","","","","","","","","","","","","","","","","","","",""
"","","","","","image-keyboard-response","82","242411","0.0-2.0-5.0-1.30","5cd1b38113a10a00013b9eaa","E1","batch5","","6921.200000047684","stim/no_67_1.png","j","pattern_response","true","j","pattern_39","6921.200000047684","true","28","","","","","","","","","","","","","","","","","","",""
"","","","","","html-keyboard-response","83","243730","0.0-2.0-5.0-0.31","5cd1b38113a10a00013b9eaa","E1","batch5","","null","<p class=block-text>Trial 32 out of 78</p>","null","pattern_show_trial_num","","","","","","","","","","","","","","","","","","","","","","","","",""
"","","","","","image-keyboard-response","84","245214","0.0-2.0-5.0-1.31","5cd1b38113a10a00013b9eaa","E1","batch5","","1481.3999999761581","stim/no_25_1_b.png","j","pattern_response","true","j","pattern_09","1481.3999999761581","true","29","","","","","","","","","","","","","","","","","","",""
"","","","","","html-keyboard-response","85","246521","0.0-2.0-5.0-0.32","5cd1b38113a10a00013b9eaa","E1","batch5","","null","<p class=block-text>Trial 33 out of 78</p>","null","pattern_show_trial_num","","","","","","","","","","","","","","","","","","","","","","","","",""
"","","","","","image-keyboard-response","86","250053","0.0-2.0-5.0-1.32","5cd1b38113a10a00013b9eaa","E1","batch5","","3531","stim/no_49_2_b.png","j","pattern_response","true","j","pattern_29","3531","true","30","","","","","","","","","","","","","","","","","","",""
"","","","","","html-keyboard-response","87","251364","0.0-2.0-5.0-0.33","5cd1b38113a10a00013b9eaa","E1","batch5","","null","<p class=block-text>Trial 34 out of 78</p>","null","pattern_show_trial_num","","","","","","","","","","","","","","","","","","","","","","","","",""
"","","","","","image-keyboard-response","88","254671","0.0-2.0-5.0-1.33","5cd1b38113a10a00013b9eaa","E1","batch5","","3303.800000011921","stim/no_37_2_w.png","j","pattern_response","true","j","pattern_19","3303.800000011921","true","31","","","","","","","","","","","","","","","","","","",""
"","","","","","html-keyboard-response","89","255992","0.0-2.0-5.0-0.34","5cd1b38113a10a00013b9eaa","E1","batch5","","null","<p class=block-text>Trial 35 out of 78</p>","null","pattern_show_trial_num","","","","","","","","","","","","","","","","","","","","","","","","",""
"","","","","","image-keyboard-response","90","256901","0.0-2.0-5.0-1.34","5cd1b38113a10a00013b9eaa","E1","batch5","","906.8000000119209","stim/yes_17_ver_b1_b.png","f","pattern_response","true","f","pattern_46","906.8000000119209","true","32","","","","","","","","","","","","","","","","","","",""
"","","","","","html-keyboard-response","91","258224","0.0-2.0-5.0-0.35","5cd1b38113a10a00013b9eaa","E1","batch5","","null","<p class=block-text>Trial 36 out of 78</p>","null","pattern_show_trial_num","","","","","","","","","","","","","","","","","","","","","","","","",""
"","","","","","image-keyboard-response","92","259057","0.0-2.0-5.0-1.35","5cd1b38113a10a00013b9eaa","E1","batch5","","831.1999999880791","stim/yes_30_ver_b1_b.png","f","pattern_response","true","f","pattern_54","831.1999999880791","true","33","","","","","","","","","","","","","","","","","","",""
"","","","","","html-keyboard-response","93","260378","0.0-2.0-5.0-0.36","5cd1b38113a10a00013b9eaa","E1","batch5","","null","<p class=block-text>Trial 37 out of 78</p>","null","pattern_show_trial_num","","","","","","","","","","","","","","","","","","","","","","","","",""
"","","","","","image-keyboard-response","94","261207","0.0-2.0-5.0-1.36","5cd1b38113a10a00013b9eaa","E1","batch5","","827.6000000238419","stim/yes_70_ver_b1.png","f","pattern_response","true","f","pattern_80","827.6000000238419","true","34","","","","","","","","","","","","","","","","","","",""
"","","","","","html-keyboard-response","95","262516","0.0-2.0-5.0-0.37","5cd1b38113a10a00013b9eaa","E1","batch5","","null","<p class=block-text>Trial 38 out of 78</p>","null","pattern_show_trial_num","","","","","","","","","","","","","","","","","","","","","","","","",""
"","","","","","image-keyboard-response","96","265185","0.0-2.0-5.0-1.37","5cd1b38113a10a00013b9eaa","E1","batch5","","2667.2000000476837","stim/no_45_1_w.png","j","pattern_response","true","j","pattern_25","2667.2000000476837","true","35","","","","","","","","","","","","","","","","","","",""
"","","","","","html-keyboard-response","97","266505","0.0-2.0-5.0-0.38","5cd1b38113a10a00013b9eaa","E1","batch5","","null","<p class=block-text>Trial 39 out of 78</p>","null","pattern_show_trial_num","","","","","","","","","","","","","","","","","","","","","","","","",""
"","","","","","image-keyboard-response","98","267438","0.0-2.0-5.0-1.38","5cd1b38113a10a00013b9eaa","E1","batch5","","929.5999999642372","stim/no_15_1_w.png","j","pattern_response","true","j","pattern_03","929.5999999642372","true","36","","","","","","","","","","","","","","","","","","",""
"","","","","","image-keyboard-response","99","269692","0.0-2.0-6.0","5cd1b38113a10a00013b9eaa","E1","batch5","","1751.3999999761581","stim/empty_board.png","j","attention_check","true","j","","","","","500","[""f"",""j""]","","","","","","","","","","","","","","","","",""
"","","","","","html-keyboard-response","100","270497","0.0-2.0-7.0-0.0","5cd1b38113a10a00013b9eaa","E1","batch5","","null","<p class=block-text>Trial 40 out of 78</p>","null","pattern_show_trial_num","","","","","","","","","","","","","","","","","","","","","","","","",""
"","","","","","image-keyboard-response","101","274031","0.0-2.0-7.0-1.0","5cd1b38113a10a00013b9eaa","E1","batch5","","3530.899999976158","stim/no_17_1_w.png","j","pattern_response","true","j","pattern_04","3530.899999976158","true","37","","","","","","","","","","","","","","","","","","",""
"","","","","","html-keyboard-response","102","275357","0.0-2.0-7.0-0.1","5cd1b38113a10a00013b9eaa","E1","batch5","","null","<p class=block-text>Trial 41 out of 78</p>","null","pattern_show_trial_num","","","","","","","","","","","","","","","","","","","","","","","","",""
"","","","","","image-keyboard-response","103","277380","0.0-2.0-7.0-1.1","5cd1b38113a10a00013b9eaa","E1","batch5","","2020.5999999642372","stim/yes_14_hor_b1_w.png","f","pattern_response","true","f","pattern_43","2020.5999999642372","true","38","","","","","","","","","","","","","","","","","","",""
"","","","","","html-keyboard-response","104","278683","0.0-2.0-7.0-0.2","5cd1b38113a10a00013b9eaa","E1","batch5","","null","<p class=block-text>Trial 42 out of 78</p>","null","pattern_show_trial_num","","","","","","","","","","","","","","","","","","","","","","","","",""
"","","","","","image-keyboard-response","105","282158","0.0-2.0-7.0-1.2","5cd1b38113a10a00013b9eaa","E1","batch5","","3472","stim/no_36_2_w.png","j","pattern_response","true","j","pattern_18","3472","true","39","","","","","","","","","","","","","","","","","","",""
"","","","","","html-keyboard-response","106","283463","0.0-2.0-7.0-0.3","5cd1b38113a10a00013b9eaa","E1","batch5","","null","<p class=block-text>Trial 43 out of 78</p>","null","pattern_show_trial_num","","","","","","","","","","","","","","","","","","","","","","","","",""
"","","","","","image-keyboard-response","107","285323","0.0-2.0-7.0-1.3","5cd1b38113a10a00013b9eaa","E1","batch5","","1856.8999999761581","stim/yes_60_ver_b1_b.png","f","pattern_response","true","f","pattern_77","1856.8999999761581","true","40","","","","","","","","","","","","","","","","","","",""
"","","","","","html-keyboard-response","108","286629","0.0-2.0-7.0-0.4","5cd1b38113a10a00013b9eaa","E1","batch5","","null","<p class=block-text>Trial 44 out of 78</p>","null","pattern_show_trial_num","","","","","","","","","","","","","","","","","","","","","","","","",""
"","","","","","image-keyboard-response","109","290570","0.0-2.0-7.0-1.4","5cd1b38113a10a00013b9eaa","E1","batch5","","3939.5","stim/yes_52_ver_w1.png","j","pattern_response","false","f","pattern_73","3939.5","false","40","","","","","","","","","","","","","","","","","","",""
"","","","","","html-keyboard-response","110","291886","0.0-2.0-7.0-0.5","5cd1b38113a10a00013b9eaa","E1","batch5","","null","<p class=block-text>Trial 45 out of 78</p>","null","pattern_show_trial_num","","","","","","","","","","","","","","","","","","","","","","","","",""
"","","","","","image-keyboard-response","111","292920","0.0-2.0-7.0-1.5","5cd1b38113a10a00013b9eaa","E1","batch5","","1030.7000000476837","stim/yes_29_ver_w1.png","f","pattern_response","true","f","pattern_53","1030.7000000476837","true","41","","","","","","","","","","","","","","","","","","",""
"","","","","","html-keyboard-response","112","294233","0.0-2.0-7.0-0.6","5cd1b38113a10a00013b9eaa","E1","batch5","","null","<p class=block-text>Trial 46 out of 78</p>","null","pattern_show_trial_num","","","","","","","","","","","","","","","","","","","","","","","","",""
"","","","","","image-keyboard-response","113","295744","0.0-2.0-7.0-1.6","5cd1b38113a10a00013b9eaa","E1","batch5","","1508.9000000357628","stim/yes_43_ver_w1_w.png","f","pattern_response","true","f","pattern_65","1508.9000000357628","true","42","","","","","","","","","","","","","","","","","","",""
"","","","","","html-keyboard-response","114","297055","0.0-2.0-7.0-0.7","5cd1b38113a10a00013b9eaa","E1","batch5","","null","<p class=block-text>Trial 47 out of 78</p>","null","pattern_show_trial_num","","","","","","","","","","","","","","","","","","","","","","","","",""
"","","","","","image-keyboard-response","115","300341","0.0-2.0-7.0-1.7","5cd1b38113a10a00013b9eaa","E1","batch5","","3283.900000035763","stim/no_52_1.png","j","pattern_response","true","j","pattern_32","3283.900000035763","true","43","","","","","","","","","","","","","","","","","","",""
"","","","","","html-keyboard-response","116","301664","0.0-2.0-7.0-0.8","5cd1b38113a10a00013b9eaa","E1","batch5","","null","<p class=block-text>Trial 48 out of 78</p>","null","pattern_show_trial_num","","","","","","","","","","","","","","","","","","","","","","","","",""
"","","","","","image-keyboard-response","117","303275","0.0-2.0-7.0-1.8","5cd1b38113a10a00013b9eaa","E1","batch5","","1609.0999999642372","stim/no_23_1.png","j","pattern_response","true","j","pattern_08","1609.0999999642372","true","44","","","","","","","","","","","","","","","","","","",""
"","","","","","html-keyboard-response","118","304587","0.0-2.0-7.0-0.9","5cd1b38113a10a00013b9eaa","E1","batch5","","null","<p class=block-text>Trial 49 out of 78</p>","null","pattern_show_trial_num","","","","","","","","","","","","","","","","","","","","","","","","",""
"","","","","","image-keyboard-response","119","307080","0.0-2.0-7.0-1.9","5cd1b38113a10a00013b9eaa","E1","batch5","","2491.699999988079","stim/no_38_1_b.png","j","pattern_response","true","j","pattern_20","2491.699999988079","true","45","","","","","","","","","","","","","","","","","","",""
"","","","","","html-keyboard-response","120","308397","0.0-2.0-7.0-0.10","5cd1b38113a10a00013b9eaa","E1","batch5","","null","<p class=block-text>Trial 50 out of 78</p>","null","pattern_show_trial_num","","","","","","","","","","","","","","","","","","","","","","","","",""
"","","","","","image-keyboard-response","121","309974","0.0-2.0-7.0-1.10","5cd1b38113a10a00013b9eaa","E1","batch5","","1574.199999988079","stim/yes_45_hor_b2_b.png","f","pattern_response","true","f","pattern_67","1574.199999988079","true","46","","","","","","","","","","","","","","","","","","",""
"","","","","","html-keyboard-response","122","311304","0.0-2.0-7.0-0.11","5cd1b38113a10a00013b9eaa","E1","batch5","","null","<p class=block-text>Trial 51 out of 78</p>","null","pattern_show_trial_num","","","","","","","","","","","","","","","","","","","","","","","","",""
"","","","","","image-keyboard-response","123","312033","0.0-2.0-7.0-1.11","5cd1b38113a10a00013b9eaa","E1","batch5","","726.3000000119209","stim/yes_22_ver_w1.png","f","pattern_response","true","f","pattern_47","726.3000000119209","true","47","","","","","","","","","","","","","","","","","","",""
"","","","","","html-keyboard-response","124","313344","0.0-2.0-7.0-0.12","5cd1b38113a10a00013b9eaa","E1","batch5","","null","<p class=block-text>Trial 52 out of 78</p>","null","pattern_show_trial_num","","","","","","","","","","","","","","","","","","","","","","","","",""
"","","","","","image-keyboard-response","125","315316","0.0-2.0-7.0-1.12","5cd1b38113a10a00013b9eaa","E1","batch5","","1968.5","stim/no_34_1_b.png","j","pattern_response","true","j","pattern_16","1968.5","true","48","","","","","","","","","","","","","","","","","","",""
"","","","","","html-keyboard-response","126","316629","0.0-2.0-7.0-0.13","5cd1b38113a10a00013b9eaa","E1","batch5","","null","<p class=block-text>Trial 53 out of 78</p>","null","pattern_show_trial_num","","","","","","","","","","","","","","","","","","","","","","","","",""
"","","","","","image-keyboard-response","127","318539","0.0-2.0-7.0-1.13","5cd1b38113a10a00013b9eaa","E1","batch5","","1907.7999999523163","stim/yes_35_dia_b1.png","f","pattern_response","true","f","pattern_57","1907.7999999523163","true","49","","","","","","","","","","","","","","","","","","",""
"","","","","","html-keyboard-response","128","319848","0.0-2.0-7.0-0.14","5cd1b38113a10a00013b9eaa","E1","batch5","","null","<p class=block-text>Trial 54 out of 78</p>","null","pattern_show_trial_num","","","","","","","","","","","","","","","","","","","","","","","","",""
"","","","","","image-keyboard-response","129","322119","0.0-2.0-7.0-1.14","5cd1b38113a10a00013b9eaa","E1","batch5","","2268.699999988079","stim/no_32_1_w.png","j","pattern_response","true","j","pattern_14","2268.699999988079","true","50","","","","","","","","","","","","","","","","","","",""
"","","","","","html-keyboard-response","130","323453","0.0-2.0-7.0-0.15","5cd1b38113a10a00013b9eaa","E1","batch5","","null","<p class=block-text>Trial 55 out of 78</p>","null","pattern_show_trial_num","","","","","","","","","","","","","","","","","","","","","","","","",""
"","","","","","image-keyboard-response","131","325419","0.0-2.0-7.0-1.15","5cd1b38113a10a00013b9eaa","E1","batch5","","1963.800000011921","stim/yes_31_hor_b1.png","f","pattern_response","true","f","pattern_55","1963.800000011921","true","51","","","","","","","","","","","","","","","","","","",""
"","","","","","html-keyboard-response","132","326728","0.0-2.0-7.0-0.16","5cd1b38113a10a00013b9eaa","E1","batch5","","null","<p class=block-text>Trial 56 out of 78</p>","null","pattern_show_trial_num","","","","","","","","","","","","","","","","","","","","","","","","",""
"","","","","","image-keyboard-response","133","330105","0.0-2.0-7.0-1.16","5cd1b38113a10a00013b9eaa","E1","batch5","","3374.899999976158","stim/no_50_1.png","j","pattern_response","true","j","pattern_30","3374.899999976158","true","52","","","","","","","","","","","","","","","","","","",""
"","","","","","html-keyboard-response","134","331421","0.0-2.0-7.0-0.17","5cd1b38113a10a00013b9eaa","E1","batch5","","null","<p class=block-text>Trial 57 out of 78</p>","null","pattern_show_trial_num","","","","","","","","","","","","","","","","","","","","","","","","",""
"","","","","","image-keyboard-response","135","333953","0.0-2.0-7.0-1.17","5cd1b38113a10a00013b9eaa","E1","batch5","","2529.599999964237","stim/yes_25_hor_b1_b.png","f","pattern_response","true","f","pattern_49","2529.599999964237","true","53","","","","","","","","","","","","","","","","","","",""
"","","","","","html-keyboard-response","136","335282","0.0-2.0-7.0-0.18","5cd1b38113a10a00013b9eaa","E1","batch5","","null","<p class=block-text>Trial 58 out of 78</p>","null","pattern_show_trial_num","","","","","","","","","","","","","","","","","","","","","","","","",""
"","","","","","image-keyboard-response","137","336893","0.0-2.0-7.0-1.18","5cd1b38113a10a00013b9eaa","E1","batch5","","1608.1000000238419","stim/no_26_1_w.png","j","pattern_response","true","j","pattern_10","1608.1000000238419","true","54","","","","","","","","","","","","","","","","","","",""
"","","","","","html-keyboard-response","138","338202","0.0-2.0-7.0-0.19","5cd1b38113a10a00013b9eaa","E1","batch5","","null","<p class=block-text>Trial 59 out of 78</p>","null","pattern_show_trial_num","","","","","","","","","","","","","","","","","","","","","","","","",""
"","","","","","image-keyboard-response","139","339238","0.0-2.0-7.0-1.19","5cd1b38113a10a00013b9eaa","E1","batch5","","1034.199999988079","stim/no_13_2_b.png","j","pattern_response","true","j","pattern_02","1034.199999988079","true","55","","","","","","","","","","","","","","","","","","",""
"","","","","","html-keyboard-response","140","340569","0.0-2.0-7.0-0.20","5cd1b38113a10a00013b9eaa","E1","batch5","","null","<p class=block-text>Trial 60 out of 78</p>","null","pattern_show_trial_num","","","","","","","","","","","","","","","","","","","","","","","","",""
"","","","","","image-keyboard-response","141","341702","0.0-2.0-7.0-1.20","5cd1b38113a10a00013b9eaa","E1","batch5","","1130.4000000357628","stim/yes_28_ver_b1.png","f","pattern_response","true","f","pattern_51","1130.4000000357628","true","56","","","","","","","","","","","","","","","","","","",""
"","","","","","html-keyboard-response","142","343017","0.0-2.0-7.0-0.21","5cd1b38113a10a00013b9eaa","E1","batch5","","null","<p class=block-text>Trial 61 out of 78</p>","null","pattern_show_trial_num","","","","","","","","","","","","","","","","","","","","","","","","",""
"","","","","","image-keyboard-response","143","345855","0.0-2.0-7.0-1.21","5cd1b38113a10a00013b9eaa","E1","batch5","","2835.300000011921","stim/no_44_1.png","j","pattern_response","true","j","pattern_24","2835.300000011921","true","57","","","","","","","","","","","","","","","","","","",""
"","","","","","html-keyboard-response","144","347176","0.0-2.0-7.0-0.22","5cd1b38113a10a00013b9eaa","E1","batch5","","null","<p class=block-text>Trial 62 out of 78</p>","null","pattern_show_trial_num","","","","","","","","","","","","","","","","","","","","","","","","",""
"","","","","","image-keyboard-response","145","348941","0.0-2.0-7.0-1.22","5cd1b38113a10a00013b9eaa","E1","batch5","","1761.699999988079","stim/no_20_1_w.png","j","pattern_response","true","j","pattern_06","1761.699999988079","true","58","","","","","","","","","","","","","","","","","","",""
"","","","","","html-keyboard-response","146","350258","0.0-2.0-7.0-0.23","5cd1b38113a10a00013b9eaa","E1","batch5","","null","<p class=block-text>Trial 63 out of 78</p>","null","pattern_show_trial_num","","","","","","","","","","","","","","","","","","","","","","","","",""
"","","","","","image-keyboard-response","147","353803","0.0-2.0-7.0-1.23","5cd1b38113a10a00013b9eaa","E1","batch5","","3542.5","stim/no_55_1_w.png","j","pattern_response","true","j","pattern_34","3542.5","true","59","","","","","","","","","","","","","","","","","","",""
"","","","","","html-keyboard-response","148","355115","0.0-2.0-7.0-0.24","5cd1b38113a10a00013b9eaa","E1","batch5","","null","<p class=block-text>Trial 64 out of 78</p>","null","pattern_show_trial_num","","","","","","","","","","","","","","","","","","","","","","","","",""
"","","","","","image-keyboard-response","149","357012","0.0-2.0-7.0-1.24","5cd1b38113a10a00013b9eaa","E1","batch5","","1893.5999999642372","stim/no_29_1_b.png","j","pattern_response","true","j","pattern_12","1893.5999999642372","true","60","","","","","","","","","","","","","","","","","","",""
"","","","","","html-keyboard-response","150","358338","0.0-2.0-7.0-0.25","5cd1b38113a10a00013b9eaa","E1","batch5","","null","<p class=block-text>Trial 65 out of 78</p>","null","pattern_show_trial_num","","","","","","","","","","","","","","","","","","","","","","","","",""
"","","","","","image-keyboard-response","151","362153","0.0-2.0-7.0-1.25","5cd1b38113a10a00013b9eaa","E1","batch5","","3811.5","stim/no_70_2.png","j","pattern_response","true","j","pattern_40","3811.5","true","61","","","","","","","","","","","","","","","","","","",""
"","","","","","html-keyboard-response","152","363458","0.0-2.0-7.0-0.26","5cd1b38113a10a00013b9eaa","E1","batch5","","null","<p class=block-text>Trial 66 out of 78</p>","null","pattern_show_trial_num","","","","","","","","","","","","","","","","","","","","","","","","",""
"","","","","","image-keyboard-response","153","364848","0.0-2.0-7.0-1.26","5cd1b38113a10a00013b9eaa","E1","batch5","","1387","stim/yes_38_hor_b1_b.png","f","pattern_response","true","f","pattern_61","1387","true","62","","","","","","","","","","","","","","","","","","",""
"","","","","","html-keyboard-response","154","366165","0.0-2.0-7.0-0.27","5cd1b38113a10a00013b9eaa","E1","batch5","","null","<p class=block-text>Trial 67 out of 78</p>","null","pattern_show_trial_num","","","","","","","","","","","","","","","","","","","","","","","","",""
"","","","","","image-keyboard-response","155","369434","0.0-2.0-7.0-1.27","5cd1b38113a10a00013b9eaa","E1","batch5","","3267.300000011921","stim/yes_67_hor_b1.png","f","pattern_response","true","f","pattern_79","3267.300000011921","true","63","","","","","","","","","","","","","","","","","","",""
"","","","","","html-keyboard-response","156","370743","0.0-2.0-7.0-0.28","5cd1b38113a10a00013b9eaa","E1","batch5","","null","<p class=block-text>Trial 68 out of 78</p>","null","pattern_show_trial_num","","","","","","","","","","","","","","","","","","","","","","","","",""
"","","","","","image-keyboard-response","157","373154","0.0-2.0-7.0-1.28","5cd1b38113a10a00013b9eaa","E1","batch5","","2408.399999976158","stim/no_42_1_w.png","j","pattern_response","true","j","pattern_22","2408.399999976158","true","64","","","","","","","","","","","","","","","","","","",""
"","","","","","html-keyboard-response","158","374476","0.0-2.0-7.0-0.29","5cd1b38113a10a00013b9eaa","E1","batch5","","null","<p class=block-text>Trial 69 out of 78</p>","null","pattern_show_trial_num","","","","","","","","","","","","","","","","","","","","","","","","",""
"","","","","","image-keyboard-response","159","378076","0.0-2.0-7.0-1.29","5cd1b38113a10a00013b9eaa","E1","batch5","","3597.399999976158","stim/no_62_1_w.png","j","pattern_response","true","j","pattern_36","3597.399999976158","true","65","","","","","","","","","","","","","","","","","","",""
"","","","","","html-keyboard-response","160","379388","0.0-2.0-7.0-0.30","5cd1b38113a10a00013b9eaa","E1","batch5","","null","<p class=block-text>Trial 70 out of 78</p>","null","pattern_show_trial_num","","","","","","","","","","","","","","","","","","","","","","","","",""
"","","","","","image-keyboard-response","161","381280","0.0-2.0-7.0-1.30","5cd1b38113a10a00013b9eaa","E1","batch5","","1890.8999999761581","stim/yes_17_dia_w1.png","f","pattern_response","true","f","pattern_45","1890.8999999761581","true","66","","","","","","","","","","","","","","","","","","",""
"","","","","","html-keyboard-response","162","382591","0.0-2.0-7.0-0.31","5cd1b38113a10a00013b9eaa","E1","batch5","","null","<p class=block-text>Trial 71 out of 78</p>","null","pattern_show_trial_num","","","","","","","","","","","","","","","","","","","","","","","","",""
"","","","","","image-keyboard-response","163","384038","0.0-2.0-7.0-1.31","5cd1b38113a10a00013b9eaa","E1","batch5","","1431.5","stim/yes_55_hor_w1_w.png","f","pattern_response","true","f","pattern_75","1431.5","true","67","","","","","","","","","","","","","","","","","","",""
"","","","","","html-keyboard-response","164","385367","0.0-2.0-7.0-0.32","5cd1b38113a10a00013b9eaa","E1","batch5","","null","<p class=block-text>Trial 72 out of 78</p>","null","pattern_show_trial_num","","","","","","","","","","","","","","","","","","","","","","","","",""
"","","","","","image-keyboard-response","165","388703","0.0-2.0-7.0-1.32","5cd1b38113a10a00013b9eaa","E1","batch5","","3334.899999976158","stim/yes_50_dia_w1.png","j","pattern_response","false","f","pattern_71","3334.899999976158","false","67","","","","","","","","","","","","","","","","","","",""
"","","","","","html-keyboard-response","166","390023","0.0-2.0-7.0-0.33","5cd1b38113a10a00013b9eaa","E1","batch5","","null","<p class=block-text>Trial 73 out of 78</p>","null","pattern_show_trial_num","","","","","","","","","","","","","","","","","","","","","","","","",""
"","","","","","image-keyboard-response","167","393913","0.0-2.0-7.0-1.33","5cd1b38113a10a00013b9eaa","E1","batch5","","3887.800000011921","stim/yes_40_dia_b1_b.png","j","pattern_response","false","f","pattern_63","3887.800000011921","false","67","","","","","","","","","","","","","","","","","","",""
"","","","","","html-keyboard-response","168","395240","0.0-2.0-7.0-0.34","5cd1b38113a10a00013b9eaa","E1","batch5","","null","<p class=block-text>Trial 74 out of 78</p>","null","pattern_show_trial_num","","","","","","","","","","","","","","","","","","","","","","","","",""
"","","","","","image-keyboard-response","169","398940","0.0-2.0-7.0-1.34","5cd1b38113a10a00013b9eaa","E1","batch5","","3696.7999999523163","stim/no_48_1_w.png","j","pattern_response","true","j","pattern_28","3696.7999999523163","true","68","","","","","","","","","","","","","","","","","","",""
"","","","","","html-keyboard-response","170","400257","0.0-2.0-7.0-0.35","5cd1b38113a10a00013b9eaa","E1","batch5","","null","<p class=block-text>Trial 75 out of 78</p>","null","pattern_show_trial_num","","","","","","","","","","","","","","","","","","","","","","","","",""
"","","","","","image-keyboard-response","171","404625","0.0-2.0-7.0-1.35","5cd1b38113a10a00013b9eaa","E1","batch5","","4365.699999988079","stim/yes_48_dia_w1_w.png","j","pattern_response","false","f","pattern_69","4365.699999988079","false","68","","","","","","","","","","","","","","","","","","",""
"","","","","","html-keyboard-response","172","405946","0.0-2.0-7.0-0.36","5cd1b38113a10a00013b9eaa","E1","batch5","","null","<p class=block-text>Trial 76 out of 78</p>","null","pattern_show_trial_num","","","","","","","","","","","","","","","","","","","","","","","","",""
"","","","","","image-keyboard-response","173","408080","0.0-2.0-7.0-1.36","5cd1b38113a10a00013b9eaa","E1","batch5","","2131.400000035763","stim/yes_37_dia_w1.png","f","pattern_response","true","f","pattern_59","2131.400000035763","true","69","","","","","","","","","","","","","","","","","","",""
"","","","","","html-keyboard-response","174","409388","0.0-2.0-7.0-0.37","5cd1b38113a10a00013b9eaa","E1","batch5","","null","<p class=block-text>Trial 77 out of 78</p>","null","pattern_show_trial_num","","","","","","","","","","","","","","","","","","","","","","","","",""
"","","","","","image-keyboard-response","175","415636","0.0-2.0-7.0-1.37","5cd1b38113a10a00013b9eaa","E1","batch5","","6245.599999964237","stim/no_65_1_b.png","j","pattern_response","true","j","pattern_38","6245.599999964237","true","70","","","","","","","","","","","","","","","","","","",""
"","","","","","html-keyboard-response","176","416956","0.0-2.0-7.0-0.38","5cd1b38113a10a00013b9eaa","E1","batch5","","null","<p class=block-text>Trial 78 out of 78</p>","null","pattern_show_trial_num","","","","","","","","","","","","","","","","","","","","","","","","",""
"","","","","","image-keyboard-response","177","422345","0.0-2.0-7.0-1.38","5cd1b38113a10a00013b9eaa","E1","batch5","","5386.800000011921","stim/no_46_1_b.png","j","pattern_response","true","j","pattern_26","5386.800000011921","true","71","","","","","","","","","","","","","","","","","","",""
"","","","","","html-button-response","178","427618","0.0-2.0-8.0","5cd1b38113a10a00013b9eaa","E1","batch5","","4755.600000023842","<p class = block-text>This concludes the 4-in-a-row detection game.Thank you for your responses!<br>
            You responded correctly on 91% of the trials.<br>
            When you are ready, press ""Continue"" button to continue </p>","0","","","","","","","","","","","","","","","","","","","","","","","","","",""
"true","","","","","fullscreen","179","432455","0.0-3.0-0.0","5cd1b38113a10a00013b9eaa","E1","batch5","","","","","spm_fullscreen","","","","","","","","","","","","","","","","","","","","","","","","",""
"","","","","","html-button-response","180","439425","0.0-3.0-1.0","5cd1b38113a10a00013b9eaa","E1","batch5","","6967.899999976158","<p class = block-text><b>Instructions</b> <br>This is a widely used intelligence test in research. <br>In this test, a figure with a missing piece will be presented.<br>Below the figure are alternative pieces to complete the figure, only one of which is correct.<br> Different figures might involve different principles for obtaining the missing piece<br>Your job is to select the most logical piece to complete the figure.</p>","0","","","","","","","","","","","","","","","","","","","","","","","","","",""
"","","","","","html-keyboard-response","181","440235","0.0-3.0-2.0-0.0","5cd1b38113a10a00013b9eaa","E1","batch5","","null","<p class=block-text>Trial 1 out of 60</p>","null","spm_show_trial_num","","","","","","","","","","","","","","","","","","","","","","","","",""
"","","","","","image-button-response","182","452115","0.0-3.0-2.0-1.0","5cd1b38113a10a00013b9eaa","E1","batch5","","11875.5","img/question_1_1.jpeg","3","spm_respsonse","1","4","mat_01","","","","","","1","11875.5","","","","","","","","","","","","","","",""
"","","","","","html-keyboard-response","183","453184","0.0-3.0-2.0-0.1","5cd1b38113a10a00013b9eaa","E1","batch5","","null","<p class=block-text>Trial 2 out of 60</p>","null","spm_show_trial_num","","","","","","","","","","","","","","","","","","","","","","","","",""
"","","","","","image-button-response","184","457565","0.0-3.0-2.0-1.1","5cd1b38113a10a00013b9eaa","E1","batch5","","4377.900000035763","img/question_1_2.jpeg","4","spm_respsonse","1","5","mat_02","","","","","","1","4377.900000035763","","","","","","","","","","","","","","",""
"","","","","","html-keyboard-response","185","458626","0.0-3.0-2.0-0.2","5cd1b38113a10a00013b9eaa","E1","batch5","","null","<p class=block-text>Trial 3 out of 60</p>","null","spm_show_trial_num","","","","","","","","","","","","","","","","","","","","","","","","",""
"","","","","","image-button-response","186","470878","0.0-3.0-2.0-1.2","5cd1b38113a10a00013b9eaa","E1","batch5","","12249.399999976158","img/question_1_3.jpeg","0","spm_respsonse","1","1","mat_03","","","","","","1","12249.399999976158","","","","","","","","","","","","","","",""
"","","","","","html-keyboard-response","187","471936","0.0-3.0-2.0-0.3","5cd1b38113a10a00013b9eaa","E1","batch5","","null","<p class=block-text>Trial 4 out of 60</p>","null","spm_show_trial_num","","","","","","","","","","","","","","","","","","","","","","","","",""
"","","","","","image-button-response","188","477408","0.0-3.0-2.0-1.3","5cd1b38113a10a00013b9eaa","E1","batch5","","5468.699999988079","img/question_1_4.jpeg","1","spm_respsonse","1","2","mat_04","","","","","","1","5468.699999988079","","","","","","","","","","","","","","",""
"","","","","","html-keyboard-response","189","478467","0.0-3.0-2.0-0.4","5cd1b38113a10a00013b9eaa","E1","batch5","","null","<p class=block-text>Trial 5 out of 60</p>","null","spm_show_trial_num","","","","","","","","","","","","","","","","","","","","","","","","",""
"","","","","","image-button-response","190","487423","0.0-3.0-2.0-1.4","5cd1b38113a10a00013b9eaa","E1","batch5","","8952.300000011921","img/question_1_5.jpeg","5","spm_respsonse","1","6","mat_05","","","","","","1","8952.300000011921","","","","","","","","","","","","","","",""
"","","","","","html-keyboard-response","191","488484","0.0-3.0-2.0-0.5","5cd1b38113a10a00013b9eaa","E1","batch5","","null","<p class=block-text>Trial 6 out of 60</p>","null","spm_show_trial_num","","","","","","","","","","","","","","","","","","","","","","","","",""
"","","","","","image-button-response","192","494140","0.0-3.0-2.0-1.5","5cd1b38113a10a00013b9eaa","E1","batch5","","5652.5","img/question_1_6.jpeg","2","spm_respsonse","1","3","mat_06","","","","","","1","5652.5","","","","","","","","","","","","","","",""
"","","","","","html-keyboard-response","193","495212","0.0-3.0-2.0-0.6","5cd1b38113a10a00013b9eaa","E1","batch5","","null","<p class=block-text>Trial 7 out of 60</p>","null","spm_show_trial_num","","","","","","","","","","","","","","","","","","","","","","","","",""
"","","","","","image-button-response","194","504199","0.0-3.0-2.0-1.6","5cd1b38113a10a00013b9eaa","E1","batch5","","8984","img/question_1_7.jpeg","5","spm_respsonse","1","6","mat_07","","","","","","1","8984","","","","","","","","","","","","","","",""
"","","","","","html-keyboard-response","195","505267","0.0-3.0-2.0-0.7","5cd1b38113a10a00013b9eaa","E1","batch5","","null","<p class=block-text>Trial 8 out of 60</p>","null","spm_show_trial_num","","","","","","","","","","","","","","","","","","","","","","","","",""
"","","","","","image-button-response","196","514263","0.0-3.0-2.0-1.7","5cd1b38113a10a00013b9eaa","E1","batch5","","8992.900000035763","img/question_1_8.jpeg","1","spm_respsonse","1","2","mat_08","","","","","","1","8992.900000035763","","","","","","","","","","","","","","",""
"","","","","","html-keyboard-response","197","515329","0.0-3.0-2.0-0.8","5cd1b38113a10a00013b9eaa","E1","batch5","","null","<p class=block-text>Trial 9 out of 60</p>","null","spm_show_trial_num","","","","","","","","","","","","","","","","","","","","","","","","",""
"","","","","","image-button-response","198","522849","0.0-3.0-2.0-1.8","5cd1b38113a10a00013b9eaa","E1","batch5","","7517.799999952316","img/question_1_9.jpeg","0","spm_respsonse","1","1","mat_09","","","","","","1","7517.799999952316","","","","","","","","","","","","","","",""
"","","","","","html-keyboard-response","199","523911","0.0-3.0-2.0-0.9","5cd1b38113a10a00013b9eaa","E1","batch5","","null","<p class=block-text>Trial 10 out of 60</p>","null","spm_show_trial_num","","","","","","","","","","","","","","","","","","","","","","","","",""
"","","","","","image-button-response","200","531456","0.0-3.0-2.0-1.9","5cd1b38113a10a00013b9eaa","E1","batch5","","7541.799999952316","img/question_1_10.jpeg","2","spm_respsonse","1","3","mat_10","","","","","","1","7541.799999952316","","","","","","","","","","","","","","",""
"","","","","","html-keyboard-response","201","532525","0.0-3.0-2.0-0.10","5cd1b38113a10a00013b9eaa","E1","batch5","","null","<p class=block-text>Trial 11 out of 60</p>","null","spm_show_trial_num","","","","","","","","","","","","","","","","","","","","","","","","",""
"","","","","","image-button-response","202","551196","0.0-3.0-2.0-1.10","5cd1b38113a10a00013b9eaa","E1","batch5","","18667.599999964237","img/question_1_11.jpeg","1","spm_respsonse","0","4","mat_11","","","","","","0","18667.599999964237","","","","","","","","","","","","","","",""
"","","","","","html-keyboard-response","203","552263","0.0-3.0-2.0-0.11","5cd1b38113a10a00013b9eaa","E1","batch5","","null","<p class=block-text>Trial 12 out of 60</p>","null","spm_show_trial_num","","","","","","","","","","","","","","","","","","","","","","","","",""
"","","","","","image-button-response","204","575036","0.0-3.0-2.0-1.11","5cd1b38113a10a00013b9eaa","E1","batch5","","22770.100000023842","img/question_1_12.jpeg","4","spm_respsonse","1","5","mat_12","","","","","","1","22770.100000023842","","","","","","","","","","","","","","",""
"","","","","","html-keyboard-response","205","576097","0.0-3.0-2.0-0.12","5cd1b38113a10a00013b9eaa","E1","batch5","","null","<p class=block-text>Trial 13 out of 60</p>","null","spm_show_trial_num","","","","","","","","","","","","","","","","","","","","","","","","",""
"","","","","","image-button-response","206","584317","0.0-3.0-2.0-1.12","5cd1b38113a10a00013b9eaa","E1","batch5","","8216.5","img/question_2_1.jpeg","1","spm_respsonse","1","2","mat_13","","","","","","1","8216.5","","","","","","","","","","","","","","",""
"","","","","","html-keyboard-response","207","585384","0.0-3.0-2.0-0.13","5cd1b38113a10a00013b9eaa","E1","batch5","","null","<p class=block-text>Trial 14 out of 60</p>","null","spm_show_trial_num","","","","","","","","","","","","","","","","","","","","","","","","",""
"","","","","","image-button-response","208","589933","0.0-3.0-2.0-1.13","5cd1b38113a10a00013b9eaa","E1","batch5","","4546.900000035763","img/question_2_2.jpeg","5","spm_respsonse","1","6","mat_14","","","","","","1","4546.900000035763","","","","","","","","","","","","","","",""
"","","","","","html-keyboard-response","209","591008","0.0-3.0-2.0-0.14","5cd1b38113a10a00013b9eaa","E1","batch5","","null","<p class=block-text>Trial 15 out of 60</p>","null","spm_show_trial_num","","","","","","","","","","","","","","","","","","","","","","","","",""
"","","","","","image-button-response","210","594389","0.0-3.0-2.0-1.14","5cd1b38113a10a00013b9eaa","E1","batch5","","3377.400000035763","img/question_2_3.jpeg","0","spm_respsonse","1","1","mat_15","","","","","","1","3377.400000035763","","","","","","","","","","","","","","",""
"","","","","","html-keyboard-response","211","595473","0.0-3.0-2.0-0.15","5cd1b38113a10a00013b9eaa","E1","batch5","","null","<p class=block-text>Trial 16 out of 60</p>","null","spm_show_trial_num","","","","","","","","","","","","","","","","","","","","","","","","",""
"","","","","","image-button-response","212","600483","0.0-3.0-2.0-1.15","5cd1b38113a10a00013b9eaa","E1","batch5","","5008.199999988079","img/question_2_4.jpeg","1","spm_respsonse","1","2","mat_16","","","","","","1","5008.199999988079","","","","","","","","","","","","","","",""
"","","","","","html-keyboard-response","213","601564","0.0-3.0-2.0-0.16","5cd1b38113a10a00013b9eaa","E1","batch5","","null","<p class=block-text>Trial 17 out of 60</p>","null","spm_show_trial_num","","","","","","","","","","","","","","","","","","","","","","","","",""
"","","","","","image-button-response","214","606140","0.0-3.0-2.0-1.16","5cd1b38113a10a00013b9eaa","E1","batch5","","4573","img/question_2_5.jpeg","0","spm_respsonse","1","1","mat_17","","","","","","1","4573","","","","","","","","","","","","","","",""
"","","","","","html-keyboard-response","215","607205","0.0-3.0-2.0-0.17","5cd1b38113a10a00013b9eaa","E1","batch5","","null","<p class=block-text>Trial 18 out of 60</p>","null","spm_show_trial_num","","","","","","","","","","","","","","","","","","","","","","","","",""
"","","","","","image-button-response","216","612589","0.0-3.0-2.0-1.17","5cd1b38113a10a00013b9eaa","E1","batch5","","5380.399999976158","img/question_2_6.jpeg","2","spm_respsonse","1","3","mat_18","","","","","","1","5380.399999976158","","","","","","","","","","","","","","",""
"","","","","","html-keyboard-response","217","613647","0.0-3.0-2.0-0.18","5cd1b38113a10a00013b9eaa","E1","batch5","","null","<p class=block-text>Trial 19 out of 60</p>","null","spm_show_trial_num","","","","","","","","","","","","","","","","","","","","","","","","",""
"","","","","","image-button-response","218","623176","0.0-3.0-2.0-1.18","5cd1b38113a10a00013b9eaa","E1","batch5","","9525.400000035763","img/question_2_7.jpeg","4","spm_respsonse","1","5","mat_19","","","","","","1","9525.400000035763","","","","","","","","","","","","","","",""
"","","","","","html-keyboard-response","219","624240","0.0-3.0-2.0-0.19","5cd1b38113a10a00013b9eaa","E1","batch5","","null","<p class=block-text>Trial 20 out of 60</p>","null","spm_show_trial_num","","","","","","","","","","","","","","","","","","","","","","","","",""
"","","","","","image-button-response","220","633258","0.0-3.0-2.0-1.19","5cd1b38113a10a00013b9eaa","E1","batch5","","9014.5","img/question_2_8.jpeg","5","spm_respsonse","1","6","mat_20","","","","","","1","9014.5","","","","","","","","","","","","","","",""
"","","","","","html-keyboard-response","221","634317","0.0-3.0-2.0-0.20","5cd1b38113a10a00013b9eaa","E1","batch5","","null","<p class=block-text>Trial 21 out of 60</p>","null","spm_show_trial_num","","","","","","","","","","","","","","","","","","","","","","","","",""
"","","","","","image-button-response","222","642299","0.0-3.0-2.0-1.20","5cd1b38113a10a00013b9eaa","E1","batch5","","7978.800000011921","img/question_2_9.jpeg","0","spm_respsonse","0","4","mat_21","","","","","","0","7978.800000011921","","","","","","","","","","","","","","",""
"","","","","","html-keyboard-response","223","643380","0.0-3.0-2.0-0.21","5cd1b38113a10a00013b9eaa","E1","batch5","","null","<p class=block-text>Trial 22 out of 60</p>","null","spm_show_trial_num","","","","","","","","","","","","","","","","","","","","","","","","",""
"","","","","","image-button-response","224","650798","0.0-3.0-2.0-1.21","5cd1b38113a10a00013b9eaa","E1","batch5","","7413.5","img/question_2_10.jpeg","2","spm_respsonse","1","3","mat_22","","","","","","1","7413.5","","","","","","","","","","","","","","",""
"","","","","","html-keyboard-response","225","651872","0.0-3.0-2.0-0.22","5cd1b38113a10a00013b9eaa","E1","batch5","","null","<p class=block-text>Trial 23 out of 60</p>","null","spm_show_trial_num","","","","","","","","","","","","","","","","","","","","","","","","",""
"","","","","","image-button-response","226","662801","0.0-3.0-2.0-1.22","5cd1b38113a10a00013b9eaa","E1","batch5","","10925.5","img/question_2_11.jpeg","3","spm_respsonse","1","4","mat_23","","","","","","1","10925.5","","","","","","","","","","","","","","",""
"","","","","","html-keyboard-response","227","663859","0.0-3.0-2.0-0.23","5cd1b38113a10a00013b9eaa","E1","batch5","","null","<p class=block-text>Trial 24 out of 60</p>","null","spm_show_trial_num","","","","","","","","","","","","","","","","","","","","","","","","",""
"","","","","","image-button-response","228","691293","0.0-3.0-2.0-1.23","5cd1b38113a10a00013b9eaa","E1","batch5","","27430.19999998808","img/question_2_12.jpeg","4","spm_respsonse","1","5","mat_24","","","","","","1","27430.19999998808","","","","","","","","","","","","","","",""
"","","","","","html-button-response","229","694197","0.0-3.0-3.0","5cd1b38113a10a00013b9eaa","E1","batch5","","2643.7999999523163","<p class = block-text>Attention check: Please choose 1<br></p>","0","attention_check","true","","","","","","","","","","","","","","","","","","","","","","","",""
"","","","","","html-keyboard-response","230","695007","0.0-3.0-4.0-0.0","5cd1b38113a10a00013b9eaa","E1","batch5","","null","<p class=block-text>Trial 25 out of 60</p>","null","spm_show_trial_num","","","","","","","","","","","","","","","","","","","","","","","","",""
"","","","","","image-button-response","231","703081","0.0-3.0-4.0-1.0","5cd1b38113a10a00013b9eaa","E1","batch5","","8069.700000047684","img/question_3_1.jpeg","7","spm_respsonse","1","8","mat_25","","","","","","1","8069.700000047684","","","","","","","","","","","","","","",""
"","","","","","html-keyboard-response","232","704152","0.0-3.0-4.0-0.1","5cd1b38113a10a00013b9eaa","E1","batch5","","null","<p class=block-text>Trial 26 out of 60</p>","null","spm_show_trial_num","","","","","","","","","","","","","","","","","","","","","","","","",""
"","","","","","image-button-response","233","713933","0.0-3.0-4.0-1.1","5cd1b38113a10a00013b9eaa","E1","batch5","","9778","img/question_3_2.jpeg","1","spm_respsonse","1","2","mat_26","","","","","","1","9778","","","","","","","","","","","","","","",""
"","","","","","html-keyboard-response","234","715000","0.0-3.0-4.0-0.2","5cd1b38113a10a00013b9eaa","E1","batch5","","null","<p class=block-text>Trial 27 out of 60</p>","null","spm_show_trial_num","","","","","","","","","","","","","","","","","","","","","","","","",""
"","","","","","image-button-response","235","726299","0.0-3.0-4.0-1.2","5cd1b38113a10a00013b9eaa","E1","batch5","","11297.599999964237","img/question_3_3.jpeg","2","spm_respsonse","1","3","mat_27","","","","","","1","11297.599999964237","","","","","","","","","","","","","","",""
"","","","","","html-keyboard-response","236","727363","0.0-3.0-4.0-0.3","5cd1b38113a10a00013b9eaa","E1","batch5","","null","<p class=block-text>Trial 28 out of 60</p>","null","spm_show_trial_num","","","","","","","","","","","","","","","","","","","","","","","","",""
"","","","","","image-button-response","237","738369","0.0-3.0-4.0-1.3","5cd1b38113a10a00013b9eaa","E1","batch5","","11003.200000047684","img/question_3_4.jpeg","3","spm_respsonse","0","8","mat_28","","","","","","0","11003.200000047684","","","","","","","","","","","","","","",""
"","","","","","html-keyboard-response","238","739447","0.0-3.0-4.0-0.4","5cd1b38113a10a00013b9eaa","E1","batch5","","null","<p class=block-text>Trial 29 out of 60</p>","null","spm_show_trial_num","","","","","","","","","","","","","","","","","","","","","","","","",""
"","","","","","image-button-response","239","745092","0.0-3.0-4.0-1.4","5cd1b38113a10a00013b9eaa","E1","batch5","","5641.199999988079","img/question_3_5.jpeg","6","spm_respsonse","1","7","mat_29","","","","","","1","5641.199999988079","","","","","","","","","","","","","","",""
"","","","","","html-keyboard-response","240","746166","0.0-3.0-4.0-0.5","5cd1b38113a10a00013b9eaa","E1","batch5","","null","<p class=block-text>Trial 30 out of 60</p>","null","spm_show_trial_num","","","","","","","","","","","","","","","","","","","","","","","","",""
"","","","","","image-button-response","241","751597","0.0-3.0-4.0-1.5","5cd1b38113a10a00013b9eaa","E1","batch5","","5428.900000035763","img/question_3_6.jpeg","3","spm_respsonse","1","4","mat_30","","","","","","1","5428.900000035763","","","","","","","","","","","","","","",""
"","","","","","html-keyboard-response","242","752656","0.0-3.0-4.0-0.6","5cd1b38113a10a00013b9eaa","E1","batch5","","null","<p class=block-text>Trial 31 out of 60</p>","null","spm_show_trial_num","","","","","","","","","","","","","","","","","","","","","","","","",""
"","","","","","image-button-response","243","761892","0.0-3.0-4.0-1.6","5cd1b38113a10a00013b9eaa","E1","batch5","","9232.899999976158","img/question_3_7.jpeg","4","spm_respsonse","1","5","mat_31","","","","","","1","9232.899999976158","","","","","","","","","","","","","","",""
"","","","","","html-keyboard-response","244","762968","0.0-3.0-4.0-0.7","5cd1b38113a10a00013b9eaa","E1","batch5","","null","<p class=block-text>Trial 32 out of 60</p>","null","spm_show_trial_num","","","","","","","","","","","","","","","","","","","","","","","","",""
"","","","","","image-button-response","245","774728","0.0-3.0-4.0-1.7","5cd1b38113a10a00013b9eaa","E1","batch5","","11756","img/question_3_8.jpeg","3","spm_respsonse","0","1","mat_32","","","","","","0","11756","","","","","","","","","","","","","","",""
"","","","","","html-keyboard-response","246","775804","0.0-3.0-4.0-0.8","5cd1b38113a10a00013b9eaa","E1","batch5","","null","<p class=block-text>Trial 33 out of 60</p>","null","spm_show_trial_num","","","","","","","","","","","","","","","","","","","","","","","","",""
"","","","","","image-button-response","247","787801","0.0-3.0-4.0-1.8","5cd1b38113a10a00013b9eaa","E1","batch5","","11993.300000011921","img/question_3_9.jpeg","5","spm_respsonse","0","7","mat_33","","","","","","0","11993.300000011921","","","","","","","","","","","","","","",""
"","","","","","html-keyboard-response","248","788882","0.0-3.0-4.0-0.9","5cd1b38113a10a00013b9eaa","E1","batch5","","null","<p class=block-text>Trial 34 out of 60</p>","null","spm_show_trial_num","","","","","","","","","","","","","","","","","","","","","","","","",""
"","","","","","image-button-response","249","794330","0.0-3.0-4.0-1.9","5cd1b38113a10a00013b9eaa","E1","batch5","","5443","img/question_3_10.jpeg","3","spm_respsonse","0","6","mat_34","","","","","","0","5443","","","","","","","","","","","","","","",""
"","","","","","html-keyboard-response","250","795386","0.0-3.0-4.0-0.10","5cd1b38113a10a00013b9eaa","E1","batch5","","null","<p class=block-text>Trial 35 out of 60</p>","null","spm_show_trial_num","","","","","","","","","","","","","","","","","","","","","","","","",""
"","","","","","image-button-response","251","866250","0.0-3.0-4.0-1.10","5cd1b38113a10a00013b9eaa","E1","batch5","","70861","img/question_3_11.jpeg","4","spm_respsonse","0","1","mat_35","","","","","","0","70861","","","","","","","","","","","","","","",""
"","","","","","html-keyboard-response","252","867322","0.0-3.0-4.0-0.11","5cd1b38113a10a00013b9eaa","E1","batch5","","null","<p class=block-text>Trial 36 out of 60</p>","null","spm_show_trial_num","","","","","","","","","","","","","","","","","","","","","","","","",""
"","","","","","image-button-response","253","897219","0.0-3.0-4.0-1.11","5cd1b38113a10a00013b9eaa","E1","batch5","","29893.19999998808","img/question_3_12.jpeg","4","spm_respsonse","0","2","mat_36","","","","","","0","29893.19999998808","","","","","","","","","","","","","","",""
"","","","","","html-keyboard-response","254","898296","0.0-3.0-4.0-0.12","5cd1b38113a10a00013b9eaa","E1","batch5","","null","<p class=block-text>Trial 37 out of 60</p>","null","spm_show_trial_num","","","","","","","","","","","","","","","","","","","","","","","","",""
"","","","","","image-button-response","255","905770","0.0-3.0-4.0-1.12","5cd1b38113a10a00013b9eaa","E1","batch5","","7469.899999976158","img/question_4_1.jpeg","2","spm_respsonse","1","3","mat_37","","","","","","1","7469.899999976158","","","","","","","","","","","","","","",""
"","","","","","html-keyboard-response","256","906832","0.0-3.0-4.0-0.13","5cd1b38113a10a00013b9eaa","E1","batch5","","null","<p class=block-text>Trial 38 out of 60</p>","null","spm_show_trial_num","","","","","","","","","","","","","","","","","","","","","","","","",""
"","","","","","image-button-response","257","912096","0.0-3.0-4.0-1.13","5cd1b38113a10a00013b9eaa","E1","batch5","","5259.5","img/question_4_2.jpeg","3","spm_respsonse","1","4","mat_38","","","","","","1","5259.5","","","","","","","","","","","","","","",""
"","","","","","html-keyboard-response","258","913172","0.0-3.0-4.0-0.14","5cd1b38113a10a00013b9eaa","E1","batch5","","null","<p class=block-text>Trial 39 out of 60</p>","null","spm_show_trial_num","","","","","","","","","","","","","","","","","","","","","","","","",""
"","","","","","image-button-response","259","918112","0.0-3.0-4.0-1.14","5cd1b38113a10a00013b9eaa","E1","batch5","","4937.699999988079","img/question_4_3.jpeg","2","spm_respsonse","1","3","mat_39","","","","","","1","4937.699999988079","","","","","","","","","","","","","","",""
"","","","","","html-keyboard-response","260","919174","0.0-3.0-4.0-0.15","5cd1b38113a10a00013b9eaa","E1","batch5","","null","<p class=block-text>Trial 40 out of 60</p>","null","spm_show_trial_num","","","","","","","","","","","","","","","","","","","","","","","","",""
"","","","","","image-button-response","261","929546","0.0-3.0-4.0-1.15","5cd1b38113a10a00013b9eaa","E1","batch5","","10369","img/question_4_4.jpeg","6","spm_respsonse","1","7","mat_40","","","","","","1","10369","","","","","","","","","","","","","","",""
"","","","","","html-keyboard-response","262","930629","0.0-3.0-4.0-0.16","5cd1b38113a10a00013b9eaa","E1","batch5","","null","<p class=block-text>Trial 41 out of 60</p>","null","spm_show_trial_num","","","","","","","","","","","","","","","","","","","","","","","","",""
"","","","","","image-button-response","263","939447","0.0-3.0-4.0-1.16","5cd1b38113a10a00013b9eaa","E1","batch5","","8815","img/question_4_5.jpeg","7","spm_respsonse","1","8","mat_41","","","","","","1","8815","","","","","","","","","","","","","","",""
"","","","","","html-keyboard-response","264","940509","0.0-3.0-4.0-0.17","5cd1b38113a10a00013b9eaa","E1","batch5","","null","<p class=block-text>Trial 42 out of 60</p>","null","spm_show_trial_num","","","","","","","","","","","","","","","","","","","","","","","","",""
"","","","","","image-button-response","265","953081","0.0-3.0-4.0-1.17","5cd1b38113a10a00013b9eaa","E1","batch5","","12569.199999988079","img/question_4_6.jpeg","5","spm_respsonse","1","6","mat_42","","","","","","1","12569.199999988079","","","","","","","","","","","","","","",""
"","","","","","html-keyboard-response","266","954151","0.0-3.0-4.0-0.18","5cd1b38113a10a00013b9eaa","E1","batch5","","null","<p class=block-text>Trial 43 out of 60</p>","null","spm_show_trial_num","","","","","","","","","","","","","","","","","","","","","","","","",""
"","","","","","image-button-response","267","967270","0.0-3.0-4.0-1.18","5cd1b38113a10a00013b9eaa","E1","batch5","","13116.400000035763","img/question_4_7.jpeg","4","spm_respsonse","1","5","mat_43","","","","","","1","13116.400000035763","","","","","","","","","","","","","","",""
"","","","","","html-keyboard-response","268","968333","0.0-3.0-4.0-0.19","5cd1b38113a10a00013b9eaa","E1","batch5","","null","<p class=block-text>Trial 44 out of 60</p>","null","spm_show_trial_num","","","","","","","","","","","","","","","","","","","","","","","","",""
"","","","","","image-button-response","269","976816","0.0-3.0-4.0-1.19","5cd1b38113a10a00013b9eaa","E1","batch5","","8478.899999976158","img/question_4_8.jpeg","3","spm_respsonse","1","4","mat_44","","","","","","1","8478.899999976158","","","","","","","","","","","","","","",""
"","","","","","html-keyboard-response","270","977893","0.0-3.0-4.0-0.20","5cd1b38113a10a00013b9eaa","E1","batch5","","null","<p class=block-text>Trial 45 out of 60</p>","null","spm_show_trial_num","","","","","","","","","","","","","","","","","","","","","","","","",""
"","","","","","image-button-response","271","1004717","0.0-3.0-4.0-1.20","5cd1b38113a10a00013b9eaa","E1","batch5","","26820.100000023842","img/question_4_9.jpeg","0","spm_respsonse","1","1","mat_45","","","","","","1","26820.100000023842","","","","","","","","","","","","","","",""
"","","","","","html-keyboard-response","272","1005775","0.0-3.0-4.0-0.21","5cd1b38113a10a00013b9eaa","E1","batch5","","null","<p class=block-text>Trial 46 out of 60</p>","null","spm_show_trial_num","","","","","","","","","","","","","","","","","","","","","","","","",""
"","","","","","image-button-response","273","1019229","0.0-3.0-4.0-1.21","5cd1b38113a10a00013b9eaa","E1","batch5","","13451.400000035763","img/question_4_10.jpeg","1","spm_respsonse","1","2","mat_46","","","","","","1","13451.400000035763","","","","","","","","","","","","","","",""
"","","","","","html-keyboard-response","274","1020294","0.0-3.0-4.0-0.22","5cd1b38113a10a00013b9eaa","E1","batch5","","null","<p class=block-text>Trial 47 out of 60</p>","null","spm_show_trial_num","","","","","","","","","","","","","","","","","","","","","","","","",""
"","","","","","image-button-response","275","1050565","0.0-3.0-4.0-1.22","5cd1b38113a10a00013b9eaa","E1","batch5","","30267.19999998808","img/question_4_11.jpeg","4","spm_respsonse","1","5","mat_47","","","","","","1","30267.19999998808","","","","","","","","","","","","","","",""
"","","","","","html-keyboard-response","276","1051624","0.0-3.0-4.0-0.23","5cd1b38113a10a00013b9eaa","E1","batch5","","null","<p class=block-text>Trial 48 out of 60</p>","null","spm_show_trial_num","","","","","","","","","","","","","","","","","","","","","","","","",""
"","","","","","image-button-response","277","1068520","0.0-3.0-4.0-1.23","5cd1b38113a10a00013b9eaa","E1","batch5","","16891.80000001192","img/question_4_12.jpeg","6","spm_respsonse","0","6","mat_48","","","","","","0","16891.80000001192","","","","","","","","","","","","","","",""
"","","","","","html-keyboard-response","278","1069596","0.0-3.0-4.0-0.24","5cd1b38113a10a00013b9eaa","E1","batch5","","null","<p class=block-text>Trial 49 out of 60</p>","null","spm_show_trial_num","","","","","","","","","","","","","","","","","","","","","","","","",""
"","","","","","image-button-response","279","1097951","0.0-3.0-4.0-1.24","5cd1b38113a10a00013b9eaa","E1","batch5","","28351.899999976158","img/question_5_1.jpeg","2","spm_respsonse","0","7","mat_49","","","","","","0","28351.899999976158","","","","","","","","","","","","","","",""
"","","","","","html-keyboard-response","280","1099021","0.0-3.0-4.0-0.25","5cd1b38113a10a00013b9eaa","E1","batch5","","null","<p class=block-text>Trial 50 out of 60</p>","null","spm_show_trial_num","","","","","","","","","","","","","","","","","","","","","","","","",""
"","","","","","image-button-response","281","1114440","0.0-3.0-4.0-1.25","5cd1b38113a10a00013b9eaa","E1","batch5","","15415.699999988079","img/question_5_2.jpeg","5","spm_respsonse","1","6","mat_50","","","","","","1","15415.699999988079","","","","","","","","","","","","","","",""
"","","","","","html-keyboard-response","282","1115512","0.0-3.0-4.0-0.26","5cd1b38113a10a00013b9eaa","E1","batch5","","null","<p class=block-text>Trial 51 out of 60</p>","null","spm_show_trial_num","","","","","","","","","","","","","","","","","","","","","","","","",""
"","","","","","image-button-response","283","1127112","0.0-3.0-4.0-1.26","5cd1b38113a10a00013b9eaa","E1","batch5","","11597.100000023842","img/question_5_3.jpeg","2","spm_respsonse","0","8","mat_51","","","","","","0","11597.100000023842","","","","","","","","","","","","","","",""
"","","","","","html-keyboard-response","284","1128176","0.0-3.0-4.0-0.27","5cd1b38113a10a00013b9eaa","E1","batch5","","null","<p class=block-text>Trial 52 out of 60</p>","null","spm_show_trial_num","","","","","","","","","","","","","","","","","","","","","","","","",""
"","","","","","image-button-response","285","1141707","0.0-3.0-4.0-1.27","5cd1b38113a10a00013b9eaa","E1","batch5","","13528.099999964237","img/question_5_4.jpeg","5","spm_respsonse","0","2","mat_52","","","","","","0","13528.099999964237","","","","","","","","","","","","","","",""
"","","","","","html-keyboard-response","286","1142763","0.0-3.0-4.0-0.28","5cd1b38113a10a00013b9eaa","E1","batch5","","null","<p class=block-text>Trial 53 out of 60</p>","null","spm_show_trial_num","","","","","","","","","","","","","","","","","","","","","","","","",""
"","","","","","image-button-response","287","1165965","0.0-3.0-4.0-1.28","5cd1b38113a10a00013b9eaa","E1","batch5","","23197.19999998808","img/question_5_5.jpeg","6","spm_respsonse","0","1","mat_53","","","","","","0","23197.19999998808","","","","","","","","","","","","","","",""
"","","","","","html-keyboard-response","288","1167022","0.0-3.0-4.0-0.29","5cd1b38113a10a00013b9eaa","E1","batch5","","null","<p class=block-text>Trial 54 out of 60</p>","null","spm_show_trial_num","","","","","","","","","","","","","","","","","","","","","","","","",""
"","","","","","image-button-response","289","1185841","0.0-3.0-4.0-1.29","5cd1b38113a10a00013b9eaa","E1","batch5","","18815.299999952316","img/question_5_6.jpeg","3","spm_respsonse","0","5","mat_54","","","","","","0","18815.299999952316","","","","","","","","","","","","","","",""
"","","","","","html-keyboard-response","290","1186919","0.0-3.0-4.0-0.30","5cd1b38113a10a00013b9eaa","E1","batch5","","null","<p class=block-text>Trial 55 out of 60</p>","null","spm_show_trial_num","","","","","","","","","","","","","","","","","","","","","","","","",""
"","","","","","image-button-response","291","1193974","0.0-3.0-4.0-1.30","5cd1b38113a10a00013b9eaa","E1","batch5","","7051.100000023842","img/question_5_7.jpeg","4","spm_respsonse","0","1","mat_55","","","","","","0","7051.100000023842","","","","","","","","","","","","","","",""
"","","","","","html-keyboard-response","292","1195051","0.0-3.0-4.0-0.31","5cd1b38113a10a00013b9eaa","E1","batch5","","null","<p class=block-text>Trial 56 out of 60</p>","null","spm_show_trial_num","","","","","","","","","","","","","","","","","","","","","","","","",""
"","","","","","image-button-response","293","1205109","0.0-3.0-4.0-1.31","5cd1b38113a10a00013b9eaa","E1","batch5","","10054.800000011921","img/question_5_8.jpeg","3","spm_respsonse","0","6","mat_56","","","","","","0","10054.800000011921","","","","","","","","","","","","","","",""
"","","","","","html-keyboard-response","294","1206192","0.0-3.0-4.0-0.32","5cd1b38113a10a00013b9eaa","E1","batch5","","null","<p class=block-text>Trial 57 out of 60</p>","null","spm_show_trial_num","","","","","","","","","","","","","","","","","","","","","","","","",""
"","","","","","image-button-response","295","1214532","0.0-3.0-4.0-1.32","5cd1b38113a10a00013b9eaa","E1","batch5","","8337.299999952316","img/question_5_9.jpeg","1","spm_respsonse","0","3","mat_57","","","","","","0","8337.299999952316","","","","","","","","","","","","","","",""
"","","","","","html-keyboard-response","296","1215586","0.0-3.0-4.0-0.33","5cd1b38113a10a00013b9eaa","E1","batch5","","null","<p class=block-text>Trial 58 out of 60</p>","null","spm_show_trial_num","","","","","","","","","","","","","","","","","","","","","","","","",""
"","","","","","image-button-response","297","1221441","0.0-3.0-4.0-1.33","5cd1b38113a10a00013b9eaa","E1","batch5","","5851","img/question_5_10.jpeg","6","spm_respsonse","0","2","mat_58","","","","","","0","5851","","","","","","","","","","","","","","",""
"","","","","","html-keyboard-response","298","1222523","0.0-3.0-4.0-0.34","5cd1b38113a10a00013b9eaa","E1","batch5","","null","<p class=block-text>Trial 59 out of 60</p>","null","spm_show_trial_num","","","","","","","","","","","","","","","","","","","","","","","","",""
"","","","","","image-button-response","299","1226280","0.0-3.0-4.0-1.34","5cd1b38113a10a00013b9eaa","E1","batch5","","3753.800000011921","img/question_5_11.jpeg","7","spm_respsonse","0","4","mat_59","","","","","","0","3753.800000011921","","","","","","","","","","","","","","",""
"","","","","","html-keyboard-response","300","1227346","0.0-3.0-4.0-0.35","5cd1b38113a10a00013b9eaa","E1","batch5","","null","<p class=block-text>Trial 60 out of 60</p>","null","spm_show_trial_num","","","","","","","","","","","","","","","","","","","","","","","","",""
"","","","","","image-button-response","301","1228872","0.0-3.0-4.0-1.35","5cd1b38113a10a00013b9eaa","E1","batch5","","1521.5","img/question_5_12.jpeg","3","spm_respsonse","0","5","mat_60","","","","","","0","1521.5","","","","","","","","","","","","","","",""
"","","","","","html-button-response","302","1230756","0.0-3.0-5.0","5cd1b38113a10a00013b9eaa","E1","batch5","","1629.199999988079","<p class= block-text>This concludes the Standard Progressive Matrix game. Thank you for your responses!<br> When you are ready, click the button continue</p>","0","spm_goodbye","","","","","","","","","","","","","","","","","","","","","","","","",""
"true","","","","","fullscreen","303","1259839","0.0-4.0-0.0","5cd1b38113a10a00013b9eaa","E1","batch5","","","","","","","","","","","","","","","","","","","","","","","","","","","","","",""
"","","","","","instructions","304","1297446","0.0-4.0-1.0-0.0-0.0","5cd1b38113a10a00013b9eaa","E1","batch5","[{""page_index"":0,""viewing_time"":10746.699999988079},{""page_index"":1,""viewing_time"":5512.600000023842},{""page_index"":2,""viewing_time"":3330.199999988079},{""page_index"":3,""viewing_time"":7773.300000011921},{""page_index"":4,""viewing_time"":2807.100000023842},{""page_index"":5,""viewing_time"":5021.199999988079},{""page_index"":6,""viewing_time"":2414.699999988079}]","37606.19999998808","","","tol-instructions","","","","","","","","","","","","","","","","","","","","","","","","",""
"","","","","","html-button-response","305","1298718","0.0-4.0-1.0-1.0-0.0","5cd1b38113a10a00013b9eaa","E1","batch5","","1271.199999988079","<p class=block-text> Let's answer a few questions <br>","0","tol_enter_quiz","","","","","","","","","","","","","","","","","","","","","","","","",""
"","","","","","html-button-response","306","1305735","0.0-4.0-1.0-1.0-1.0","5cd1b38113a10a00013b9eaa","E1","batch5","","7015","<p class = block-text>True or False: You can only move the ball on top of a peg. <br></p>","0","tol_quiz","true","","","","","","","","","","","","","","","","","","","","","","","",""
"","","","","","html-button-response","307","1307684","0.0-4.0-1.0-1.0-2.0","5cd1b38113a10a00013b9eaa","E1","batch5","","1946.1000000238419","<p class = block-text>Correct! You can only move the ball on top of a peg.</p>","0","tol_quiz_feedback","","","","","","","","","","","","","","","","","","","","","","","","",""
"","","","","","html-button-response","308","1310259","0.0-4.0-1.0-1.0-3.0","5cd1b38113a10a00013b9eaa","E1","batch5","","2573.800000011921","<p class = block-text>True or False: You should try to match your board with the target board with fewest moves possible. <br></p>","0","tol_quiz","true","","","","","","","","","","","","","","","","","","","","","","","",""
"","","","","","html-button-response","309","1311852","0.0-4.0-1.0-1.0-4.0","5cd1b38113a10a00013b9eaa","E1","batch5","","1591.699999988079","<p class = block-text>Correct! </p>","0","tol_quiz_feedback","","","","","","","","","","","","","","","","","","","","","","","","",""
"","","","","","html-button-response","310","1312932","0.0-4.0-2.0","5cd1b38113a10a00013b9eaa","E1","batch5","","1077.7000000476837","<p class=block-text> Now that you've understood the game, let's practice a few easier examples before we start!<br> <br>","0","","","","","","","","","","","","","","","","","","","","","","","","","",""
"","","","","","single-stim-button","311","1315669","0.0-4.0-3.0-0.0","5cd1b38113a10a00013b9eaa","E1","batch5","","2734","","","tol_practice","","","","","","","","","","","tol_peg_2","2734","2734","0","[[1,2,0],[0,0],[0]]","1","[[1,2,0],[0,0],[3]]","practice","2734","","","","","",""
"","","","","","single-stim-button","312","1316872","0.0-4.0-3.0-1.0","5cd1b38113a10a00013b9eaa","E1","batch5","","1201","","","tol_practice","","","","","","","","","","","tol_peg_3","1201","1201","0","[[1,2,0],[0,0],[3]]","1","[[1,2,0],[0,0],[3]]","practice","1201","","","","","",""
"","","","","","poldrack-single-stim","313","1317884","0.0-4.0-4.0","5cd1b38113a10a00013b9eaa","E1","batch5","","-1","","","tol_feedback","true","","","","","","","","","","","1000","1000","500","","","","","","-1","none","true","","0",""
"","","","","","single-stim-button","314","1321700","0.0-4.0-5.0-0.0","5cd1b38113a10a00013b9eaa","E1","batch5","","3815","","","tol_practice","","","","","","","","","","","tol_peg_1","3815","3815","0","[[1,0,0],[3,0],[0]]","2","[[0,0,0],[3,1],[2]]","practice","3815","","","","","",""
"","","","","","single-stim-button","315","1326936","0.0-4.0-5.0-1.0","5cd1b38113a10a00013b9eaa","E1","batch5","","5234","","","tol_practice","","","","","","","","","","","tol_peg_3","5234","5234","0","[[1,0,0],[3,0],[2]]","2","[[0,0,0],[3,1],[2]]","practice","5234","","","","","",""
"","","","","","single-stim-button","316","1328117","0.0-4.0-5.1-0.1","5cd1b38113a10a00013b9eaa","E1","batch5","","1180","","","tol_practice","","","","","","","","","","","tol_peg_1","1180","1180","0","[[0,0,0],[3,0],[2]]","3","[[0,0,0],[3,1],[2]]","practice","1180","","","","","",""
"","","","","","single-stim-button","317","1329533","0.0-4.0-5.1-1.1","5cd1b38113a10a00013b9eaa","E1","batch5","","1414","","","tol_practice","","","","","","","","","","","tol_peg_2","1414","1414","0","[[0,0,0],[3,1],[2]]","3","[[0,0,0],[3,1],[2]]","practice","1414","","","","","",""
"","","","","","poldrack-single-stim","318","1330535","0.0-4.0-6.0","5cd1b38113a10a00013b9eaa","E1","batch5","","-1","","","tol_feedback","true","","","","","","","","","","","1000","1000","500","","","","","","-1","none","true","","0",""
"","","","","","single-stim-button","319","1337525","0.0-4.0-7.0-0.0","5cd1b38113a10a00013b9eaa","E1","batch5","","6988","","","tol_practice","","","","","","","","","","","tol_peg_1","6988","6988","0","[[1,0,0],[3,0],[0]]","4","[[1,0,0],[2,0],[3]]","practice","6988","","","","","",""
"","","","","","single-stim-button","320","1338969","0.0-4.0-7.0-1.0","5cd1b38113a10a00013b9eaa","E1","batch5","","1444","","","tol_practice","","","","","","","","","","","tol_peg_3","1444","1444","0","[[1,0,0],[3,0],[2]]","4","[[1,0,0],[2,0],[3]]","practice","1444","","","","","",""
"","","","","","single-stim-button","321","1343932","0.0-4.0-7.1-0.1","5cd1b38113a10a00013b9eaa","E1","batch5","","4961","","","tol_practice","","","","","","","","","","","tol_peg_2","4961","4961","0","[[1,0,0],[0,0],[2]]","5","[[1,0,0],[2,0],[3]]","practice","4961","","","","","",""
"","","","","","single-stim-button","322","1349702","0.0-4.0-7.1-1.1","5cd1b38113a10a00013b9eaa","E1","batch5","","5769","","","tol_practice","","","","","","","","","","","tol_peg_1","5769","5769","0","[[1,3,0],[0,0],[2]]","5","[[1,0,0],[2,0],[3]]","practice","5769","","","","","",""
"","","","","","single-stim-button","323","1350933","0.0-4.0-7.2-0.2","5cd1b38113a10a00013b9eaa","E1","batch5","","1231","","","tol_practice","","","","","","","","","","","tol_peg_3","1231","1231","0","[[1,3,0],[0,0],[0]]","6","[[1,0,0],[2,0],[3]]","practice","1231","","","","","",""
"","","","","","single-stim-button","324","1353049","0.0-4.0-7.2-1.2","5cd1b38113a10a00013b9eaa","E1","batch5","","2115","","","tol_practice","","","","","","","","","","","tol_peg_2","2115","2115","0","[[1,3,0],[2,0],[0]]","6","[[1,0,0],[2,0],[3]]","practice","2115","","","","","",""
"","","","","","single-stim-button","325","1354098","0.0-4.0-7.3-0.3","5cd1b38113a10a00013b9eaa","E1","batch5","","1048","","","tol_practice","","","","","","","","","","","tol_peg_1","1048","1048","0","[[1,0,0],[2,0],[0]]","7","[[1,0,0],[2,0],[3]]","practice","1048","","","","","",""
"","","","","","single-stim-button","326","1355358","0.0-4.0-7.3-1.3","5cd1b38113a10a00013b9eaa","E1","batch5","","1258","","","tol_practice","","","","","","","","","","","tol_peg_3","1258","1258","0","[[1,0,0],[2,0],[3]]","7","[[1,0,0],[2,0],[3]]","practice","1258","","","","","",""
"","","","","","poldrack-single-stim","327","1356366","0.0-4.0-8.0","5cd1b38113a10a00013b9eaa","E1","batch5","","-1","","","tol_feedback","true","","","","","","","","","","","1000","1000","500","","","","","","-1","none","true","","0",""
"","","","","","html-button-response","328","1359444","0.0-4.0-9.0","5cd1b38113a10a00013b9eaa","E1","batch5","","3076.800000011921","<div class = centerbox><p class = center-block-text>Great job! You are done with practice trials<br>You are about to start official trials.<br> <br> Problem <strong>1</strong> out of 25 problems</p></div>","0","tol_instruction","","","","","","","","","","","","","","","","","","","","","","","","",""
"","","","","","single-stim-button","329","1366063","0.0-4.0-10.0-0.0","5cd1b38113a10a00013b9eaa","E1","batch5","","5605","","","tol_tohand","","","","","","","","","","","tol_peg_1","5605","5605","0","[[1,0,0],[3,0],[0]]","1","[[1,3,0],[2,0],[0]]","0","0","","","","","","3"
"","","","","","single-stim-button","330","1366432","0.0-4.0-10.0-1.0","5cd1b38113a10a00013b9eaa","E1","batch5","","367","","","tol_toboard","","","","","","","","","","","tol_peg_1","367","367","0","[[1,2,0],[3,0],[0]]","1","[[1,3,0],[2,0],[0]]","0","0","","","","","","3"
"","","","","","single-stim-button","331","1368552","0.0-4.0-10.1-0.1","5cd1b38113a10a00013b9eaa","E1","batch5","","2119","","","tol_tohand","","","","","","","","","","","tol_peg_1","2119","2119","0","[[1,0,0],[3,0],[0]]","2","[[1,3,0],[2,0],[0]]","0","0","","","","","","3"
"","","","","","single-stim-button","332","1370231","0.0-4.0-10.1-1.1","5cd1b38113a10a00013b9eaa","E1","batch5","","1677","","","tol_toboard","","","","","","","","","","","tol_peg_3","1677","1677","0","[[1,0,0],[3,0],[2]]","2","[[1,3,0],[2,0],[0]]","0","0","","","","","","3"
"","","","","","single-stim-button","333","1371536","0.0-4.0-10.2-0.2","5cd1b38113a10a00013b9eaa","E1","batch5","","1305","","","tol_tohand","","","","","","","","","","","tol_peg_2","1305","1305","0","[[1,0,0],[0,0],[2]]","3","[[1,3,0],[2,0],[0]]","0","0","","","","","","3"
"","","","","","single-stim-button","334","1373193","0.0-4.0-10.2-1.2","5cd1b38113a10a00013b9eaa","E1","batch5","","1657","","","tol_toboard","","","","","","","","","","","tol_peg_1","1657","1657","0","[[1,3,0],[0,0],[2]]","3","[[1,3,0],[2,0],[0]]","0","0","","","","","","3"
"","","","","","single-stim-button","335","1374316","0.0-4.0-10.3-0.3","5cd1b38113a10a00013b9eaa","E1","batch5","","1121","","","tol_tohand","","","","","","","","","","","tol_peg_3","1121","1121","0","[[1,3,0],[0,0],[0]]","4","[[1,3,0],[2,0],[0]]","0","0","","","","","","3"
"","","","","","single-stim-button","336","1375299","0.0-4.0-10.3-1.3","5cd1b38113a10a00013b9eaa","E1","batch5","","983","","","tol_toboard","","","","","","","","","","","tol_peg_2","983","983","0","[[1,3,0],[2,0],[0]]","4","[[1,3,0],[2,0],[0]]","0","0","","","","","","3"
"","","","","","poldrack-single-stim","337","1376308","0.0-4.0-11.0","5cd1b38113a10a00013b9eaa","E1","batch5","","-1","","","tol_feedback","true","","","","","","","","","","","1000","1000","500","","","","","","-1","none","true","5605","10150",""
"","","","","","html-button-response","338","1377321","0.0-4.0-12.0","5cd1b38113a10a00013b9eaa","E1","batch5","","1011.1000000238419","<div class = centerbox><p class = center-block-text>problem <strong>2</strong> out of 25 problems</p></div>","0","tol_trial_num","","","","","","","","","","","","","","","","","","","","","","","","",""
"","","","","","single-stim-button","339","1382671","0.0-4.0-13.0-0.0","5cd1b38113a10a00013b9eaa","E1","batch5","","5349","","","tol_tohand","","","","","","","","","","","tol_peg_1","5349","5349","0","[[1,0,0],[3,0],[0]]","1","[[2,1,3],[0,0],[0]]","1","0","","","","","","5"
"","","","","","single-stim-button","340","1385546","0.0-4.0-13.0-1.0","5cd1b38113a10a00013b9eaa","E1","batch5","","2874","","","tol_toboard","","","","","","","","","","","tol_peg_3","2874","2874","0","[[1,0,0],[3,0],[2]]","1","[[2,1,3],[0,0],[0]]","1","0","","","","","","5"
"","","","","","single-stim-button","341","1386693","0.0-4.0-13.1-0.1","5cd1b38113a10a00013b9eaa","E1","batch5","","1145","","","tol_tohand","","","","","","","","","","","tol_peg_1","1145","1145","0","[[0,0,0],[3,0],[2]]","2","[[2,1,3],[0,0],[0]]","1","0","","","","","","5"
"","","","","","single-stim-button","342","1387910","0.0-4.0-13.1-1.1","5cd1b38113a10a00013b9eaa","E1","batch5","","1217","","","tol_toboard","","","","","","","","","","","tol_peg_2","1217","1217","0","[[0,0,0],[3,1],[2]]","2","[[2,1,3],[0,0],[0]]","1","0","","","","","","5"
"","","","","","single-stim-button","343","1389027","0.0-4.0-13.2-0.2","5cd1b38113a10a00013b9eaa","E1","batch5","","1116","","","tol_tohand","","","","","","","","","","","tol_peg_3","1116","1116","0","[[0,0,0],[3,1],[0]]","3","[[2,1,3],[0,0],[0]]","1","0","","","","","","5"
"","","","","","single-stim-button","344","1392960","0.0-4.0-13.2-1.2","5cd1b38113a10a00013b9eaa","E1","batch5","","3931","","","tol_toboard","","","","","","","","","","","tol_peg_1","3931","3931","0","[[2,0,0],[3,1],[0]]","3","[[2,1,3],[0,0],[0]]","1","0","","","","","","5"
"","","","","","single-stim-button","345","1394354","0.0-4.0-13.3-0.3","5cd1b38113a10a00013b9eaa","E1","batch5","","1393","","","tol_tohand","","","","","","","","","","","tol_peg_2","1393","1393","0","[[2,0,0],[3,0],[0]]","4","[[2,1,3],[0,0],[0]]","1","0","","","","","","5"
"","","","","","single-stim-button","346","1395666","0.0-4.0-13.3-1.3","5cd1b38113a10a00013b9eaa","E1","batch5","","1310","","","tol_toboard","","","","","","","","","","","tol_peg_1","1310","1310","0","[[2,1,0],[3,0],[0]]","4","[[2,1,3],[0,0],[0]]","1","0","","","","","","5"
"","","","","","single-stim-button","347","1396673","0.0-4.0-13.4-0.4","5cd1b38113a10a00013b9eaa","E1","batch5","","1007","","","tol_tohand","","","","","","","","","","","tol_peg_2","1007","1007","0","[[2,1,0],[0,0],[0]]","5","[[2,1,3],[0,0],[0]]","1","0","","","","","","5"
