"success","timeout","failed_images","failed_audio","failed_video","trial_type","trial_index","time_elapsed","internal_node_id","subject_id","study_id","session_id","task","rt","stimulus","response","item","answer","correct","spm_correct","spm_rt","view_history","fiar_detect_rt","fiar_detect_correct","total_correct_fiar_detect","post_trial_gap","choices","mouse_click","stim_duration","block_duration","timing_post_trial","current_position","tol_num_moves_made","tol_target","tol_problem_id","tol_rt","key_press","possible_responses","tol_correct","preplanning","tol_rt_per_trial","tol_min_moves"
"true","false","[]","[]","[]","preload","0","2688","0.0-0.0","5cd3ff1ac99584000199dd15","D2","batch4","","","","","","","","","","","","","","","","","","","","","","","","","","","","","",""
"true","","","","","fullscreen","1","5953","0.0-1.0-0.0","5cd3ff1ac99584000199dd15","D2","batch4","","","","","","","","","","","","","","","","","","","","","","","","","","","","","",""
"true","","","","","fullscreen","2","9379","0.0-2.0-0.0","5cd3ff1ac99584000199dd15","D2","batch4","spm_fullscreen","","","","","","","","","","","","","","","","","","","","","","","","","","","","",""
"","","","","","html-button-response","3","18882","0.0-2.0-1.0","5cd3ff1ac99584000199dd15","D2","batch4","","9501","<p class = block-text><b>Instructions</b> <br>This is a widely used intelligence test in research. <br>In this test, a figure with a missing piece will be presented.<br>Below the figure are alternative pieces to complete the figure, only one of which is correct.<br> Different figures might involve different principles for obtaining the missing piece<br>Your job is to select the most logical piece to complete the figure.</p>","0","","","","","","","","","","","","","","","","","","","","","","","","","",""
"","","","","","html-keyboard-response","4","19688","0.0-2.0-2.0-0.0","5cd3ff1ac99584000199dd15","D2","batch4","spm_show_trial_num","null","<p class=block-text>Trial 1 out of 60</p>","null","","","","","","","","","","","","","","","","","","","","","","","","","",""
"","","","","","image-button-response","5","28648","0.0-2.0-2.0-1.0","5cd3ff1ac99584000199dd15","D2","batch4","spm_respsonse","8946","img/question_1_1.jpeg","1","mat_01","4","0","0","8946","","","","","","","","","","","","","","","","","","","","",""
"","","","","","html-keyboard-response","6","29710","0.0-2.0-2.0-0.1","5cd3ff1ac99584000199dd15","D2","batch4","spm_show_trial_num","null","<p class=block-text>Trial 2 out of 60</p>","null","","","","","","","","","","","","","","","","","","","","","","","","","",""
"","","","","","image-button-response","7","36697","0.0-2.0-2.0-1.1","5cd3ff1ac99584000199dd15","D2","batch4","spm_respsonse","6987","img/question_1_2.jpeg","4","mat_02","5","1","1","6987","","","","","","","","","","","","","","","","","","","","",""
"","","","","","html-keyboard-response","8","37757","0.0-2.0-2.0-0.2","5cd3ff1ac99584000199dd15","D2","batch4","spm_show_trial_num","null","<p class=block-text>Trial 3 out of 60</p>","null","","","","","","","","","","","","","","","","","","","","","","","","","",""
"","","","","","image-button-response","9","43980","0.0-2.0-2.0-1.2","5cd3ff1ac99584000199dd15","D2","batch4","spm_respsonse","6223","img/question_1_3.jpeg","0","mat_03","1","1","1","6223","","","","","","","","","","","","","","","","","","","","",""
"","","","","","html-keyboard-response","10","45036","0.0-2.0-2.0-0.3","5cd3ff1ac99584000199dd15","D2","batch4","spm_show_trial_num","null","<p class=block-text>Trial 4 out of 60</p>","null","","","","","","","","","","","","","","","","","","","","","","","","","",""
"","","","","","image-button-response","11","47104","0.0-2.0-2.0-1.3","5cd3ff1ac99584000199dd15","D2","batch4","spm_respsonse","2068","img/question_1_4.jpeg","1","mat_04","2","1","1","2068","","","","","","","","","","","","","","","","","","","","",""
"","","","","","html-keyboard-response","12","48163","0.0-2.0-2.0-0.4","5cd3ff1ac99584000199dd15","D2","batch4","spm_show_trial_num","null","<p class=block-text>Trial 5 out of 60</p>","null","","","","","","","","","","","","","","","","","","","","","","","","","",""
"","","","","","image-button-response","13","55045","0.0-2.0-2.0-1.4","5cd3ff1ac99584000199dd15","D2","batch4","spm_respsonse","6882","img/question_1_5.jpeg","4","mat_05","6","0","0","6882","","","","","","","","","","","","","","","","","","","","",""
"","","","","","html-keyboard-response","14","56108","0.0-2.0-2.0-0.5","5cd3ff1ac99584000199dd15","D2","batch4","spm_show_trial_num","null","<p class=block-text>Trial 6 out of 60</p>","null","","","","","","","","","","","","","","","","","","","","","","","","","",""
"","","","","","image-button-response","15","58688","0.0-2.0-2.0-1.5","5cd3ff1ac99584000199dd15","D2","batch4","spm_respsonse","2580","img/question_1_6.jpeg","2","mat_06","3","1","1","2580","","","","","","","","","","","","","","","","","","","","",""
"","","","","","html-keyboard-response","16","59748","0.0-2.0-2.0-0.6","5cd3ff1ac99584000199dd15","D2","batch4","spm_show_trial_num","null","<p class=block-text>Trial 7 out of 60</p>","null","","","","","","","","","","","","","","","","","","","","","","","","","",""
"","","","","","image-button-response","17","64042","0.0-2.0-2.0-1.6","5cd3ff1ac99584000199dd15","D2","batch4","spm_respsonse","4294","img/question_1_7.jpeg","5","mat_07","6","1","1","4294","","","","","","","","","","","","","","","","","","","","",""
"","","","","","html-keyboard-response","18","65100","0.0-2.0-2.0-0.7","5cd3ff1ac99584000199dd15","D2","batch4","spm_show_trial_num","null","<p class=block-text>Trial 8 out of 60</p>","null","","","","","","","","","","","","","","","","","","","","","","","","","",""
"","","","","","image-button-response","19","70252","0.0-2.0-2.0-1.7","5cd3ff1ac99584000199dd15","D2","batch4","spm_respsonse","5152","img/question_1_8.jpeg","1","mat_08","2","1","1","5152","","","","","","","","","","","","","","","","","","","","",""
"","","","","","html-keyboard-response","20","71316","0.0-2.0-2.0-0.8","5cd3ff1ac99584000199dd15","D2","batch4","spm_show_trial_num","null","<p class=block-text>Trial 9 out of 60</p>","null","","","","","","","","","","","","","","","","","","","","","","","","","",""
"","","","","","image-button-response","21","74186","0.0-2.0-2.0-1.8","5cd3ff1ac99584000199dd15","D2","batch4","spm_respsonse","2870","img/question_1_9.jpeg","0","mat_09","1","1","1","2870","","","","","","","","","","","","","","","","","","","","",""
"","","","","","html-keyboard-response","22","75250","0.0-2.0-2.0-0.9","5cd3ff1ac99584000199dd15","D2","batch4","spm_show_trial_num","null","<p class=block-text>Trial 10 out of 60</p>","null","","","","","","","","","","","","","","","","","","","","","","","","","",""
"","","","","","image-button-response","23","79794","0.0-2.0-2.0-1.9","5cd3ff1ac99584000199dd15","D2","batch4","spm_respsonse","4544","img/question_1_10.jpeg","2","mat_10","3","1","1","4544","","","","","","","","","","","","","","","","","","","","",""
"","","","","","html-keyboard-response","24","80854","0.0-2.0-2.0-0.10","5cd3ff1ac99584000199dd15","D2","batch4","spm_show_trial_num","null","<p class=block-text>Trial 11 out of 60</p>","null","","","","","","","","","","","","","","","","","","","","","","","","","",""
"","","","","","image-button-response","25","89858","0.0-2.0-2.0-1.10","5cd3ff1ac99584000199dd15","D2","batch4","spm_respsonse","9004","img/question_1_11.jpeg","3","mat_11","4","1","1","9004","","","","","","","","","","","","","","","","","","","","",""
"","","","","","html-keyboard-response","26","90930","0.0-2.0-2.0-0.11","5cd3ff1ac99584000199dd15","D2","batch4","spm_show_trial_num","null","<p class=block-text>Trial 12 out of 60</p>","null","","","","","","","","","","","","","","","","","","","","","","","","","",""
"","","","","","image-button-response","27","107332","0.0-2.0-2.0-1.11","5cd3ff1ac99584000199dd15","D2","batch4","spm_respsonse","16402","img/question_1_12.jpeg","4","mat_12","5","1","1","16402","","","","","","","","","","","","","","","","","","","","",""
"","","","","","html-keyboard-response","28","108402","0.0-2.0-2.0-0.12","5cd3ff1ac99584000199dd15","D2","batch4","spm_show_trial_num","null","<p class=block-text>Trial 13 out of 60</p>","null","","","","","","","","","","","","","","","","","","","","","","","","","",""
"","","","","","image-button-response","29","111051","0.0-2.0-2.0-1.12","5cd3ff1ac99584000199dd15","D2","batch4","spm_respsonse","2649","img/question_2_1.jpeg","1","mat_13","2","1","1","2649","","","","","","","","","","","","","","","","","","","","",""
"","","","","","html-keyboard-response","30","112110","0.0-2.0-2.0-0.13","5cd3ff1ac99584000199dd15","D2","batch4","spm_show_trial_num","null","<p class=block-text>Trial 14 out of 60</p>","null","","","","","","","","","","","","","","","","","","","","","","","","","",""
"","","","","","image-button-response","31","117283","0.0-2.0-2.0-1.13","5cd3ff1ac99584000199dd15","D2","batch4","spm_respsonse","5173","img/question_2_2.jpeg","5","mat_14","6","1","1","5173","","","","","","","","","","","","","","","","","","","","",""
"","","","","","html-keyboard-response","32","118348","0.0-2.0-2.0-0.14","5cd3ff1ac99584000199dd15","D2","batch4","spm_show_trial_num","null","<p class=block-text>Trial 15 out of 60</p>","null","","","","","","","","","","","","","","","","","","","","","","","","","",""
"","","","","","image-button-response","33","120926","0.0-2.0-2.0-1.14","5cd3ff1ac99584000199dd15","D2","batch4","spm_respsonse","2578","img/question_2_3.jpeg","0","mat_15","1","1","1","2578","","","","","","","","","","","","","","","","","","","","",""
"","","","","","html-keyboard-response","34","121991","0.0-2.0-2.0-0.15","5cd3ff1ac99584000199dd15","D2","batch4","spm_show_trial_num","null","<p class=block-text>Trial 16 out of 60</p>","null","","","","","","","","","","","","","","","","","","","","","","","","","",""
"","","","","","image-button-response","35","124902","0.0-2.0-2.0-1.15","5cd3ff1ac99584000199dd15","D2","batch4","spm_respsonse","2911","img/question_2_4.jpeg","1","mat_16","2","1","1","2911","","","","","","","","","","","","","","","","","","","","",""
"","","","","","html-keyboard-response","36","125964","0.0-2.0-2.0-0.16","5cd3ff1ac99584000199dd15","D2","batch4","spm_show_trial_num","null","<p class=block-text>Trial 17 out of 60</p>","null","","","","","","","","","","","","","","","","","","","","","","","","","",""
"","","","","","image-button-response","37","129217","0.0-2.0-2.0-1.16","5cd3ff1ac99584000199dd15","D2","batch4","spm_respsonse","3253","img/question_2_5.jpeg","0","mat_17","1","1","1","3253","","","","","","","","","","","","","","","","","","","","",""
"","","","","","html-keyboard-response","38","130283","0.0-2.0-2.0-0.17","5cd3ff1ac99584000199dd15","D2","batch4","spm_show_trial_num","null","<p class=block-text>Trial 18 out of 60</p>","null","","","","","","","","","","","","","","","","","","","","","","","","","",""
"","","","","","image-button-response","39","136085","0.0-2.0-2.0-1.17","5cd3ff1ac99584000199dd15","D2","batch4","spm_respsonse","5802","img/question_2_6.jpeg","2","mat_18","3","1","1","5802","","","","","","","","","","","","","","","","","","","","",""
"","","","","","html-keyboard-response","40","137154","0.0-2.0-2.0-0.18","5cd3ff1ac99584000199dd15","D2","batch4","spm_show_trial_num","null","<p class=block-text>Trial 19 out of 60</p>","null","","","","","","","","","","","","","","","","","","","","","","","","","",""
"","","","","","image-button-response","41","141741","0.0-2.0-2.0-1.18","5cd3ff1ac99584000199dd15","D2","batch4","spm_respsonse","4587","img/question_2_7.jpeg","4","mat_19","5","1","1","4587","","","","","","","","","","","","","","","","","","","","",""
"","","","","","html-keyboard-response","42","142811","0.0-2.0-2.0-0.19","5cd3ff1ac99584000199dd15","D2","batch4","spm_show_trial_num","null","<p class=block-text>Trial 20 out of 60</p>","null","","","","","","","","","","","","","","","","","","","","","","","","","",""
"","","","","","image-button-response","43","151709","0.0-2.0-2.0-1.19","5cd3ff1ac99584000199dd15","D2","batch4","spm_respsonse","8898","img/question_2_8.jpeg","5","mat_20","6","1","1","8898","","","","","","","","","","","","","","","","","","","","",""
"","","","","","html-keyboard-response","44","152772","0.0-2.0-2.0-0.20","5cd3ff1ac99584000199dd15","D2","batch4","spm_show_trial_num","null","<p class=block-text>Trial 21 out of 60</p>","null","","","","","","","","","","","","","","","","","","","","","","","","","",""
"","","","","","image-button-response","45","157742","0.0-2.0-2.0-1.20","5cd3ff1ac99584000199dd15","D2","batch4","spm_respsonse","4969","img/question_2_9.jpeg","3","mat_21","4","1","1","4969","","","","","","","","","","","","","","","","","","","","",""
"","","","","","html-keyboard-response","46","158804","0.0-2.0-2.0-0.21","5cd3ff1ac99584000199dd15","D2","batch4","spm_show_trial_num","null","<p class=block-text>Trial 22 out of 60</p>","null","","","","","","","","","","","","","","","","","","","","","","","","","",""
"","","","","","image-button-response","47","164903","0.0-2.0-2.0-1.21","5cd3ff1ac99584000199dd15","D2","batch4","spm_respsonse","6099","img/question_2_10.jpeg","2","mat_22","3","1","1","6099","","","","","","","","","","","","","","","","","","","","",""
"","","","","","html-keyboard-response","48","165969","0.0-2.0-2.0-0.22","5cd3ff1ac99584000199dd15","D2","batch4","spm_show_trial_num","null","<p class=block-text>Trial 23 out of 60</p>","null","","","","","","","","","","","","","","","","","","","","","","","","","",""
"","","","","","image-button-response","49","169617","0.0-2.0-2.0-1.22","5cd3ff1ac99584000199dd15","D2","batch4","spm_respsonse","3648","img/question_2_11.jpeg","3","mat_23","4","1","1","3648","","","","","","","","","","","","","","","","","","","","",""
"","","","","","html-keyboard-response","50","170677","0.0-2.0-2.0-0.23","5cd3ff1ac99584000199dd15","D2","batch4","spm_show_trial_num","null","<p class=block-text>Trial 24 out of 60</p>","null","","","","","","","","","","","","","","","","","","","","","","","","","",""
"","","","","","image-button-response","51","200878","0.0-2.0-2.0-1.23","5cd3ff1ac99584000199dd15","D2","batch4","spm_respsonse","30201","img/question_2_12.jpeg","4","mat_24","5","1","1","30201","","","","","","","","","","","","","","","","","","","","",""
"","","","","","html-button-response","52","202993","0.0-2.0-3.0","5cd3ff1ac99584000199dd15","D2","batch4","attention_check","1856","<p class = block-text>Attention check: Please choose 1<br></p>","0","","","true","","","","","","","","","","","","","","","","","","","","","","",""
"","","","","","html-keyboard-response","53","203800","0.0-2.0-4.0-0.0","5cd3ff1ac99584000199dd15","D2","batch4","spm_show_trial_num","null","<p class=block-text>Trial 25 out of 60</p>","null","","","","","","","","","","","","","","","","","","","","","","","","","",""
"","","","","","image-button-response","54","210755","0.0-2.0-4.0-1.0","5cd3ff1ac99584000199dd15","D2","batch4","spm_respsonse","6955","img/question_3_1.jpeg","7","mat_25","8","1","1","6955","","","","","","","","","","","","","","","","","","","","",""
"","","","","","html-keyboard-response","55","211823","0.0-2.0-4.0-0.1","5cd3ff1ac99584000199dd15","D2","batch4","spm_show_trial_num","null","<p class=block-text>Trial 26 out of 60</p>","null","","","","","","","","","","","","","","","","","","","","","","","","","",""
"","","","","","image-button-response","56","223330","0.0-2.0-4.0-1.1","5cd3ff1ac99584000199dd15","D2","batch4","spm_respsonse","11507","img/question_3_2.jpeg","1","mat_26","2","1","1","11507","","","","","","","","","","","","","","","","","","","","",""
"","","","","","html-keyboard-response","57","224401","0.0-2.0-4.0-0.2","5cd3ff1ac99584000199dd15","D2","batch4","spm_show_trial_num","null","<p class=block-text>Trial 27 out of 60</p>","null","","","","","","","","","","","","","","","","","","","","","","","","","",""
"","","","","","image-button-response","58","235364","0.0-2.0-4.0-1.2","5cd3ff1ac99584000199dd15","D2","batch4","spm_respsonse","10964","img/question_3_3.jpeg","2","mat_27","3","1","1","10964","","","","","","","","","","","","","","","","","","","","",""
"","","","","","html-keyboard-response","59","236426","0.0-2.0-4.0-0.3","5cd3ff1ac99584000199dd15","D2","batch4","spm_show_trial_num","null","<p class=block-text>Trial 28 out of 60</p>","null","","","","","","","","","","","","","","","","","","","","","","","","","",""
"","","","","","image-button-response","60","256988","0.0-2.0-4.0-1.3","5cd3ff1ac99584000199dd15","D2","batch4","spm_respsonse","20550","img/question_3_4.jpeg","7","mat_28","8","1","1","20550","","","","","","","","","","","","","","","","","","","","",""
"","","","","","html-keyboard-response","61","258051","0.0-2.0-4.0-0.4","5cd3ff1ac99584000199dd15","D2","batch4","spm_show_trial_num","null","<p class=block-text>Trial 29 out of 60</p>","null","","","","","","","","","","","","","","","","","","","","","","","","","",""
"","","","","","image-button-response","62","269000","0.0-2.0-4.0-1.4","5cd3ff1ac99584000199dd15","D2","batch4","spm_respsonse","10949","img/question_3_5.jpeg","6","mat_29","7","1","1","10949","","","","","","","","","","","","","","","","","","","","",""
"","","","","","html-keyboard-response","63","270064","0.0-2.0-4.0-0.5","5cd3ff1ac99584000199dd15","D2","batch4","spm_show_trial_num","null","<p class=block-text>Trial 30 out of 60</p>","null","","","","","","","","","","","","","","","","","","","","","","","","","",""
"","","","","","image-button-response","64","277020","0.0-2.0-4.0-1.5","5cd3ff1ac99584000199dd15","D2","batch4","spm_respsonse","6956","img/question_3_6.jpeg","3","mat_30","4","1","1","6956","","","","","","","","","","","","","","","","","","","","",""
"","","","","","html-keyboard-response","65","278075","0.0-2.0-4.0-0.6","5cd3ff1ac99584000199dd15","D2","batch4","spm_show_trial_num","null","<p class=block-text>Trial 31 out of 60</p>","null","","","","","","","","","","","","","","","","","","","","","","","","","",""
"","","","","","image-button-response","66","297529","0.0-2.0-4.0-1.6","5cd3ff1ac99584000199dd15","D2","batch4","spm_respsonse","19453","img/question_3_7.jpeg","4","mat_31","5","1","1","19453","","","","","","","","","","","","","","","","","","","","",""
"","","","","","html-keyboard-response","67","298581","0.0-2.0-4.0-0.7","5cd3ff1ac99584000199dd15","D2","batch4","spm_show_trial_num","null","<p class=block-text>Trial 32 out of 60</p>","null","","","","","","","","","","","","","","","","","","","","","","","","","",""
"","","","","","image-button-response","68","304320","0.0-2.0-4.0-1.7","5cd3ff1ac99584000199dd15","D2","batch4","spm_respsonse","5739","img/question_3_8.jpeg","0","mat_32","1","1","1","5739","","","","","","","","","","","","","","","","","","","","",""
"","","","","","html-keyboard-response","69","305380","0.0-2.0-4.0-0.8","5cd3ff1ac99584000199dd15","D2","batch4","spm_show_trial_num","null","<p class=block-text>Trial 33 out of 60</p>","null","","","","","","","","","","","","","","","","","","","","","","","","","",""
"","","","","","image-button-response","70","315802","0.0-2.0-4.0-1.8","5cd3ff1ac99584000199dd15","D2","batch4","spm_respsonse","10422","img/question_3_9.jpeg","6","mat_33","7","1","1","10422","","","","","","","","","","","","","","","","","","","","",""
"","","","","","html-keyboard-response","71","316871","0.0-2.0-4.0-0.9","5cd3ff1ac99584000199dd15","D2","batch4","spm_show_trial_num","null","<p class=block-text>Trial 34 out of 60</p>","null","","","","","","","","","","","","","","","","","","","","","","","","","",""
"","","","","","image-button-response","72","340553","0.0-2.0-4.0-1.9","5cd3ff1ac99584000199dd15","D2","batch4","spm_respsonse","23682","img/question_3_10.jpeg","5","mat_34","6","1","1","23682","","","","","","","","","","","","","","","","","","","","",""
"","","","","","html-keyboard-response","73","341625","0.0-2.0-4.0-0.10","5cd3ff1ac99584000199dd15","D2","batch4","spm_show_trial_num","null","<p class=block-text>Trial 35 out of 60</p>","null","","","","","","","","","","","","","","","","","","","","","","","","","",""
"","","","","","image-button-response","74","394283","0.0-2.0-4.0-1.10","5cd3ff1ac99584000199dd15","D2","batch4","spm_respsonse","52658","img/question_3_11.jpeg","0","mat_35","1","1","1","52658","","","","","","","","","","","","","","","","","","","","",""
"","","","","","html-keyboard-response","75","395340","0.0-2.0-4.0-0.11","5cd3ff1ac99584000199dd15","D2","batch4","spm_show_trial_num","null","<p class=block-text>Trial 36 out of 60</p>","null","","","","","","","","","","","","","","","","","","","","","","","","","",""
"","","","","","image-button-response","76","445208","0.0-2.0-4.0-1.11","5cd3ff1ac99584000199dd15","D2","batch4","spm_respsonse","49868","img/question_3_12.jpeg","1","mat_36","2","1","1","49868","","","","","","","","","","","","","","","","","","","","",""
"","","","","","html-keyboard-response","77","446265","0.0-2.0-4.0-0.12","5cd3ff1ac99584000199dd15","D2","batch4","spm_show_trial_num","null","<p class=block-text>Trial 37 out of 60</p>","null","","","","","","","","","","","","","","","","","","","","","","","","","",""
"","","","","","image-button-response","78","449030","0.0-2.0-4.0-1.12","5cd3ff1ac99584000199dd15","D2","batch4","spm_respsonse","2762","img/question_4_1.jpeg","2","mat_37","3","1","1","2762","","","","","","","","","","","","","","","","","","","","",""
"","","","","","html-keyboard-response","79","450091","0.0-2.0-4.0-0.13","5cd3ff1ac99584000199dd15","D2","batch4","spm_show_trial_num","null","<p class=block-text>Trial 38 out of 60</p>","null","","","","","","","","","","","","","","","","","","","","","","","","","",""
"","","","","","image-button-response","80","456735","0.0-2.0-4.0-1.13","5cd3ff1ac99584000199dd15","D2","batch4","spm_respsonse","6633","img/question_4_2.jpeg","3","mat_38","4","1","1","6633","","","","","","","","","","","","","","","","","","","","",""
"","","","","","html-keyboard-response","81","457801","0.0-2.0-4.0-0.14","5cd3ff1ac99584000199dd15","D2","batch4","spm_show_trial_num","null","<p class=block-text>Trial 39 out of 60</p>","null","","","","","","","","","","","","","","","","","","","","","","","","","",""
"","","","","","image-button-response","82","463433","0.0-2.0-4.0-1.14","5cd3ff1ac99584000199dd15","D2","batch4","spm_respsonse","5632","img/question_4_3.jpeg","2","mat_39","3","1","1","5632","","","","","","","","","","","","","","","","","","","","",""
"","","","","","html-keyboard-response","83","464493","0.0-2.0-4.0-0.15","5cd3ff1ac99584000199dd15","D2","batch4","spm_show_trial_num","null","<p class=block-text>Trial 40 out of 60</p>","null","","","","","","","","","","","","","","","","","","","","","","","","","",""
"","","","","","image-button-response","84","476530","0.0-2.0-4.0-1.15","5cd3ff1ac99584000199dd15","D2","batch4","spm_respsonse","12037","img/question_4_4.jpeg","6","mat_40","7","1","1","12037","","","","","","","","","","","","","","","","","","","","",""
"","","","","","html-keyboard-response","85","477591","0.0-2.0-4.0-0.16","5cd3ff1ac99584000199dd15","D2","batch4","spm_show_trial_num","null","<p class=block-text>Trial 41 out of 60</p>","null","","","","","","","","","","","","","","","","","","","","","","","","","",""
"","","","","","image-button-response","86","486626","0.0-2.0-4.0-1.16","5cd3ff1ac99584000199dd15","D2","batch4","spm_respsonse","9035","img/question_4_5.jpeg","7","mat_41","8","1","1","9035","","","","","","","","","","","","","","","","","","","","",""
"","","","","","html-keyboard-response","87","487690","0.0-2.0-4.0-0.17","5cd3ff1ac99584000199dd15","D2","batch4","spm_show_trial_num","null","<p class=block-text>Trial 42 out of 60</p>","null","","","","","","","","","","","","","","","","","","","","","","","","","",""
"","","","","","image-button-response","88","509734","0.0-2.0-4.0-1.17","5cd3ff1ac99584000199dd15","D2","batch4","spm_respsonse","22044","img/question_4_6.jpeg","5","mat_42","6","1","1","22044","","","","","","","","","","","","","","","","","","","","",""
"","","","","","html-keyboard-response","89","510800","0.0-2.0-4.0-0.18","5cd3ff1ac99584000199dd15","D2","batch4","spm_show_trial_num","null","<p class=block-text>Trial 43 out of 60</p>","null","","","","","","","","","","","","","","","","","","","","","","","","","",""
"","","","","","image-button-response","90","531201","0.0-2.0-4.0-1.18","5cd3ff1ac99584000199dd15","D2","batch4","spm_respsonse","20402","img/question_4_7.jpeg","4","mat_43","5","1","1","20402","","","","","","","","","","","","","","","","","","","","",""
"","","","","","html-keyboard-response","91","532270","0.0-2.0-4.0-0.19","5cd3ff1ac99584000199dd15","D2","batch4","spm_show_trial_num","null","<p class=block-text>Trial 44 out of 60</p>","null","","","","","","","","","","","","","","","","","","","","","","","","","",""
"","","","","","image-button-response","92","536917","0.0-2.0-4.0-1.19","5cd3ff1ac99584000199dd15","D2","batch4","spm_respsonse","4647","img/question_4_8.jpeg","1","mat_44","4","0","0","4647","","","","","","","","","","","","","","","","","","","","",""
"","","","","","html-keyboard-response","93","537977","0.0-2.0-4.0-0.20","5cd3ff1ac99584000199dd15","D2","batch4","spm_show_trial_num","null","<p class=block-text>Trial 45 out of 60</p>","null","","","","","","","","","","","","","","","","","","","","","","","","","",""
"","","","","","image-button-response","94","560399","0.0-2.0-4.0-1.20","5cd3ff1ac99584000199dd15","D2","batch4","spm_respsonse","22422","img/question_4_9.jpeg","0","mat_45","1","1","1","22422","","","","","","","","","","","","","","","","","","","","",""
"","","","","","html-keyboard-response","95","561460","0.0-2.0-4.0-0.21","5cd3ff1ac99584000199dd15","D2","batch4","spm_show_trial_num","null","<p class=block-text>Trial 46 out of 60</p>","null","","","","","","","","","","","","","","","","","","","","","","","","","",""
"","","","","","image-button-response","96","598707","0.0-2.0-4.0-1.21","5cd3ff1ac99584000199dd15","D2","batch4","spm_respsonse","37246","img/question_4_10.jpeg","1","mat_46","2","1","1","37246","","","","","","","","","","","","","","","","","","","","",""
"","","","","","html-keyboard-response","97","599775","0.0-2.0-4.0-0.22","5cd3ff1ac99584000199dd15","D2","batch4","spm_show_trial_num","null","<p class=block-text>Trial 47 out of 60</p>","null","","","","","","","","","","","","","","","","","","","","","","","","","",""
"","","","","","image-button-response","98","662078","0.0-2.0-4.0-1.22","5cd3ff1ac99584000199dd15","D2","batch4","spm_respsonse","62303","img/question_4_11.jpeg","4","mat_47","5","1","1","62303","","","","","","","","","","","","","","","","","","","","",""
"","","","","","html-keyboard-response","99","663147","0.0-2.0-4.0-0.23","5cd3ff1ac99584000199dd15","D2","batch4","spm_show_trial_num","null","<p class=block-text>Trial 48 out of 60</p>","null","","","","","","","","","","","","","","","","","","","","","","","","","",""
"","","","","","image-button-response","100","773589","0.0-2.0-4.0-1.23","5cd3ff1ac99584000199dd15","D2","batch4","spm_respsonse","110442","img/question_4_12.jpeg","5","mat_48","6","1","1","110442","","","","","","","","","","","","","","","","","","","","",""
"","","","","","html-keyboard-response","101","774656","0.0-2.0-4.0-0.24","5cd3ff1ac99584000199dd15","D2","batch4","spm_show_trial_num","null","<p class=block-text>Trial 49 out of 60</p>","null","","","","","","","","","","","","","","","","","","","","","","","","","",""
"","","","","","image-button-response","102","786808","0.0-2.0-4.0-1.24","5cd3ff1ac99584000199dd15","D2","batch4","spm_respsonse","12152","img/question_5_1.jpeg","6","mat_49","7","1","1","12152","","","","","","","","","","","","","","","","","","","","",""
"","","","","","html-keyboard-response","103","787873","0.0-2.0-4.0-0.25","5cd3ff1ac99584000199dd15","D2","batch4","spm_show_trial_num","null","<p class=block-text>Trial 50 out of 60</p>","null","","","","","","","","","","","","","","","","","","","","","","","","","",""
"","","","","","image-button-response","104","819158","0.0-2.0-4.0-1.25","5cd3ff1ac99584000199dd15","D2","batch4","spm_respsonse","31285","img/question_5_2.jpeg","5","mat_50","6","1","1","31285","","","","","","","","","","","","","","","","","","","","",""
"","","","","","html-keyboard-response","105","820217","0.0-2.0-4.0-0.26","5cd3ff1ac99584000199dd15","D2","batch4","spm_show_trial_num","null","<p class=block-text>Trial 51 out of 60</p>","null","","","","","","","","","","","","","","","","","","","","","","","","","",""
"","","","","","image-button-response","106","842113","0.0-2.0-4.0-1.26","5cd3ff1ac99584000199dd15","D2","batch4","spm_respsonse","21896","img/question_5_3.jpeg","7","mat_51","8","1","1","21896","","","","","","","","","","","","","","","","","","","","",""
"","","","","","html-keyboard-response","107","843176","0.0-2.0-4.0-0.27","5cd3ff1ac99584000199dd15","D2","batch4","spm_show_trial_num","null","<p class=block-text>Trial 52 out of 60</p>","null","","","","","","","","","","","","","","","","","","","","","","","","","",""
"","","","","","image-button-response","108","914855","0.0-2.0-4.0-1.27","5cd3ff1ac99584000199dd15","D2","batch4","spm_respsonse","71680","img/question_5_4.jpeg","1","mat_52","2","1","1","71680","","","","","","","","","","","","","","","","","","","","",""
"","","","","","html-keyboard-response","109","915915","0.0-2.0-4.0-0.28","5cd3ff1ac99584000199dd15","D2","batch4","spm_show_trial_num","null","<p class=block-text>Trial 53 out of 60</p>","null","","","","","","","","","","","","","","","","","","","","","","","","","",""
"","","","","","image-button-response","110","960824","0.0-2.0-4.0-1.28","5cd3ff1ac99584000199dd15","D2","batch4","spm_respsonse","44909","img/question_5_5.jpeg","0","mat_53","1","1","1","44909","","","","","","","","","","","","","","","","","","","","",""
"","","","","","html-keyboard-response","111","961883","0.0-2.0-4.0-0.29","5cd3ff1ac99584000199dd15","D2","batch4","spm_show_trial_num","null","<p class=block-text>Trial 54 out of 60</p>","null","","","","","","","","","","","","","","","","","","","","","","","","","",""
"","","","","","image-button-response","112","1051974","0.0-2.0-4.0-1.29","5cd3ff1ac99584000199dd15","D2","batch4","spm_respsonse","90090","img/question_5_6.jpeg","4","mat_54","5","1","1","90090","","","","","","","","","","","","","","","","","","","","",""
"","","","","","html-keyboard-response","113","1053040","0.0-2.0-4.0-0.30","5cd3ff1ac99584000199dd15","D2","batch4","spm_show_trial_num","null","<p class=block-text>Trial 55 out of 60</p>","null","","","","","","","","","","","","","","","","","","","","","","","","","",""
"","","","","","image-button-response","114","1298403","0.0-2.0-4.0-1.30","5cd3ff1ac99584000199dd15","D2","batch4","spm_respsonse","245363","img/question_5_7.jpeg","0","mat_55","1","1","1","245363","","","","","","","","","","","","","","","","","","","","",""
"","","","","","html-keyboard-response","115","1299467","0.0-2.0-4.0-0.31","5cd3ff1ac99584000199dd15","D2","batch4","spm_show_trial_num","null","<p class=block-text>Trial 56 out of 60</p>","null","","","","","","","","","","","","","","","","","","","","","","","","","",""
"","","","","","image-button-response","116","1407735","0.0-2.0-4.0-1.31","5cd3ff1ac99584000199dd15","D2","batch4","spm_respsonse","108260","img/question_5_8.jpeg","5","mat_56","6","1","1","108260","","","","","","","","","","","","","","","","","","","","",""
"","","","","","html-keyboard-response","117","1408801","0.0-2.0-4.0-0.32","5cd3ff1ac99584000199dd15","D2","batch4","spm_show_trial_num","null","<p class=block-text>Trial 57 out of 60</p>","null","","","","","","","","","","","","","","","","","","","","","","","","","",""
"","","","","","image-button-response","118","1505347","0.0-2.0-4.0-1.32","5cd3ff1ac99584000199dd15","D2","batch4","spm_respsonse","96546","img/question_5_9.jpeg","2","mat_57","3","1","1","96546","","","","","","","","","","","","","","","","","","","","",""
"","","","","","html-keyboard-response","119","1506409","0.0-2.0-4.0-0.33","5cd3ff1ac99584000199dd15","D2","batch4","spm_show_trial_num","null","<p class=block-text>Trial 58 out of 60</p>","null","","","","","","","","","","","","","","","","","","","","","","","","","",""
"","","","","","image-button-response","120","1608067","0.0-2.0-4.0-1.33","5cd3ff1ac99584000199dd15","D2","batch4","spm_respsonse","101657","img/question_5_10.jpeg","1","mat_58","2","1","1","101657","","","","","","","","","","","","","","","","","","","","",""
"","","","","","html-keyboard-response","121","1609128","0.0-2.0-4.0-0.34","5cd3ff1ac99584000199dd15","D2","batch4","spm_show_trial_num","null","<p class=block-text>Trial 59 out of 60</p>","null","","","","","","","","","","","","","","","","","","","","","","","","","",""
"","","","","","image-button-response","122","2136879","0.0-2.0-4.0-1.34","5cd3ff1ac99584000199dd15","D2","batch4","spm_respsonse","527751","img/question_5_11.jpeg","0","mat_59","4","0","0","527751","","","","","","","","","","","","","","","","","","","","",""
"","","","","","html-keyboard-response","123","2137945","0.0-2.0-4.0-0.35","5cd3ff1ac99584000199dd15","D2","batch4","spm_show_trial_num","null","<p class=block-text>Trial 60 out of 60</p>","null","","","","","","","","","","","","","","","","","","","","","","","","","",""
"","","","","","image-button-response","124","2265797","0.0-2.0-4.0-1.35","5cd3ff1ac99584000199dd15","D2","batch4","spm_respsonse","127853","img/question_5_12.jpeg","0","mat_60","5","0","0","127853","","","","","","","","","","","","","","","","","","","","",""
"","","","","","html-button-response","125","2268741","0.0-2.0-5.0","5cd3ff1ac99584000199dd15","D2","batch4","spm_goodbye","2689","<p class= block-text>This concludes the Standard Progressive Matrix game. Thank you for your responses!<br> When you are ready, click the button continue</p>","0","","","","","","","","","","","","","","","","","","","","","","","","","",""
"true","","","","","fullscreen","126","2272183","0.0-3.0-0.0","5cd3ff1ac99584000199dd15","D2","batch4","","","","","","","","","","","","","","","","","","","","","","","","","","","","","",""
"","","","","","instructions","127","2298787","0.0-3.0-1.0-0.0","5cd3ff1ac99584000199dd15","D2","batch4","","26604","","","","","","","","[{""page_index"":0,""viewing_time"":13840},{""page_index"":1,""viewing_time"":12764}]","","","","","","","","","","","","","","","","","","","",""
"","","","","","html-button-response","128","2299739","0.0-3.0-1.0-1.0-0.0","5cd3ff1ac99584000199dd15","D2","batch4","pattern_enter_quiz","951","<p class=block-text> Let's answer a few questions <br>","0","","","","","","","","","","","","","","","","","","","","","","","","","",""
"","","","","","html-button-response","129","2302832","0.0-3.0-1.0-1.0-1.0","5cd3ff1ac99584000199dd15","D2","batch4","pattern_quiz","3093","<p class = block-text>True or False: You will have as much time as you want to make each choice. <br></p>","1","","","true","","","","","","","","","","","","","","","","","","","","","","",""
"","","","","","html-button-response","130","2304263","0.0-3.0-1.0-1.0-2.0","5cd3ff1ac99584000199dd15","D2","batch4","pattern_quiz_feedback","1421","<p class = block-text>Correct! You should make your choice <strong> as fast as you can</strong>.</p>","0","","","","","","","","","","","","","","","","","","","","","","","","","",""
"","","","","","html-button-response","131","2310723","0.0-3.0-1.0-1.0-3.0","5cd3ff1ac99584000199dd15","D2","batch4","pattern_quiz","6460","<p class = block-text>True or False: You will look for 4 pieces in black or white color connected in a row either horizontally, vertically or diagonally. <br></p>","0","","","true","","","","","","","","","","","","","","","","","","","","","","",""
"","","","","","html-button-response","132","2311614","0.0-3.0-1.0-1.0-4.0","5cd3ff1ac99584000199dd15","D2","batch4","pattern_quiz_feedback","891","<p class = block-text>Correct! </p>","0","","","","","","","","","","","","","","","","","","","","","","","","","",""
"","","","","","html-button-response","133","2313171","0.0-3.0-2.0","5cd3ff1ac99584000199dd15","D2","batch4","pattern_enter_practice","1549","<p class=block-text> Now that you've understood the game, let's do a few practice trials before we start!<br> <br>","0","","","","","","","","","","","","","","","","","","","","","","","","","",""
"","","","","","image-keyboard-response","134","2314565","0.0-3.0-3.0-0.0","5cd3ff1ac99584000199dd15","D2","batch4","pattern_practice","1394","stim/prac_yes_20_dia_b1.png","f","","f","true","","","","","","","","","","","","","","","","","","","","","","",""
"","","","","","html-keyboard-response","135","2315578","0.0-3.0-3.0-1.0","5cd3ff1ac99584000199dd15","D2","batch4","pattern_feedback","null","<p style=""font-size:30px;color:green;"">Correct!</p>","null","","","","","","","","","","","","","","","","","","","","","","","","","",""
"","","","","","image-keyboard-response","136","2316345","0.0-3.0-3.0-0.1","5cd3ff1ac99584000199dd15","D2","batch4","pattern_practice","766","stim/prac_yes_18_hor_w1.png","f","","f","true","","","","","","","","","","","","","","","","","","","","","","",""
"","","","","","html-keyboard-response","137","2317361","0.0-3.0-3.0-1.1","5cd3ff1ac99584000199dd15","D2","batch4","pattern_feedback","null","<p style=""font-size:30px;color:green;"">Correct!</p>","null","","","","","","","","","","","","","","","","","","","","","","","","","",""
"","","","","","image-keyboard-response","138","2318034","0.0-3.0-3.0-0.2","5cd3ff1ac99584000199dd15","D2","batch4","pattern_practice","673","stim/prac_yes_16_ver_w1.png","f","","f","true","","","","","","","","","","","","","","","","","","","","","","",""
"","","","","","html-keyboard-response","139","2319053","0.0-3.0-3.0-1.2","5cd3ff1ac99584000199dd15","D2","batch4","pattern_feedback","null","<p style=""font-size:30px;color:green;"">Correct!</p>","null","","","","","","","","","","","","","","","","","","","","","","","","","",""
"","","","","","image-keyboard-response","140","2320274","0.0-3.0-3.0-0.3","5cd3ff1ac99584000199dd15","D2","batch4","pattern_practice","1221","stim/prac_no_16_1.png","j","","j","true","","","","","","","","","","","","","","","","","","","","","","",""
"","","","","","html-keyboard-response","141","2321293","0.0-3.0-3.0-1.3","5cd3ff1ac99584000199dd15","D2","batch4","pattern_feedback","null","<p style=""font-size:30px;color:green;"">Correct!</p>","null","","","","","","","","","","","","","","","","","","","","","","","","","",""
"","","","","","image-keyboard-response","142","2322242","0.0-3.0-3.0-0.4","5cd3ff1ac99584000199dd15","D2","batch4","pattern_practice","949","stim/prac_no_18_1.png","j","","j","true","","","","","","","","","","","","","","","","","","","","","","",""
"","","","","","html-keyboard-response","143","2323263","0.0-3.0-3.0-1.4","5cd3ff1ac99584000199dd15","D2","batch4","pattern_feedback","null","<p style=""font-size:30px;color:green;"">Correct!</p>","null","","","","","","","","","","","","","","","","","","","","","","","","","",""
"","","","","","html-button-response","144","2327350","0.0-3.0-4.0","5cd3ff1ac99584000199dd15","D2","batch4","pattern_enter_official_trials","4085","<p class=block-text> Good job! You are done with practice trials!<br>
        You responded correctly on 100% of the trials.<br>
        Press the button below to start official trials. Now you won't see any feedback about your response</p>","0","","","","","","","","","","","","","","","","","","","","","","","","","",""
"","","","","","html-keyboard-response","145","2328162","0.0-3.0-5.0-0.0","5cd3ff1ac99584000199dd15","D2","batch4","pattern_show_trial_num","null","<p class=block-text>Trial 1 out of 78</p>","null","","","","","","","","","","","","","","","","","","","","","","","","","",""
"","","","","","image-keyboard-response","146","2330641","0.0-3.0-5.0-1.0","5cd3ff1ac99584000199dd15","D2","batch4","pattern_response","2479","stim/yes_42_dia_w1_w.png","j","pattern_64","f","false","","","","2479","false","0","","","","","","","","","","","","","","","","",""
"","","","","","html-keyboard-response","147","2331958","0.0-3.0-5.0-0.1","5cd3ff1ac99584000199dd15","D2","batch4","pattern_show_trial_num","null","<p class=block-text>Trial 2 out of 78</p>","null","","","","","","","","","","","","","","","","","","","","","","","","","",""
"","","","","","image-keyboard-response","148","2334814","0.0-3.0-5.0-1.1","5cd3ff1ac99584000199dd15","D2","batch4","pattern_response","2856","stim/no_47_1_b.png","j","pattern_27","j","true","","","","2856","true","1","","","","","","","","","","","","","","","","",""
"","","","","","html-keyboard-response","149","2336126","0.0-3.0-5.0-0.2","5cd3ff1ac99584000199dd15","D2","batch4","pattern_show_trial_num","null","<p class=block-text>Trial 3 out of 78</p>","null","","","","","","","","","","","","","","","","","","","","","","","","","",""
"","","","","","image-keyboard-response","150","2337075","0.0-3.0-5.0-1.2","5cd3ff1ac99584000199dd15","D2","batch4","pattern_response","949","stim/yes_12_hor_w1_w.png","f","pattern_42","f","true","","","","949","true","2","","","","","","","","","","","","","","","","",""
"","","","","","html-keyboard-response","151","2338385","0.0-3.0-5.0-0.3","5cd3ff1ac99584000199dd15","D2","batch4","pattern_show_trial_num","null","<p class=block-text>Trial 4 out of 78</p>","null","","","","","","","","","","","","","","","","","","","","","","","","","",""
"","","","","","image-keyboard-response","152","2342252","0.0-3.0-5.0-1.3","5cd3ff1ac99584000199dd15","D2","batch4","pattern_response","3867","stim/yes_39_hor_w1_w.png","f","pattern_62","f","true","","","","3867","true","3","","","","","","","","","","","","","","","","",""
"","","","","","html-keyboard-response","153","2343566","0.0-3.0-5.0-0.4","5cd3ff1ac99584000199dd15","D2","batch4","pattern_show_trial_num","null","<p class=block-text>Trial 5 out of 78</p>","null","","","","","","","","","","","","","","","","","","","","","","","","","",""
"","","","","","image-keyboard-response","154","2345714","0.0-3.0-5.0-1.4","5cd3ff1ac99584000199dd15","D2","batch4","pattern_response","2148","stim/yes_44_ver_w1_w.png","f","pattern_66","f","true","","","","2148","true","4","","","","","","","","","","","","","","","","",""
"","","","","","html-keyboard-response","155","2347033","0.0-3.0-5.0-0.5","5cd3ff1ac99584000199dd15","D2","batch4","pattern_show_trial_num","null","<p class=block-text>Trial 6 out of 78</p>","null","","","","","","","","","","","","","","","","","","","","","","","","","",""
"","","","","","image-keyboard-response","156","2350670","0.0-3.0-5.0-1.5","5cd3ff1ac99584000199dd15","D2","batch4","pattern_response","3637","stim/no_45_1_w.png","j","pattern_25","j","true","","","","3637","true","5","","","","","","","","","","","","","","","","",""
"","","","","","html-keyboard-response","157","2351974","0.0-3.0-5.0-0.6","5cd3ff1ac99584000199dd15","D2","batch4","pattern_show_trial_num","null","<p class=block-text>Trial 7 out of 78</p>","null","","","","","","","","","","","","","","","","","","","","","","","","","",""
"","","","","","image-keyboard-response","158","2354257","0.0-3.0-5.0-1.6","5cd3ff1ac99584000199dd15","D2","batch4","pattern_response","2283","stim/no_25_1_b.png","j","pattern_09","j","true","","","","2283","true","6","","","","","","","","","","","","","","","","",""
"","","","","","html-keyboard-response","159","2355576","0.0-3.0-5.0-0.7","5cd3ff1ac99584000199dd15","D2","batch4","pattern_show_trial_num","null","<p class=block-text>Trial 8 out of 78</p>","null","","","","","","","","","","","","","","","","","","","","","","","","","",""
"","","","","","image-keyboard-response","160","2357192","0.0-3.0-5.0-1.7","5cd3ff1ac99584000199dd15","D2","batch4","pattern_response","1616","stim/no_33_1_b.png","j","pattern_15","j","true","","","","1616","true","7","","","","","","","","","","","","","","","","",""
"","","","","","html-keyboard-response","161","2358508","0.0-3.0-5.0-0.8","5cd3ff1ac99584000199dd15","D2","batch4","pattern_show_trial_num","null","<p class=block-text>Trial 9 out of 78</p>","null","","","","","","","","","","","","","","","","","","","","","","","","","",""
"","","","","","image-keyboard-response","162","2361822","0.0-3.0-5.0-1.8","5cd3ff1ac99584000199dd15","D2","batch4","pattern_response","3314","stim/no_51_1.png","j","pattern_31","j","true","","","","3314","true","8","","","","","","","","","","","","","","","","",""
"","","","","","html-keyboard-response","163","2363131","0.0-3.0-5.0-0.9","5cd3ff1ac99584000199dd15","D2","batch4","pattern_show_trial_num","null","<p class=block-text>Trial 10 out of 78</p>","null","","","","","","","","","","","","","","","","","","","","","","","","","",""
"","","","","","image-keyboard-response","164","2366513","0.0-3.0-5.0-1.9","5cd3ff1ac99584000199dd15","D2","batch4","pattern_response","3382","stim/no_58_1_w.png","j","pattern_35","j","true","","","","3382","true","9","","","","","","","","","","","","","","","","",""
"","","","","","html-keyboard-response","165","2367832","0.0-3.0-5.0-0.10","5cd3ff1ac99584000199dd15","D2","batch4","pattern_show_trial_num","null","<p class=block-text>Trial 11 out of 78</p>","null","","","","","","","","","","","","","","","","","","","","","","","","","",""
"","","","","","image-keyboard-response","166","2368768","0.0-3.0-5.0-1.10","5cd3ff1ac99584000199dd15","D2","batch4","pattern_response","935","stim/yes_29_hor_b1_b.png","f","pattern_52","f","true","","","","935","true","10","","","","","","","","","","","","","","","","",""
"","","","","","html-keyboard-response","167","2370089","0.0-3.0-5.0-0.11","5cd3ff1ac99584000199dd15","D2","batch4","pattern_show_trial_num","null","<p class=block-text>Trial 12 out of 78</p>","null","","","","","","","","","","","","","","","","","","","","","","","","","",""
"","","","","","image-keyboard-response","168","2372105","0.0-3.0-5.0-1.11","5cd3ff1ac99584000199dd15","D2","batch4","pattern_response","2016","stim/yes_33_dia_w1_w.png","f","pattern_56","f","true","","","","2016","true","11","","","","","","","","","","","","","","","","",""
"","","","","","html-keyboard-response","169","2373425","0.0-3.0-5.0-0.12","5cd3ff1ac99584000199dd15","D2","batch4","pattern_show_trial_num","null","<p class=block-text>Trial 13 out of 78</p>","null","","","","","","","","","","","","","","","","","","","","","","","","","",""
"","","","","","image-keyboard-response","170","2375962","0.0-3.0-5.0-1.12","5cd3ff1ac99584000199dd15","D2","batch4","pattern_response","2537","stim/no_22_1_b.png","j","pattern_07","j","true","","","","2537","true","12","","","","","","","","","","","","","","","","",""
"","","","","","html-keyboard-response","171","2377281","0.0-3.0-5.0-0.13","5cd3ff1ac99584000199dd15","D2","batch4","pattern_show_trial_num","null","<p class=block-text>Trial 14 out of 78</p>","null","","","","","","","","","","","","","","","","","","","","","","","","","",""
"","","","","","image-keyboard-response","172","2378091","0.0-3.0-5.0-1.13","5cd3ff1ac99584000199dd15","D2","batch4","pattern_response","810","stim/no_12_1.png","j","pattern_01","j","true","","","","810","true","13","","","","","","","","","","","","","","","","",""
"","","","","","html-keyboard-response","173","2379407","0.0-3.0-5.0-0.14","5cd3ff1ac99584000199dd15","D2","batch4","pattern_show_trial_num","null","<p class=block-text>Trial 15 out of 78</p>","null","","","","","","","","","","","","","","","","","","","","","","","","","",""
"","","","","","image-keyboard-response","174","2380308","0.0-3.0-5.0-1.14","5cd3ff1ac99584000199dd15","D2","batch4","pattern_response","901","stim/yes_17_ver_b1_b.png","f","pattern_46","f","true","","","","901","true","14","","","","","","","","","","","","","","","","",""
"","","","","","html-keyboard-response","175","2381623","0.0-3.0-5.0-0.15","5cd3ff1ac99584000199dd15","D2","batch4","pattern_show_trial_num","null","<p class=block-text>Trial 16 out of 78</p>","null","","","","","","","","","","","","","","","","","","","","","","","","","",""
"","","","","","image-keyboard-response","176","2384518","0.0-3.0-5.0-1.15","5cd3ff1ac99584000199dd15","D2","batch4","pattern_response","2895","stim/no_39_1_w.png","j","pattern_21","j","true","","","","2895","true","15","","","","","","","","","","","","","","","","",""
"","","","","","html-keyboard-response","177","2385831","0.0-3.0-5.0-0.16","5cd3ff1ac99584000199dd15","D2","batch4","pattern_show_trial_num","null","<p class=block-text>Trial 17 out of 78</p>","null","","","","","","","","","","","","","","","","","","","","","","","","","",""
"","","","","","image-keyboard-response","178","2387141","0.0-3.0-5.0-1.16","5cd3ff1ac99584000199dd15","D2","batch4","pattern_response","1310","stim/no_18_1_b.png","j","pattern_05","j","true","","","","1310","true","16","","","","","","","","","","","","","","","","",""
"","","","","","html-keyboard-response","179","2388455","0.0-3.0-5.0-0.17","5cd3ff1ac99584000199dd15","D2","batch4","pattern_show_trial_num","null","<p class=block-text>Trial 18 out of 78</p>","null","","","","","","","","","","","","","","","","","","","","","","","","","",""
"","","","","","image-keyboard-response","180","2389699","0.0-3.0-5.0-1.17","5cd3ff1ac99584000199dd15","D2","batch4","pattern_response","1244","stim/yes_53_ver_b1_b.png","f","pattern_74","f","true","","","","1244","true","17","","","","","","","","","","","","","","","","",""
"","","","","","html-keyboard-response","181","2391014","0.0-3.0-5.0-0.18","5cd3ff1ac99584000199dd15","D2","batch4","pattern_show_trial_num","null","<p class=block-text>Trial 19 out of 78</p>","null","","","","","","","","","","","","","","","","","","","","","","","","","",""
"","","","","","image-keyboard-response","182","2392917","0.0-3.0-5.0-1.18","5cd3ff1ac99584000199dd15","D2","batch4","pattern_response","1903","stim/no_43_2_b.png","j","pattern_23","j","true","","","","1903","true","18","","","","","","","","","","","","","","","","",""
"","","","","","html-keyboard-response","183","2394230","0.0-3.0-5.0-0.19","5cd3ff1ac99584000199dd15","D2","batch4","pattern_show_trial_num","null","<p class=block-text>Trial 20 out of 78</p>","null","","","","","","","","","","","","","","","","","","","","","","","","","",""
"","","","","","image-keyboard-response","184","2396303","0.0-3.0-5.0-1.19","5cd3ff1ac99584000199dd15","D2","batch4","pattern_response","2073","stim/yes_51_dia_b1.png","f","pattern_72","f","true","","","","2073","true","19","","","","","","","","","","","","","","","","",""
"","","","","","html-keyboard-response","185","2397615","0.0-3.0-5.0-0.20","5cd3ff1ac99584000199dd15","D2","batch4","pattern_show_trial_num","null","<p class=block-text>Trial 21 out of 78</p>","null","","","","","","","","","","","","","","","","","","","","","","","","","",""
"","","","","","image-keyboard-response","186","2398448","0.0-3.0-5.0-1.20","5cd3ff1ac99584000199dd15","D2","batch4","pattern_response","833","stim/no_15_1_w.png","j","pattern_03","j","true","","","","833","true","20","","","","","","","","","","","","","","","","",""
"","","","","","html-keyboard-response","187","2399765","0.0-3.0-5.0-0.21","5cd3ff1ac99584000199dd15","D2","batch4","pattern_show_trial_num","null","<p class=block-text>Trial 22 out of 78</p>","null","","","","","","","","","","","","","","","","","","","","","","","","","",""
"","","","","","image-keyboard-response","188","2400981","0.0-3.0-5.0-1.21","5cd3ff1ac99584000199dd15","D2","batch4","pattern_response","1216","stim/yes_26_dia_w2_w.png","f","pattern_50","f","true","","","","1216","true","21","","","","","","","","","","","","","","","","",""
"","","","","","html-keyboard-response","189","2402298","0.0-3.0-5.0-0.22","5cd3ff1ac99584000199dd15","D2","batch4","pattern_show_trial_num","null","<p class=block-text>Trial 23 out of 78</p>","null","","","","","","","","","","","","","","","","","","","","","","","","","",""
"","","","","","image-keyboard-response","190","2405459","0.0-3.0-5.0-1.22","5cd3ff1ac99584000199dd15","D2","batch4","pattern_response","3161","stim/no_37_2_w.png","j","pattern_19","j","true","","","","3161","true","22","","","","","","","","","","","","","","","","",""
"","","","","","html-keyboard-response","191","2406774","0.0-3.0-5.0-0.23","5cd3ff1ac99584000199dd15","D2","batch4","pattern_show_trial_num","null","<p class=block-text>Trial 24 out of 78</p>","null","","","","","","","","","","","","","","","","","","","","","","","","","",""
"","","","","","image-keyboard-response","192","2408793","0.0-3.0-5.0-1.23","5cd3ff1ac99584000199dd15","D2","batch4","pattern_response","2019","stim/no_36_1_b.png","j","pattern_17","j","true","","","","2019","true","23","","","","","","","","","","","","","","","","",""
"","","","","","html-keyboard-response","193","2410108","0.0-3.0-5.0-0.24","5cd3ff1ac99584000199dd15","D2","batch4","pattern_show_trial_num","null","<p class=block-text>Trial 25 out of 78</p>","null","","","","","","","","","","","","","","","","","","","","","","","","","",""
"","","","","","image-keyboard-response","194","2415655","0.0-3.0-5.0-1.24","5cd3ff1ac99584000199dd15","D2","batch4","pattern_response","5547","stim/no_67_1.png","j","pattern_39","j","true","","","","5547","true","24","","","","","","","","","","","","","","","","",""
"","","","","","html-keyboard-response","195","2416963","0.0-3.0-5.0-0.25","5cd3ff1ac99584000199dd15","D2","batch4","pattern_show_trial_num","null","<p class=block-text>Trial 26 out of 78</p>","null","","","","","","","","","","","","","","","","","","","","","","","","","",""
"","","","","","image-keyboard-response","196","2421059","0.0-3.0-5.0-1.25","5cd3ff1ac99584000199dd15","D2","batch4","pattern_response","4096","stim/yes_58_dia_w1_w.png","j","pattern_76","f","false","","","","4096","false","24","","","","","","","","","","","","","","","","",""
"","","","","","html-keyboard-response","197","2422372","0.0-3.0-5.0-0.26","5cd3ff1ac99584000199dd15","D2","batch4","pattern_show_trial_num","null","<p class=block-text>Trial 27 out of 78</p>","null","","","","","","","","","","","","","","","","","","","","","","","","","",""
"","","","","","image-keyboard-response","198","2424180","0.0-3.0-5.0-1.26","5cd3ff1ac99584000199dd15","D2","batch4","pattern_response","1808","stim/no_28_2.png","j","pattern_11","j","true","","","","1808","true","25","","","","","","","","","","","","","","","","",""
"","","","","","html-keyboard-response","199","2425496","0.0-3.0-5.0-0.27","5cd3ff1ac99584000199dd15","D2","batch4","pattern_show_trial_num","null","<p class=block-text>Trial 28 out of 78</p>","null","","","","","","","","","","","","","","","","","","","","","","","","","",""
"","","","","","image-keyboard-response","200","2426813","0.0-3.0-5.0-1.27","5cd3ff1ac99584000199dd15","D2","batch4","pattern_response","1317","stim/yes_37_hor_w1_w.png","f","pattern_60","f","true","","","","1317","true","26","","","","","","","","","","","","","","","","",""
"","","","","","html-keyboard-response","201","2428129","0.0-3.0-5.0-0.28","5cd3ff1ac99584000199dd15","D2","batch4","pattern_show_trial_num","null","<p class=block-text>Trial 29 out of 78</p>","null","","","","","","","","","","","","","","","","","","","","","","","","","",""
"","","","","","image-keyboard-response","202","2433141","0.0-3.0-5.0-1.28","5cd3ff1ac99584000199dd15","D2","batch4","pattern_response","5012","stim/no_53_1_b.png","j","pattern_33","j","true","","","","5012","true","27","","","","","","","","","","","","","","","","",""
"","","","","","html-keyboard-response","203","2434454","0.0-3.0-5.0-0.29","5cd3ff1ac99584000199dd15","D2","batch4","pattern_show_trial_num","null","<p class=block-text>Trial 30 out of 78</p>","null","","","","","","","","","","","","","","","","","","","","","","","","","",""
"","","","","","image-keyboard-response","204","2437102","0.0-3.0-5.0-1.29","5cd3ff1ac99584000199dd15","D2","batch4","pattern_response","2648","stim/no_49_2_b.png","j","pattern_29","j","true","","","","2648","true","28","","","","","","","","","","","","","","","","",""
"","","","","","html-keyboard-response","205","2438413","0.0-3.0-5.0-0.30","5cd3ff1ac99584000199dd15","D2","batch4","pattern_show_trial_num","null","<p class=block-text>Trial 31 out of 78</p>","null","","","","","","","","","","","","","","","","","","","","","","","","","",""
"","","","","","image-keyboard-response","206","2439933","0.0-3.0-5.0-1.30","5cd3ff1ac99584000199dd15","D2","batch4","pattern_response","1520","stim/yes_70_ver_b1.png","f","pattern_80","f","true","","","","1520","true","29","","","","","","","","","","","","","","","","",""
"","","","","","html-keyboard-response","207","2441237","0.0-3.0-5.0-0.31","5cd3ff1ac99584000199dd15","D2","batch4","pattern_show_trial_num","null","<p class=block-text>Trial 32 out of 78</p>","null","","","","","","","","","","","","","","","","","","","","","","","","","",""
"","","","","","image-keyboard-response","208","2442342","0.0-3.0-5.0-1.31","5cd3ff1ac99584000199dd15","D2","batch4","pattern_response","1105","stim/yes_30_ver_b1_b.png","j","pattern_54","f","false","","","","1105","false","29","","","","","","","","","","","","","","","","",""
"","","","","","html-keyboard-response","209","2443656","0.0-3.0-5.0-0.32","5cd3ff1ac99584000199dd15","D2","batch4","pattern_show_trial_num","null","<p class=block-text>Trial 33 out of 78</p>","null","","","","","","","","","","","","","","","","","","","","","","","","","",""
"","","","","","image-keyboard-response","210","2444716","0.0-3.0-5.0-1.32","5cd3ff1ac99584000199dd15","D2","batch4","pattern_response","1060","stim/yes_23_ver_b1.png","f","pattern_48","f","true","","","","1060","true","30","","","","","","","","","","","","","","","","",""
"","","","","","html-keyboard-response","211","2446028","0.0-3.0-5.0-0.33","5cd3ff1ac99584000199dd15","D2","batch4","pattern_show_trial_num","null","<p class=block-text>Trial 34 out of 78</p>","null","","","","","","","","","","","","","","","","","","","","","","","","","",""
"","","","","","image-keyboard-response","212","2446759","0.0-3.0-5.0-1.33","5cd3ff1ac99584000199dd15","D2","batch4","pattern_response","731","stim/yes_15_dia_b1u_b.png","f","pattern_44","f","true","","","","731","true","31","","","","","","","","","","","","","","","","",""
"","","","","","html-keyboard-response","213","2448077","0.0-3.0-5.0-0.34","5cd3ff1ac99584000199dd15","D2","batch4","pattern_show_trial_num","null","<p class=block-text>Trial 35 out of 78</p>","null","","","","","","","","","","","","","","","","","","","","","","","","","",""
"","","","","","image-keyboard-response","214","2448871","0.0-3.0-5.0-1.34","5cd3ff1ac99584000199dd15","D2","batch4","pattern_response","794","stim/yes_46_ver_b1_b.png","f","pattern_68","f","true","","","","794","true","32","","","","","","","","","","","","","","","","",""
"","","","","","html-keyboard-response","215","2450187","0.0-3.0-5.0-0.35","5cd3ff1ac99584000199dd15","D2","batch4","pattern_show_trial_num","null","<p class=block-text>Trial 36 out of 78</p>","null","","","","","","","","","","","","","","","","","","","","","","","","","",""
"","","","","","image-keyboard-response","216","2451456","0.0-3.0-5.0-1.35","5cd3ff1ac99584000199dd15","D2","batch4","pattern_response","1262","stim/yes_49_hor_w1_b.png","f","pattern_70","f","true","","","","1262","true","33","","","","","","","","","","","","","","","","",""
"","","","","","html-keyboard-response","217","2452769","0.0-3.0-5.0-0.36","5cd3ff1ac99584000199dd15","D2","batch4","pattern_show_trial_num","null","<p class=block-text>Trial 37 out of 78</p>","null","","","","","","","","","","","","","","","","","","","","","","","","","",""
"","","","","","image-keyboard-response","218","2453492","0.0-3.0-5.0-1.36","5cd3ff1ac99584000199dd15","D2","batch4","pattern_response","723","stim/yes_36_ver_w1_w.png","f","pattern_58","f","true","","","","723","true","34","","","","","","","","","","","","","","","","",""
"","","","","","html-keyboard-response","219","2454803","0.0-3.0-5.0-0.37","5cd3ff1ac99584000199dd15","D2","batch4","pattern_show_trial_num","null","<p class=block-text>Trial 38 out of 78</p>","null","","","","","","","","","","","","","","","","","","","","","","","","","",""
"","","","","","image-keyboard-response","220","2459263","0.0-3.0-5.0-1.37","5cd3ff1ac99584000199dd15","D2","batch4","pattern_response","4460","stim/yes_63_dia_b1.png","f","pattern_78","f","true","","","","4460","true","35","","","","","","","","","","","","","","","","",""
"","","","","","html-keyboard-response","221","2460578","0.0-3.0-5.0-0.38","5cd3ff1ac99584000199dd15","D2","batch4","pattern_show_trial_num","null","<p class=block-text>Trial 39 out of 78</p>","null","","","","","","","","","","","","","","","","","","","","","","","","","",""
"","","","","","image-keyboard-response","222","2462248","0.0-3.0-5.0-1.38","5cd3ff1ac99584000199dd15","D2","batch4","pattern_response","1670","stim/no_30_1_b.png","j","pattern_13","j","true","","","","1670","true","36","","","","","","","","","","","","","","","","",""
"","","","","","image-keyboard-response","223","2464499","0.0-3.0-6.0","5cd3ff1ac99584000199dd15","D2","batch4","attention_check","1743","stim/empty_board.png","j","","j","true","","","","","","","500","[""f"",""j""]","","","","","","","","","","","","","","",""
"","","","","","html-keyboard-response","224","2465309","0.0-3.0-7.0-0.0","5cd3ff1ac99584000199dd15","D2","batch4","pattern_show_trial_num","null","<p class=block-text>Trial 40 out of 78</p>","null","","","","","","","","","","","","","","","","","","","","","","","","","",""
"","","","","","image-keyboard-response","225","2466971","0.0-3.0-7.0-1.0","5cd3ff1ac99584000199dd15","D2","batch4","pattern_response","1662","stim/yes_35_dia_b1.png","f","pattern_57","f","true","","","","1662","true","37","","","","","","","","","","","","","","","","",""
"","","","","","html-keyboard-response","226","2468284","0.0-3.0-7.0-0.1","5cd3ff1ac99584000199dd15","D2","batch4","pattern_show_trial_num","null","<p class=block-text>Trial 41 out of 78</p>","null","","","","","","","","","","","","","","","","","","","","","","","","","",""
"","","","","","image-keyboard-response","227","2469618","0.0-3.0-7.0-1.1","5cd3ff1ac99584000199dd15","D2","batch4","pattern_response","1334","stim/yes_55_hor_w1_w.png","f","pattern_75","f","true","","","","1334","true","38","","","","","","","","","","","","","","","","",""
"","","","","","html-keyboard-response","228","2470928","0.0-3.0-7.0-0.2","5cd3ff1ac99584000199dd15","D2","batch4","pattern_show_trial_num","null","<p class=block-text>Trial 42 out of 78</p>","null","","","","","","","","","","","","","","","","","","","","","","","","","",""
"","","","","","image-keyboard-response","229","2473525","0.0-3.0-7.0-1.2","5cd3ff1ac99584000199dd15","D2","batch4","pattern_response","2597","stim/no_38_1_b.png","j","pattern_20","j","true","","","","2597","true","39","","","","","","","","","","","","","","","","",""
"","","","","","html-keyboard-response","230","2474836","0.0-3.0-7.0-0.3","5cd3ff1ac99584000199dd15","D2","batch4","pattern_show_trial_num","null","<p class=block-text>Trial 43 out of 78</p>","null","","","","","","","","","","","","","","","","","","","","","","","","","",""
"","","","","","image-keyboard-response","231","2478199","0.0-3.0-7.0-1.3","5cd3ff1ac99584000199dd15","D2","batch4","pattern_response","3363","stim/no_55_1_w.png","j","pattern_34","j","true","","","","3363","true","40","","","","","","","","","","","","","","","","",""
"","","","","","html-keyboard-response","232","2479520","0.0-3.0-7.0-0.4","5cd3ff1ac99584000199dd15","D2","batch4","pattern_show_trial_num","null","<p class=block-text>Trial 44 out of 78</p>","null","","","","","","","","","","","","","","","","","","","","","","","","","",""
"","","","","","image-keyboard-response","233","2481235","0.0-3.0-7.0-1.4","5cd3ff1ac99584000199dd15","D2","batch4","pattern_response","1715","stim/yes_40_dia_b1_b.png","j","pattern_63","f","false","","","","1715","false","40","","","","","","","","","","","","","","","","",""
"","","","","","html-keyboard-response","234","2482538","0.0-3.0-7.0-0.5","5cd3ff1ac99584000199dd15","D2","batch4","pattern_show_trial_num","null","<p class=block-text>Trial 45 out of 78</p>","null","","","","","","","","","","","","","","","","","","","","","","","","","",""
"","","","","","image-keyboard-response","235","2483673","0.0-3.0-7.0-1.5","5cd3ff1ac99584000199dd15","D2","batch4","pattern_response","1135","stim/no_26_1_w.png","j","pattern_10","j","true","","","","1135","true","41","","","","","","","","","","","","","","","","",""
"","","","","","html-keyboard-response","236","2484987","0.0-3.0-7.0-0.6","5cd3ff1ac99584000199dd15","D2","batch4","pattern_show_trial_num","null","<p class=block-text>Trial 46 out of 78</p>","null","","","","","","","","","","","","","","","","","","","","","","","","","",""
"","","","","","image-keyboard-response","237","2486497","0.0-3.0-7.0-1.6","5cd3ff1ac99584000199dd15","D2","batch4","pattern_response","1510","stim/yes_38_hor_b1_b.png","f","pattern_61","f","true","","","","1510","true","42","","","","","","","","","","","","","","","","",""
"","","","","","html-keyboard-response","238","2487810","0.0-3.0-7.0-0.7","5cd3ff1ac99584000199dd15","D2","batch4","pattern_show_trial_num","null","<p class=block-text>Trial 47 out of 78</p>","null","","","","","","","","","","","","","","","","","","","","","","","","","",""
"","","","","","image-keyboard-response","239","2491832","0.0-3.0-7.0-1.7","5cd3ff1ac99584000199dd15","D2","batch4","pattern_response","4022","stim/no_52_1.png","j","pattern_32","j","true","","","","4022","true","43","","","","","","","","","","","","","","","","",""
"","","","","","html-keyboard-response","240","2493142","0.0-3.0-7.0-0.8","5cd3ff1ac99584000199dd15","D2","batch4","pattern_show_trial_num","null","<p class=block-text>Trial 48 out of 78</p>","null","","","","","","","","","","","","","","","","","","","","","","","","","",""
"","","","","","image-keyboard-response","241","2498818","0.0-3.0-7.0-1.8","5cd3ff1ac99584000199dd15","D2","batch4","pattern_response","5676","stim/no_62_1_w.png","j","pattern_36","j","true","","","","5676","true","44","","","","","","","","","","","","","","","","",""
"","","","","","html-keyboard-response","242","2500133","0.0-3.0-7.0-0.9","5cd3ff1ac99584000199dd15","D2","batch4","pattern_show_trial_num","null","<p class=block-text>Trial 49 out of 78</p>","null","","","","","","","","","","","","","","","","","","","","","","","","","",""
"","","","","","image-keyboard-response","243","2502068","0.0-3.0-7.0-1.9","5cd3ff1ac99584000199dd15","D2","batch4","pattern_response","1935","stim/no_32_1_w.png","j","pattern_14","j","true","","","","1935","true","45","","","","","","","","","","","","","","","","",""
"","","","","","html-keyboard-response","244","2503385","0.0-3.0-7.0-0.10","5cd3ff1ac99584000199dd15","D2","batch4","pattern_show_trial_num","null","<p class=block-text>Trial 50 out of 78</p>","null","","","","","","","","","","","","","","","","","","","","","","","","","",""
"","","","","","image-keyboard-response","245","2505204","0.0-3.0-7.0-1.10","5cd3ff1ac99584000199dd15","D2","batch4","pattern_response","1819","stim/yes_31_hor_b1.png","f","pattern_55","f","true","","","","1819","true","46","","","","","","","","","","","","","","","","",""
"","","","","","html-keyboard-response","246","2506518","0.0-3.0-7.0-0.11","5cd3ff1ac99584000199dd15","D2","batch4","pattern_show_trial_num","null","<p class=block-text>Trial 51 out of 78</p>","null","","","","","","","","","","","","","","","","","","","","","","","","","",""
"","","","","","image-keyboard-response","247","2509336","0.0-3.0-7.0-1.11","5cd3ff1ac99584000199dd15","D2","batch4","pattern_response","2805","stim/yes_48_dia_w1_w.png","j","pattern_69","f","false","","","","2805","false","46","","","","","","","","","","","","","","","","",""
"","","","","","html-keyboard-response","248","2510651","0.0-3.0-7.0-0.12","5cd3ff1ac99584000199dd15","D2","batch4","pattern_show_trial_num","null","<p class=block-text>Trial 52 out of 78</p>","null","","","","","","","","","","","","","","","","","","","","","","","","","",""
"","","","","","image-keyboard-response","249","2511547","0.0-3.0-7.0-1.12","5cd3ff1ac99584000199dd15","D2","batch4","pattern_response","896","stim/yes_14_hor_b1_w.png","f","pattern_43","f","true","","","","896","true","47","","","","","","","","","","","","","","","","",""
"","","","","","html-keyboard-response","250","2512862","0.0-3.0-7.0-0.13","5cd3ff1ac99584000199dd15","D2","batch4","pattern_show_trial_num","null","<p class=block-text>Trial 53 out of 78</p>","null","","","","","","","","","","","","","","","","","","","","","","","","","",""
"","","","","","image-keyboard-response","251","2514570","0.0-3.0-7.0-1.13","5cd3ff1ac99584000199dd15","D2","batch4","pattern_response","1708","stim/yes_45_hor_b2_b.png","f","pattern_67","f","true","","","","1708","true","48","","","","","","","","","","","","","","","","",""
"","","","","","html-keyboard-response","252","2515887","0.0-3.0-7.0-0.14","5cd3ff1ac99584000199dd15","D2","batch4","pattern_show_trial_num","null","<p class=block-text>Trial 54 out of 78</p>","null","","","","","","","","","","","","","","","","","","","","","","","","","",""
"","","","","","image-keyboard-response","253","2517180","0.0-3.0-7.0-1.14","5cd3ff1ac99584000199dd15","D2","batch4","pattern_response","1293","stim/yes_43_ver_w1_w.png","f","pattern_65","f","true","","","","1293","true","49","","","","","","","","","","","","","","","","",""
"","","","","","html-keyboard-response","254","2518492","0.0-3.0-7.0-0.15","5cd3ff1ac99584000199dd15","D2","batch4","pattern_show_trial_num","null","<p class=block-text>Trial 55 out of 78</p>","null","","","","","","","","","","","","","","","","","","","","","","","","","",""
"","","","","","image-keyboard-response","255","2523027","0.0-3.0-7.0-1.15","5cd3ff1ac99584000199dd15","D2","batch4","pattern_response","4535","stim/no_48_1_w.png","j","pattern_28","j","true","","","","4535","true","50","","","","","","","","","","","","","","","","",""
"","","","","","html-keyboard-response","256","2524342","0.0-3.0-7.0-0.16","5cd3ff1ac99584000199dd15","D2","batch4","pattern_show_trial_num","null","<p class=block-text>Trial 56 out of 78</p>","null","","","","","","","","","","","","","","","","","","","","","","","","","",""
"","","","","","image-keyboard-response","257","2525799","0.0-3.0-7.0-1.16","5cd3ff1ac99584000199dd15","D2","batch4","pattern_response","1457","stim/yes_29_ver_w1.png","f","pattern_53","f","true","","","","1457","true","51","","","","","","","","","","","","","","","","",""
"","","","","","html-keyboard-response","258","2527110","0.0-3.0-7.0-0.17","5cd3ff1ac99584000199dd15","D2","batch4","pattern_show_trial_num","null","<p class=block-text>Trial 57 out of 78</p>","null","","","","","","","","","","","","","","","","","","","","","","","","","",""
"","","","","","image-keyboard-response","259","2528006","0.0-3.0-7.0-1.17","5cd3ff1ac99584000199dd15","D2","batch4","pattern_response","896","stim/yes_17_dia_w1.png","f","pattern_45","f","true","","","","896","true","52","","","","","","","","","","","","","","","","",""
"","","","","","html-keyboard-response","260","2529315","0.0-3.0-7.0-0.18","5cd3ff1ac99584000199dd15","D2","batch4","pattern_show_trial_num","null","<p class=block-text>Trial 58 out of 78</p>","null","","","","","","","","","","","","","","","","","","","","","","","","","",""
"","","","","","image-keyboard-response","261","2530221","0.0-3.0-7.0-1.18","5cd3ff1ac99584000199dd15","D2","batch4","pattern_response","906","stim/no_17_1_w.png","j","pattern_04","j","true","","","","906","true","53","","","","","","","","","","","","","","","","",""
"","","","","","html-keyboard-response","262","2531534","0.0-3.0-7.0-0.19","5cd3ff1ac99584000199dd15","D2","batch4","pattern_show_trial_num","null","<p class=block-text>Trial 59 out of 78</p>","null","","","","","","","","","","","","","","","","","","","","","","","","","",""
"","","","","","image-keyboard-response","263","2533812","0.0-3.0-7.0-1.19","5cd3ff1ac99584000199dd15","D2","batch4","pattern_response","2278","stim/no_34_1_b.png","j","pattern_16","j","true","","","","2278","true","54","","","","","","","","","","","","","","","","",""
"","","","","","html-keyboard-response","264","2535124","0.0-3.0-7.0-0.20","5cd3ff1ac99584000199dd15","D2","batch4","pattern_show_trial_num","null","<p class=block-text>Trial 60 out of 78</p>","null","","","","","","","","","","","","","","","","","","","","","","","","","",""
"","","","","","image-keyboard-response","265","2537684","0.0-3.0-7.0-1.20","5cd3ff1ac99584000199dd15","D2","batch4","pattern_response","2560","stim/yes_50_dia_w1.png","j","pattern_71","f","false","","","","2560","false","54","","","","","","","","","","","","","","","","",""
"","","","","","html-keyboard-response","266","2538996","0.0-3.0-7.0-0.21","5cd3ff1ac99584000199dd15","D2","batch4","pattern_show_trial_num","null","<p class=block-text>Trial 61 out of 78</p>","null","","","","","","","","","","","","","","","","","","","","","","","","","",""
"","","","","","image-keyboard-response","267","2540185","0.0-3.0-7.0-1.21","5cd3ff1ac99584000199dd15","D2","batch4","pattern_response","1189","stim/yes_52_ver_w1.png","f","pattern_73","f","true","","","","1189","true","55","","","","","","","","","","","","","","","","",""
"","","","","","html-keyboard-response","268","2541500","0.0-3.0-7.0-0.22","5cd3ff1ac99584000199dd15","D2","batch4","pattern_show_trial_num","null","<p class=block-text>Trial 62 out of 78</p>","null","","","","","","","","","","","","","","","","","","","","","","","","","",""
"","","","","","image-keyboard-response","269","2542334","0.0-3.0-7.0-1.22","5cd3ff1ac99584000199dd15","D2","batch4","pattern_response","834","stim/no_23_1.png","j","pattern_08","j","true","","","","834","true","56","","","","","","","","","","","","","","","","",""
"","","","","","html-keyboard-response","270","2543648","0.0-3.0-7.0-0.23","5cd3ff1ac99584000199dd15","D2","batch4","pattern_show_trial_num","null","<p class=block-text>Trial 63 out of 78</p>","null","","","","","","","","","","","","","","","","","","","","","","","","","",""
"","","","","","image-keyboard-response","271","2544638","0.0-3.0-7.0-1.23","5cd3ff1ac99584000199dd15","D2","batch4","pattern_response","990","stim/yes_67_hor_b1.png","f","pattern_79","f","true","","","","990","true","57","","","","","","","","","","","","","","","","",""
"","","","","","html-keyboard-response","272","2545951","0.0-3.0-7.0-0.24","5cd3ff1ac99584000199dd15","D2","batch4","pattern_show_trial_num","null","<p class=block-text>Trial 64 out of 78</p>","null","","","","","","","","","","","","","","","","","","","","","","","","","",""
"","","","","","image-keyboard-response","273","2547380","0.0-3.0-7.0-1.24","5cd3ff1ac99584000199dd15","D2","batch4","pattern_response","1429","stim/yes_60_ver_b1_b.png","f","pattern_77","f","true","","","","1429","true","58","","","","","","","","","","","","","","","","",""
"","","","","","html-keyboard-response","274","2548693","0.0-3.0-7.0-0.25","5cd3ff1ac99584000199dd15","D2","batch4","pattern_show_trial_num","null","<p class=block-text>Trial 65 out of 78</p>","null","","","","","","","","","","","","","","","","","","","","","","","","","",""
"","","","","","image-keyboard-response","275","2551125","0.0-3.0-7.0-1.25","5cd3ff1ac99584000199dd15","D2","batch4","pattern_response","2432","stim/no_36_2_w.png","j","pattern_18","j","true","","","","2432","true","59","","","","","","","","","","","","","","","","",""
"","","","","","html-keyboard-response","276","2552442","0.0-3.0-7.0-0.26","5cd3ff1ac99584000199dd15","D2","batch4","pattern_show_trial_num","null","<p class=block-text>Trial 66 out of 78</p>","null","","","","","","","","","","","","","","","","","","","","","","","","","",""
"","","","","","image-keyboard-response","277","2557573","0.0-3.0-7.0-1.26","5cd3ff1ac99584000199dd15","D2","batch4","pattern_response","5131","stim/no_70_2.png","j","pattern_40","j","true","","","","5131","true","60","","","","","","","","","","","","","","","","",""
"","","","","","html-keyboard-response","278","2558884","0.0-3.0-7.0-0.27","5cd3ff1ac99584000199dd15","D2","batch4","pattern_show_trial_num","null","<p class=block-text>Trial 67 out of 78</p>","null","","","","","","","","","","","","","","","","","","","","","","","","","",""
"","","","","","image-keyboard-response","279","2559857","0.0-3.0-7.0-1.27","5cd3ff1ac99584000199dd15","D2","batch4","pattern_response","973","stim/yes_25_hor_b1_b.png","f","pattern_49","f","true","","","","973","true","61","","","","","","","","","","","","","","","","",""
"","","","","","html-keyboard-response","280","2561175","0.0-3.0-7.0-0.28","5cd3ff1ac99584000199dd15","D2","batch4","pattern_show_trial_num","null","<p class=block-text>Trial 68 out of 78</p>","null","","","","","","","","","","","","","","","","","","","","","","","","","",""
"","","","","","image-keyboard-response","281","2562172","0.0-3.0-7.0-1.28","5cd3ff1ac99584000199dd15","D2","batch4","pattern_response","997","stim/no_20_1_w.png","j","pattern_06","j","true","","","","997","true","62","","","","","","","","","","","","","","","","",""
"","","","","","html-keyboard-response","282","2563483","0.0-3.0-7.0-0.29","5cd3ff1ac99584000199dd15","D2","batch4","pattern_show_trial_num","null","<p class=block-text>Trial 69 out of 78</p>","null","","","","","","","","","","","","","","","","","","","","","","","","","",""
"","","","","","image-keyboard-response","283","2564924","0.0-3.0-7.0-1.29","5cd3ff1ac99584000199dd15","D2","batch4","pattern_response","1441","stim/yes_37_dia_w1.png","j","pattern_59","f","false","","","","1441","false","62","","","","","","","","","","","","","","","","",""
"","","","","","html-keyboard-response","284","2566241","0.0-3.0-7.0-0.30","5cd3ff1ac99584000199dd15","D2","batch4","pattern_show_trial_num","null","<p class=block-text>Trial 70 out of 78</p>","null","","","","","","","","","","","","","","","","","","","","","","","","","",""
"","","","","","image-keyboard-response","285","2568106","0.0-3.0-7.0-1.30","5cd3ff1ac99584000199dd15","D2","batch4","pattern_response","1866","stim/no_50_1.png","j","pattern_30","j","true","","","","1866","true","63","","","","","","","","","","","","","","","","",""
"","","","","","html-keyboard-response","286","2569422","0.0-3.0-7.0-0.31","5cd3ff1ac99584000199dd15","D2","batch4","pattern_show_trial_num","null","<p class=block-text>Trial 71 out of 78</p>","null","","","","","","","","","","","","","","","","","","","","","","","","","",""
"","","","","","image-keyboard-response","287","2570318","0.0-3.0-7.0-1.31","5cd3ff1ac99584000199dd15","D2","batch4","pattern_response","888","stim/no_29_1_b.png","j","pattern_12","j","true","","","","888","true","64","","","","","","","","","","","","","","","","",""
"","","","","","html-keyboard-response","288","2571630","0.0-3.0-7.0-0.32","5cd3ff1ac99584000199dd15","D2","batch4","pattern_show_trial_num","null","<p class=block-text>Trial 72 out of 78</p>","null","","","","","","","","","","","","","","","","","","","","","","","","","",""
"","","","","","image-keyboard-response","289","2572260","0.0-3.0-7.0-1.32","5cd3ff1ac99584000199dd15","D2","batch4","pattern_response","630","stim/no_13_2_b.png","j","pattern_02","j","true","","","","630","true","65","","","","","","","","","","","","","","","","",""
"","","","","","html-keyboard-response","290","2573566","0.0-3.0-7.0-0.33","5cd3ff1ac99584000199dd15","D2","batch4","pattern_show_trial_num","null","<p class=block-text>Trial 73 out of 78</p>","null","","","","","","","","","","","","","","","","","","","","","","","","","",""
"","","","","","image-keyboard-response","291","2574529","0.0-3.0-7.0-1.33","5cd3ff1ac99584000199dd15","D2","batch4","pattern_response","963","stim/yes_28_ver_b1.png","f","pattern_51","f","true","","","","963","true","66","","","","","","","","","","","","","","","","",""
"","","","","","html-keyboard-response","292","2575849","0.0-3.0-7.0-0.34","5cd3ff1ac99584000199dd15","D2","batch4","pattern_show_trial_num","null","<p class=block-text>Trial 74 out of 78</p>","null","","","","","","","","","","","","","","","","","","","","","","","","","",""
"","","","","","image-keyboard-response","293","2580179","0.0-3.0-7.0-1.34","5cd3ff1ac99584000199dd15","D2","batch4","pattern_response","4330","stim/no_65_1_b.png","j","pattern_38","j","true","","","","4330","true","67","","","","","","","","","","","","","","","","",""
"","","","","","html-keyboard-response","294","2581491","0.0-3.0-7.0-0.35","5cd3ff1ac99584000199dd15","D2","batch4","pattern_show_trial_num","null","<p class=block-text>Trial 75 out of 78</p>","null","","","","","","","","","","","","","","","","","","","","","","","","","",""
"","","","","","image-keyboard-response","295","2583568","0.0-3.0-7.0-1.35","5cd3ff1ac99584000199dd15","D2","batch4","pattern_response","2077","stim/no_46_1_b.png","j","pattern_26","j","true","","","","2077","true","68","","","","","","","","","","","","","","","","",""
"","","","","","html-keyboard-response","296","2584882","0.0-3.0-7.0-0.36","5cd3ff1ac99584000199dd15","D2","batch4","pattern_show_trial_num","null","<p class=block-text>Trial 76 out of 78</p>","null","","","","","","","","","","","","","","","","","","","","","","","","","",""
"","","","","","image-keyboard-response","297","2585864","0.0-3.0-7.0-1.36","5cd3ff1ac99584000199dd15","D2","batch4","pattern_response","968","stim/yes_22_ver_w1.png","f","pattern_47","f","true","","","","968","true","69","","","","","","","","","","","","","","","","",""
"","","","","","html-keyboard-response","298","2587182","0.0-3.0-7.0-0.37","5cd3ff1ac99584000199dd15","D2","batch4","pattern_show_trial_num","null","<p class=block-text>Trial 77 out of 78</p>","null","","","","","","","","","","","","","","","","","","","","","","","","","",""
"","","","","","image-keyboard-response","299","2589220","0.0-3.0-7.0-1.37","5cd3ff1ac99584000199dd15","D2","batch4","pattern_response","2038","stim/no_42_1_w.png","j","pattern_22","j","true","","","","2038","true","70","","","","","","","","","","","","","","","","",""
"","","","","","html-keyboard-response","300","2590532","0.0-3.0-7.0-0.38","5cd3ff1ac99584000199dd15","D2","batch4","pattern_show_trial_num","null","<p class=block-text>Trial 78 out of 78</p>","null","","","","","","","","","","","","","","","","","","","","","","","","","",""
"","","","","","image-keyboard-response","301","2594076","0.0-3.0-7.0-1.38","5cd3ff1ac99584000199dd15","D2","batch4","pattern_response","3544","stim/no_44_1.png","j","pattern_24","j","true","","","","3544","true","71","","","","","","","","","","","","","","","","",""
"","","","","","html-button-response","302","2598020","0.0-3.0-8.0","5cd3ff1ac99584000199dd15","D2","batch4","","3438","<p class = block-text>This concludes the 4-in-a-row detection game.Thank you for your responses!<br>
            You responded correctly on 91% of the trials.<br>
            When you are ready, press ""Continue"" button to continue </p>","0","","","","","","","","","","","","","","","","","","","","","","","","","",""
"true","","","","","fullscreen","303","2600891","0.0-4.0-0.0","5cd3ff1ac99584000199dd15","D2","batch4","","","","","","","","","","","","","","","","","","","","","","","","","","","","","",""
"","","","","","instructions","304","2662506","0.0-4.0-1.0-0.0-0.0","5cd3ff1ac99584000199dd15","D2","batch4","tol-instructions","61615","","","","","","","","[{""page_index"":0,""viewing_time"":19101},{""page_index"":1,""viewing_time"":3903},{""page_index"":2,""viewing_time"":3946},{""page_index"":3,""viewing_time"":11461},{""page_index"":4,""viewing_time"":4356},{""page_index"":5,""viewing_time"":15416},{""page_index"":6,""viewing_time"":3432}]","","","","","","","","","","","","","","","","","","","",""
"","","","","","html-button-response","305","2663909","0.0-4.0-1.0-1.0-0.0","5cd3ff1ac99584000199dd15","D2","batch4","tol_enter_quiz","1403","<p class=block-text> Let's answer a few questions <br>","0","","","","","","","","","","","","","","","","","","","","","","","","","",""
"","","","","","html-button-response","306","2670525","0.0-4.0-1.0-1.0-1.0","5cd3ff1ac99584000199dd15","D2","batch4","tol_quiz","6616","<p class = block-text>True or False: You can only move the ball on top of a peg. <br></p>","1","","","false","","","","","","","","","","","","","","","","","","","","","","",""
"","","","","","html-button-response","307","2674390","0.0-4.0-1.0-1.0-2.0","5cd3ff1ac99584000199dd15","D2","batch4","tol_quiz_feedback","3857","<p class = block-text>Incorrect. Remember, you can only move the ball on top of a peg.</p>","0","","","","","","","","","","","","","","","","","","","","","","","","","",""
"","","","","","html-button-response","308","2678158","0.0-4.0-1.0-1.0-3.0","5cd3ff1ac99584000199dd15","D2","batch4","tol_quiz","3768","<p class = block-text>True or False: You should try to match your board with the target board with fewest moves possible. <br></p>","0","","","true","","","","","","","","","","","","","","","","","","","","","","",""
"","","","","","html-button-response","309","2679008","0.0-4.0-1.0-1.0-4.0","5cd3ff1ac99584000199dd15","D2","batch4","tol_quiz_feedback","850","<p class = block-text>Correct! </p>","0","","","","","","","","","","","","","","","","","","","","","","","","","",""
"","","","","","html-button-response","310","2680509","0.0-4.0-1.0-2.0-0.0","5cd3ff1ac99584000199dd15","D2","batch4","","1500","<p class = block-text>You made too many incorrect choices.</p><p class = block-text>You will now repeat the instructions and quiz</p>","0","","","","","","","","","","","","","","","","","","","","","","","","","",""
"","","","","","instructions","311","2688755","0.0-4.0-1.1-0.1-0.1","5cd3ff1ac99584000199dd15","D2","batch4","tol-instructions","8246","","","","","","","","[{""page_index"":0,""viewing_time"":746},{""page_index"":1,""viewing_time"":575},{""page_index"":2,""viewing_time"":825},{""page_index"":3,""viewing_time"":475},{""page_index"":4,""viewing_time"":1077},{""page_index"":5,""viewing_time"":881},{""page_index"":6,""viewing_time"":3667}]","","","","","","","","","","","","","","","","","","","",""
"","","","","","html-button-response","312","2689592","0.0-4.0-1.1-1.1-0.1","5cd3ff1ac99584000199dd15","D2","batch4","tol_enter_quiz","829","<p class=block-text> Let's answer a few questions <br>","0","","","","","","","","","","","","","","","","","","","","","","","","","",""
"","","","","","html-button-response","313","2690759","0.0-4.0-1.1-1.1-1.1","5cd3ff1ac99584000199dd15","D2","batch4","tol_quiz","1166","<p class = block-text>True or False: You can only move the ball on top of a peg. <br></p>","0","","","true","","","","","","","","","","","","","","","","","","","","","","",""
"","","","","","html-button-response","314","2691839","0.0-4.0-1.1-1.1-2.1","5cd3ff1ac99584000199dd15","D2","batch4","tol_quiz_feedback","1080","<p class = block-text>Correct! You can only move the ball on top of a peg.</p>","0","","","","","","","","","","","","","","","","","","","","","","","","","",""
"","","","","","html-button-response","315","2693290","0.0-4.0-1.1-1.1-3.1","5cd3ff1ac99584000199dd15","D2","batch4","tol_quiz","1451","<p class = block-text>True or False: You should try to match your board with the target board with fewest moves possible. <br></p>","0","","","true","","","","","","","","","","","","","","","","","","","","","","",""
"","","","","","html-button-response","316","2693941","0.0-4.0-1.1-1.1-4.1","5cd3ff1ac99584000199dd15","D2","batch4","tol_quiz_feedback","651","<p class = block-text>Correct! </p>","0","","","","","","","","","","","","","","","","","","","","","","","","","",""
"","","","","","html-button-response","317","2695548","0.0-4.0-2.0","5cd3ff1ac99584000199dd15","D2","batch4","","1607","<p class=block-text> Now that you've understood the game, let's practice a few easier examples before we start!<br> <br>","0","","","","","","","","","","","","","","","","","","","","","","","","","",""
"","","","","","single-stim-button","318","2697856","0.0-4.0-3.0-0.0","5cd3ff1ac99584000199dd15","D2","batch4","tol_practice","2308","","","","","","","","","","","","","","tol_peg_2","2308","2308","0","[[1,2,0],[0,0],[0]]","1","[[1,2,0],[0,0],[3]]","practice","2308","","","","","",""
"","","","","","single-stim-button","319","2699241","0.0-4.0-3.0-1.0","5cd3ff1ac99584000199dd15","D2","batch4","tol_practice","1385","","","","","","","","","","","","","","tol_peg_3","1385","1385","0","[[1,2,0],[0,0],[3]]","1","[[1,2,0],[0,0],[3]]","practice","1385","","","","","",""
"","","","","","poldrack-single-stim","320","2700245","0.0-4.0-4.0","5cd3ff1ac99584000199dd15","D2","batch4","tol_feedback","-1","","","","","true","","","","","","","","","","1000","1000","500","","","","","","-1","none","true","","0",""
"","","","","","single-stim-button","321","2705899","0.0-4.0-5.0-0.0","5cd3ff1ac99584000199dd15","D2","batch4","tol_practice","5654","","","","","","","","","","","","","","tol_peg_1","5654","5654","0","[[1,0,0],[3,0],[0]]","2","[[0,0,0],[3,1],[2]]","practice","5654","","","","","",""
"","","","","","single-stim-button","322","2706483","0.0-4.0-5.0-1.0","5cd3ff1ac99584000199dd15","D2","batch4","tol_practice","584","","","","","","","","","","","","","","tol_peg_3","584","584","0","[[1,0,0],[3,0],[2]]","2","[[0,0,0],[3,1],[2]]","practice","584","","","","","",""
"","","","","","single-stim-button","323","2707255","0.0-4.0-5.1-0.1","5cd3ff1ac99584000199dd15","D2","batch4","tol_practice","772","","","","","","","","","","","","","","tol_peg_1","772","772","0","[[0,0,0],[3,0],[2]]","3","[[0,0,0],[3,1],[2]]","practice","772","","","","","",""
"","","","","","single-stim-button","324","2708198","0.0-4.0-5.1-1.1","5cd3ff1ac99584000199dd15","D2","batch4","tol_practice","943","","","","","","","","","","","","","","tol_peg_2","943","943","0","[[0,0,0],[3,1],[2]]","3","[[0,0,0],[3,1],[2]]","practice","943","","","","","",""
"","","","","","poldrack-single-stim","325","2709210","0.0-4.0-6.0","5cd3ff1ac99584000199dd15","D2","batch4","tol_feedback","-1","","","","","true","","","","","","","","","","1000","1000","500","","","","","","-1","none","true","","0",""
"","","","","","single-stim-button","326","2712529","0.0-4.0-7.0-0.0","5cd3ff1ac99584000199dd15","D2","batch4","tol_practice","3319","","","","","","","","","","","","","","tol_peg_2","3319","3319","0","[[1,2,0],[0,0],[0]]","4","[[1,0,0],[2,0],[3]]","practice","3319","","","","","",""
"","","","","","single-stim-button","327","2713097","0.0-4.0-7.0-1.0","5cd3ff1ac99584000199dd15","D2","batch4","tol_practice","568","","","","","","","","","","","","","","tol_peg_3","568","568","0","[[1,2,0],[0,0],[3]]","4","[[1,0,0],[2,0],[3]]","practice","568","","","","","",""
"","","","","","single-stim-button","328","2714015","0.0-4.0-7.1-0.1","5cd3ff1ac99584000199dd15","D2","batch4","tol_practice","910","","","","","","","","","","","","","","tol_peg_1","910","910","0","[[1,0,0],[0,0],[3]]","5","[[1,0,0],[2,0],[3]]","practice","910","","","","","",""
"","","","","","single-stim-button","329","2714529","0.0-4.0-7.1-1.1","5cd3ff1ac99584000199dd15","D2","batch4","tol_practice","506","","","","","","","","","","","","","","tol_peg_2","506","506","0","[[1,0,0],[2,0],[3]]","5","[[1,0,0],[2,0],[3]]","practice","506","","","","","",""
"","","","","","poldrack-single-stim","330","2715534","0.0-4.0-8.0","5cd3ff1ac99584000199dd15","D2","batch4","tol_feedback","-1","","","","","true","","","","","","","","","","1000","1000","500","","","","","","-1","none","true","","0",""
"","","","","","html-button-response","331","2720615","0.0-4.0-9.0","5cd3ff1ac99584000199dd15","D2","batch4","tol_instruction","5081","<div class = centerbox><p class = center-block-text>Great job! You are done with practice trials<br>You are about to start official trials.<br> <br> Problem <strong>1</strong> out of 25 problems</p></div>","0","","","","","","","","","","","","","","","","","","","","","","","","","",""
"","","","","","single-stim-button","332","2726044","0.0-4.0-10.0-0.0","5cd3ff1ac99584000199dd15","D2","batch4","tol_tohand","4425","","","","","","","","","","","","","","tol_peg_2","4425","4425","0","[[1,2,0],[0,0],[0]]","1","[[1,3,0],[2,0],[0]]","0","0","","","","","","3"
"","","","","","single-stim-button","333","2727005","0.0-4.0-10.0-1.0","5cd3ff1ac99584000199dd15","D2","batch4","tol_toboard","953","","","","","","","","","","","","","","tol_peg_3","953","953","0","[[1,2,0],[0,0],[3]]","1","[[1,3,0],[2,0],[0]]","0","0","","","","","","3"
"","","","","","single-stim-button","334","2728023","0.0-4.0-10.1-0.1","5cd3ff1ac99584000199dd15","D2","batch4","tol_tohand","1018","","","","","","","","","","","","","","tol_peg_1","1018","1018","0","[[1,0,0],[0,0],[3]]","2","[[1,3,0],[2,0],[0]]","0","0","","","","","","3"
"","","","","","single-stim-button","335","2728840","0.0-4.0-10.1-1.1","5cd3ff1ac99584000199dd15","D2","batch4","tol_toboard","817","","","","","","","","","","","","","","tol_peg_2","817","817","0","[[1,0,0],[2,0],[3]]","2","[[1,3,0],[2,0],[0]]","0","0","","","","","","3"
"","","","","","single-stim-button","336","2729786","0.0-4.0-10.2-0.2","5cd3ff1ac99584000199dd15","D2","batch4","tol_tohand","938","","","","","","","","","","","","","","tol_peg_3","938","938","0","[[1,0,0],[2,0],[0]]","3","[[1,3,0],[2,0],[0]]","0","0","","","","","","3"
"","","","","","single-stim-button","337","2730856","0.0-4.0-10.2-1.2","5cd3ff1ac99584000199dd15","D2","batch4","tol_toboard","1070","","","","","","","","","","","","","","tol_peg_1","1070","1070","0","[[1,3,0],[2,0],[0]]","3","[[1,3,0],[2,0],[0]]","0","0","","","","","","3"
"","","","","","poldrack-single-stim","338","2731864","0.0-4.0-11.0","5cd3ff1ac99584000199dd15","D2","batch4","tol_feedback","-1","","","","","true","","","","","","","","","","1000","1000","500","","","","","","-1","none","true","4425","6381",""
"","","","","","html-button-response","339","2732898","0.0-4.0-12.0","5cd3ff1ac99584000199dd15","D2","batch4","tol_trial_num","1034","<div class = centerbox><p class = center-block-text>problem <strong>2</strong> out of 25 problems</p></div>","0","","","","","","","","","","","","","","","","","","","","","","","","","",""
"","","","","","single-stim-button","340","2740629","0.0-4.0-13.0-0.0","5cd3ff1ac99584000199dd15","D2","batch4","tol_tohand","7731","","","","","","","","","","","","","","tol_peg_1","7731","7731","0","[[1,0,0],[3,0],[0]]","1","[[2,1,3],[0,0],[0]]","1","0","","","","","","5"
"","","","","","single-stim-button","341","2741544","0.0-4.0-13.0-1.0","5cd3ff1ac99584000199dd15","D2","batch4","tol_toboard","915","","","","","","","","","","","","","","tol_peg_2","915","915","0","[[1,0,0],[3,2],[0]]","1","[[2,1,3],[0,0],[0]]","1","0","","","","","","5"
"","","","","","single-stim-button","342","2742114","0.0-4.0-13.1-0.1","5cd3ff1ac99584000199dd15","D2","batch4","tol_tohand","570","","","","","","","","","","","","","","tol_peg_1","570","570","0","[[0,0,0],[3,2],[0]]","2","[[2,1,3],[0,0],[0]]","1","0","","","","","","5"
"","","","","","single-stim-button","343","2742744","0.0-4.0-13.1-1.1","5cd3ff1ac99584000199dd15","D2","batch4","tol_toboard","622","","","","","","","","","","","","","","tol_peg_3","622","622","0","[[0,0,0],[3,2],[1]]","2","[[2,1,3],[0,0],[0]]","1","0","","","","","","5"
"","","","","","single-stim-button","344","2743479","0.0-4.0-13.2-0.2","5cd3ff1ac99584000199dd15","D2","batch4","tol_tohand","735","","","","","","","","","","","","","","tol_peg_2","735","735","0","[[0,0,0],[3,0],[1]]","3","[[2,1,3],[0,0],[0]]","1","0","","","","","","5"
"","","","","","single-stim-button","345","2744204","0.0-4.0-13.2-1.2","5cd3ff1ac99584000199dd15","D2","batch4","tol_toboard","718","","","","","","","","","","","","","","tol_peg_1","718","718","0","[[2,0,0],[3,0],[1]]","3","[[2,1,3],[0,0],[0]]","1","0","","","","","","5"
"","","","","","single-stim-button","346","2744803","0.0-4.0-13.3-0.3","5cd3ff1ac99584000199dd15","D2","batch4","tol_tohand","599","","","","","","","","","","","","","","tol_peg_3","599","599","0","[[2,0,0],[3,0],[0]]","4","[[2,1,3],[0,0],[0]]","1","0","","","","","","5"
"","","","","","single-stim-button","347","2745702","0.0-4.0-13.3-1.3","5cd3ff1ac99584000199dd15","D2","batch4","tol_toboard","899","","","","","","","","","","","","","","tol_peg_1","899","899","0","[[2,1,0],[3,0],[0]]","4","[[2,1,3],[0,0],[0]]","1","0","","","","","","5"
"","","","","","single-stim-button","348","2746277","0.0-4.0-13.4-0.4","5cd3ff1ac99584000199dd15","D2","batch4","tol_tohand","567","","","","","","","","","","","","","","tol_peg_2","567","567","0","[[2,1,0],[0,0],[0]]","5","[[2,1,3],[0,0],[0]]","1","0","","","","","","5"
"","","","","","single-stim-button","349","2747202","0.0-4.0-13.4-1.4","5cd3ff1ac99584000199dd15","D2","batch4","tol_toboard","924","","","","","","","","","","","","","","tol_peg_1","924","924","0","[[2,1,3],[0,0],[0]]","5","[[2,1,3],[0,0],[0]]","1","0","","","","","","5"
"","","","","","poldrack-single-stim","350","2748208","0.0-4.0-14.0","5cd3ff1ac99584000199dd15","D2","batch4","tol_feedback","-1","","","","","true","","","","","","","","","","1000","1000","500","","","","","","-1","none","true","7731","10202",""
"","","","","","html-button-response","351","2749030","0.0-4.0-15.0","5cd3ff1ac99584000199dd15","D2","batch4","tol_trial_num","814","<div class = centerbox><p class = center-block-text>problem <strong>3</strong> out of 25 problems</p></div>","0","","","","","","","","","","","","","","","","","","","","","","","","","",""
"","","","","","single-stim-button","352","2755004","0.0-4.0-16.0-0.0","5cd3ff1ac99584000199dd15","D2","batch4","tol_tohand","5973","","","","","","","","","","","","","","tol_peg_1","5973","5973","0","[[2,0,0],[0,0],[1]]","1","[[1,2,0],[3,0],[0]]","2","0","","","","","","4"
"","","","","","single-stim-button","353","2755854","0.0-4.0-16.0-1.0","5cd3ff1ac99584000199dd15","D2","batch4","tol_toboard","850","","","","","","","","","","","","","","tol_peg_2","850","850","0","[[2,0,0],[3,0],[1]]","1","[[1,2,0],[3,0],[0]]","2","0","","","","","","4"
"","","","","","single-stim-button","354","2757253","0.0-4.0-16.1-0.1","5cd3ff1ac99584000199dd15","D2","batch4","tol_tohand","1399","","","","","","","","","","","","","","tol_peg_1","1399","1399","0","[[0,0,0],[3,0],[1]]","2","[[1,2,0],[3,0],[0]]","2","0","","","","","","4"
"","","","","","single-stim-button","355","2757868","0.0-4.0-16.1-1.1","5cd3ff1ac99584000199dd15","D2","batch4","tol_toboard","607","","","","","","","","","","","","","","tol_peg_2","607","607","0","[[0,0,0],[3,2],[1]]","2","[[1,2,0],[3,0],[0]]","2","0","","","","","","4"
"","","","","","single-stim-button","356","2758503","0.0-4.0-16.2-0.2","5cd3ff1ac99584000199dd15","D2","batch4","tol_tohand","635","","","","","","","","","","","","","","tol_peg_3","635","635","0","[[0,0,0],[3,2],[0]]","3","[[1,2,0],[3,0],[0]]","2","0","","","","","","4"
"","","","","","single-stim-button","357","2759238","0.0-4.0-16.2-1.2","5cd3ff1ac99584000199dd15","D2","batch4","tol_toboard","735","","","","","","","","","","","","","","tol_peg_1","735","735","0","[[1,0,0],[3,2],[0]]","3","[[1,2,0],[3,0],[0]]","2","0","","","","","","4"
