"success","timeout","failed_images","failed_audio","failed_video","trial_type","trial_index","time_elapsed","internal_node_id","subject_id","study_id","session_id","task","rt","stimulus","response","item","answer","correct","spm_correct","spm_rt","view_history","mouse_click","stim_duration","block_duration","timing_post_trial","current_position","tol_num_moves_made","tol_target","tol_problem_id","tol_rt","key_press","possible_responses","tol_correct","preplanning","tol_rt_per_trial","tol_min_moves","fiar_detect_rt","fiar_detect_correct","total_correct_fiar_detect","post_trial_gap","choices"
"true","false","[]","[]","[]","preload","0","3575","0.0-0.0","5cd34d42fe890a00174debb5","C3","batch3","","","","","","","","","","","","","","","","","","","","","","","","","","","","","",""
"true","","","","","fullscreen","1","11467","0.0-1.0-0.0","5cd34d42fe890a00174debb5","C3","batch3","","","","","","","","","","","","","","","","","","","","","","","","","","","","","",""
"true","","","","","fullscreen","2","13929","0.0-2.0-0.0","5cd34d42fe890a00174debb5","C3","batch3","spm_fullscreen","","","","","","","","","","","","","","","","","","","","","","","","","","","","",""
"","","","","","html-button-response","3","22432","0.0-2.0-1.0","5cd34d42fe890a00174debb5","C3","batch3","","8502.699999988079","<p class = block-text><b>Instructions</b> <br>This is a widely used intelligence test in research. <br>In this test, a figure with a missing piece will be presented.<br>Below the figure are alternative pieces to complete the figure, only one of which is correct.<br> Different figures might involve different principles for obtaining the missing piece<br>Your job is to select the most logical piece to complete the figure.</p>","0","","","","","","","","","","","","","","","","","","","","","","","","","",""
"","","","","","html-keyboard-response","4","23235","0.0-2.0-2.0-0.0","5cd34d42fe890a00174debb5","C3","batch3","spm_show_trial_num","null","<p class=block-text>Trial 1 out of 60</p>","null","","","","","","","","","","","","","","","","","","","","","","","","","",""
"","","","","","image-button-response","5","28907","0.0-2.0-2.0-1.0","5cd34d42fe890a00174debb5","C3","batch3","spm_respsonse","5670.600000023842","img/question_1_1.jpeg","3","mat_01","4","1","1","5670.600000023842","","","","","","","","","","","","","","","","","","","","",""
"","","","","","html-keyboard-response","6","29971","0.0-2.0-2.0-0.1","5cd34d42fe890a00174debb5","C3","batch3","spm_show_trial_num","null","<p class=block-text>Trial 2 out of 60</p>","null","","","","","","","","","","","","","","","","","","","","","","","","","",""
"","","","","","image-button-response","7","32668","0.0-2.0-2.0-1.1","5cd34d42fe890a00174debb5","C3","batch3","spm_respsonse","2696.399999976158","img/question_1_2.jpeg","4","mat_02","5","1","1","2696.399999976158","","","","","","","","","","","","","","","","","","","","",""
"","","","","","html-keyboard-response","8","33719","0.0-2.0-2.0-0.2","5cd34d42fe890a00174debb5","C3","batch3","spm_show_trial_num","null","<p class=block-text>Trial 3 out of 60</p>","null","","","","","","","","","","","","","","","","","","","","","","","","","",""
"","","","","","image-button-response","9","36710","0.0-2.0-2.0-1.2","5cd34d42fe890a00174debb5","C3","batch3","spm_respsonse","2989.599999964237","img/question_1_3.jpeg","0","mat_03","1","1","1","2989.599999964237","","","","","","","","","","","","","","","","","","","","",""
"","","","","","html-keyboard-response","10","37768","0.0-2.0-2.0-0.3","5cd34d42fe890a00174debb5","C3","batch3","spm_show_trial_num","null","<p class=block-text>Trial 4 out of 60</p>","null","","","","","","","","","","","","","","","","","","","","","","","","","",""
"","","","","","image-button-response","11","40101","0.0-2.0-2.0-1.3","5cd34d42fe890a00174debb5","C3","batch3","spm_respsonse","2332","img/question_1_4.jpeg","1","mat_04","2","1","1","2332","","","","","","","","","","","","","","","","","","","","",""
"","","","","","html-keyboard-response","12","41152","0.0-2.0-2.0-0.4","5cd34d42fe890a00174debb5","C3","batch3","spm_show_trial_num","null","<p class=block-text>Trial 5 out of 60</p>","null","","","","","","","","","","","","","","","","","","","","","","","","","",""
"","","","","","image-button-response","13","44131","0.0-2.0-2.0-1.4","5cd34d42fe890a00174debb5","C3","batch3","spm_respsonse","2978.599999964237","img/question_1_5.jpeg","5","mat_05","6","1","1","2978.599999964237","","","","","","","","","","","","","","","","","","","","",""
"","","","","","html-keyboard-response","14","45183","0.0-2.0-2.0-0.5","5cd34d42fe890a00174debb5","C3","batch3","spm_show_trial_num","null","<p class=block-text>Trial 6 out of 60</p>","null","","","","","","","","","","","","","","","","","","","","","","","","","",""
"","","","","","image-button-response","15","47887","0.0-2.0-2.0-1.5","5cd34d42fe890a00174debb5","C3","batch3","spm_respsonse","2703.2000000476837","img/question_1_6.jpeg","2","mat_06","3","1","1","2703.2000000476837","","","","","","","","","","","","","","","","","","","","",""
"","","","","","html-keyboard-response","16","48938","0.0-2.0-2.0-0.6","5cd34d42fe890a00174debb5","C3","batch3","spm_show_trial_num","null","<p class=block-text>Trial 7 out of 60</p>","null","","","","","","","","","","","","","","","","","","","","","","","","","",""
"","","","","","image-button-response","17","51854","0.0-2.0-2.0-1.6","5cd34d42fe890a00174debb5","C3","batch3","spm_respsonse","2914.900000035763","img/question_1_7.jpeg","5","mat_07","6","1","1","2914.900000035763","","","","","","","","","","","","","","","","","","","","",""
"","","","","","html-keyboard-response","18","52912","0.0-2.0-2.0-0.7","5cd34d42fe890a00174debb5","C3","batch3","spm_show_trial_num","null","<p class=block-text>Trial 8 out of 60</p>","null","","","","","","","","","","","","","","","","","","","","","","","","","",""
"","","","","","image-button-response","19","58474","0.0-2.0-2.0-1.7","5cd34d42fe890a00174debb5","C3","batch3","spm_respsonse","5561.5","img/question_1_8.jpeg","1","mat_08","2","1","1","5561.5","","","","","","","","","","","","","","","","","","","","",""
"","","","","","html-keyboard-response","20","59531","0.0-2.0-2.0-0.8","5cd34d42fe890a00174debb5","C3","batch3","spm_show_trial_num","null","<p class=block-text>Trial 9 out of 60</p>","null","","","","","","","","","","","","","","","","","","","","","","","","","",""
"","","","","","image-button-response","21","63029","0.0-2.0-2.0-1.8","5cd34d42fe890a00174debb5","C3","batch3","spm_respsonse","3496.199999988079","img/question_1_9.jpeg","0","mat_09","1","1","1","3496.199999988079","","","","","","","","","","","","","","","","","","","","",""
"","","","","","html-keyboard-response","22","64080","0.0-2.0-2.0-0.9","5cd34d42fe890a00174debb5","C3","batch3","spm_show_trial_num","null","<p class=block-text>Trial 10 out of 60</p>","null","","","","","","","","","","","","","","","","","","","","","","","","","",""
"","","","","","image-button-response","23","67825","0.0-2.0-2.0-1.9","5cd34d42fe890a00174debb5","C3","batch3","spm_respsonse","3744","img/question_1_10.jpeg","2","mat_10","3","1","1","3744","","","","","","","","","","","","","","","","","","","","",""
"","","","","","html-keyboard-response","24","68886","0.0-2.0-2.0-0.10","5cd34d42fe890a00174debb5","C3","batch3","spm_show_trial_num","null","<p class=block-text>Trial 11 out of 60</p>","null","","","","","","","","","","","","","","","","","","","","","","","","","",""
"","","","","","image-button-response","25","78667","0.0-2.0-2.0-1.10","5cd34d42fe890a00174debb5","C3","batch3","spm_respsonse","9779.599999964237","img/question_1_11.jpeg","3","mat_11","4","1","1","9779.599999964237","","","","","","","","","","","","","","","","","","","","",""
"","","","","","html-keyboard-response","26","79731","0.0-2.0-2.0-0.11","5cd34d42fe890a00174debb5","C3","batch3","spm_show_trial_num","null","<p class=block-text>Trial 12 out of 60</p>","null","","","","","","","","","","","","","","","","","","","","","","","","","",""
"","","","","","image-button-response","27","85988","0.0-2.0-2.0-1.11","5cd34d42fe890a00174debb5","C3","batch3","spm_respsonse","6255.800000011921","img/question_1_12.jpeg","4","mat_12","5","1","1","6255.800000011921","","","","","","","","","","","","","","","","","","","","",""
"","","","","","html-keyboard-response","28","87052","0.0-2.0-2.0-0.12","5cd34d42fe890a00174debb5","C3","batch3","spm_show_trial_num","null","<p class=block-text>Trial 13 out of 60</p>","null","","","","","","","","","","","","","","","","","","","","","","","","","",""
"","","","","","image-button-response","29","88893","0.0-2.0-2.0-1.12","5cd34d42fe890a00174debb5","C3","batch3","spm_respsonse","1840.4000000357628","img/question_2_1.jpeg","1","mat_13","2","1","1","1840.4000000357628","","","","","","","","","","","","","","","","","","","","",""
"","","","","","html-keyboard-response","30","89945","0.0-2.0-2.0-0.13","5cd34d42fe890a00174debb5","C3","batch3","spm_show_trial_num","null","<p class=block-text>Trial 14 out of 60</p>","null","","","","","","","","","","","","","","","","","","","","","","","","","",""
"","","","","","image-button-response","31","93378","0.0-2.0-2.0-1.13","5cd34d42fe890a00174debb5","C3","batch3","spm_respsonse","3432","img/question_2_2.jpeg","5","mat_14","6","1","1","3432","","","","","","","","","","","","","","","","","","","","",""
"","","","","","html-keyboard-response","32","94444","0.0-2.0-2.0-0.14","5cd34d42fe890a00174debb5","C3","batch3","spm_show_trial_num","null","<p class=block-text>Trial 15 out of 60</p>","null","","","","","","","","","","","","","","","","","","","","","","","","","",""
"","","","","","image-button-response","33","96532","0.0-2.0-2.0-1.14","5cd34d42fe890a00174debb5","C3","batch3","spm_respsonse","2087.600000023842","img/question_2_3.jpeg","0","mat_15","1","1","1","2087.600000023842","","","","","","","","","","","","","","","","","","","","",""
"","","","","","html-keyboard-response","34","97592","0.0-2.0-2.0-0.15","5cd34d42fe890a00174debb5","C3","batch3","spm_show_trial_num","null","<p class=block-text>Trial 16 out of 60</p>","null","","","","","","","","","","","","","","","","","","","","","","","","","",""
"","","","","","image-button-response","35","101562","0.0-2.0-2.0-1.15","5cd34d42fe890a00174debb5","C3","batch3","spm_respsonse","3969.199999988079","img/question_2_4.jpeg","1","mat_16","2","1","1","3969.199999988079","","","","","","","","","","","","","","","","","","","","",""
"","","","","","html-keyboard-response","36","102617","0.0-2.0-2.0-0.16","5cd34d42fe890a00174debb5","C3","batch3","spm_show_trial_num","null","<p class=block-text>Trial 17 out of 60</p>","null","","","","","","","","","","","","","","","","","","","","","","","","","",""
"","","","","","image-button-response","37","106238","0.0-2.0-2.0-1.16","5cd34d42fe890a00174debb5","C3","batch3","spm_respsonse","3620.100000023842","img/question_2_5.jpeg","0","mat_17","1","1","1","3620.100000023842","","","","","","","","","","","","","","","","","","","","",""
"","","","","","html-keyboard-response","38","107289","0.0-2.0-2.0-0.17","5cd34d42fe890a00174debb5","C3","batch3","spm_show_trial_num","null","<p class=block-text>Trial 18 out of 60</p>","null","","","","","","","","","","","","","","","","","","","","","","","","","",""
"","","","","","image-button-response","39","113191","0.0-2.0-2.0-1.17","5cd34d42fe890a00174debb5","C3","batch3","spm_respsonse","5900.699999988079","img/question_2_6.jpeg","2","mat_18","3","1","1","5900.699999988079","","","","","","","","","","","","","","","","","","","","",""
"","","","","","html-keyboard-response","40","114242","0.0-2.0-2.0-0.18","5cd34d42fe890a00174debb5","C3","batch3","spm_show_trial_num","null","<p class=block-text>Trial 19 out of 60</p>","null","","","","","","","","","","","","","","","","","","","","","","","","","",""
"","","","","","image-button-response","41","117856","0.0-2.0-2.0-1.18","5cd34d42fe890a00174debb5","C3","batch3","spm_respsonse","3612.699999988079","img/question_2_7.jpeg","4","mat_19","5","1","1","3612.699999988079","","","","","","","","","","","","","","","","","","","","",""
"","","","","","html-keyboard-response","42","118913","0.0-2.0-2.0-0.19","5cd34d42fe890a00174debb5","C3","batch3","spm_show_trial_num","null","<p class=block-text>Trial 20 out of 60</p>","null","","","","","","","","","","","","","","","","","","","","","","","","","",""
"","","","","","image-button-response","43","124626","0.0-2.0-2.0-1.19","5cd34d42fe890a00174debb5","C3","batch3","spm_respsonse","5711.799999952316","img/question_2_8.jpeg","5","mat_20","6","1","1","5711.799999952316","","","","","","","","","","","","","","","","","","","","",""
"","","","","","html-keyboard-response","44","125690","0.0-2.0-2.0-0.20","5cd34d42fe890a00174debb5","C3","batch3","spm_show_trial_num","null","<p class=block-text>Trial 21 out of 60</p>","null","","","","","","","","","","","","","","","","","","","","","","","","","",""
"","","","","","image-button-response","45","133167","0.0-2.0-2.0-1.20","5cd34d42fe890a00174debb5","C3","batch3","spm_respsonse","7476.5","img/question_2_9.jpeg","3","mat_21","4","1","1","7476.5","","","","","","","","","","","","","","","","","","","","",""
"","","","","","html-keyboard-response","46","134218","0.0-2.0-2.0-0.21","5cd34d42fe890a00174debb5","C3","batch3","spm_show_trial_num","null","<p class=block-text>Trial 22 out of 60</p>","null","","","","","","","","","","","","","","","","","","","","","","","","","",""
"","","","","","image-button-response","47","138230","0.0-2.0-2.0-1.21","5cd34d42fe890a00174debb5","C3","batch3","spm_respsonse","4010.599999964237","img/question_2_10.jpeg","2","mat_22","3","1","1","4010.599999964237","","","","","","","","","","","","","","","","","","","","",""
"","","","","","html-keyboard-response","48","139293","0.0-2.0-2.0-0.22","5cd34d42fe890a00174debb5","C3","batch3","spm_show_trial_num","null","<p class=block-text>Trial 23 out of 60</p>","null","","","","","","","","","","","","","","","","","","","","","","","","","",""
"","","","","","image-button-response","49","144153","0.0-2.0-2.0-1.22","5cd34d42fe890a00174debb5","C3","batch3","spm_respsonse","4858.899999976158","img/question_2_11.jpeg","3","mat_23","4","1","1","4858.899999976158","","","","","","","","","","","","","","","","","","","","",""
"","","","","","html-keyboard-response","50","145210","0.0-2.0-2.0-0.23","5cd34d42fe890a00174debb5","C3","batch3","spm_show_trial_num","null","<p class=block-text>Trial 24 out of 60</p>","null","","","","","","","","","","","","","","","","","","","","","","","","","",""
"","","","","","image-button-response","51","164925","0.0-2.0-2.0-1.23","5cd34d42fe890a00174debb5","C3","batch3","spm_respsonse","19714.19999998808","img/question_2_12.jpeg","4","mat_24","5","1","1","19714.19999998808","","","","","","","","","","","","","","","","","","","","",""
"","","","","","html-button-response","52","167225","0.0-2.0-3.0","5cd34d42fe890a00174debb5","C3","batch3","attention_check","2048.5","<p class = block-text>Attention check: Please choose 1<br></p>","0","","","true","","","","","","","","","","","","","","","","","","","","","","",""
"","","","","","html-keyboard-response","53","168026","0.0-2.0-4.0-0.0","5cd34d42fe890a00174debb5","C3","batch3","spm_show_trial_num","null","<p class=block-text>Trial 25 out of 60</p>","null","","","","","","","","","","","","","","","","","","","","","","","","","",""
"","","","","","image-button-response","54","173061","0.0-2.0-4.0-1.0","5cd34d42fe890a00174debb5","C3","batch3","spm_respsonse","5033.900000035763","img/question_3_1.jpeg","7","mat_25","8","1","1","5033.900000035763","","","","","","","","","","","","","","","","","","","","",""
"","","","","","html-keyboard-response","55","174112","0.0-2.0-4.0-0.1","5cd34d42fe890a00174debb5","C3","batch3","spm_show_trial_num","null","<p class=block-text>Trial 26 out of 60</p>","null","","","","","","","","","","","","","","","","","","","","","","","","","",""
"","","","","","image-button-response","56","177923","0.0-2.0-4.0-1.1","5cd34d42fe890a00174debb5","C3","batch3","spm_respsonse","3809.099999964237","img/question_3_2.jpeg","1","mat_26","2","1","1","3809.099999964237","","","","","","","","","","","","","","","","","","","","",""
"","","","","","html-keyboard-response","57","178981","0.0-2.0-4.0-0.2","5cd34d42fe890a00174debb5","C3","batch3","spm_show_trial_num","null","<p class=block-text>Trial 27 out of 60</p>","null","","","","","","","","","","","","","","","","","","","","","","","","","",""
"","","","","","image-button-response","58","187620","0.0-2.0-4.0-1.2","5cd34d42fe890a00174debb5","C3","batch3","spm_respsonse","8637.899999976158","img/question_3_3.jpeg","2","mat_27","3","1","1","8637.899999976158","","","","","","","","","","","","","","","","","","","","",""
"","","","","","html-keyboard-response","59","188689","0.0-2.0-4.0-0.3","5cd34d42fe890a00174debb5","C3","batch3","spm_show_trial_num","null","<p class=block-text>Trial 28 out of 60</p>","null","","","","","","","","","","","","","","","","","","","","","","","","","",""
"","","","","","image-button-response","60","203195","0.0-2.0-4.0-1.3","5cd34d42fe890a00174debb5","C3","batch3","spm_respsonse","14505.199999988079","img/question_3_4.jpeg","7","mat_28","8","1","1","14505.199999988079","","","","","","","","","","","","","","","","","","","","",""
"","","","","","html-keyboard-response","61","204254","0.0-2.0-4.0-0.4","5cd34d42fe890a00174debb5","C3","batch3","spm_show_trial_num","null","<p class=block-text>Trial 29 out of 60</p>","null","","","","","","","","","","","","","","","","","","","","","","","","","",""
"","","","","","image-button-response","62","215842","0.0-2.0-4.0-1.4","5cd34d42fe890a00174debb5","C3","batch3","spm_respsonse","11586.899999976158","img/question_3_5.jpeg","6","mat_29","7","1","1","11586.899999976158","","","","","","","","","","","","","","","","","","","","",""
"","","","","","html-keyboard-response","63","216900","0.0-2.0-4.0-0.5","5cd34d42fe890a00174debb5","C3","batch3","spm_show_trial_num","null","<p class=block-text>Trial 30 out of 60</p>","null","","","","","","","","","","","","","","","","","","","","","","","","","",""
"","","","","","image-button-response","64","222183","0.0-2.0-4.0-1.5","5cd34d42fe890a00174debb5","C3","batch3","spm_respsonse","5282.5","img/question_3_6.jpeg","3","mat_30","4","1","1","5282.5","","","","","","","","","","","","","","","","","","","","",""
"","","","","","html-keyboard-response","65","223244","0.0-2.0-4.0-0.6","5cd34d42fe890a00174debb5","C3","batch3","spm_show_trial_num","null","<p class=block-text>Trial 31 out of 60</p>","null","","","","","","","","","","","","","","","","","","","","","","","","","",""
"","","","","","image-button-response","66","228486","0.0-2.0-4.0-1.6","5cd34d42fe890a00174debb5","C3","batch3","spm_respsonse","5241.300000011921","img/question_3_7.jpeg","4","mat_31","5","1","1","5241.300000011921","","","","","","","","","","","","","","","","","","","","",""
"","","","","","html-keyboard-response","67","229539","0.0-2.0-4.0-0.7","5cd34d42fe890a00174debb5","C3","batch3","spm_show_trial_num","null","<p class=block-text>Trial 32 out of 60</p>","null","","","","","","","","","","","","","","","","","","","","","","","","","",""
"","","","","","image-button-response","68","235803","0.0-2.0-4.0-1.7","5cd34d42fe890a00174debb5","C3","batch3","spm_respsonse","6263.300000011921","img/question_3_8.jpeg","0","mat_32","1","1","1","6263.300000011921","","","","","","","","","","","","","","","","","","","","",""
"","","","","","html-keyboard-response","69","236861","0.0-2.0-4.0-0.8","5cd34d42fe890a00174debb5","C3","batch3","spm_show_trial_num","null","<p class=block-text>Trial 33 out of 60</p>","null","","","","","","","","","","","","","","","","","","","","","","","","","",""
"","","","","","image-button-response","70","251135","0.0-2.0-4.0-1.8","5cd34d42fe890a00174debb5","C3","batch3","spm_respsonse","14273.300000011921","img/question_3_9.jpeg","6","mat_33","7","1","1","14273.300000011921","","","","","","","","","","","","","","","","","","","","",""
"","","","","","html-keyboard-response","71","252197","0.0-2.0-4.0-0.9","5cd34d42fe890a00174debb5","C3","batch3","spm_show_trial_num","null","<p class=block-text>Trial 34 out of 60</p>","null","","","","","","","","","","","","","","","","","","","","","","","","","",""
"","","","","","image-button-response","72","278804","0.0-2.0-4.0-1.9","5cd34d42fe890a00174debb5","C3","batch3","spm_respsonse","26606.19999998808","img/question_3_10.jpeg","3","mat_34","6","0","0","26606.19999998808","","","","","","","","","","","","","","","","","","","","",""
"","","","","","html-keyboard-response","73","279884","0.0-2.0-4.0-0.10","5cd34d42fe890a00174debb5","C3","batch3","spm_show_trial_num","null","<p class=block-text>Trial 35 out of 60</p>","null","","","","","","","","","","","","","","","","","","","","","","","","","",""
"","","","","","image-button-response","74","289298","0.0-2.0-4.0-1.10","5cd34d42fe890a00174debb5","C3","batch3","spm_respsonse","9412.399999976158","img/question_3_11.jpeg","4","mat_35","1","0","0","9412.399999976158","","","","","","","","","","","","","","","","","","","","",""
"","","","","","html-keyboard-response","75","290358","0.0-2.0-4.0-0.11","5cd34d42fe890a00174debb5","C3","batch3","spm_show_trial_num","null","<p class=block-text>Trial 36 out of 60</p>","null","","","","","","","","","","","","","","","","","","","","","","","","","",""
"","","","","","image-button-response","76","312375","0.0-2.0-4.0-1.11","5cd34d42fe890a00174debb5","C3","batch3","spm_respsonse","22015.600000023842","img/question_3_12.jpeg","5","mat_36","2","0","0","22015.600000023842","","","","","","","","","","","","","","","","","","","","",""
"","","","","","html-keyboard-response","77","313428","0.0-2.0-4.0-0.12","5cd34d42fe890a00174debb5","C3","batch3","spm_show_trial_num","null","<p class=block-text>Trial 37 out of 60</p>","null","","","","","","","","","","","","","","","","","","","","","","","","","",""
"","","","","","image-button-response","78","316994","0.0-2.0-4.0-1.12","5cd34d42fe890a00174debb5","C3","batch3","spm_respsonse","3564.600000023842","img/question_4_1.jpeg","2","mat_37","3","1","1","3564.600000023842","","","","","","","","","","","","","","","","","","","","",""
"","","","","","html-keyboard-response","79","318060","0.0-2.0-4.0-0.13","5cd34d42fe890a00174debb5","C3","batch3","spm_show_trial_num","null","<p class=block-text>Trial 38 out of 60</p>","null","","","","","","","","","","","","","","","","","","","","","","","","","",""
"","","","","","image-button-response","80","325989","0.0-2.0-4.0-1.13","5cd34d42fe890a00174debb5","C3","batch3","spm_respsonse","7927.200000047684","img/question_4_2.jpeg","7","mat_38","4","0","0","7927.200000047684","","","","","","","","","","","","","","","","","","","","",""
"","","","","","html-keyboard-response","81","327054","0.0-2.0-4.0-0.14","5cd34d42fe890a00174debb5","C3","batch3","spm_show_trial_num","null","<p class=block-text>Trial 39 out of 60</p>","null","","","","","","","","","","","","","","","","","","","","","","","","","",""
"","","","","","image-button-response","82","334793","0.0-2.0-4.0-1.14","5cd34d42fe890a00174debb5","C3","batch3","spm_respsonse","7737.099999964237","img/question_4_3.jpeg","2","mat_39","3","1","1","7737.099999964237","","","","","","","","","","","","","","","","","","","","",""
"","","","","","html-keyboard-response","83","335850","0.0-2.0-4.0-0.15","5cd34d42fe890a00174debb5","C3","batch3","spm_show_trial_num","null","<p class=block-text>Trial 40 out of 60</p>","null","","","","","","","","","","","","","","","","","","","","","","","","","",""
"","","","","","image-button-response","84","345988","0.0-2.0-4.0-1.15","5cd34d42fe890a00174debb5","C3","batch3","spm_respsonse","10136.600000023842","img/question_4_4.jpeg","6","mat_40","7","1","1","10136.600000023842","","","","","","","","","","","","","","","","","","","","",""
"","","","","","html-keyboard-response","85","347039","0.0-2.0-4.0-0.16","5cd34d42fe890a00174debb5","C3","batch3","spm_show_trial_num","null","<p class=block-text>Trial 41 out of 60</p>","null","","","","","","","","","","","","","","","","","","","","","","","","","",""
"","","","","","image-button-response","86","355449","0.0-2.0-4.0-1.16","5cd34d42fe890a00174debb5","C3","batch3","spm_respsonse","8408.399999976158","img/question_4_5.jpeg","7","mat_41","8","1","1","8408.399999976158","","","","","","","","","","","","","","","","","","","","",""
"","","","","","html-keyboard-response","87","356511","0.0-2.0-4.0-0.17","5cd34d42fe890a00174debb5","C3","batch3","spm_show_trial_num","null","<p class=block-text>Trial 42 out of 60</p>","null","","","","","","","","","","","","","","","","","","","","","","","","","",""
"","","","","","image-button-response","88","368559","0.0-2.0-4.0-1.17","5cd34d42fe890a00174debb5","C3","batch3","spm_respsonse","12046.5","img/question_4_6.jpeg","5","mat_42","6","1","1","12046.5","","","","","","","","","","","","","","","","","","","","",""
"","","","","","html-keyboard-response","89","369619","0.0-2.0-4.0-0.18","5cd34d42fe890a00174debb5","C3","batch3","spm_show_trial_num","null","<p class=block-text>Trial 43 out of 60</p>","null","","","","","","","","","","","","","","","","","","","","","","","","","",""
"","","","","","image-button-response","90","393679","0.0-2.0-4.0-1.18","5cd34d42fe890a00174debb5","C3","batch3","spm_respsonse","24059","img/question_4_7.jpeg","4","mat_43","5","1","1","24059","","","","","","","","","","","","","","","","","","","","",""
"","","","","","html-keyboard-response","91","394738","0.0-2.0-4.0-0.19","5cd34d42fe890a00174debb5","C3","batch3","spm_show_trial_num","null","<p class=block-text>Trial 44 out of 60</p>","null","","","","","","","","","","","","","","","","","","","","","","","","","",""
"","","","","","image-button-response","92","402931","0.0-2.0-4.0-1.19","5cd34d42fe890a00174debb5","C3","batch3","spm_respsonse","8192","img/question_4_8.jpeg","4","mat_44","4","0","0","8192","","","","","","","","","","","","","","","","","","","","",""
"","","","","","html-keyboard-response","93","403992","0.0-2.0-4.0-0.20","5cd34d42fe890a00174debb5","C3","batch3","spm_show_trial_num","null","<p class=block-text>Trial 45 out of 60</p>","null","","","","","","","","","","","","","","","","","","","","","","","","","",""
"","","","","","image-button-response","94","437763","0.0-2.0-4.0-1.20","5cd34d42fe890a00174debb5","C3","batch3","spm_respsonse","33769.80000001192","img/question_4_9.jpeg","2","mat_45","1","0","0","33769.80000001192","","","","","","","","","","","","","","","","","","","","",""
"","","","","","html-keyboard-response","95","438815","0.0-2.0-4.0-0.21","5cd34d42fe890a00174debb5","C3","batch3","spm_show_trial_num","null","<p class=block-text>Trial 46 out of 60</p>","null","","","","","","","","","","","","","","","","","","","","","","","","","",""
"","","","","","image-button-response","96","473726","0.0-2.0-4.0-1.21","5cd34d42fe890a00174debb5","C3","batch3","spm_respsonse","34910.39999997616","img/question_4_10.jpeg","5","mat_46","2","0","0","34910.39999997616","","","","","","","","","","","","","","","","","","","","",""
"","","","","","html-keyboard-response","97","474789","0.0-2.0-4.0-0.22","5cd34d42fe890a00174debb5","C3","batch3","spm_show_trial_num","null","<p class=block-text>Trial 47 out of 60</p>","null","","","","","","","","","","","","","","","","","","","","","","","","","",""
"","","","","","image-button-response","98","504329","0.0-2.0-4.0-1.22","5cd34d42fe890a00174debb5","C3","batch3","spm_respsonse","29538.5","img/question_4_11.jpeg","6","mat_47","5","0","0","29538.5","","","","","","","","","","","","","","","","","","","","",""
"","","","","","html-keyboard-response","99","505381","0.0-2.0-4.0-0.23","5cd34d42fe890a00174debb5","C3","batch3","spm_show_trial_num","null","<p class=block-text>Trial 48 out of 60</p>","null","","","","","","","","","","","","","","","","","","","","","","","","","",""
"","","","","","image-button-response","100","532659","0.0-2.0-4.0-1.23","5cd34d42fe890a00174debb5","C3","batch3","spm_respsonse","27277","img/question_4_12.jpeg","3","mat_48","6","0","0","27277","","","","","","","","","","","","","","","","","","","","",""
"","","","","","html-keyboard-response","101","533723","0.0-2.0-4.0-0.24","5cd34d42fe890a00174debb5","C3","batch3","spm_show_trial_num","null","<p class=block-text>Trial 49 out of 60</p>","null","","","","","","","","","","","","","","","","","","","","","","","","","",""
"","","","","","image-button-response","102","546625","0.0-2.0-4.0-1.24","5cd34d42fe890a00174debb5","C3","batch3","spm_respsonse","12900.699999988079","img/question_5_1.jpeg","6","mat_49","7","1","1","12900.699999988079","","","","","","","","","","","","","","","","","","","","",""
"","","","","","html-keyboard-response","103","547698","0.0-2.0-4.0-0.25","5cd34d42fe890a00174debb5","C3","batch3","spm_show_trial_num","null","<p class=block-text>Trial 50 out of 60</p>","null","","","","","","","","","","","","","","","","","","","","","","","","","",""
"","","","","","image-button-response","104","573276","0.0-2.0-4.0-1.25","5cd34d42fe890a00174debb5","C3","batch3","spm_respsonse","25578.5","img/question_5_2.jpeg","5","mat_50","6","1","1","25578.5","","","","","","","","","","","","","","","","","","","","",""
"","","","","","html-keyboard-response","105","574342","0.0-2.0-4.0-0.26","5cd34d42fe890a00174debb5","C3","batch3","spm_show_trial_num","null","<p class=block-text>Trial 51 out of 60</p>","null","","","","","","","","","","","","","","","","","","","","","","","","","",""
"","","","","","image-button-response","106","584190","0.0-2.0-4.0-1.26","5cd34d42fe890a00174debb5","C3","batch3","spm_respsonse","9847.099999964237","img/question_5_3.jpeg","7","mat_51","8","1","1","9847.099999964237","","","","","","","","","","","","","","","","","","","","",""
"","","","","","html-keyboard-response","107","585253","0.0-2.0-4.0-0.27","5cd34d42fe890a00174debb5","C3","batch3","spm_show_trial_num","null","<p class=block-text>Trial 52 out of 60</p>","null","","","","","","","","","","","","","","","","","","","","","","","","","",""
"","","","","","image-button-response","108","598849","0.0-2.0-4.0-1.27","5cd34d42fe890a00174debb5","C3","batch3","spm_respsonse","13595.600000023842","img/question_5_4.jpeg","1","mat_52","2","1","1","13595.600000023842","","","","","","","","","","","","","","","","","","","","",""
"","","","","","html-keyboard-response","109","599910","0.0-2.0-4.0-0.28","5cd34d42fe890a00174debb5","C3","batch3","spm_show_trial_num","null","<p class=block-text>Trial 53 out of 60</p>","null","","","","","","","","","","","","","","","","","","","","","","","","","",""
"","","","","","image-button-response","110","627799","0.0-2.0-4.0-1.28","5cd34d42fe890a00174debb5","C3","batch3","spm_respsonse","27887.399999976158","img/question_5_5.jpeg","3","mat_53","1","0","0","27887.399999976158","","","","","","","","","","","","","","","","","","","","",""
"","","","","","html-keyboard-response","111","628862","0.0-2.0-4.0-0.29","5cd34d42fe890a00174debb5","C3","batch3","spm_show_trial_num","null","<p class=block-text>Trial 54 out of 60</p>","null","","","","","","","","","","","","","","","","","","","","","","","","","",""
"","","","","","image-button-response","112","660107","0.0-2.0-4.0-1.29","5cd34d42fe890a00174debb5","C3","batch3","spm_respsonse","31243.700000047684","img/question_5_6.jpeg","2","mat_54","5","0","0","31243.700000047684","","","","","","","","","","","","","","","","","","","","",""
"","","","","","html-keyboard-response","113","661158","0.0-2.0-4.0-0.30","5cd34d42fe890a00174debb5","C3","batch3","spm_show_trial_num","null","<p class=block-text>Trial 55 out of 60</p>","null","","","","","","","","","","","","","","","","","","","","","","","","","",""
"","","","","","image-button-response","114","667461","0.0-2.0-4.0-1.30","5cd34d42fe890a00174debb5","C3","batch3","spm_respsonse","6301.699999988079","img/question_5_7.jpeg","3","mat_55","1","0","0","6301.699999988079","","","","","","","","","","","","","","","","","","","","",""
"","","","","","html-keyboard-response","115","668512","0.0-2.0-4.0-0.31","5cd34d42fe890a00174debb5","C3","batch3","spm_show_trial_num","null","<p class=block-text>Trial 56 out of 60</p>","null","","","","","","","","","","","","","","","","","","","","","","","","","",""
"","","","","","image-button-response","116","677221","0.0-2.0-4.0-1.31","5cd34d42fe890a00174debb5","C3","batch3","spm_respsonse","8707.800000011921","img/question_5_8.jpeg","1","mat_56","6","0","0","8707.800000011921","","","","","","","","","","","","","","","","","","","","",""
"","","","","","html-keyboard-response","117","678273","0.0-2.0-4.0-0.32","5cd34d42fe890a00174debb5","C3","batch3","spm_show_trial_num","null","<p class=block-text>Trial 57 out of 60</p>","null","","","","","","","","","","","","","","","","","","","","","","","","","",""
"","","","","","image-button-response","118","692799","0.0-2.0-4.0-1.32","5cd34d42fe890a00174debb5","C3","batch3","spm_respsonse","14526.199999988079","img/question_5_9.jpeg","2","mat_57","3","1","1","14526.199999988079","","","","","","","","","","","","","","","","","","","","",""
"","","","","","html-keyboard-response","119","693851","0.0-2.0-4.0-0.33","5cd34d42fe890a00174debb5","C3","batch3","spm_show_trial_num","null","<p class=block-text>Trial 58 out of 60</p>","null","","","","","","","","","","","","","","","","","","","","","","","","","",""
"","","","","","image-button-response","120","695845","0.0-2.0-4.0-1.33","5cd34d42fe890a00174debb5","C3","batch3","spm_respsonse","1992.800000011921","img/question_5_10.jpeg","5","mat_58","2","0","0","1992.800000011921","","","","","","","","","","","","","","","","","","","","",""
"","","","","","html-keyboard-response","121","696897","0.0-2.0-4.0-0.34","5cd34d42fe890a00174debb5","C3","batch3","spm_show_trial_num","null","<p class=block-text>Trial 59 out of 60</p>","null","","","","","","","","","","","","","","","","","","","","","","","","","",""
"","","","","","image-button-response","122","701493","0.0-2.0-4.0-1.34","5cd34d42fe890a00174debb5","C3","batch3","spm_respsonse","4595.100000023842","img/question_5_11.jpeg","2","mat_59","4","0","0","4595.100000023842","","","","","","","","","","","","","","","","","","","","",""
"","","","","","html-keyboard-response","123","702557","0.0-2.0-4.0-0.35","5cd34d42fe890a00174debb5","C3","batch3","spm_show_trial_num","null","<p class=block-text>Trial 60 out of 60</p>","null","","","","","","","","","","","","","","","","","","","","","","","","","",""
"","","","","","image-button-response","124","706168","0.0-2.0-4.0-1.35","5cd34d42fe890a00174debb5","C3","batch3","spm_respsonse","3609.5","img/question_5_12.jpeg","5","mat_60","5","0","0","3609.5","","","","","","","","","","","","","","","","","","","","",""
"","","","","","html-button-response","125","707917","0.0-2.0-5.0","5cd34d42fe890a00174debb5","C3","batch3","spm_goodbye","1486.5","<p class= block-text>This concludes the Standard Progressive Matrix game. Thank you for your responses!<br> When you are ready, click the button continue</p>","0","","","","","","","","","","","","","","","","","","","","","","","","","",""
"true","","","","","fullscreen","126","710345","0.0-3.0-0.0","5cd34d42fe890a00174debb5","C3","batch3","","","","","","","","","","","","","","","","","","","","","","","","","","","","","",""
"","","","","","instructions","127","772660","0.0-3.0-1.0-0.0-0.0","5cd34d42fe890a00174debb5","C3","batch3","tol-instructions","62314.69999998808","","","","","","","","[{""page_index"":0,""viewing_time"":8354.300000011921},{""page_index"":1,""viewing_time"":3709.399999976158},{""page_index"":2,""viewing_time"":2900.199999988079},{""page_index"":3,""viewing_time"":34763},{""page_index"":4,""viewing_time"":5630.800000011921},{""page_index"":5,""viewing_time"":3744.300000011921},{""page_index"":6,""viewing_time"":3212.5}]","","","","","","","","","","","","","","","","","","","",""
"","","","","","html-button-response","128","773688","0.0-3.0-1.0-1.0-0.0","5cd34d42fe890a00174debb5","C3","batch3","tol_enter_quiz","1027.300000011921","<p class=block-text> Let's answer a few questions <br>","0","","","","","","","","","","","","","","","","","","","","","","","","","",""
"","","","","","html-button-response","129","778968","0.0-3.0-1.0-1.0-1.0","5cd34d42fe890a00174debb5","C3","batch3","tol_quiz","5278.900000035763","<p class = block-text>True or False: You can only move the ball on top of a peg. <br></p>","1","","","false","","","","","","","","","","","","","","","","","","","","","","",""
"","","","","","html-button-response","130","780424","0.0-3.0-1.0-1.0-2.0","5cd34d42fe890a00174debb5","C3","batch3","tol_quiz_feedback","1455.2999999523163","<p class = block-text>Incorrect. Remember, you can only move the ball on top of a peg.</p>","0","","","","","","","","","","","","","","","","","","","","","","","","","",""
"","","","","","html-button-response","131","788513","0.0-3.0-1.0-1.0-3.0","5cd34d42fe890a00174debb5","C3","batch3","tol_quiz","8088.399999976158","<p class = block-text>True or False: You should try to match your board with the target board with fewest moves possible. <br></p>","0","","","true","","","","","","","","","","","","","","","","","","","","","","",""
"","","","","","html-button-response","132","789296","0.0-3.0-1.0-1.0-4.0","5cd34d42fe890a00174debb5","C3","batch3","tol_quiz_feedback","782.3999999761581","<p class = block-text>Correct! </p>","0","","","","","","","","","","","","","","","","","","","","","","","","","",""
"","","","","","html-button-response","133","790560","0.0-3.0-1.0-2.0-0.0","5cd34d42fe890a00174debb5","C3","batch3","","1263.0999999642372","<p class = block-text>You made too many incorrect choices.</p><p class = block-text>You will now repeat the instructions and quiz</p>","0","","","","","","","","","","","","","","","","","","","","","","","","","",""
"","","","","","instructions","134","796274","0.0-3.0-1.1-0.1-0.1","5cd34d42fe890a00174debb5","C3","batch3","tol-instructions","5713.099999964237","","","","","","","","[{""page_index"":0,""viewing_time"":854.5},{""page_index"":1,""viewing_time"":512.8999999761581},{""page_index"":2,""viewing_time"":506.10000002384186},{""page_index"":3,""viewing_time"":453.0999999642372},{""page_index"":4,""viewing_time"":464},{""page_index"":5,""viewing_time"":468.10000002384186},{""page_index"":6,""viewing_time"":2454.300000011921}]","","","","","","","","","","","","","","","","","","","",""
"","","","","","html-button-response","135","797150","0.0-3.0-1.1-1.1-0.1","5cd34d42fe890a00174debb5","C3","batch3","tol_enter_quiz","875.5999999642372","<p class=block-text> Let's answer a few questions <br>","0","","","","","","","","","","","","","","","","","","","","","","","","","",""
"","","","","","html-button-response","136","799220","0.0-3.0-1.1-1.1-1.1","5cd34d42fe890a00174debb5","C3","batch3","tol_quiz","2069.5","<p class = block-text>True or False: You can only move the ball on top of a peg. <br></p>","0","","","true","","","","","","","","","","","","","","","","","","","","","","",""
"","","","","","html-button-response","137","799823","0.0-3.0-1.1-1.1-2.1","5cd34d42fe890a00174debb5","C3","batch3","tol_quiz_feedback","602.5","<p class = block-text>Correct! You can only move the ball on top of a peg.</p>","0","","","","","","","","","","","","","","","","","","","","","","","","","",""
"","","","","","html-button-response","138","801397","0.0-3.0-1.1-1.1-3.1","5cd34d42fe890a00174debb5","C3","batch3","tol_quiz","1572.800000011921","<p class = block-text>True or False: You should try to match your board with the target board with fewest moves possible. <br></p>","0","","","true","","","","","","","","","","","","","","","","","","","","","","",""
"","","","","","html-button-response","139","802058","0.0-3.0-1.1-1.1-4.1","5cd34d42fe890a00174debb5","C3","batch3","tol_quiz_feedback","660.3999999761581","<p class = block-text>Correct! </p>","0","","","","","","","","","","","","","","","","","","","","","","","","","",""
"","","","","","html-button-response","140","804150","0.0-3.0-2.0","5cd34d42fe890a00174debb5","C3","batch3","","2091.699999988079","<p class=block-text> Now that you've understood the game, let's practice a few easier examples before we start!<br> <br>","0","","","","","","","","","","","","","","","","","","","","","","","","","",""
"","","","","","single-stim-button","141","813323","0.0-3.0-3.0-0.0","5cd34d42fe890a00174debb5","C3","batch3","tol_practice","9172","","","","","","","","","tol_peg_2","9172","9172","0","[[1,2,0],[0,0],[0]]","1","[[1,2,0],[0,0],[3]]","practice","9172","","","","","","","","","","",""
"","","","","","single-stim-button","142","814116","0.0-3.0-3.0-1.0","5cd34d42fe890a00174debb5","C3","batch3","tol_practice","793","","","","","","","","","tol_peg_3","793","793","0","[[1,2,0],[0,0],[3]]","1","[[1,2,0],[0,0],[3]]","practice","793","","","","","","","","","","",""
"","","","","","poldrack-single-stim","143","815125","0.0-3.0-4.0","5cd34d42fe890a00174debb5","C3","batch3","tol_feedback","-1","","","","","true","","","","","1000","1000","500","","","","","","-1","none","true","","0","","","","","",""
"","","","","","single-stim-button","144","817446","0.0-3.0-5.0-0.0","5cd34d42fe890a00174debb5","C3","batch3","tol_practice","2321","","","","","","","","","tol_peg_1","2321","2321","0","[[1,0,0],[3,0],[0]]","2","[[0,0,0],[3,1],[2]]","practice","2321","","","","","","","","","","",""
"","","","","","single-stim-button","145","818228","0.0-3.0-5.0-1.0","5cd34d42fe890a00174debb5","C3","batch3","tol_practice","781","","","","","","","","","tol_peg_3","781","781","0","[[1,0,0],[3,0],[2]]","2","[[0,0,0],[3,1],[2]]","practice","781","","","","","","","","","","",""
"","","","","","single-stim-button","146","818760","0.0-3.0-5.1-0.1","5cd34d42fe890a00174debb5","C3","batch3","tol_practice","530","","","","","","","","","tol_peg_1","530","530","0","[[0,0,0],[3,0],[2]]","3","[[0,0,0],[3,1],[2]]","practice","530","","","","","","","","","","",""
"","","","","","single-stim-button","147","819300","0.0-3.0-5.1-1.1","5cd34d42fe890a00174debb5","C3","batch3","tol_practice","540","","","","","","","","","tol_peg_2","540","540","0","[[0,0,0],[3,1],[2]]","3","[[0,0,0],[3,1],[2]]","practice","540","","","","","","","","","","",""
"","","","","","poldrack-single-stim","148","820304","0.0-3.0-6.0","5cd34d42fe890a00174debb5","C3","batch3","tol_feedback","-1","","","","","true","","","","","1000","1000","500","","","","","","-1","none","true","","0","","","","","",""
"","","","","","single-stim-button","149","822961","0.0-3.0-7.0-0.0","5cd34d42fe890a00174debb5","C3","batch3","tol_practice","2657","","","","","","","","","tol_peg_2","2657","2657","0","[[1,2,0],[0,0],[0]]","4","[[1,0,0],[2,0],[3]]","practice","2657","","","","","","","","","","",""
"","","","","","single-stim-button","150","823641","0.0-3.0-7.0-1.0","5cd34d42fe890a00174debb5","C3","batch3","tol_practice","680","","","","","","","","","tol_peg_3","680","680","0","[[1,2,0],[0,0],[3]]","4","[[1,0,0],[2,0],[3]]","practice","680","","","","","","","","","","",""
"","","","","","single-stim-button","151","824316","0.0-3.0-7.1-0.1","5cd34d42fe890a00174debb5","C3","batch3","tol_practice","675","","","","","","","","","tol_peg_1","675","675","0","[[1,0,0],[0,0],[3]]","5","[[1,0,0],[2,0],[3]]","practice","675","","","","","","","","","","",""
"","","","","","single-stim-button","152","825130","0.0-3.0-7.1-1.1","5cd34d42fe890a00174debb5","C3","batch3","tol_practice","814","","","","","","","","","tol_peg_2","814","814","0","[[1,0,0],[2,0],[3]]","5","[[1,0,0],[2,0],[3]]","practice","814","","","","","","","","","","",""
"","","","","","poldrack-single-stim","153","826133","0.0-3.0-8.0","5cd34d42fe890a00174debb5","C3","batch3","tol_feedback","-1","","","","","true","","","","","1000","1000","500","","","","","","-1","none","true","","0","","","","","",""
"","","","","","html-button-response","154","827440","0.0-3.0-9.0","5cd34d42fe890a00174debb5","C3","batch3","tol_instruction","1307.5","<div class = centerbox><p class = center-block-text>Great job! You are done with practice trials<br>You are about to start official trials.<br> <br> Problem <strong>1</strong> out of 25 problems</p></div>","0","","","","","","","","","","","","","","","","","","","","","","","","","",""
"","","","","","single-stim-button","155","830497","0.0-3.0-10.0-0.0","5cd34d42fe890a00174debb5","C3","batch3","tol_tohand","2055","","","","","","","","","tol_peg_1","2055","2055","0","[[1,0,0],[3,0],[0]]","1","[[1,3,0],[2,0],[0]]","0","0","","","","","","3","","","","",""
"","","","","","single-stim-button","156","837743","0.0-3.0-10.0-1.0","5cd34d42fe890a00174debb5","C3","batch3","tol_toboard","7246","","","","","","","","","tol_peg_1","7246","7246","0","[[1,2,0],[3,0],[0]]","1","[[1,3,0],[2,0],[0]]","0","0","","","","","","3","","","","",""
"","","","","","single-stim-button","157","838193","0.0-3.0-10.1-0.1","5cd34d42fe890a00174debb5","C3","batch3","tol_tohand","449","","","","","","","","","tol_peg_2","449","449","0","[[1,2,0],[0,0],[0]]","2","[[1,3,0],[2,0],[0]]","0","0","","","","","","3","","","","",""
"","","","","","single-stim-button","158","840095","0.0-3.0-10.1-1.1","5cd34d42fe890a00174debb5","C3","batch3","tol_toboard","1902","","","","","","","","","tol_peg_3","1902","1902","0","[[1,2,0],[0,0],[3]]","2","[[1,3,0],[2,0],[0]]","0","0","","","","","","3","","","","",""
"","","","","","single-stim-button","159","840583","0.0-3.0-10.2-0.2","5cd34d42fe890a00174debb5","C3","batch3","tol_tohand","488","","","","","","","","","tol_peg_1","488","488","0","[[1,0,0],[0,0],[3]]","3","[[1,3,0],[2,0],[0]]","0","0","","","","","","3","","","","",""
"","","","","","single-stim-button","160","841049","0.0-3.0-10.2-1.2","5cd34d42fe890a00174debb5","C3","batch3","tol_toboard","466","","","","","","","","","tol_peg_2","466","466","0","[[1,0,0],[2,0],[3]]","3","[[1,3,0],[2,0],[0]]","0","0","","","","","","3","","","","",""
"","","","","","single-stim-button","161","841388","0.0-3.0-10.3-0.3","5cd34d42fe890a00174debb5","C3","batch3","tol_tohand","339","","","","","","","","","tol_peg_3","339","339","0","[[1,0,0],[2,0],[0]]","4","[[1,3,0],[2,0],[0]]","0","0","","","","","","3","","","","",""
"","","","","","single-stim-button","162","842078","0.0-3.0-10.3-1.3","5cd34d42fe890a00174debb5","C3","batch3","tol_toboard","690","","","","","","","","","tol_peg_1","690","690","0","[[1,3,0],[2,0],[0]]","4","[[1,3,0],[2,0],[0]]","0","0","","","","","","3","","","","",""
"","","","","","poldrack-single-stim","163","843083","0.0-3.0-11.0","5cd34d42fe890a00174debb5","C3","batch3","tol_feedback","-1","","","","","true","","","","","1000","1000","500","","","","","","-1","none","true","2055","3331","","","","","",""
"","","","","","html-button-response","164","843994","0.0-3.0-12.0","5cd34d42fe890a00174debb5","C3","batch3","tol_trial_num","910.8000000119209","<div class = centerbox><p class = center-block-text>problem <strong>2</strong> out of 25 problems</p></div>","0","","","","","","","","","","","","","","","","","","","","","","","","","",""
"","","","","","single-stim-button","165","848960","0.0-3.0-13.0-0.0","5cd34d42fe890a00174debb5","C3","batch3","tol_tohand","4965","","","","","","","","","tol_peg_1","4965","4965","0","[[1,0,0],[3,0],[0]]","1","[[2,1,3],[0,0],[0]]","1","0","","","","","","5","","","","",""
"","","","","","single-stim-button","166","850517","0.0-3.0-13.0-1.0","5cd34d42fe890a00174debb5","C3","batch3","tol_toboard","1557","","","","","","","","","tol_peg_3","1557","1557","0","[[1,0,0],[3,0],[2]]","1","[[2,1,3],[0,0],[0]]","1","0","","","","","","5","","","","",""
"","","","","","single-stim-button","167","851050","0.0-3.0-13.1-0.1","5cd34d42fe890a00174debb5","C3","batch3","tol_tohand","533","","","","","","","","","tol_peg_1","533","533","0","[[0,0,0],[3,0],[2]]","2","[[2,1,3],[0,0],[0]]","1","0","","","","","","5","","","","",""
"","","","","","single-stim-button","168","851513","0.0-3.0-13.1-1.1","5cd34d42fe890a00174debb5","C3","batch3","tol_toboard","463","","","","","","","","","tol_peg_2","463","463","0","[[0,0,0],[3,1],[2]]","2","[[2,1,3],[0,0],[0]]","1","0","","","","","","5","","","","",""
"","","","","","single-stim-button","169","851965","0.0-3.0-13.2-0.2","5cd34d42fe890a00174debb5","C3","batch3","tol_tohand","452","","","","","","","","","tol_peg_3","452","452","0","[[0,0,0],[3,1],[0]]","3","[[2,1,3],[0,0],[0]]","1","0","","","","","","5","","","","",""
"","","","","","single-stim-button","170","852746","0.0-3.0-13.2-1.2","5cd34d42fe890a00174debb5","C3","batch3","tol_toboard","780","","","","","","","","","tol_peg_1","780","780","0","[[2,0,0],[3,1],[0]]","3","[[2,1,3],[0,0],[0]]","1","0","","","","","","5","","","","",""
"","","","","","single-stim-button","171","853270","0.0-3.0-13.3-0.3","5cd34d42fe890a00174debb5","C3","batch3","tol_tohand","524","","","","","","","","","tol_peg_2","524","524","0","[[2,0,0],[3,0],[0]]","4","[[2,1,3],[0,0],[0]]","1","0","","","","","","5","","","","",""
"","","","","","single-stim-button","172","853794","0.0-3.0-13.3-1.3","5cd34d42fe890a00174debb5","C3","batch3","tol_toboard","524","","","","","","","","","tol_peg_1","524","524","0","[[2,1,0],[3,0],[0]]","4","[[2,1,3],[0,0],[0]]","1","0","","","","","","5","","","","",""
"","","","","","single-stim-button","173","854141","0.0-3.0-13.4-0.4","5cd34d42fe890a00174debb5","C3","batch3","tol_tohand","346","","","","","","","","","tol_peg_2","346","346","0","[[2,1,0],[0,0],[0]]","5","[[2,1,3],[0,0],[0]]","1","0","","","","","","5","","","","",""
"","","","","","single-stim-button","174","854786","0.0-3.0-13.4-1.4","5cd34d42fe890a00174debb5","C3","batch3","tol_toboard","645","","","","","","","","","tol_peg_1","645","645","0","[[2,1,3],[0,0],[0]]","5","[[2,1,3],[0,0],[0]]","1","0","","","","","","5","","","","",""
"","","","","","poldrack-single-stim","175","855787","0.0-3.0-14.0","5cd34d42fe890a00174debb5","C3","batch3","tol_feedback","-1","","","","","true","","","","","1000","1000","500","","","","","","-1","none","true","4965","6820","","","","","",""
"","","","","","html-button-response","176","856678","0.0-3.0-15.0","5cd34d42fe890a00174debb5","C3","batch3","tol_trial_num","889.7999999523163","<div class = centerbox><p class = center-block-text>problem <strong>3</strong> out of 25 problems</p></div>","0","","","","","","","","","","","","","","","","","","","","","","","","","",""
"","","","","","single-stim-button","177","860010","0.0-3.0-16.0-0.0","5cd34d42fe890a00174debb5","C3","batch3","tol_tohand","3332","","","","","","","","","tol_peg_1","3332","3332","0","[[2,0,0],[0,0],[1]]","1","[[1,2,0],[3,0],[0]]","2","0","","","","","","4","","","","",""
"","","","","","single-stim-button","178","868144","0.0-3.0-16.0-1.0","5cd34d42fe890a00174debb5","C3","batch3","tol_toboard","8133","","","","","","","","","tol_peg_2","8133","8133","0","[[2,0,0],[3,0],[1]]","1","[[1,2,0],[3,0],[0]]","2","0","","","","","","4","","","","",""
"","","","","","single-stim-button","179","868589","0.0-3.0-16.1-0.1","5cd34d42fe890a00174debb5","C3","batch3","tol_tohand","444","","","","","","","","","tol_peg_1","444","444","0","[[0,0,0],[3,0],[1]]","2","[[1,2,0],[3,0],[0]]","2","0","","","","","","4","","","","",""
"","","","","","single-stim-button","180","869078","0.0-3.0-16.1-1.1","5cd34d42fe890a00174debb5","C3","batch3","tol_toboard","488","","","","","","","","","tol_peg_2","488","488","0","[[0,0,0],[3,2],[1]]","2","[[1,2,0],[3,0],[0]]","2","0","","","","","","4","","","","",""
"","","","","","single-stim-button","181","869446","0.0-3.0-16.2-0.2","5cd34d42fe890a00174debb5","C3","batch3","tol_tohand","367","","","","","","","","","tol_peg_3","367","367","0","[[0,0,0],[3,2],[0]]","3","[[1,2,0],[3,0],[0]]","2","0","","","","","","4","","","","",""
"","","","","","single-stim-button","182","870102","0.0-3.0-16.2-1.2","5cd34d42fe890a00174debb5","C3","batch3","tol_toboard","656","","","","","","","","","tol_peg_1","656","656","0","[[1,0,0],[3,2],[0]]","3","[[1,2,0],[3,0],[0]]","2","0","","","","","","4","","","","",""
"","","","","","single-stim-button","183","872626","0.0-3.0-16.3-0.3","5cd34d42fe890a00174debb5","C3","batch3","tol_tohand","2522","","","","","","","","","tol_peg_1","2522","2522","0","[[0,0,0],[3,2],[0]]","4","[[1,2,0],[3,0],[0]]","2","0","","","","","","4","","","","",""
"","","","","","single-stim-button","184","873905","0.0-3.0-16.3-1.3","5cd34d42fe890a00174debb5","C3","batch3","tol_toboard","1279","","","","","","","","","tol_peg_1","1279","1279","0","[[1,0,0],[3,2],[0]]","4","[[1,2,0],[3,0],[0]]","2","0","","","","","","4","","","","",""
"","","","","","single-stim-button","185","874365","0.0-3.0-16.4-0.4","5cd34d42fe890a00174debb5","C3","batch3","tol_tohand","458","","","","","","","","","tol_peg_2","458","458","0","[[1,0,0],[3,0],[0]]","5","[[1,2,0],[3,0],[0]]","2","0","","","","","","4","","","","",""
"","","","","","single-stim-button","186","875019","0.0-3.0-16.4-1.4","5cd34d42fe890a00174debb5","C3","batch3","tol_toboard","653","","","","","","","","","tol_peg_1","653","653","0","[[1,2,0],[3,0],[0]]","5","[[1,2,0],[3,0],[0]]","2","0","","","","","","4","","","","",""
"","","","","","poldrack-single-stim","187","876031","0.0-3.0-17.0","5cd34d42fe890a00174debb5","C3","batch3","tol_feedback","-1","","","","","true","","","","","1000","1000","500","","","","","","-1","none","true","3332","7123","","","","","",""
"","","","","","html-button-response","188","878650","0.0-3.0-18.0","5cd34d42fe890a00174debb5","C3","batch3","tol_trial_num","2618","<div class = centerbox><p class = center-block-text>problem <strong>4</strong> out of 25 problems</p></div>","0","","","","","","","","","","","","","","","","","","","","","","","","","",""
"","","","","","single-stim-button","189","881061","0.0-3.0-19.0-0.0","5cd34d42fe890a00174debb5","C3","batch3","tol_tohand","2411","","","","","","","","","tol_peg_2","2411","2411","0","[[3,0,0],[2,0],[0]]","1","[[3,0,0],[1,0],[2]]","3","0","","","","","","3","","","","",""
"","","","","","single-stim-button","190","881696","0.0-3.0-19.0-1.0","5cd34d42fe890a00174debb5","C3","batch3","tol_toboard","635","","","","","","","","","tol_peg_1","635","635","0","[[3,1,0],[2,0],[0]]","1","[[3,0,0],[1,0],[2]]","3","0","","","","","","3","","","","",""
"","","","","","single-stim-button","191","882083","0.0-3.0-19.1-0.1","5cd34d42fe890a00174debb5","C3","batch3","tol_tohand","386","","","","","","","","","tol_peg_2","386","386","0","[[3,1,0],[0,0],[0]]","2","[[3,0,0],[1,0],[2]]","3","0","","","","","","3","","","","",""
"","","","","","single-stim-button","192","882560","0.0-3.0-19.1-1.1","5cd34d42fe890a00174debb5","C3","batch3","tol_toboard","476","","","","","","","","","tol_peg_3","476","476","0","[[3,1,0],[0,0],[2]]","2","[[3,0,0],[1,0],[2]]","3","0","","","","","","3","","","","",""
"","","","","","single-stim-button","193","883150","0.0-3.0-19.2-0.2","5cd34d42fe890a00174debb5","C3","batch3","tol_tohand","590","","","","","","","","","tol_peg_1","590","590","0","[[3,0,0],[0,0],[2]]","3","[[3,0,0],[1,0],[2]]","3","0","","","","","","3","","","","",""
"","","","","","single-stim-button","194","883530","0.0-3.0-19.2-1.2","5cd34d42fe890a00174debb5","C3","batch3","tol_toboard","379","","","","","","","","","tol_peg_2","379","379","0","[[3,0,0],[1,0],[2]]","3","[[3,0,0],[1,0],[2]]","3","0","","","","","","3","","","","",""
"","","","","","poldrack-single-stim","195","884530","0.0-3.0-20.0","5cd34d42fe890a00174debb5","C3","batch3","tol_feedback","-1","","","","","true","","","","","1000","1000","500","","","","","","-1","none","true","2411","3387","","","","","",""
"","","","","","html-button-response","196","885047","0.0-3.0-21.0","5cd34d42fe890a00174debb5","C3","batch3","tol_trial_num","516.1000000238419","<div class = centerbox><p class = center-block-text>problem <strong>5</strong> out of 25 problems</p></div>","0","","","","","","","","","","","","","","","","","","","","","","","","","",""
"","","","","","single-stim-button","197","892473","0.0-3.0-22.0-0.0","5cd34d42fe890a00174debb5","C3","batch3","tol_tohand","7425","","","","","","","","","tol_peg_3","7425","7425","0","[[1,0,0],[2,0],[0]]","1","[[0,0,0],[1,2],[3]]","4","0","","","","","","7","","","","",""
"","","","","","single-stim-button","198","893097","0.0-3.0-22.0-1.0","5cd34d42fe890a00174debb5","C3","batch3","tol_toboard","623","","","","","","","","","tol_peg_2","623","623","0","[[1,0,0],[2,3],[0]]","1","[[0,0,0],[1,2],[3]]","4","0","","","","","","7","","","","",""
"","","","","","single-stim-button","199","893592","0.0-3.0-22.1-0.1","5cd34d42fe890a00174debb5","C3","batch3","tol_tohand","495","","","","","","","","","tol_peg_1","495","495","0","[[0,0,0],[2,3],[0]]","2","[[0,0,0],[1,2],[3]]","4","0","","","","","","7","","","","",""
"","","","","","single-stim-button","200","894947","0.0-3.0-22.1-1.1","5cd34d42fe890a00174debb5","C3","batch3","tol_toboard","1355","","","","","","","","","tol_peg_3","1355","1355","0","[[0,0,0],[2,3],[1]]","2","[[0,0,0],[1,2],[3]]","4","0","","","","","","7","","","","",""
"","","","","","single-stim-button","201","909073","0.0-3.0-22.2-0.2","5cd34d42fe890a00174debb5","C3","batch3","tol_tohand","14125","","","","","","","","","tol_peg_2","14125","14125","0","[[0,0,0],[2,0],[1]]","3","[[0,0,0],[1,2],[3]]","4","0","","","","","","7","","","","",""
"","","","","","single-stim-button","202","909664","0.0-3.0-22.2-1.2","5cd34d42fe890a00174debb5","C3","batch3","tol_toboard","590","","","","","","","","","tol_peg_1","590","590","0","[[3,0,0],[2,0],[1]]","3","[[0,0,0],[1,2],[3]]","4","0","","","","","","7","","","","",""
"","","","","","single-stim-button","203","910077","0.0-3.0-22.3-0.3","5cd34d42fe890a00174debb5","C3","batch3","tol_tohand","413","","","","","","","","","tol_peg_2","413","413","0","[[3,0,0],[0,0],[1]]","4","[[0,0,0],[1,2],[3]]","4","0","","","","","","7","","","","",""
"","","","","","single-stim-button","204","910907","0.0-3.0-22.3-1.3","5cd34d42fe890a00174debb5","C3","batch3","tol_toboard","829","","","","","","","","","tol_peg_1","829","829","0","[[3,2,0],[0,0],[1]]","4","[[0,0,0],[1,2],[3]]","4","0","","","","","","7","","","","",""
"","","","","","single-stim-button","205","911295","0.0-3.0-22.4-0.4","5cd34d42fe890a00174debb5","C3","batch3","tol_tohand","388","","","","","","","","","tol_peg_3","388","388","0","[[3,2,0],[0,0],[0]]","5","[[0,0,0],[1,2],[3]]","4","0","","","","","","7","","","","",""
"","","","","","single-stim-button","206","911691","0.0-3.0-22.4-1.4","5cd34d42fe890a00174debb5","C3","batch3","tol_toboard","396","","","","","","","","","tol_peg_2","396","396","0","[[3,2,0],[1,0],[0]]","5","[[0,0,0],[1,2],[3]]","4","0","","","","","","7","","","","",""
"","","","","","single-stim-button","207","912164","0.0-3.0-22.5-0.5","5cd34d42fe890a00174debb5","C3","batch3","tol_tohand","473","","","","","","","","","tol_peg_1","473","473","0","[[3,0,0],[1,0],[0]]","6","[[0,0,0],[1,2],[3]]","4","0","","","","","","7","","","","",""
"","","","","","single-stim-button","208","912782","0.0-3.0-22.5-1.5","5cd34d42fe890a00174debb5","C3","batch3","tol_toboard","618","","","","","","","","","tol_peg_2","618","618","0","[[3,0,0],[1,2],[0]]","6","[[0,0,0],[1,2],[3]]","4","0","","","","","","7","","","","",""
"","","","","","single-stim-button","209","913133","0.0-3.0-22.6-0.6","5cd34d42fe890a00174debb5","C3","batch3","tol_tohand","351","","","","","","","","","tol_peg_1","351","351","0","[[0,0,0],[1,2],[0]]","7","[[0,0,0],[1,2],[3]]","4","0","","","","","","7","","","","",""
"","","","","","single-stim-button","210","913640","0.0-3.0-22.6-1.6","5cd34d42fe890a00174debb5","C3","batch3","tol_toboard","507","","","","","","","","","tol_peg_3","507","507","0","[[0,0,0],[1,2],[3]]","7","[[0,0,0],[1,2],[3]]","4","0","","","","","","7","","","","",""
"","","","","","poldrack-single-stim","211","914641","0.0-3.0-23.0","5cd34d42fe890a00174debb5","C3","batch3","tol_feedback","-1","","","","","true","","","","","1000","1000","500","","","","","","-1","none","true","7425","23670","","","","","",""
"","","","","","html-button-response","212","915259","0.0-3.0-24.0","5cd34d42fe890a00174debb5","C3","batch3","tol_trial_num","617.5","<div class = centerbox><p class = center-block-text>problem <strong>6</strong> out of 25 problems</p></div>","0","","","","","","","","","","","","","","","","","","","","","","","","","",""
"","","","","","single-stim-button","213","925474","0.0-3.0-25.0-0.0","5cd34d42fe890a00174debb5","C3","batch3","tol_tohand","10215","","","","","","","","","tol_peg_3","10215","10215","0","[[0,0,0],[1,2],[0]]","1","[[1,0,0],[2,3],[0]]","5","0","","","","","","6","","","","",""
"","","","","","single-stim-button","214","926130","0.0-3.0-25.0-1.0","5cd34d42fe890a00174debb5","C3","batch3","tol_toboard","655","","","","","","","","","tol_peg_1","655","655","0","[[3,0,0],[1,2],[0]]","1","[[1,0,0],[2,3],[0]]","5","0","","","","","","6","","","","",""
"","","","","","single-stim-button","215","926653","0.0-3.0-25.1-0.1","5cd34d42fe890a00174debb5","C3","batch3","tol_tohand","522","","","","","","","","","tol_peg_2","522","522","0","[[3,0,0],[1,0],[0]]","2","[[1,0,0],[2,3],[0]]","5","0","","","","","","6","","","","",""
"","","","","","single-stim-button","216","927010","0.0-3.0-25.1-1.1","5cd34d42fe890a00174debb5","C3","batch3","tol_toboard","357","","","","","","","","","tol_peg_3","357","357","0","[[3,0,0],[1,0],[2]]","2","[[1,0,0],[2,3],[0]]","5","0","","","","","","6","","","","",""
"","","","","","single-stim-button","217","927549","0.0-3.0-25.2-0.2","5cd34d42fe890a00174debb5","C3","batch3","tol_tohand","537","","","","","","","","","tol_peg_2","537","537","0","[[3,0,0],[0,0],[2]]","3","[[1,0,0],[2,3],[0]]","5","0","","","","","","6","","","","",""
"","","","","","single-stim-button","218","928005","0.0-3.0-25.2-1.2","5cd34d42fe890a00174debb5","C3","batch3","tol_toboard","456","","","","","","","","","tol_peg_1","456","456","0","[[3,1,0],[0,0],[2]]","3","[[1,0,0],[2,3],[0]]","5","0","","","","","","6","","","","",""
"","","","","","single-stim-button","219","928765","0.0-3.0-25.3-0.3","5cd34d42fe890a00174debb5","C3","batch3","tol_tohand","760","","","","","","","","","tol_peg_3","760","760","0","[[3,1,0],[0,0],[0]]","4","[[1,0,0],[2,3],[0]]","5","0","","","","","","6","","","","",""
"","","","","","single-stim-button","220","929395","0.0-3.0-25.3-1.3","5cd34d42fe890a00174debb5","C3","batch3","tol_toboard","630","","","","","","","","","tol_peg_2","630","630","0","[[3,1,0],[2,0],[0]]","4","[[1,0,0],[2,3],[0]]","5","0","","","","","","6","","","","",""
"","","","","","single-stim-button","221","929947","0.0-3.0-25.4-0.4","5cd34d42fe890a00174debb5","C3","batch3","tol_tohand","552","","","","","","","","","tol_peg_1","552","552","0","[[3,0,0],[2,0],[0]]","5","[[1,0,0],[2,3],[0]]","5","0","","","","","","6","","","","",""
"","","","","","single-stim-button","222","930818","0.0-3.0-25.4-1.4","5cd34d42fe890a00174debb5","C3","batch3","tol_toboard","871","","","","","","","","","tol_peg_3","871","871","0","[[3,0,0],[2,0],[1]]","5","[[1,0,0],[2,3],[0]]","5","0","","","","","","6","","","","",""
"","","","","","single-stim-button","223","931277","0.0-3.0-25.5-0.5","5cd34d42fe890a00174debb5","C3","batch3","tol_tohand","459","","","","","","","","","tol_peg_1","459","459","0","[[0,0,0],[2,0],[1]]","6","[[1,0,0],[2,3],[0]]","5","0","","","","","","6","","","","",""
"","","","","","single-stim-button","224","931850","0.0-3.0-25.5-1.5","5cd34d42fe890a00174debb5","C3","batch3","tol_toboard","573","","","","","","","","","tol_peg_2","573","573","0","[[0,0,0],[2,3],[1]]","6","[[1,0,0],[2,3],[0]]","5","0","","","","","","6","","","","",""
"","","","","","single-stim-button","225","932160","0.0-3.0-25.6-0.6","5cd34d42fe890a00174debb5","C3","batch3","tol_tohand","310","","","","","","","","","tol_peg_3","310","310","0","[[0,0,0],[2,3],[0]]","7","[[1,0,0],[2,3],[0]]","5","0","","","","","","6","","","","",""
"","","","","","single-stim-button","226","932825","0.0-3.0-25.6-1.6","5cd34d42fe890a00174debb5","C3","batch3","tol_toboard","665","","","","","","","","","tol_peg_1","665","665","0","[[1,0,0],[2,3],[0]]","7","[[1,0,0],[2,3],[0]]","5","0","","","","","","6","","","","",""
"","","","","","poldrack-single-stim","227","933826","0.0-3.0-26.0","5cd34d42fe890a00174debb5","C3","batch3","tol_feedback","-1","","","","","true","","","","","1000","1000","500","","","","","","-1","none","true","10215","13355","","","","","",""
"","","","","","html-button-response","228","935689","0.0-3.0-27.0","5cd34d42fe890a00174debb5","C3","batch3","tol_trial_num","1862.199999988079","<div class = centerbox><p class = center-block-text>problem <strong>7</strong> out of 25 problems</p></div>","0","","","","","","","","","","","","","","","","","","","","","","","","","",""
"","","","","","single-stim-button","229","939971","0.0-3.0-28.0-0.0","5cd34d42fe890a00174debb5","C3","batch3","tol_tohand","4282","","","","","","","","","tol_peg_3","4282","4282","0","[[2,1,0],[0,0],[0]]","1","[[1,2,0],[3,0],[0]]","6","0","","","","","","5","","","","",""
"","","","","","single-stim-button","230","940876","0.0-3.0-28.0-1.0","5cd34d42fe890a00174debb5","C3","batch3","tol_toboard","904","","","","","","","","","tol_peg_2","904","904","0","[[2,1,0],[3,0],[0]]","1","[[1,2,0],[3,0],[0]]","6","0","","","","","","5","","","","",""
"","","","","","single-stim-button","231","941268","0.0-3.0-28.1-0.1","5cd34d42fe890a00174debb5","C3","batch3","tol_tohand","391","","","","","","","","","tol_peg_1","391","391","0","[[2,0,0],[3,0],[0]]","2","[[1,2,0],[3,0],[0]]","6","0","","","","","","5","","","","",""
"","","","","","single-stim-button","232","943091","0.0-3.0-28.1-1.1","5cd34d42fe890a00174debb5","C3","batch3","tol_toboard","1823","","","","","","","","","tol_peg_3","1823","1823","0","[[2,0,0],[3,0],[1]]","2","[[1,2,0],[3,0],[0]]","6","0","","","","","","5","","","","",""
"","","","","","single-stim-button","233","943573","0.0-3.0-28.2-0.2","5cd34d42fe890a00174debb5","C3","batch3","tol_tohand","482","","","","","","","","","tol_peg_1","482","482","0","[[0,0,0],[3,0],[1]]","3","[[1,2,0],[3,0],[0]]","6","0","","","","","","5","","","","",""
"","","","","","single-stim-button","234","943993","0.0-3.0-28.2-1.2","5cd34d42fe890a00174debb5","C3","batch3","tol_toboard","420","","","","","","","","","tol_peg_2","420","420","0","[[0,0,0],[3,2],[1]]","3","[[1,2,0],[3,0],[0]]","6","0","","","","","","5","","","","",""
"","","","","","single-stim-button","235","944717","0.0-3.0-28.3-0.3","5cd34d42fe890a00174debb5","C3","batch3","tol_tohand","724","","","","","","","","","tol_peg_3","724","724","0","[[0,0,0],[3,2],[0]]","4","[[1,2,0],[3,0],[0]]","6","0","","","","","","5","","","","",""
"","","","","","single-stim-button","236","945224","0.0-3.0-28.3-1.3","5cd34d42fe890a00174debb5","C3","batch3","tol_toboard","507","","","","","","","","","tol_peg_1","507","507","0","[[1,0,0],[3,2],[0]]","4","[[1,2,0],[3,0],[0]]","6","0","","","","","","5","","","","",""
"","","","","","single-stim-button","237","945641","0.0-3.0-28.4-0.4","5cd34d42fe890a00174debb5","C3","batch3","tol_tohand","417","","","","","","","","","tol_peg_2","417","417","0","[[1,0,0],[3,0],[0]]","5","[[1,2,0],[3,0],[0]]","6","0","","","","","","5","","","","",""
"","","","","","single-stim-button","238","946071","0.0-3.0-28.4-1.4","5cd34d42fe890a00174debb5","C3","batch3","tol_toboard","429","","","","","","","","","tol_peg_1","429","429","0","[[1,2,0],[3,0],[0]]","5","[[1,2,0],[3,0],[0]]","6","0","","","","","","5","","","","",""
"","","","","","poldrack-single-stim","239","947072","0.0-3.0-29.0","5cd34d42fe890a00174debb5","C3","batch3","tol_feedback","-1","","","","","true","","","","","1000","1000","500","","","","","","-1","none","true","4282","6296","","","","","",""
"","","","","","html-button-response","240","947592","0.0-3.0-30.0","5cd34d42fe890a00174debb5","C3","batch3","tol_trial_num","519.6999999880791","<div class = centerbox><p class = center-block-text>problem <strong>8</strong> out of 25 problems</p></div>","0","","","","","","","","","","","","","","","","","","","","","","","","","",""
"","","","","","single-stim-button","241","949521","0.0-3.0-31.0-0.0","5cd34d42fe890a00174debb5","C3","batch3","tol_tohand","1929","","","","","","","","","tol_peg_3","1929","1929","0","[[0,0,0],[2,3],[0]]","1","[[1,2,0],[3,0],[0]]","7","0","","","","","","4","","","","",""
"","","","","","single-stim-button","242","951612","0.0-3.0-31.0-1.0","5cd34d42fe890a00174debb5","C3","batch3","tol_toboard","2091","","","","","","","","","tol_peg_1","2091","2091","0","[[1,0,0],[2,3],[0]]","1","[[1,2,0],[3,0],[0]]","7","0","","","","","","4","","","","",""
"","","","","","single-stim-button","243","952040","0.0-3.0-31.1-0.1","5cd34d42fe890a00174debb5","C3","batch3","tol_tohand","428","","","","","","","","","tol_peg_2","428","428","0","[[1,0,0],[2,0],[0]]","2","[[1,2,0],[3,0],[0]]","7","0","","","","","","4","","","","",""
"","","","","","single-stim-button","244","952512","0.0-3.0-31.1-1.1","5cd34d42fe890a00174debb5","C3","batch3","tol_toboard","472","","","","","","","","","tol_peg_3","472","472","0","[[1,0,0],[2,0],[3]]","2","[[1,2,0],[3,0],[0]]","7","0","","","","","","4","","","","",""
"","","","","","single-stim-button","245","953095","0.0-3.0-31.2-0.2","5cd34d42fe890a00174debb5","C3","batch3","tol_tohand","583","","","","","","","","","tol_peg_2","583","583","0","[[1,0,0],[0,0],[3]]","3","[[1,2,0],[3,0],[0]]","7","0","","","","","","4","","","","",""
"","","","","","single-stim-button","246","953661","0.0-3.0-31.2-1.2","5cd34d42fe890a00174debb5","C3","batch3","tol_toboard","566","","","","","","","","","tol_peg_1","566","566","0","[[1,2,0],[0,0],[3]]","3","[[1,2,0],[3,0],[0]]","7","0","","","","","","4","","","","",""
"","","","","","single-stim-button","247","954105","0.0-3.0-31.3-0.3","5cd34d42fe890a00174debb5","C3","batch3","tol_tohand","444","","","","","","","","","tol_peg_3","444","444","0","[[1,2,0],[0,0],[0]]","4","[[1,2,0],[3,0],[0]]","7","0","","","","","","4","","","","",""
"","","","","","single-stim-button","248","954581","0.0-3.0-31.3-1.3","5cd34d42fe890a00174debb5","C3","batch3","tol_toboard","475","","","","","","","","","tol_peg_2","475","475","0","[[1,2,0],[3,0],[0]]","4","[[1,2,0],[3,0],[0]]","7","0","","","","","","4","","","","",""
"","","","","","poldrack-single-stim","249","955582","0.0-3.0-32.0","5cd34d42fe890a00174debb5","C3","batch3","tol_feedback","-1","","","","","true","","","","","1000","1000","500","","","","","","-1","none","true","1929","3384","","","","","",""
"","","","","","html-button-response","250","956431","0.0-3.0-33.0","5cd34d42fe890a00174debb5","C3","batch3","tol_trial_num","848.6999999880791","<div class = centerbox><p class = center-block-text>problem <strong>9</strong> out of 25 problems</p></div>","0","","","","","","","","","","","","","","","","","","","","","","","","","",""
"","","","","","single-stim-button","251","958020","0.0-3.0-34.0-0.0","5cd34d42fe890a00174debb5","C3","batch3","tol_tohand","1588","","","","","","","","","tol_peg_1","1588","1588","0","[[3,0,0],[0,0],[1]]","1","[[2,1,0],[3,0],[0]]","8","0","","","","","","6","","","","",""
"","","","","","single-stim-button","252","960483","0.0-3.0-34.0-1.0","5cd34d42fe890a00174debb5","C3","batch3","tol_toboard","2463","","","","","","","","","tol_peg_2","2463","2463","0","[[3,0,0],[2,0],[1]]","1","[[2,1,0],[3,0],[0]]","8","0","","","","","","6","","","","",""
"","","","","","single-stim-button","253","961153","0.0-3.0-34.1-0.1","5cd34d42fe890a00174debb5","C3","batch3","tol_tohand","670","","","","","","","","","tol_peg_1","670","670","0","[[0,0,0],[2,0],[1]]","2","[[2,1,0],[3,0],[0]]","8","0","","","","","","6","","","","",""
"","","","","","single-stim-button","254","964497","0.0-3.0-34.1-1.1","5cd34d42fe890a00174debb5","C3","batch3","tol_toboard","3344","","","","","","","","","tol_peg_1","3344","3344","0","[[3,0,0],[2,0],[1]]","2","[[2,1,0],[3,0],[0]]","8","0","","","","","","6","","","","",""
"","","","","","single-stim-button","255","964843","0.0-3.0-34.2-0.2","5cd34d42fe890a00174debb5","C3","batch3","tol_tohand","345","","","","","","","","","tol_peg_3","345","345","0","[[3,0,0],[2,0],[0]]","3","[[2,1,0],[3,0],[0]]","8","0","","","","","","6","","","","",""
"","","","","","single-stim-button","256","965343","0.0-3.0-34.2-1.2","5cd34d42fe890a00174debb5","C3","batch3","tol_toboard","498","","","","","","","","","tol_peg_2","498","498","0","[[3,0,0],[2,1],[0]]","3","[[2,1,0],[3,0],[0]]","8","0","","","","","","6","","","","",""
"","","","","","single-stim-button","257","965724","0.0-3.0-34.3-0.3","5cd34d42fe890a00174debb5","C3","batch3","tol_tohand","381","","","","","","","","","tol_peg_1","381","381","0","[[0,0,0],[2,1],[0]]","4","[[2,1,0],[3,0],[0]]","8","0","","","","","","6","","","","",""
"","","","","","single-stim-button","258","966128","0.0-3.0-34.3-1.3","5cd34d42fe890a00174debb5","C3","batch3","tol_toboard","404","","","","","","","","","tol_peg_3","404","404","0","[[0,0,0],[2,1],[3]]","4","[[2,1,0],[3,0],[0]]","8","0","","","","","","6","","","","",""
"","","","","","single-stim-button","259","970912","0.0-3.0-34.4-0.4","5cd34d42fe890a00174debb5","C3","batch3","tol_tohand","4783","","","","","","","","","tol_peg_2","4783","4783","0","[[0,0,0],[2,0],[3]]","5","[[2,1,0],[3,0],[0]]","8","0","","","","","","6","","","","",""
"","","","","","single-stim-button","260","974959","0.0-3.0-34.4-1.4","5cd34d42fe890a00174debb5","C3","batch3","tol_toboard","4047","","","","","","","","","tol_peg_1","4047","4047","0","[[1,0,0],[2,0],[3]]","5","[[2,1,0],[3,0],[0]]","8","0","","","","","","6","","","","",""
"","","","","","single-stim-button","261","976939","0.0-3.0-34.5-0.5","5cd34d42fe890a00174debb5","C3","batch3","tol_tohand","1979","","","","","","","","","tol_peg_2","1979","1979","0","[[1,0,0],[0,0],[3]]","6","[[2,1,0],[3,0],[0]]","8","0","","","","","","6","","","","",""
"","","","","","single-stim-button","262","977555","0.0-3.0-34.5-1.5","5cd34d42fe890a00174debb5","C3","batch3","tol_toboard","616","","","","","","","","","tol_peg_1","616","616","0","[[1,2,0],[0,0],[3]]","6","[[2,1,0],[3,0],[0]]","8","0","","","","","","6","","","","",""
"","","","","","single-stim-button","263","977990","0.0-3.0-34.6-0.6","5cd34d42fe890a00174debb5","C3","batch3","tol_tohand","435","","","","","","","","","tol_peg_3","435","435","0","[[1,2,0],[0,0],[0]]","7","[[2,1,0],[3,0],[0]]","8","0","","","","","","6","","","","",""
"","","","","","single-stim-button","264","978527","0.0-3.0-34.6-1.6","5cd34d42fe890a00174debb5","C3","batch3","tol_toboard","537","","","","","","","","","tol_peg_2","537","537","0","[[1,2,0],[3,0],[0]]","7","[[2,1,0],[3,0],[0]]","8","0","","","","","","6","","","","",""
"","","","","","single-stim-button","265","979875","0.0-3.0-34.7-0.7","5cd34d42fe890a00174debb5","C3","batch3","tol_tohand","1348","","","","","","","","","tol_peg_1","1348","1348","0","[[1,0,0],[3,0],[0]]","8","[[2,1,0],[3,0],[0]]","8","0","","","","","","6","","","","",""
"","","","","","single-stim-button","266","981166","0.0-3.0-34.7-1.7","5cd34d42fe890a00174debb5","C3","batch3","tol_toboard","1291","","","","","","","","","tol_peg_2","1291","1291","0","[[1,0,0],[3,2],[0]]","8","[[2,1,0],[3,0],[0]]","8","0","","","","","","6","","","","",""
"","","","","","single-stim-button","267","983144","0.0-3.0-34.8-0.8","5cd34d42fe890a00174debb5","C3","batch3","tol_tohand","1978","","","","","","","","","tol_peg_1","1978","1978","0","[[0,0,0],[3,2],[0]]","9","[[2,1,0],[3,0],[0]]","8","0","","","","","","6","","","","",""
"","","","","","single-stim-button","268","983638","0.0-3.0-34.8-1.8","5cd34d42fe890a00174debb5","C3","batch3","tol_toboard","493","","","","","","","","","tol_peg_3","493","493","0","[[0,0,0],[3,2],[1]]","9","[[2,1,0],[3,0],[0]]","8","0","","","","","","6","","","","",""
"","","","","","single-stim-button","269","984001","0.0-3.0-34.9-0.9","5cd34d42fe890a00174debb5","C3","batch3","tol_tohand","361","","","","","","","","","tol_peg_2","361","361","0","[[0,0,0],[3,0],[1]]","10","[[2,1,0],[3,0],[0]]","8","0","","","","","","6","","","","",""
"","","","","","single-stim-button","270","984593","0.0-3.0-34.9-1.9","5cd34d42fe890a00174debb5","C3","batch3","tol_toboard","592","","","","","","","","","tol_peg_1","592","592","0","[[2,0,0],[3,0],[1]]","10","[[2,1,0],[3,0],[0]]","8","0","","","","","","6","","","","",""
"","","","","","single-stim-button","271","985085","0.0-3.0-34.10-0.10","5cd34d42fe890a00174debb5","C3","batch3","tol_tohand","490","","","","","","","","","tol_peg_3","490","490","0","[[2,0,0],[3,0],[0]]","11","[[2,1,0],[3,0],[0]]","8","0","","","","","","6","","","","",""
"","","","","","single-stim-button","272","985702","0.0-3.0-34.10-1.10","5cd34d42fe890a00174debb5","C3","batch3","tol_toboard","616","","","","","","","","","tol_peg_1","616","616","0","[[2,1,0],[3,0],[0]]","11","[[2,1,0],[3,0],[0]]","8","0","","","","","","6","","","","",""
"","","","","","poldrack-single-stim","273","986702","0.0-3.0-35.0","5cd34d42fe890a00174debb5","C3","batch3","tol_feedback","-1","","","","","true","","","","","1000","1000","500","","","","","","-1","none","true","1588","14358","","","","","",""
"","","","","","html-button-response","274","987507","0.0-3.0-36.0","5cd34d42fe890a00174debb5","C3","batch3","tol_trial_num","804","<div class = centerbox><p class = center-block-text>problem <strong>10</strong> out of 25 problems</p></div>","0","","","","","","","","","","","","","","","","","","","","","","","","","",""
"","","","","","single-stim-button","275","990923","0.0-3.0-37.0-0.0","5cd34d42fe890a00174debb5","C3","batch3","tol_tohand","3416","","","","","","","","","tol_peg_2","3416","3416","0","[[3,0,0],[0,0],[2]]","1","[[3,0,0],[2,1],[0]]","9","0","","","","","","3","","","","",""
"","","","","","single-stim-button","276","991662","0.0-3.0-37.0-1.0","5cd34d42fe890a00174debb5","C3","batch3","tol_toboard","738","","","","","","","","","tol_peg_1","738","738","0","[[3,1,0],[0,0],[2]]","1","[[3,0,0],[2,1],[0]]","9","0","","","","","","3","","","","",""
"","","","","","single-stim-button","277","992071","0.0-3.0-37.1-0.1","5cd34d42fe890a00174debb5","C3","batch3","tol_tohand","408","","","","","","","","","tol_peg_3","408","408","0","[[3,1,0],[0,0],[0]]","2","[[3,0,0],[2,1],[0]]","9","0","","","","","","3","","","","",""
"","","","","","single-stim-button","278","992578","0.0-3.0-37.1-1.1","5cd34d42fe890a00174debb5","C3","batch3","tol_toboard","506","","","","","","","","","tol_peg_2","506","506","0","[[3,1,0],[2,0],[0]]","2","[[3,0,0],[2,1],[0]]","9","0","","","","","","3","","","","",""
"","","","","","single-stim-button","279","992972","0.0-3.0-37.2-0.2","5cd34d42fe890a00174debb5","C3","batch3","tol_tohand","392","","","","","","","","","tol_peg_1","392","392","0","[[3,0,0],[2,0],[0]]","3","[[3,0,0],[2,1],[0]]","9","0","","","","","","3","","","","",""
"","","","","","single-stim-button","280","993356","0.0-3.0-37.2-1.2","5cd34d42fe890a00174debb5","C3","batch3","tol_toboard","384","","","","","","","","","tol_peg_2","384","384","0","[[3,0,0],[2,1],[0]]","3","[[3,0,0],[2,1],[0]]","9","0","","","","","","3","","","","",""
"","","","","","poldrack-single-stim","281","994358","0.0-3.0-38.0","5cd34d42fe890a00174debb5","C3","batch3","tol_feedback","-1","","","","","true","","","","","1000","1000","500","","","","","","-1","none","true","3416","4216","","","","","",""
"","","","","","html-button-response","282","994921","0.0-3.0-39.0","5cd34d42fe890a00174debb5","C3","batch3","tol_trial_num","563.1000000238419","<div class = centerbox><p class = center-block-text>problem <strong>11</strong> out of 25 problems</p></div>","0","","","","","","","","","","","","","","","","","","","","","","","","","",""
"","","","","","single-stim-button","283","997067","0.0-3.0-40.0-0.0","5cd34d42fe890a00174debb5","C3","batch3","tol_tohand","2145","","","","","","","","","tol_peg_1","2145","2145","0","[[1,0,0],[3,0],[0]]","1","[[2,0,0],[1,3],[0]]","10","0","","","","","","6","","","","",""
"","","","","","single-stim-button","284","999412","0.0-3.0-40.0-1.0","5cd34d42fe890a00174debb5","C3","batch3","tol_toboard","2345","","","","","","","","","tol_peg_3","2345","2345","0","[[1,0,0],[3,0],[2]]","1","[[2,0,0],[1,3],[0]]","10","0","","","","","","6","","","","",""
"","","","","","single-stim-button","285","999898","0.0-3.0-40.1-0.1","5cd34d42fe890a00174debb5","C3","batch3","tol_tohand","486","","","","","","","","","tol_peg_1","486","486","0","[[0,0,0],[3,0],[2]]","2","[[2,0,0],[1,3],[0]]","10","0","","","","","","6","","","","",""
"","","","","","single-stim-button","286","1000481","0.0-3.0-40.1-1.1","5cd34d42fe890a00174debb5","C3","batch3","tol_toboard","583","","","","","","","","","tol_peg_2","583","583","0","[[0,0,0],[3,1],[2]]","2","[[2,0,0],[1,3],[0]]","10","0","","","","","","6","","","","",""
"","","","","","single-stim-button","287","1000800","0.0-3.0-40.2-0.2","5cd34d42fe890a00174debb5","C3","batch3","tol_tohand","319","","","","","","","","","tol_peg_3","319","319","0","[[0,0,0],[3,1],[0]]","3","[[2,0,0],[1,3],[0]]","10","0","","","","","","6","","","","",""
"","","","","","single-stim-button","288","1001341","0.0-3.0-40.2-1.2","5cd34d42fe890a00174debb5","C3","batch3","tol_toboard","541","","","","","","","","","tol_peg_1","541","541","0","[[2,0,0],[3,1],[0]]","3","[[2,0,0],[1,3],[0]]","10","0","","","","","","6","","","","",""
"","","","","","single-stim-button","289","1002267","0.0-3.0-40.3-0.3","5cd34d42fe890a00174debb5","C3","batch3","tol_tohand","926","","","","","","","","","tol_peg_2","926","926","0","[[2,0,0],[3,0],[0]]","4","[[2,0,0],[1,3],[0]]","10","0","","","","","","6","","","","",""
"","","","","","single-stim-button","290","1003359","0.0-3.0-40.3-1.3","5cd34d42fe890a00174debb5","C3","batch3","tol_toboard","1092","","","","","","","","","tol_peg_3","1092","1092","0","[[2,0,0],[3,0],[1]]","4","[[2,0,0],[1,3],[0]]","10","0","","","","","","6","","","","",""
"","","","","","single-stim-button","291","1003677","0.0-3.0-40.4-0.4","5cd34d42fe890a00174debb5","C3","batch3","tol_tohand","317","","","","","","","","","tol_peg_2","317","317","0","[[2,0,0],[0,0],[1]]","5","[[2,0,0],[1,3],[0]]","10","0","","","","","","6","","","","",""
"","","","","","single-stim-button","292","1004040","0.0-3.0-40.4-1.4","5cd34d42fe890a00174debb5","C3","batch3","tol_toboard","362","","","","","","","","","tol_peg_1","362","362","0","[[2,3,0],[0,0],[1]]","5","[[2,0,0],[1,3],[0]]","10","0","","","","","","6","","","","",""
"","","","","","single-stim-button","293","1004440","0.0-3.0-40.5-0.5","5cd34d42fe890a00174debb5","C3","batch3","tol_tohand","400","","","","","","","","","tol_peg_3","400","400","0","[[2,3,0],[0,0],[0]]","6","[[2,0,0],[1,3],[0]]","10","0","","","","","","6","","","","",""
"","","","","","single-stim-button","294","1004955","0.0-3.0-40.5-1.5","5cd34d42fe890a00174debb5","C3","batch3","tol_toboard","514","","","","","","","","","tol_peg_2","514","514","0","[[2,3,0],[1,0],[0]]","6","[[2,0,0],[1,3],[0]]","10","0","","","","","","6","","","","",""
"","","","","","single-stim-button","295","1005312","0.0-3.0-40.6-0.6","5cd34d42fe890a00174debb5","C3","batch3","tol_tohand","356","","","","","","","","","tol_peg_1","356","356","0","[[2,0,0],[1,0],[0]]","7","[[2,0,0],[1,3],[0]]","10","0","","","","","","6","","","","",""
"","","","","","single-stim-button","296","1005897","0.0-3.0-40.6-1.6","5cd34d42fe890a00174debb5","C3","batch3","tol_toboard","584","","","","","","","","","tol_peg_2","584","584","0","[[2,0,0],[1,3],[0]]","7","[[2,0,0],[1,3],[0]]","10","0","","","","","","6","","","","",""
"","","","","","poldrack-single-stim","297","1006898","0.0-3.0-41.0","5cd34d42fe890a00174debb5","C3","batch3","tol_feedback","-1","","","","","true","","","","","1000","1000","500","","","","","","-1","none","true","2145","4949","","","","","",""
"","","","","","html-button-response","298","1007560","0.0-3.0-42.0","5cd34d42fe890a00174debb5","C3","batch3","tol_trial_num","661.1000000238419","<div class = centerbox><p class = center-block-text>problem <strong>12</strong> out of 25 problems</p></div>","0","","","","","","","","","","","","","","","","","","","","","","","","","",""
"","","","","","single-stim-button","299","1010151","0.0-3.0-43.0-0.0","5cd34d42fe890a00174debb5","C3","batch3","tol_tohand","2591","","","","","","","","","tol_peg_1","2591","2591","0","[[1,0,0],[3,0],[0]]","1","[[2,3,0],[0,0],[1]]","11","0","","","","","","4","","","","",""
"","","","","","single-stim-button","300","1010790","0.0-3.0-43.0-1.0","5cd34d42fe890a00174debb5","C3","batch3","tol_toboard","638","","","","","","","","","tol_peg_2","638","638","0","[[1,0,0],[3,2],[0]]","1","[[2,3,0],[0,0],[1]]","11","0","","","","","","4","","","","",""
"","","","","","single-stim-button","301","1011281","0.0-3.0-43.1-0.1","5cd34d42fe890a00174debb5","C3","batch3","tol_tohand","491","","","","","","","","","tol_peg_1","491","491","0","[[0,0,0],[3,2],[0]]","2","[[2,3,0],[0,0],[1]]","11","0","","","","","","4","","","","",""
"","","","","","single-stim-button","302","1011914","0.0-3.0-43.1-1.1","5cd34d42fe890a00174debb5","C3","batch3","tol_toboard","632","","","","","","","","","tol_peg_3","632","632","0","[[0,0,0],[3,2],[1]]","2","[[2,3,0],[0,0],[1]]","11","0","","","","","","4","","","","",""
"","","","","","single-stim-button","303","1012279","0.0-3.0-43.2-0.2","5cd34d42fe890a00174debb5","C3","batch3","tol_tohand","365","","","","","","","","","tol_peg_2","365","365","0","[[0,0,0],[3,0],[1]]","3","[[2,3,0],[0,0],[1]]","11","0","","","","","","4","","","","",""
"","","","","","single-stim-button","304","1012733","0.0-3.0-43.2-1.2","5cd34d42fe890a00174debb5","C3","batch3","tol_toboard","453","","","","","","","","","tol_peg_1","453","453","0","[[2,0,0],[3,0],[1]]","3","[[2,3,0],[0,0],[1]]","11","0","","","","","","4","","","","",""
"","","","","","single-stim-button","305","1013175","0.0-3.0-43.3-0.3","5cd34d42fe890a00174debb5","C3","batch3","tol_tohand","440","","","","","","","","","tol_peg_2","440","440","0","[[2,0,0],[0,0],[1]]","4","[[2,3,0],[0,0],[1]]","11","0","","","","","","4","","","","",""
"","","","","","single-stim-button","306","1013670","0.0-3.0-43.3-1.3","5cd34d42fe890a00174debb5","C3","batch3","tol_toboard","495","","","","","","","","","tol_peg_1","495","495","0","[[2,3,0],[0,0],[1]]","4","[[2,3,0],[0,0],[1]]","11","0","","","","","","4","","","","",""
"","","","","","poldrack-single-stim","307","1014683","0.0-3.0-44.0","5cd34d42fe890a00174debb5","C3","batch3","tol_feedback","-1","","","","","true","","","","","1000","1000","500","","","","","","-1","none","true","2591","3887","","","","","",""
"","","","","","html-button-response","308","1015615","0.0-3.0-45.0","5cd34d42fe890a00174debb5","C3","batch3","tol_trial_num","931.0999999642372","<div class = centerbox><p class = center-block-text>problem <strong>13</strong> out of 25 problems</p></div>","0","","","","","","","","","","","","","","","","","","","","","","","","","",""
"","","","","","single-stim-button","309","1017760","0.0-3.0-46.0-0.0","5cd34d42fe890a00174debb5","C3","batch3","tol_tohand","2145","","","","","","","","","tol_peg_2","2145","2145","0","[[1,2,0],[0,0],[0]]","1","[[0,0,0],[2,3],[1]]","12","0","","","","","","4","","","","",""
"","","","","","single-stim-button","310","1018970","0.0-3.0-46.0-1.0","5cd34d42fe890a00174debb5","C3","batch3","tol_toboard","1210","","","","","","","","","tol_peg_3","1210","1210","0","[[1,2,0],[0,0],[3]]","1","[[0,0,0],[2,3],[1]]","12","0","","","","","","4","","","","",""
"","","","","","single-stim-button","311","1019664","0.0-3.0-46.1-0.1","5cd34d42fe890a00174debb5","C3","batch3","tol_tohand","694","","","","","","","","","tol_peg_1","694","694","0","[[1,0,0],[0,0],[3]]","2","[[0,0,0],[2,3],[1]]","12","0","","","","","","4","","","","",""
"","","","","","single-stim-button","312","1020391","0.0-3.0-46.1-1.1","5cd34d42fe890a00174debb5","C3","batch3","tol_toboard","726","","","","","","","","","tol_peg_2","726","726","0","[[1,0,0],[2,0],[3]]","2","[[0,0,0],[2,3],[1]]","12","0","","","","","","4","","","","",""
"","","","","","single-stim-button","313","1020798","0.0-3.0-46.2-0.2","5cd34d42fe890a00174debb5","C3","batch3","tol_tohand","406","","","","","","","","","tol_peg_3","406","406","0","[[1,0,0],[2,0],[0]]","3","[[0,0,0],[2,3],[1]]","12","0","","","","","","4","","","","",""
"","","","","","single-stim-button","314","1021581","0.0-3.0-46.2-1.2","5cd34d42fe890a00174debb5","C3","batch3","tol_toboard","782","","","","","","","","","tol_peg_2","782","782","0","[[1,0,0],[2,3],[0]]","3","[[0,0,0],[2,3],[1]]","12","0","","","","","","4","","","","",""
"","","","","","single-stim-button","315","1021961","0.0-3.0-46.3-0.3","5cd34d42fe890a00174debb5","C3","batch3","tol_tohand","378","","","","","","","","","tol_peg_1","378","378","0","[[0,0,0],[2,3],[0]]","4","[[0,0,0],[2,3],[1]]","12","0","","","","","","4","","","","",""
"","","","","","single-stim-button","316","1022678","0.0-3.0-46.3-1.3","5cd34d42fe890a00174debb5","C3","batch3","tol_toboard","717","","","","","","","","","tol_peg_3","717","717","0","[[0,0,0],[2,3],[1]]","4","[[0,0,0],[2,3],[1]]","12","0","","","","","","4","","","","",""
"","","","","","poldrack-single-stim","317","1023679","0.0-3.0-47.0","5cd34d42fe890a00174debb5","C3","batch3","tol_feedback","-1","","","","","true","","","","","1000","1000","500","","","","","","-1","none","true","2145","3623","","","","","",""
"","","","","","html-button-response","318","1025813","0.0-3.0-48.0","5cd34d42fe890a00174debb5","C3","batch3","attention_check","2133","<p class = block-text>How many balls are in your board<br></p>","1","","","true","","","","","","","","","","","","","","","","","","","","","","",""
"","","","","","html-button-response","319","1026478","0.0-3.0-49.0","5cd34d42fe890a00174debb5","C3","batch3","tol_trial_num","664.3999999761581","<div class = centerbox><p class = center-block-text>problem <strong>14</strong> out of 25 problems</p></div>","0","","","","","","","","","","","","","","","","","","","","","","","","","",""
"","","","","","single-stim-button","320","1028552","0.0-3.0-50.0-0.0","5cd34d42fe890a00174debb5","C3","batch3","tol_tohand","2074","","","","","","","","","tol_peg_1","2074","2074","0","[[2,0,0],[3,0],[0]]","1","[[1,2,0],[3,0],[0]]","13","0","","","","","","4","","","","",""
"","","","","","single-stim-button","321","1029392","0.0-3.0-50.0-1.0","5cd34d42fe890a00174debb5","C3","batch3","tol_toboard","839","","","","","","","","","tol_peg_2","839","839","0","[[2,0,0],[3,1],[0]]","1","[[1,2,0],[3,0],[0]]","13","0","","","","","","4","","","","",""
"","","","","","single-stim-button","322","1030003","0.0-3.0-50.1-0.1","5cd34d42fe890a00174debb5","C3","batch3","tol_tohand","611","","","","","","","","","tol_peg_1","611","611","0","[[0,0,0],[3,1],[0]]","2","[[1,2,0],[3,0],[0]]","13","0","","","","","","4","","","","",""
"","","","","","single-stim-button","323","1030456","0.0-3.0-50.1-1.1","5cd34d42fe890a00174debb5","C3","batch3","tol_toboard","452","","","","","","","","","tol_peg_3","452","452","0","[[0,0,0],[3,1],[2]]","2","[[1,2,0],[3,0],[0]]","13","0","","","","","","4","","","","",""
"","","","","","single-stim-button","324","1031333","0.0-3.0-50.2-0.2","5cd34d42fe890a00174debb5","C3","batch3","tol_tohand","876","","","","","","","","","tol_peg_2","876","876","0","[[0,0,0],[3,0],[2]]","3","[[1,2,0],[3,0],[0]]","13","0","","","","","","4","","","","",""
"","","","","","single-stim-button","325","1031863","0.0-3.0-50.2-1.2","5cd34d42fe890a00174debb5","C3","batch3","tol_toboard","529","","","","","","","","","tol_peg_1","529","529","0","[[1,0,0],[3,0],[2]]","3","[[1,2,0],[3,0],[0]]","13","0","","","","","","4","","","","",""
"","","","","","single-stim-button","326","1032243","0.0-3.0-50.3-0.3","5cd34d42fe890a00174debb5","C3","batch3","tol_tohand","379","","","","","","","","","tol_peg_3","379","379","0","[[1,0,0],[3,0],[0]]","4","[[1,2,0],[3,0],[0]]","13","0","","","","","","4","","","","",""
"","","","","","single-stim-button","327","1032813","0.0-3.0-50.3-1.3","5cd34d42fe890a00174debb5","C3","batch3","tol_toboard","569","","","","","","","","","tol_peg_1","569","569","0","[[1,2,0],[3,0],[0]]","4","[[1,2,0],[3,0],[0]]","13","0","","","","","","4","","","","",""
"","","","","","poldrack-single-stim","328","1033814","0.0-3.0-51.0","5cd34d42fe890a00174debb5","C3","batch3","tol_feedback","-1","","","","","true","","","","","1000","1000","500","","","","","","-1","none","true","2074","3940","","","","","",""
"","","","","","html-button-response","329","1034690","0.0-3.0-52.0","5cd34d42fe890a00174debb5","C3","batch3","tol_trial_num","875.2000000476837","<div class = centerbox><p class = center-block-text>problem <strong>15</strong> out of 25 problems</p></div>","0","","","","","","","","","","","","","","","","","","","","","","","","","",""
"","","","","","single-stim-button","330","1036769","0.0-3.0-53.0-0.0","5cd34d42fe890a00174debb5","C3","batch3","tol_tohand","2079","","","","","","","","","tol_peg_1","2079","2079","0","[[1,0,0],[3,0],[0]]","1","[[2,0,0],[3,0],[1]]","14","0","","","","","","3","","","","",""
"","","","","","single-stim-button","331","1037634","0.0-3.0-53.0-1.0","5cd34d42fe890a00174debb5","C3","batch3","tol_toboard","864","","","","","","","","","tol_peg_2","864","864","0","[[1,0,0],[3,2],[0]]","1","[[2,0,0],[3,0],[1]]","14","0","","","","","","3","","","","",""
"","","","","","single-stim-button","332","1038022","0.0-3.0-53.1-0.1","5cd34d42fe890a00174debb5","C3","batch3","tol_tohand","387","","","","","","","","","tol_peg_1","387","387","0","[[0,0,0],[3,2],[0]]","2","[[2,0,0],[3,0],[1]]","14","0","","","","","","3","","","","",""
"","","","","","single-stim-button","333","1038597","0.0-3.0-53.1-1.1","5cd34d42fe890a00174debb5","C3","batch3","tol_toboard","575","","","","","","","","","tol_peg_3","575","575","0","[[0,0,0],[3,2],[1]]","2","[[2,0,0],[3,0],[1]]","14","0","","","","","","3","","","","",""
"","","","","","single-stim-button","334","1039029","0.0-3.0-53.2-0.2","5cd34d42fe890a00174debb5","C3","batch3","tol_tohand","431","","","","","","","","","tol_peg_2","431","431","0","[[0,0,0],[3,0],[1]]","3","[[2,0,0],[3,0],[1]]","14","0","","","","","","3","","","","",""
"","","","","","single-stim-button","335","1039734","0.0-3.0-53.2-1.2","5cd34d42fe890a00174debb5","C3","batch3","tol_toboard","704","","","","","","","","","tol_peg_1","704","704","0","[[2,0,0],[3,0],[1]]","3","[[2,0,0],[3,0],[1]]","14","0","","","","","","3","","","","",""
"","","","","","poldrack-single-stim","336","1040736","0.0-3.0-54.0","5cd34d42fe890a00174debb5","C3","batch3","tol_feedback","-1","","","","","true","","","","","1000","1000","500","","","","","","-1","none","true","2079","2897","","","","","",""
"","","","","","html-button-response","337","1041737","0.0-3.0-55.0","5cd34d42fe890a00174debb5","C3","batch3","tol_trial_num","1000.4000000357628","<div class = centerbox><p class = center-block-text>problem <strong>16</strong> out of 25 problems</p></div>","0","","","","","","","","","","","","","","","","","","","","","","","","","",""
"","","","","","single-stim-button","338","1045331","0.0-3.0-56.0-0.0","5cd34d42fe890a00174debb5","C3","batch3","tol_tohand","3594","","","","","","","","","tol_peg_2","3594","3594","0","[[0,0,0],[2,0],[1]]","1","[[2,3,0],[1,0],[0]]","15","0","","","","","","7","","","","",""
"","","","","","single-stim-button","339","1045635","0.0-3.0-56.0-1.0","5cd34d42fe890a00174debb5","C3","batch3","tol_toboard","304","","","","","","","","","tol_peg_2","304","304","0","[[0,0,0],[2,3],[1]]","1","[[2,3,0],[1,0],[0]]","15","0","","","","","","7","","","","",""
"","","","","","single-stim-button","340","1053763","0.0-3.0-56.1-0.1","5cd34d42fe890a00174debb5","C3","batch3","tol_tohand","8128","","","","","","","","","tol_peg_3","8128","8128","0","[[0,0,0],[2,3],[0]]","2","[[2,3,0],[1,0],[0]]","15","0","","","","","","7","","","","",""
"","","","","","single-stim-button","341","1054331","0.0-3.0-56.1-1.1","5cd34d42fe890a00174debb5","C3","batch3","tol_toboard","568","","","","","","","","","tol_peg_1","568","568","0","[[1,0,0],[2,3],[0]]","2","[[2,3,0],[1,0],[0]]","15","0","","","","","","7","","","","",""
"","","","","","single-stim-button","342","1055432","0.0-3.0-56.2-0.2","5cd34d42fe890a00174debb5","C3","batch3","tol_tohand","1101","","","","","","","","","tol_peg_2","1101","1101","0","[[1,0,0],[2,0],[0]]","3","[[2,3,0],[1,0],[0]]","15","0","","","","","","7","","","","",""
"","","","","","single-stim-button","343","1055990","0.0-3.0-56.2-1.2","5cd34d42fe890a00174debb5","C3","batch3","tol_toboard","558","","","","","","","","","tol_peg_3","558","558","0","[[1,0,0],[2,0],[3]]","3","[[2,3,0],[1,0],[0]]","15","0","","","","","","7","","","","",""
"","","","","","single-stim-button","344","1057730","0.0-3.0-56.3-0.3","5cd34d42fe890a00174debb5","C3","batch3","tol_tohand","1740","","","","","","","","","tol_peg_2","1740","1740","0","[[1,0,0],[0,0],[3]]","4","[[2,3,0],[1,0],[0]]","15","0","","","","","","7","","","","",""
"","","","","","single-stim-button","345","1059389","0.0-3.0-56.3-1.3","5cd34d42fe890a00174debb5","C3","batch3","tol_toboard","1659","","","","","","","","","tol_peg_2","1659","1659","0","[[1,0,0],[2,0],[3]]","4","[[2,3,0],[1,0],[0]]","15","0","","","","","","7","","","","",""
"","","","","","single-stim-button","346","1060041","0.0-3.0-56.4-0.4","5cd34d42fe890a00174debb5","C3","batch3","tol_tohand","650","","","","","","","","","tol_peg_3","650","650","0","[[1,0,0],[2,0],[0]]","5","[[2,3,0],[1,0],[0]]","15","0","","","","","","7","","","","",""
"","","","","","single-stim-button","347","1060533","0.0-3.0-56.4-1.4","5cd34d42fe890a00174debb5","C3","batch3","tol_toboard","492","","","","","","","","","tol_peg_1","492","492","0","[[1,3,0],[2,0],[0]]","5","[[2,3,0],[1,0],[0]]","15","0","","","","","","7","","","","",""
"","","","","","single-stim-button","348","1061023","0.0-3.0-56.5-0.5","5cd34d42fe890a00174debb5","C3","batch3","tol_tohand","489","","","","","","","","","tol_peg_2","489","489","0","[[1,3,0],[0,0],[0]]","6","[[2,3,0],[1,0],[0]]","15","0","","","","","","7","","","","",""
"","","","","","single-stim-button","349","1061430","0.0-3.0-56.5-1.5","5cd34d42fe890a00174debb5","C3","batch3","tol_toboard","407","","","","","","","","","tol_peg_3","407","407","0","[[1,3,0],[0,0],[2]]","6","[[2,3,0],[1,0],[0]]","15","0","","","","","","7","","","","",""
"","","","","","single-stim-button","350","1062352","0.0-3.0-56.6-0.6","5cd34d42fe890a00174debb5","C3","batch3","tol_tohand","921","","","","","","","","","tol_peg_1","921","921","0","[[1,0,0],[0,0],[2]]","7","[[2,3,0],[1,0],[0]]","15","0","","","","","","7","","","","",""
"","","","","","single-stim-button","351","1063123","0.0-3.0-56.6-1.6","5cd34d42fe890a00174debb5","C3","batch3","tol_toboard","771","","","","","","","","","tol_peg_2","771","771","0","[[1,0,0],[3,0],[2]]","7","[[2,3,0],[1,0],[0]]","15","0","","","","","","7","","","","",""
"","","","","","single-stim-button","352","1063727","0.0-3.0-56.7-0.7","5cd34d42fe890a00174debb5","C3","batch3","tol_tohand","604","","","","","","","","","tol_peg_1","604","604","0","[[0,0,0],[3,0],[2]]","8","[[2,3,0],[1,0],[0]]","15","0","","","","","","7","","","","",""
"","","","","","single-stim-button","353","1064193","0.0-3.0-56.7-1.7","5cd34d42fe890a00174debb5","C3","batch3","tol_toboard","466","","","","","","","","","tol_peg_2","466","466","0","[[0,0,0],[3,1],[2]]","8","[[2,3,0],[1,0],[0]]","15","0","","","","","","7","","","","",""
