"success","timeout","failed_images","failed_audio","failed_video","trial_type","trial_index","time_elapsed","internal_node_id","subject_id","study_id","session_id","view_history","rt","stimulus","response","task","correct","answer","item","fiar_detect_rt","fiar_detect_correct","total_correct_fiar_detect","post_trial_gap","choices","spm_correct","spm_rt","mouse_click","stim_duration","block_duration","timing_post_trial","current_position","tol_num_moves_made","tol_target","tol_problem_id","tol_rt","key_press","possible_responses","tol_correct","preplanning","tol_rt_per_trial","tol_min_moves"
"true","false","[]","[]","[]","preload","0","16413","0.0-0.0","5ce49f37dd4e16001771cd1f","A3","batch1","","","","","","","","","","","","","","","","","","","","","","","","","","","","","",""
"true","","","","","fullscreen","1","25256","0.0-1.0-0.0","5ce49f37dd4e16001771cd1f","A3","batch1","","","","","","","","","","","","","","","","","","","","","","","","","","","","","",""
"true","","","","","fullscreen","2","29084","0.0-2.0-0.0","5ce49f37dd4e16001771cd1f","A3","batch1","","","","","","","","","","","","","","","","","","","","","","","","","","","","","",""
"","","","","","instructions","3","41959","0.0-2.0-1.0-0.0","5ce49f37dd4e16001771cd1f","A3","batch1","[{""page_index"":0,""viewing_time"":9602.29999999702},{""page_index"":1,""viewing_time"":3270.5999999940395}]","12873.09999999404","","","","","","","","","","","","","","","","","","","","","","","","","","","",""
"","","","","","html-button-response","4","42933","0.0-2.0-1.0-1.0-0.0","5ce49f37dd4e16001771cd1f","A3","batch1","","972.9000000059605","<p class=block-text> Let's answer a few questions <br>","0","pattern_enter_quiz","","","","","","","","","","","","","","","","","","","","","","","","",""
"","","","","","html-button-response","5","44535","0.0-2.0-1.0-1.0-1.0","5ce49f37dd4e16001771cd1f","A3","batch1","","1600.5999999940395","<p class = block-text>True or False: You will have as much time as you want to make each choice. <br></p>","1","pattern_quiz","true","","","","","","","","","","","","","","","","","","","","","","","",""
"","","","","","html-button-response","6","45274","0.0-2.0-1.0-1.0-2.0","5ce49f37dd4e16001771cd1f","A3","batch1","","738.4000000059605","<p class = block-text>Correct! You should make your choice <strong> as fast as you can</strong>.</p>","0","pattern_quiz_feedback","","","","","","","","","","","","","","","","","","","","","","","","",""
"","","","","","html-button-response","7","48721","0.0-2.0-1.0-1.0-3.0","5ce49f37dd4e16001771cd1f","A3","batch1","","3446.1000000089407","<p class = block-text>True or False: You will look for 4 pieces in black or white color connected in a row either horizontally, vertically or diagonally. <br></p>","0","pattern_quiz","true","","","","","","","","","","","","","","","","","","","","","","","",""
"","","","","","html-button-response","8","49283","0.0-2.0-1.0-1.0-4.0","5ce49f37dd4e16001771cd1f","A3","batch1","","561.2999999970198","<p class = block-text>Correct! </p>","0","pattern_quiz_feedback","","","","","","","","","","","","","","","","","","","","","","","","",""
"","","","","","html-button-response","9","50187","0.0-2.0-2.0","5ce49f37dd4e16001771cd1f","A3","batch1","","902.6000000089407","<p class=block-text> Now that you've understood the game, let's do a few practice trials before we start!<br> <br>","0","pattern_enter_practice","","","","","","","","","","","","","","","","","","","","","","","","",""
"","","","","","image-keyboard-response","10","51415","0.0-2.0-3.0-0.0","5ce49f37dd4e16001771cd1f","A3","batch1","","1224.800000011921","stim/prac_no_18_1.png","j","pattern_practice","true","j","","","","","","","","","","","","","","","","","","","","","","",""
"","","","","","html-keyboard-response","11","52428","0.0-2.0-3.0-1.0","5ce49f37dd4e16001771cd1f","A3","batch1","","null","<p style=""font-size:30px;color:green;"">Correct!</p>","null","pattern_feedback","","","","","","","","","","","","","","","","","","","","","","","","",""
"","","","","","image-keyboard-response","12","52989","0.0-2.0-3.0-0.1","5ce49f37dd4e16001771cd1f","A3","batch1","","559","stim/prac_yes_16_ver_w1.png","f","pattern_practice","true","f","","","","","","","","","","","","","","","","","","","","","","",""
"","","","","","html-keyboard-response","13","53998","0.0-2.0-3.0-1.1","5ce49f37dd4e16001771cd1f","A3","batch1","","null","<p style=""font-size:30px;color:green;"">Correct!</p>","null","pattern_feedback","","","","","","","","","","","","","","","","","","","","","","","","",""
"","","","","","image-keyboard-response","14","54577","0.0-2.0-3.0-0.2","5ce49f37dd4e16001771cd1f","A3","batch1","","577.5","stim/prac_yes_18_hor_w1.png","f","pattern_practice","true","f","","","","","","","","","","","","","","","","","","","","","","",""
"","","","","","html-keyboard-response","15","55593","0.0-2.0-3.0-1.2","5ce49f37dd4e16001771cd1f","A3","batch1","","null","<p style=""font-size:30px;color:green;"">Correct!</p>","null","pattern_feedback","","","","","","","","","","","","","","","","","","","","","","","","",""
"","","","","","image-keyboard-response","16","56186","0.0-2.0-3.0-0.3","5ce49f37dd4e16001771cd1f","A3","batch1","","591.6000000089407","stim/prac_no_16_1.png","j","pattern_practice","true","j","","","","","","","","","","","","","","","","","","","","","","",""
"","","","","","html-keyboard-response","17","57202","0.0-2.0-3.0-1.3","5ce49f37dd4e16001771cd1f","A3","batch1","","null","<p style=""font-size:30px;color:green;"">Correct!</p>","null","pattern_feedback","","","","","","","","","","","","","","","","","","","","","","","","",""
"","","","","","image-keyboard-response","18","57800","0.0-2.0-3.0-0.4","5ce49f37dd4e16001771cd1f","A3","batch1","","597.4000000059605","stim/prac_yes_20_dia_b1.png","j","pattern_practice","false","f","","","","","","","","","","","","","","","","","","","","","","",""
"","","","","","html-keyboard-response","19","58813","0.0-2.0-3.0-1.4","5ce49f37dd4e16001771cd1f","A3","batch1","","null","<p style=""font-size:30px;color:red;"">Wrong.</p>","null","pattern_feedback","","","","","","","","","","","","","","","","","","","","","","","","",""
"","","","","","html-button-response","20","64850","0.0-2.0-4.0","5ce49f37dd4e16001771cd1f","A3","batch1","","6035.70000000298","<p class=block-text> Good job! You are done with practice trials!<br>
        You responded correctly on 80% of the trials.<br>
        Press the button below to start official trials. Now you won't see any feedback about your response</p>","0","pattern_enter_official_trials","","","","","","","","","","","","","","","","","","","","","","","","",""
"","","","","","html-keyboard-response","21","65655","0.0-2.0-5.0-0.0","5ce49f37dd4e16001771cd1f","A3","batch1","","null","<p class=block-text>Trial 1 out of 78</p>","null","pattern_show_trial_num","","","","","","","","","","","","","","","","","","","","","","","","",""
"","","","","","image-keyboard-response","22","66838","0.0-2.0-5.0-1.0","5ce49f37dd4e16001771cd1f","A3","batch1","","1181.0999999940395","stim/yes_15_dia_b1u_b.png","f","pattern_response","true","f","pattern_44","1181.0999999940395","true","1","","","","","","","","","","","","","","","","","","",""
"","","","","","html-keyboard-response","23","68151","0.0-2.0-5.0-0.1","5ce49f37dd4e16001771cd1f","A3","batch1","","null","<p class=block-text>Trial 2 out of 78</p>","null","pattern_show_trial_num","","","","","","","","","","","","","","","","","","","","","","","","",""
"","","","","","image-keyboard-response","24","69049","0.0-2.0-5.0-1.1","5ce49f37dd4e16001771cd1f","A3","batch1","","897.6000000089407","stim/yes_70_ver_b1.png","f","pattern_response","true","f","pattern_80","897.6000000089407","true","2","","","","","","","","","","","","","","","","","","",""
"","","","","","html-keyboard-response","25","70378","0.0-2.0-5.0-0.2","5ce49f37dd4e16001771cd1f","A3","batch1","","null","<p class=block-text>Trial 3 out of 78</p>","null","pattern_show_trial_num","","","","","","","","","","","","","","","","","","","","","","","","",""
"","","","","","image-keyboard-response","26","70988","0.0-2.0-5.0-1.2","5ce49f37dd4e16001771cd1f","A3","batch1","","608.7999999970198","stim/yes_17_ver_b1_b.png","f","pattern_response","true","f","pattern_46","608.7999999970198","true","3","","","","","","","","","","","","","","","","","","",""
"","","","","","html-keyboard-response","27","72299","0.0-2.0-5.0-0.3","5ce49f37dd4e16001771cd1f","A3","batch1","","null","<p class=block-text>Trial 4 out of 78</p>","null","pattern_show_trial_num","","","","","","","","","","","","","","","","","","","","","","","","",""
"","","","","","image-keyboard-response","28","73098","0.0-2.0-5.0-1.3","5ce49f37dd4e16001771cd1f","A3","batch1","","797.1000000089407","stim/yes_33_dia_w1_w.png","j","pattern_response","false","f","pattern_56","797.1000000089407","false","3","","","","","","","","","","","","","","","","","","",""
"","","","","","html-keyboard-response","29","74418","0.0-2.0-5.0-0.4","5ce49f37dd4e16001771cd1f","A3","batch1","","null","<p class=block-text>Trial 5 out of 78</p>","null","pattern_show_trial_num","","","","","","","","","","","","","","","","","","","","","","","","",""
"","","","","","image-keyboard-response","30","76445","0.0-2.0-5.0-1.4","5ce49f37dd4e16001771cd1f","A3","batch1","","2026","stim/no_39_1_w.png","j","pattern_response","true","j","pattern_21","2026","true","4","","","","","","","","","","","","","","","","","","",""
"","","","","","html-keyboard-response","31","77762","0.0-2.0-5.0-0.5","5ce49f37dd4e16001771cd1f","A3","batch1","","null","<p class=block-text>Trial 6 out of 78</p>","null","pattern_show_trial_num","","","","","","","","","","","","","","","","","","","","","","","","",""
"","","","","","image-keyboard-response","32","79184","0.0-2.0-5.0-1.5","5ce49f37dd4e16001771cd1f","A3","batch1","","1421.1000000089407","stim/no_22_1_b.png","j","pattern_response","true","j","pattern_07","1421.1000000089407","true","5","","","","","","","","","","","","","","","","","","",""
"","","","","","html-keyboard-response","33","80505","0.0-2.0-5.0-0.6","5ce49f37dd4e16001771cd1f","A3","batch1","","null","<p class=block-text>Trial 7 out of 78</p>","null","pattern_show_trial_num","","","","","","","","","","","","","","","","","","","","","","","","",""
"","","","","","image-keyboard-response","34","81214","0.0-2.0-5.0-1.6","5ce49f37dd4e16001771cd1f","A3","batch1","","708.1000000089407","stim/yes_37_hor_w1_w.png","f","pattern_response","true","f","pattern_60","708.1000000089407","true","6","","","","","","","","","","","","","","","","","","",""
"","","","","","html-keyboard-response","35","82530","0.0-2.0-5.0-0.7","5ce49f37dd4e16001771cd1f","A3","batch1","","null","<p class=block-text>Trial 8 out of 78</p>","null","pattern_show_trial_num","","","","","","","","","","","","","","","","","","","","","","","","",""
"","","","","","image-keyboard-response","36","86014","0.0-2.0-5.0-1.7","5ce49f37dd4e16001771cd1f","A3","batch1","","3483.1000000089407","stim/no_53_1_b.png","j","pattern_response","true","j","pattern_33","3483.1000000089407","true","7","","","","","","","","","","","","","","","","","","",""
"","","","","","html-keyboard-response","37","87328","0.0-2.0-5.0-0.8","5ce49f37dd4e16001771cd1f","A3","batch1","","null","<p class=block-text>Trial 9 out of 78</p>","null","pattern_show_trial_num","","","","","","","","","","","","","","","","","","","","","","","","",""
"","","","","","image-keyboard-response","38","87918","0.0-2.0-5.0-1.8","5ce49f37dd4e16001771cd1f","A3","batch1","","588.9000000059605","stim/yes_12_hor_w1_w.png","f","pattern_response","true","f","pattern_42","588.9000000059605","true","8","","","","","","","","","","","","","","","","","","",""
"","","","","","html-keyboard-response","39","89240","0.0-2.0-5.0-0.9","5ce49f37dd4e16001771cd1f","A3","batch1","","null","<p class=block-text>Trial 10 out of 78</p>","null","pattern_show_trial_num","","","","","","","","","","","","","","","","","","","","","","","","",""
"","","","","","image-keyboard-response","40","90278","0.0-2.0-5.0-1.9","5ce49f37dd4e16001771cd1f","A3","batch1","","1037.2999999970198","stim/yes_51_dia_b1.png","f","pattern_response","true","f","pattern_72","1037.2999999970198","true","9","","","","","","","","","","","","","","","","","","",""
"","","","","","html-keyboard-response","41","91590","0.0-2.0-5.0-0.10","5ce49f37dd4e16001771cd1f","A3","batch1","","null","<p class=block-text>Trial 11 out of 78</p>","null","pattern_show_trial_num","","","","","","","","","","","","","","","","","","","","","","","","",""
"","","","","","image-keyboard-response","42","92694","0.0-2.0-5.0-1.10","5ce49f37dd4e16001771cd1f","A3","batch1","","1102.6000000089407","stim/no_18_1_b.png","j","pattern_response","true","j","pattern_05","1102.6000000089407","true","10","","","","","","","","","","","","","","","","","","",""
"","","","","","html-keyboard-response","43","94001","0.0-2.0-5.0-0.11","5ce49f37dd4e16001771cd1f","A3","batch1","","null","<p class=block-text>Trial 12 out of 78</p>","null","pattern_show_trial_num","","","","","","","","","","","","","","","","","","","","","","","","",""
"","","","","","image-keyboard-response","44","94718","0.0-2.0-5.0-1.11","5ce49f37dd4e16001771cd1f","A3","batch1","","715.6000000089407","stim/yes_36_ver_w1_w.png","f","pattern_response","true","f","pattern_58","715.6000000089407","true","11","","","","","","","","","","","","","","","","","","",""
"","","","","","html-keyboard-response","45","96030","0.0-2.0-5.0-0.12","5ce49f37dd4e16001771cd1f","A3","batch1","","null","<p class=block-text>Trial 13 out of 78</p>","null","pattern_show_trial_num","","","","","","","","","","","","","","","","","","","","","","","","",""
"","","","","","image-keyboard-response","46","96801","0.0-2.0-5.0-1.12","5ce49f37dd4e16001771cd1f","A3","batch1","","770.2999999970198","stim/yes_26_dia_w2_w.png","f","pattern_response","true","f","pattern_50","770.2999999970198","true","12","","","","","","","","","","","","","","","","","","",""
"","","","","","html-keyboard-response","47","98103","0.0-2.0-5.0-0.13","5ce49f37dd4e16001771cd1f","A3","batch1","","null","<p class=block-text>Trial 14 out of 78</p>","null","pattern_show_trial_num","","","","","","","","","","","","","","","","","","","","","","","","",""
"","","","","","image-keyboard-response","48","98830","0.0-2.0-5.0-1.13","5ce49f37dd4e16001771cd1f","A3","batch1","","725.1000000089407","stim/yes_30_ver_b1_b.png","f","pattern_response","true","f","pattern_54","725.1000000089407","true","13","","","","","","","","","","","","","","","","","","",""
"","","","","","html-keyboard-response","49","100139","0.0-2.0-5.0-0.14","5ce49f37dd4e16001771cd1f","A3","batch1","","null","<p class=block-text>Trial 15 out of 78</p>","null","pattern_show_trial_num","","","","","","","","","","","","","","","","","","","","","","","","",""
"","","","","","image-keyboard-response","50","102706","0.0-2.0-5.0-1.14","5ce49f37dd4e16001771cd1f","A3","batch1","","2566.2999999970198","stim/no_51_1.png","j","pattern_response","true","j","pattern_31","2566.2999999970198","true","14","","","","","","","","","","","","","","","","","","",""
"","","","","","html-keyboard-response","51","104010","0.0-2.0-5.0-0.15","5ce49f37dd4e16001771cd1f","A3","batch1","","null","<p class=block-text>Trial 16 out of 78</p>","null","pattern_show_trial_num","","","","","","","","","","","","","","","","","","","","","","","","",""
"","","","","","image-keyboard-response","52","107420","0.0-2.0-5.0-1.15","5ce49f37dd4e16001771cd1f","A3","batch1","","3407.7000000029802","stim/yes_63_dia_b1.png","j","pattern_response","false","f","pattern_78","3407.7000000029802","false","14","","","","","","","","","","","","","","","","","","",""
"","","","","","html-keyboard-response","53","108732","0.0-2.0-5.0-0.16","5ce49f37dd4e16001771cd1f","A3","batch1","","null","<p class=block-text>Trial 17 out of 78</p>","null","pattern_show_trial_num","","","","","","","","","","","","","","","","","","","","","","","","",""
"","","","","","image-keyboard-response","54","111875","0.0-2.0-5.0-1.16","5ce49f37dd4e16001771cd1f","A3","batch1","","3142.2999999970198","stim/yes_44_ver_w1_w.png","j","pattern_response","false","f","pattern_66","3142.2999999970198","false","14","","","","","","","","","","","","","","","","","","",""
"","","","","","html-keyboard-response","55","113180","0.0-2.0-5.0-0.17","5ce49f37dd4e16001771cd1f","A3","batch1","","null","<p class=block-text>Trial 18 out of 78</p>","null","pattern_show_trial_num","","","","","","","","","","","","","","","","","","","","","","","","",""
"","","","","","image-keyboard-response","56","116831","0.0-2.0-5.0-1.17","5ce49f37dd4e16001771cd1f","A3","batch1","","3649.0999999940395","stim/no_49_2_b.png","j","pattern_response","true","j","pattern_29","3649.0999999940395","true","15","","","","","","","","","","","","","","","","","","",""
"","","","","","html-keyboard-response","57","118134","0.0-2.0-5.0-0.18","5ce49f37dd4e16001771cd1f","A3","batch1","","null","<p class=block-text>Trial 19 out of 78</p>","null","pattern_show_trial_num","","","","","","","","","","","","","","","","","","","","","","","","",""
"","","","","","image-keyboard-response","58","120864","0.0-2.0-5.0-1.18","5ce49f37dd4e16001771cd1f","A3","batch1","","2728.5999999940395","stim/no_43_2_b.png","j","pattern_response","true","j","pattern_23","2728.5999999940395","true","16","","","","","","","","","","","","","","","","","","",""
"","","","","","html-keyboard-response","59","122178","0.0-2.0-5.0-0.19","5ce49f37dd4e16001771cd1f","A3","batch1","","null","<p class=block-text>Trial 20 out of 78</p>","null","pattern_show_trial_num","","","","","","","","","","","","","","","","","","","","","","","","",""
"","","","","","image-keyboard-response","60","124286","0.0-2.0-5.0-1.19","5ce49f37dd4e16001771cd1f","A3","batch1","","2106.5","stim/no_30_1_b.png","j","pattern_response","true","j","pattern_13","2106.5","true","17","","","","","","","","","","","","","","","","","","",""
"","","","","","html-keyboard-response","61","125597","0.0-2.0-5.0-0.20","5ce49f37dd4e16001771cd1f","A3","batch1","","null","<p class=block-text>Trial 21 out of 78</p>","null","pattern_show_trial_num","","","","","","","","","","","","","","","","","","","","","","","","",""
"","","","","","image-keyboard-response","62","126668","0.0-2.0-5.0-1.20","5ce49f37dd4e16001771cd1f","A3","batch1","","1070.0999999940395","stim/yes_53_ver_b1_b.png","f","pattern_response","true","f","pattern_74","1070.0999999940395","true","18","","","","","","","","","","","","","","","","","","",""
"","","","","","html-keyboard-response","63","127975","0.0-2.0-5.0-0.21","5ce49f37dd4e16001771cd1f","A3","batch1","","null","<p class=block-text>Trial 22 out of 78</p>","null","pattern_show_trial_num","","","","","","","","","","","","","","","","","","","","","","","","",""
"","","","","","image-keyboard-response","64","128806","0.0-2.0-5.0-1.21","5ce49f37dd4e16001771cd1f","A3","batch1","","830.0999999940395","stim/yes_23_ver_b1.png","f","pattern_response","true","f","pattern_48","830.0999999940395","true","19","","","","","","","","","","","","","","","","","","",""
"","","","","","html-keyboard-response","65","130119","0.0-2.0-5.0-0.22","5ce49f37dd4e16001771cd1f","A3","batch1","","null","<p class=block-text>Trial 23 out of 78</p>","null","pattern_show_trial_num","","","","","","","","","","","","","","","","","","","","","","","","",""
"","","","","","image-keyboard-response","66","132659","0.0-2.0-5.0-1.22","5ce49f37dd4e16001771cd1f","A3","batch1","","2539.5","stim/yes_49_hor_w1_b.png","f","pattern_response","true","f","pattern_70","2539.5","true","20","","","","","","","","","","","","","","","","","","",""
"","","","","","html-keyboard-response","67","133963","0.0-2.0-5.0-0.23","5ce49f37dd4e16001771cd1f","A3","batch1","","null","<p class=block-text>Trial 24 out of 78</p>","null","pattern_show_trial_num","","","","","","","","","","","","","","","","","","","","","","","","",""
"","","","","","image-keyboard-response","68","135893","0.0-2.0-5.0-1.23","5ce49f37dd4e16001771cd1f","A3","batch1","","1929.0999999940395","stim/no_28_2.png","j","pattern_response","true","j","pattern_11","1929.0999999940395","true","21","","","","","","","","","","","","","","","","","","",""
"","","","","","html-keyboard-response","69","137204","0.0-2.0-5.0-0.24","5ce49f37dd4e16001771cd1f","A3","batch1","","null","<p class=block-text>Trial 25 out of 78</p>","null","pattern_show_trial_num","","","","","","","","","","","","","","","","","","","","","","","","",""
"","","","","","image-keyboard-response","70","139802","0.0-2.0-5.0-1.24","5ce49f37dd4e16001771cd1f","A3","batch1","","2596.9000000059605","stim/no_33_1_b.png","j","pattern_response","true","j","pattern_15","2596.9000000059605","true","22","","","","","","","","","","","","","","","","","","",""
"","","","","","html-keyboard-response","71","141105","0.0-2.0-5.0-0.25","5ce49f37dd4e16001771cd1f","A3","batch1","","null","<p class=block-text>Trial 26 out of 78</p>","null","pattern_show_trial_num","","","","","","","","","","","","","","","","","","","","","","","","",""
"","","","","","image-keyboard-response","72","144203","0.0-2.0-5.0-1.25","5ce49f37dd4e16001771cd1f","A3","batch1","","3096.7999999970198","stim/no_45_1_w.png","j","pattern_response","true","j","pattern_25","3096.7999999970198","true","23","","","","","","","","","","","","","","","","","","",""
"","","","","","html-keyboard-response","73","145514","0.0-2.0-5.0-0.26","5ce49f37dd4e16001771cd1f","A3","batch1","","null","<p class=block-text>Trial 27 out of 78</p>","null","pattern_show_trial_num","","","","","","","","","","","","","","","","","","","","","","","","",""
"","","","","","image-keyboard-response","74","146162","0.0-2.0-5.0-1.26","5ce49f37dd4e16001771cd1f","A3","batch1","","647.2000000029802","stim/yes_46_ver_b1_b.png","f","pattern_response","true","f","pattern_68","647.2000000029802","true","24","","","","","","","","","","","","","","","","","","",""
"","","","","","html-keyboard-response","75","147488","0.0-2.0-5.0-0.27","5ce49f37dd4e16001771cd1f","A3","batch1","","null","<p class=block-text>Trial 28 out of 78</p>","null","pattern_show_trial_num","","","","","","","","","","","","","","","","","","","","","","","","",""
"","","","","","image-keyboard-response","76","149408","0.0-2.0-5.0-1.27","5ce49f37dd4e16001771cd1f","A3","batch1","","1918.3999999910593","stim/no_36_1_b.png","j","pattern_response","true","j","pattern_17","1918.3999999910593","true","25","","","","","","","","","","","","","","","","","","",""
"","","","","","html-keyboard-response","77","150724","0.0-2.0-5.0-0.28","5ce49f37dd4e16001771cd1f","A3","batch1","","null","<p class=block-text>Trial 29 out of 78</p>","null","pattern_show_trial_num","","","","","","","","","","","","","","","","","","","","","","","","",""
"","","","","","image-keyboard-response","78","153235","0.0-2.0-5.0-1.28","5ce49f37dd4e16001771cd1f","A3","batch1","","2509.5999999940395","stim/yes_58_dia_w1_w.png","f","pattern_response","true","f","pattern_76","2509.5999999940395","true","26","","","","","","","","","","","","","","","","","","",""
"","","","","","html-keyboard-response","79","154544","0.0-2.0-5.0-0.29","5ce49f37dd4e16001771cd1f","A3","batch1","","null","<p class=block-text>Trial 30 out of 78</p>","null","pattern_show_trial_num","","","","","","","","","","","","","","","","","","","","","","","","",""
"","","","","","image-keyboard-response","80","155880","0.0-2.0-5.0-1.29","5ce49f37dd4e16001771cd1f","A3","batch1","","1334.7999999970198","stim/no_25_1_b.png","j","pattern_response","true","j","pattern_09","1334.7999999970198","true","27","","","","","","","","","","","","","","","","","","",""
"","","","","","html-keyboard-response","81","157195","0.0-2.0-5.0-0.30","5ce49f37dd4e16001771cd1f","A3","batch1","","null","<p class=block-text>Trial 31 out of 78</p>","null","pattern_show_trial_num","","","","","","","","","","","","","","","","","","","","","","","","",""
"","","","","","image-keyboard-response","82","158025","0.0-2.0-5.0-1.30","5ce49f37dd4e16001771cd1f","A3","batch1","","828.3000000119209","stim/no_12_1.png","j","pattern_response","true","j","pattern_01","828.3000000119209","true","28","","","","","","","","","","","","","","","","","","",""
"","","","","","html-keyboard-response","83","159334","0.0-2.0-5.0-0.31","5ce49f37dd4e16001771cd1f","A3","batch1","","null","<p class=block-text>Trial 32 out of 78</p>","null","pattern_show_trial_num","","","","","","","","","","","","","","","","","","","","","","","","",""
"","","","","","image-keyboard-response","84","162249","0.0-2.0-5.0-1.31","5ce49f37dd4e16001771cd1f","A3","batch1","","2913.2999999970198","stim/no_47_1_b.png","j","pattern_response","true","j","pattern_27","2913.2999999970198","true","29","","","","","","","","","","","","","","","","","","",""
"","","","","","html-keyboard-response","85","163561","0.0-2.0-5.0-0.32","5ce49f37dd4e16001771cd1f","A3","batch1","","null","<p class=block-text>Trial 33 out of 78</p>","null","pattern_show_trial_num","","","","","","","","","","","","","","","","","","","","","","","","",""
"","","","","","image-keyboard-response","86","167860","0.0-2.0-5.0-1.32","5ce49f37dd4e16001771cd1f","A3","batch1","","4297.0999999940395","stim/no_67_1.png","j","pattern_response","true","j","pattern_39","4297.0999999940395","true","30","","","","","","","","","","","","","","","","","","",""
"","","","","","html-keyboard-response","87","169172","0.0-2.0-5.0-0.33","5ce49f37dd4e16001771cd1f","A3","batch1","","null","<p class=block-text>Trial 34 out of 78</p>","null","pattern_show_trial_num","","","","","","","","","","","","","","","","","","","","","","","","",""
"","","","","","image-keyboard-response","88","172124","0.0-2.0-5.0-1.33","5ce49f37dd4e16001771cd1f","A3","batch1","","2950.7999999970198","stim/no_37_2_w.png","j","pattern_response","true","j","pattern_19","2950.7999999970198","true","31","","","","","","","","","","","","","","","","","","",""
"","","","","","html-keyboard-response","89","173442","0.0-2.0-5.0-0.34","5ce49f37dd4e16001771cd1f","A3","batch1","","null","<p class=block-text>Trial 35 out of 78</p>","null","pattern_show_trial_num","","","","","","","","","","","","","","","","","","","","","","","","",""
"","","","","","image-keyboard-response","90","177700","0.0-2.0-5.0-1.34","5ce49f37dd4e16001771cd1f","A3","batch1","","4256.5999999940395","stim/no_58_1_w.png","j","pattern_response","true","j","pattern_35","4256.5999999940395","true","32","","","","","","","","","","","","","","","","","","",""
"","","","","","html-keyboard-response","91","179023","0.0-2.0-5.0-0.35","5ce49f37dd4e16001771cd1f","A3","batch1","","null","<p class=block-text>Trial 36 out of 78</p>","null","pattern_show_trial_num","","","","","","","","","","","","","","","","","","","","","","","","",""
"","","","","","image-keyboard-response","92","182519","0.0-2.0-5.0-1.35","5ce49f37dd4e16001771cd1f","A3","batch1","","3494.7000000029802","stim/yes_42_dia_w1_w.png","j","pattern_response","false","f","pattern_64","3494.7000000029802","false","32","","","","","","","","","","","","","","","","","","",""
"","","","","","html-keyboard-response","93","183834","0.0-2.0-5.0-0.36","5ce49f37dd4e16001771cd1f","A3","batch1","","null","<p class=block-text>Trial 37 out of 78</p>","null","pattern_show_trial_num","","","","","","","","","","","","","","","","","","","","","","","","",""
"","","","","","image-keyboard-response","94","184784","0.0-2.0-5.0-1.36","5ce49f37dd4e16001771cd1f","A3","batch1","","949.2000000029802","stim/no_15_1_w.png","j","pattern_response","true","j","pattern_03","949.2000000029802","true","33","","","","","","","","","","","","","","","","","","",""
"","","","","","html-keyboard-response","95","186094","0.0-2.0-5.0-0.37","5ce49f37dd4e16001771cd1f","A3","batch1","","null","<p class=block-text>Trial 38 out of 78</p>","null","pattern_show_trial_num","","","","","","","","","","","","","","","","","","","","","","","","",""
"","","","","","image-keyboard-response","96","186756","0.0-2.0-5.0-1.37","5ce49f37dd4e16001771cd1f","A3","batch1","","660.7999999970198","stim/yes_29_hor_b1_b.png","f","pattern_response","true","f","pattern_52","660.7999999970198","true","34","","","","","","","","","","","","","","","","","","",""
"","","","","","html-keyboard-response","97","188076","0.0-2.0-5.0-0.38","5ce49f37dd4e16001771cd1f","A3","batch1","","null","<p class=block-text>Trial 39 out of 78</p>","null","pattern_show_trial_num","","","","","","","","","","","","","","","","","","","","","","","","",""
"","","","","","image-keyboard-response","98","188877","0.0-2.0-5.0-1.38","5ce49f37dd4e16001771cd1f","A3","batch1","","800.1000000089407","stim/yes_39_hor_w1_w.png","f","pattern_response","true","f","pattern_62","800.1000000089407","true","35","","","","","","","","","","","","","","","","","","",""
"","","","","","image-keyboard-response","99","191161","0.0-2.0-6.0","5ce49f37dd4e16001771cd1f","A3","batch1","","1768.0999999940395","stim/empty_board.png","j","attention_check","true","j","","","","","500","[""f"",""j""]","","","","","","","","","","","","","","","","",""
"","","","","","html-keyboard-response","100","191963","0.0-2.0-7.0-0.0","5ce49f37dd4e16001771cd1f","A3","batch1","","null","<p class=block-text>Trial 40 out of 78</p>","null","pattern_show_trial_num","","","","","","","","","","","","","","","","","","","","","","","","",""
"","","","","","image-keyboard-response","101","194559","0.0-2.0-7.0-1.0","5ce49f37dd4e16001771cd1f","A3","batch1","","2594.5","stim/no_29_1_b.png","j","pattern_response","true","j","pattern_12","2594.5","true","36","","","","","","","","","","","","","","","","","","",""
"","","","","","html-keyboard-response","102","195875","0.0-2.0-7.0-0.1","5ce49f37dd4e16001771cd1f","A3","batch1","","null","<p class=block-text>Trial 41 out of 78</p>","null","pattern_show_trial_num","","","","","","","","","","","","","","","","","","","","","","","","",""
"","","","","","image-keyboard-response","103","196861","0.0-2.0-7.0-1.1","5ce49f37dd4e16001771cd1f","A3","batch1","","984.2000000029802","stim/yes_17_dia_w1.png","f","pattern_response","true","f","pattern_45","984.2000000029802","true","37","","","","","","","","","","","","","","","","","","",""
"","","","","","html-keyboard-response","104","198170","0.0-2.0-7.0-0.2","5ce49f37dd4e16001771cd1f","A3","batch1","","null","<p class=block-text>Trial 42 out of 78</p>","null","pattern_show_trial_num","","","","","","","","","","","","","","","","","","","","","","","","",""
"","","","","","image-keyboard-response","105","198906","0.0-2.0-7.0-1.2","5ce49f37dd4e16001771cd1f","A3","batch1","","734.7999999970198","stim/no_13_2_b.png","j","pattern_response","true","j","pattern_02","734.7999999970198","true","38","","","","","","","","","","","","","","","","","","",""
"","","","","","html-keyboard-response","106","200211","0.0-2.0-7.0-0.3","5ce49f37dd4e16001771cd1f","A3","batch1","","null","<p class=block-text>Trial 43 out of 78</p>","null","pattern_show_trial_num","","","","","","","","","","","","","","","","","","","","","","","","",""
"","","","","","image-keyboard-response","107","201261","0.0-2.0-7.0-1.3","5ce49f37dd4e16001771cd1f","A3","batch1","","1048.699999988079","stim/yes_67_hor_b1.png","f","pattern_response","true","f","pattern_79","1048.699999988079","true","39","","","","","","","","","","","","","","","","","","",""
"","","","","","html-keyboard-response","108","202576","0.0-2.0-7.0-0.4","5ce49f37dd4e16001771cd1f","A3","batch1","","null","<p class=block-text>Trial 44 out of 78</p>","null","pattern_show_trial_num","","","","","","","","","","","","","","","","","","","","","","","","",""
"","","","","","image-keyboard-response","109","204722","0.0-2.0-7.0-1.4","5ce49f37dd4e16001771cd1f","A3","batch1","","2145.4000000059605","stim/no_50_1.png","j","pattern_response","true","j","pattern_30","2145.4000000059605","true","40","","","","","","","","","","","","","","","","","","",""
"","","","","","html-keyboard-response","110","206036","0.0-2.0-7.0-0.5","5ce49f37dd4e16001771cd1f","A3","batch1","","null","<p class=block-text>Trial 45 out of 78</p>","null","pattern_show_trial_num","","","","","","","","","","","","","","","","","","","","","","","","",""
"","","","","","image-keyboard-response","111","207822","0.0-2.0-7.0-1.5","5ce49f37dd4e16001771cd1f","A3","batch1","","1784.7999999970198","stim/no_48_1_w.png","j","pattern_response","true","j","pattern_28","1784.7999999970198","true","41","","","","","","","","","","","","","","","","","","",""
"","","","","","html-keyboard-response","112","209136","0.0-2.0-7.0-0.6","5ce49f37dd4e16001771cd1f","A3","batch1","","null","<p class=block-text>Trial 46 out of 78</p>","null","pattern_show_trial_num","","","","","","","","","","","","","","","","","","","","","","","","",""
"","","","","","image-keyboard-response","113","210624","0.0-2.0-7.0-1.6","5ce49f37dd4e16001771cd1f","A3","batch1","","1486.2000000029802","stim/yes_31_hor_b1.png","j","pattern_response","false","f","pattern_55","1486.2000000029802","false","41","","","","","","","","","","","","","","","","","","",""
"","","","","","html-keyboard-response","114","211938","0.0-2.0-7.0-0.7","5ce49f37dd4e16001771cd1f","A3","batch1","","null","<p class=block-text>Trial 47 out of 78</p>","null","pattern_show_trial_num","","","","","","","","","","","","","","","","","","","","","","","","",""
"","","","","","image-keyboard-response","115","214324","0.0-2.0-7.0-1.7","5ce49f37dd4e16001771cd1f","A3","batch1","","2385.2000000029802","stim/no_55_1_w.png","j","pattern_response","true","j","pattern_34","2385.2000000029802","true","42","","","","","","","","","","","","","","","","","","",""
"","","","","","html-keyboard-response","116","215640","0.0-2.0-7.0-0.8","5ce49f37dd4e16001771cd1f","A3","batch1","","null","<p class=block-text>Trial 48 out of 78</p>","null","pattern_show_trial_num","","","","","","","","","","","","","","","","","","","","","","","","",""
"","","","","","image-keyboard-response","117","218067","0.0-2.0-7.0-1.8","5ce49f37dd4e16001771cd1f","A3","batch1","","2426.2999999970198","stim/no_46_1_b.png","j","pattern_response","true","j","pattern_26","2426.2999999970198","true","43","","","","","","","","","","","","","","","","","","",""
"","","","","","html-keyboard-response","118","219390","0.0-2.0-7.0-0.9","5ce49f37dd4e16001771cd1f","A3","batch1","","null","<p class=block-text>Trial 49 out of 78</p>","null","pattern_show_trial_num","","","","","","","","","","","","","","","","","","","","","","","","",""
"","","","","","image-keyboard-response","119","222668","0.0-2.0-7.0-1.9","5ce49f37dd4e16001771cd1f","A3","batch1","","3275.2000000029802","stim/no_38_1_b.png","j","pattern_response","true","j","pattern_20","3275.2000000029802","true","44","","","","","","","","","","","","","","","","","","",""
"","","","","","html-keyboard-response","120","223969","0.0-2.0-7.0-0.10","5ce49f37dd4e16001771cd1f","A3","batch1","","null","<p class=block-text>Trial 50 out of 78</p>","null","pattern_show_trial_num","","","","","","","","","","","","","","","","","","","","","","","","",""
"","","","","","image-keyboard-response","121","225208","0.0-2.0-7.0-1.10","5ce49f37dd4e16001771cd1f","A3","batch1","","1238.2000000029802","stim/no_20_1_w.png","j","pattern_response","true","j","pattern_06","1238.2000000029802","true","45","","","","","","","","","","","","","","","","","","",""
"","","","","","html-keyboard-response","122","226527","0.0-2.0-7.0-0.11","5ce49f37dd4e16001771cd1f","A3","batch1","","null","<p class=block-text>Trial 51 out of 78</p>","null","pattern_show_trial_num","","","","","","","","","","","","","","","","","","","","","","","","",""
"","","","","","image-keyboard-response","123","227284","0.0-2.0-7.0-1.11","5ce49f37dd4e16001771cd1f","A3","batch1","","755.7000000029802","stim/yes_38_hor_b1_b.png","f","pattern_response","true","f","pattern_61","755.7000000029802","true","46","","","","","","","","","","","","","","","","","","",""
"","","","","","html-keyboard-response","124","228594","0.0-2.0-7.0-0.12","5ce49f37dd4e16001771cd1f","A3","batch1","","null","<p class=block-text>Trial 52 out of 78</p>","null","pattern_show_trial_num","","","","","","","","","","","","","","","","","","","","","","","","",""
"","","","","","image-keyboard-response","125","231905","0.0-2.0-7.0-1.12","5ce49f37dd4e16001771cd1f","A3","batch1","","3309.4000000059605","stim/no_34_1_b.png","j","pattern_response","true","j","pattern_16","3309.4000000059605","true","47","","","","","","","","","","","","","","","","","","",""
"","","","","","html-keyboard-response","126","233221","0.0-2.0-7.0-0.13","5ce49f37dd4e16001771cd1f","A3","batch1","","null","<p class=block-text>Trial 53 out of 78</p>","null","pattern_show_trial_num","","","","","","","","","","","","","","","","","","","","","","","","",""
"","","","","","image-keyboard-response","127","234075","0.0-2.0-7.0-1.13","5ce49f37dd4e16001771cd1f","A3","batch1","","852.5","stim/yes_22_ver_w1.png","f","pattern_response","true","f","pattern_47","852.5","true","48","","","","","","","","","","","","","","","","","","",""
"","","","","","html-keyboard-response","128","235383","0.0-2.0-7.0-0.14","5ce49f37dd4e16001771cd1f","A3","batch1","","null","<p class=block-text>Trial 54 out of 78</p>","null","pattern_show_trial_num","","","","","","","","","","","","","","","","","","","","","","","","",""
"","","","","","image-keyboard-response","129","238015","0.0-2.0-7.0-1.14","5ce49f37dd4e16001771cd1f","A3","batch1","","2631.300000011921","stim/no_36_2_w.png","j","pattern_response","true","j","pattern_18","2631.300000011921","true","49","","","","","","","","","","","","","","","","","","",""
"","","","","","html-keyboard-response","130","239329","0.0-2.0-7.0-0.15","5ce49f37dd4e16001771cd1f","A3","batch1","","null","<p class=block-text>Trial 55 out of 78</p>","null","pattern_show_trial_num","","","","","","","","","","","","","","","","","","","","","","","","",""
"","","","","","image-keyboard-response","131","242208","0.0-2.0-7.0-1.15","5ce49f37dd4e16001771cd1f","A3","batch1","","2877","stim/no_52_1.png","j","pattern_response","true","j","pattern_32","2877","true","50","","","","","","","","","","","","","","","","","","",""
"","","","","","html-keyboard-response","132","243525","0.0-2.0-7.0-0.16","5ce49f37dd4e16001771cd1f","A3","batch1","","null","<p class=block-text>Trial 56 out of 78</p>","null","pattern_show_trial_num","","","","","","","","","","","","","","","","","","","","","","","","",""
"","","","","","image-keyboard-response","133","245754","0.0-2.0-7.0-1.16","5ce49f37dd4e16001771cd1f","A3","batch1","","2227.9000000059605","stim/yes_37_dia_w1.png","f","pattern_response","true","f","pattern_59","2227.9000000059605","true","51","","","","","","","","","","","","","","","","","","",""
"","","","","","html-keyboard-response","134","247067","0.0-2.0-7.0-0.17","5ce49f37dd4e16001771cd1f","A3","batch1","","null","<p class=block-text>Trial 57 out of 78</p>","null","pattern_show_trial_num","","","","","","","","","","","","","","","","","","","","","","","","",""
"","","","","","image-keyboard-response","135","250089","0.0-2.0-7.0-1.17","5ce49f37dd4e16001771cd1f","A3","batch1","","3020.6000000089407","stim/yes_60_ver_b1_b.png","f","pattern_response","true","f","pattern_77","3020.6000000089407","true","52","","","","","","","","","","","","","","","","","","",""
"","","","","","html-keyboard-response","136","251410","0.0-2.0-7.0-0.18","5ce49f37dd4e16001771cd1f","A3","batch1","","null","<p class=block-text>Trial 58 out of 78</p>","null","pattern_show_trial_num","","","","","","","","","","","","","","","","","","","","","","","","",""
"","","","","","image-keyboard-response","137","255890","0.0-2.0-7.0-1.18","5ce49f37dd4e16001771cd1f","A3","batch1","","4478.9000000059605","stim/no_44_1.png","j","pattern_response","true","j","pattern_24","4478.9000000059605","true","53","","","","","","","","","","","","","","","","","","",""
"","","","","","html-keyboard-response","138","257205","0.0-2.0-7.0-0.19","5ce49f37dd4e16001771cd1f","A3","batch1","","null","<p class=block-text>Trial 59 out of 78</p>","null","pattern_show_trial_num","","","","","","","","","","","","","","","","","","","","","","","","",""
"","","","","","image-keyboard-response","139","257856","0.0-2.0-7.0-1.19","5ce49f37dd4e16001771cd1f","A3","batch1","","648.8999999910593","stim/yes_25_hor_b1_b.png","f","pattern_response","true","f","pattern_49","648.8999999910593","true","54","","","","","","","","","","","","","","","","","","",""
"","","","","","html-keyboard-response","140","259170","0.0-2.0-7.0-0.20","5ce49f37dd4e16001771cd1f","A3","batch1","","null","<p class=block-text>Trial 60 out of 78</p>","null","pattern_show_trial_num","","","","","","","","","","","","","","","","","","","","","","","","",""
"","","","","","image-keyboard-response","141","260128","0.0-2.0-7.0-1.20","5ce49f37dd4e16001771cd1f","A3","batch1","","957.0999999940395","stim/yes_55_hor_w1_w.png","f","pattern_response","true","f","pattern_75","957.0999999940395","true","55","","","","","","","","","","","","","","","","","","",""
"","","","","","html-keyboard-response","142","261445","0.0-2.0-7.0-0.21","5ce49f37dd4e16001771cd1f","A3","batch1","","null","<p class=block-text>Trial 61 out of 78</p>","null","pattern_show_trial_num","","","","","","","","","","","","","","","","","","","","","","","","",""
"","","","","","image-keyboard-response","143","262630","0.0-2.0-7.0-1.21","5ce49f37dd4e16001771cd1f","A3","batch1","","1183.5","stim/yes_52_ver_w1.png","f","pattern_response","true","f","pattern_73","1183.5","true","56","","","","","","","","","","","","","","","","","","",""
"","","","","","html-keyboard-response","144","263935","0.0-2.0-7.0-0.22","5ce49f37dd4e16001771cd1f","A3","batch1","","null","<p class=block-text>Trial 62 out of 78</p>","null","pattern_show_trial_num","","","","","","","","","","","","","","","","","","","","","","","","",""
"","","","","","image-keyboard-response","145","265363","0.0-2.0-7.0-1.22","5ce49f37dd4e16001771cd1f","A3","batch1","","1426.2999999970198","stim/yes_45_hor_b2_b.png","f","pattern_response","true","f","pattern_67","1426.2999999970198","true","57","","","","","","","","","","","","","","","","","","",""
"","","","","","html-keyboard-response","146","266667","0.0-2.0-7.0-0.23","5ce49f37dd4e16001771cd1f","A3","batch1","","null","<p class=block-text>Trial 63 out of 78</p>","null","pattern_show_trial_num","","","","","","","","","","","","","","","","","","","","","","","","",""
"","","","","","image-keyboard-response","147","267959","0.0-2.0-7.0-1.23","5ce49f37dd4e16001771cd1f","A3","batch1","","1291.0999999940395","stim/yes_43_ver_w1_w.png","f","pattern_response","true","f","pattern_65","1291.0999999940395","true","58","","","","","","","","","","","","","","","","","","",""
"","","","","","html-keyboard-response","148","269276","0.0-2.0-7.0-0.24","5ce49f37dd4e16001771cd1f","A3","batch1","","null","<p class=block-text>Trial 64 out of 78</p>","null","pattern_show_trial_num","","","","","","","","","","","","","","","","","","","","","","","","",""
"","","","","","image-keyboard-response","149","273029","0.0-2.0-7.0-1.24","5ce49f37dd4e16001771cd1f","A3","batch1","","3751.2999999970198","stim/yes_50_dia_w1.png","j","pattern_response","false","f","pattern_71","3751.2999999970198","false","58","","","","","","","","","","","","","","","","","","",""
"","","","","","html-keyboard-response","150","274334","0.0-2.0-7.0-0.25","5ce49f37dd4e16001771cd1f","A3","batch1","","null","<p class=block-text>Trial 65 out of 78</p>","null","pattern_show_trial_num","","","","","","","","","","","","","","","","","","","","","","","","",""
"","","","","","image-keyboard-response","151","275080","0.0-2.0-7.0-1.25","5ce49f37dd4e16001771cd1f","A3","batch1","","744.7000000029802","stim/no_17_1_w.png","j","pattern_response","true","j","pattern_04","744.7000000029802","true","59","","","","","","","","","","","","","","","","","","",""
"","","","","","html-keyboard-response","152","276399","0.0-2.0-7.0-0.26","5ce49f37dd4e16001771cd1f","A3","batch1","","null","<p class=block-text>Trial 66 out of 78</p>","null","pattern_show_trial_num","","","","","","","","","","","","","","","","","","","","","","","","",""
"","","","","","image-keyboard-response","153","281170","0.0-2.0-7.0-1.26","5ce49f37dd4e16001771cd1f","A3","batch1","","4769.899999991059","stim/no_70_2.png","j","pattern_response","true","j","pattern_40","4769.899999991059","true","60","","","","","","","","","","","","","","","","","","",""
"","","","","","html-keyboard-response","154","282482","0.0-2.0-7.0-0.27","5ce49f37dd4e16001771cd1f","A3","batch1","","null","<p class=block-text>Trial 67 out of 78</p>","null","pattern_show_trial_num","","","","","","","","","","","","","","","","","","","","","","","","",""
"","","","","","image-keyboard-response","155","284833","0.0-2.0-7.0-1.27","5ce49f37dd4e16001771cd1f","A3","batch1","","2348.5999999940395","stim/no_42_1_w.png","j","pattern_response","true","j","pattern_22","2348.5999999940395","true","61","","","","","","","","","","","","","","","","","","",""
"","","","","","html-keyboard-response","156","286149","0.0-2.0-7.0-0.28","5ce49f37dd4e16001771cd1f","A3","batch1","","null","<p class=block-text>Trial 68 out of 78</p>","null","pattern_show_trial_num","","","","","","","","","","","","","","","","","","","","","","","","",""
"","","","","","image-keyboard-response","157","287731","0.0-2.0-7.0-1.28","5ce49f37dd4e16001771cd1f","A3","batch1","","1580.4000000059605","stim/no_23_1.png","j","pattern_response","true","j","pattern_08","1580.4000000059605","true","62","","","","","","","","","","","","","","","","","","",""
"","","","","","html-keyboard-response","158","289044","0.0-2.0-7.0-0.29","5ce49f37dd4e16001771cd1f","A3","batch1","","null","<p class=block-text>Trial 69 out of 78</p>","null","pattern_show_trial_num","","","","","","","","","","","","","","","","","","","","","","","","",""
"","","","","","image-keyboard-response","159","291017","0.0-2.0-7.0-1.29","5ce49f37dd4e16001771cd1f","A3","batch1","","1972.5","stim/yes_48_dia_w1_w.png","f","pattern_response","true","f","pattern_69","1972.5","true","63","","","","","","","","","","","","","","","","","","",""
"","","","","","html-keyboard-response","160","292334","0.0-2.0-7.0-0.30","5ce49f37dd4e16001771cd1f","A3","batch1","","null","<p class=block-text>Trial 70 out of 78</p>","null","pattern_show_trial_num","","","","","","","","","","","","","","","","","","","","","","","","",""
"","","","","","image-keyboard-response","161","293180","0.0-2.0-7.0-1.30","5ce49f37dd4e16001771cd1f","A3","batch1","","845.1000000089407","stim/yes_35_dia_b1.png","f","pattern_response","true","f","pattern_57","845.1000000089407","true","64","","","","","","","","","","","","","","","","","","",""
"","","","","","html-keyboard-response","162","294499","0.0-2.0-7.0-0.31","5ce49f37dd4e16001771cd1f","A3","batch1","","null","<p class=block-text>Trial 71 out of 78</p>","null","pattern_show_trial_num","","","","","","","","","","","","","","","","","","","","","","","","",""
"","","","","","image-keyboard-response","163","297821","0.0-2.0-7.0-1.31","5ce49f37dd4e16001771cd1f","A3","batch1","","3320.2999999970198","stim/no_62_1_w.png","j","pattern_response","true","j","pattern_36","3320.2999999970198","true","65","","","","","","","","","","","","","","","","","","",""
"","","","","","html-keyboard-response","164","299138","0.0-2.0-7.0-0.32","5ce49f37dd4e16001771cd1f","A3","batch1","","null","<p class=block-text>Trial 72 out of 78</p>","null","pattern_show_trial_num","","","","","","","","","","","","","","","","","","","","","","","","",""
"","","","","","image-keyboard-response","165","299725","0.0-2.0-7.0-1.32","5ce49f37dd4e16001771cd1f","A3","batch1","","585.6000000089407","stim/yes_14_hor_b1_w.png","f","pattern_response","true","f","pattern_43","585.6000000089407","true","66","","","","","","","","","","","","","","","","","","",""
"","","","","","html-keyboard-response","166","301039","0.0-2.0-7.0-0.33","5ce49f37dd4e16001771cd1f","A3","batch1","","null","<p class=block-text>Trial 73 out of 78</p>","null","pattern_show_trial_num","","","","","","","","","","","","","","","","","","","","","","","","",""
"","","","","","image-keyboard-response","167","303861","0.0-2.0-7.0-1.33","5ce49f37dd4e16001771cd1f","A3","batch1","","2820.7000000029802","stim/yes_40_dia_b1_b.png","f","pattern_response","true","f","pattern_63","2820.7000000029802","true","67","","","","","","","","","","","","","","","","","","",""
"","","","","","html-keyboard-response","168","305171","0.0-2.0-7.0-0.34","5ce49f37dd4e16001771cd1f","A3","batch1","","null","<p class=block-text>Trial 74 out of 78</p>","null","pattern_show_trial_num","","","","","","","","","","","","","","","","","","","","","","","","",""
"","","","","","image-keyboard-response","169","309498","0.0-2.0-7.0-1.34","5ce49f37dd4e16001771cd1f","A3","batch1","","4325.5","stim/no_65_1_b.png","j","pattern_response","true","j","pattern_38","4325.5","true","68","","","","","","","","","","","","","","","","","","",""
"","","","","","html-keyboard-response","170","310801","0.0-2.0-7.0-0.35","5ce49f37dd4e16001771cd1f","A3","batch1","","null","<p class=block-text>Trial 75 out of 78</p>","null","pattern_show_trial_num","","","","","","","","","","","","","","","","","","","","","","","","",""
"","","","","","image-keyboard-response","171","311437","0.0-2.0-7.0-1.35","5ce49f37dd4e16001771cd1f","A3","batch1","","634.5999999940395","stim/yes_29_ver_w1.png","f","pattern_response","true","f","pattern_53","634.5999999940395","true","69","","","","","","","","","","","","","","","","","","",""
"","","","","","html-keyboard-response","172","312752","0.0-2.0-7.0-0.36","5ce49f37dd4e16001771cd1f","A3","batch1","","null","<p class=block-text>Trial 76 out of 78</p>","null","pattern_show_trial_num","","","","","","","","","","","","","","","","","","","","","","","","",""
"","","","","","image-keyboard-response","173","313383","0.0-2.0-7.0-1.36","5ce49f37dd4e16001771cd1f","A3","batch1","","629.2999999970198","stim/yes_28_ver_b1.png","f","pattern_response","true","f","pattern_51","629.2999999970198","true","70","","","","","","","","","","","","","","","","","","",""
"","","","","","html-keyboard-response","174","314701","0.0-2.0-7.0-0.37","5ce49f37dd4e16001771cd1f","A3","batch1","","null","<p class=block-text>Trial 77 out of 78</p>","null","pattern_show_trial_num","","","","","","","","","","","","","","","","","","","","","","","","",""
"","","","","","image-keyboard-response","175","316046","0.0-2.0-7.0-1.37","5ce49f37dd4e16001771cd1f","A3","batch1","","1343.2000000029802","stim/no_26_1_w.png","j","pattern_response","true","j","pattern_10","1343.2000000029802","true","71","","","","","","","","","","","","","","","","","","",""
"","","","","","html-keyboard-response","176","317358","0.0-2.0-7.0-0.38","5ce49f37dd4e16001771cd1f","A3","batch1","","null","<p class=block-text>Trial 78 out of 78</p>","null","pattern_show_trial_num","","","","","","","","","","","","","","","","","","","","","","","","",""
"","","","","","image-keyboard-response","177","318950","0.0-2.0-7.0-1.38","5ce49f37dd4e16001771cd1f","A3","batch1","","1591.6000000089407","stim/no_32_1_w.png","j","pattern_response","true","j","pattern_14","1591.6000000089407","true","72","","","","","","","","","","","","","","","","","","",""
"","","","","","html-button-response","178","327819","0.0-2.0-8.0","5ce49f37dd4e16001771cd1f","A3","batch1","","8354.90000000596","<p class = block-text>This concludes the 4-in-a-row detection game.Thank you for your responses!<br>
            You responded correctly on 92% of the trials.<br>
            When you are ready, press ""Continue"" button to continue </p>","0","","","","","","","","","","","","","","","","","","","","","","","","","",""
"true","","","","","fullscreen","179","330731","0.0-3.0-0.0","5ce49f37dd4e16001771cd1f","A3","batch1","","","","","spm_fullscreen","","","","","","","","","","","","","","","","","","","","","","","","",""
"","","","","","html-button-response","180","339632","0.0-3.0-1.0","5ce49f37dd4e16001771cd1f","A3","batch1","","8899.70000000298","<p class = block-text><b>Instructions</b> <br>This is a widely used intelligence test in research. <br>In this test, a figure with a missing piece will be presented.<br>Below the figure are alternative pieces to complete the figure, only one of which is correct.<br> Different figures might involve different principles for obtaining the missing piece<br>Your job is to select the most logical piece to complete the figure.</p>","0","","","","","","","","","","","","","","","","","","","","","","","","","",""
"","","","","","html-keyboard-response","181","340433","0.0-3.0-2.0-0.0","5ce49f37dd4e16001771cd1f","A3","batch1","","null","<p class=block-text>Trial 1 out of 60</p>","null","spm_show_trial_num","","","","","","","","","","","","","","","","","","","","","","","","",""
"","","","","","image-button-response","182","346203","0.0-3.0-2.0-1.0","5ce49f37dd4e16001771cd1f","A3","batch1","","5766","img/question_1_1.jpeg","3","spm_respsonse","1","4","mat_01","","","","","","1","5766","","","","","","","","","","","","","","",""
"","","","","","html-keyboard-response","183","347256","0.0-3.0-2.0-0.1","5ce49f37dd4e16001771cd1f","A3","batch1","","null","<p class=block-text>Trial 2 out of 60</p>","null","spm_show_trial_num","","","","","","","","","","","","","","","","","","","","","","","","",""
"","","","","","image-button-response","184","349139","0.0-3.0-2.0-1.1","5ce49f37dd4e16001771cd1f","A3","batch1","","1882.0999999940395","img/question_1_2.jpeg","4","spm_respsonse","1","5","mat_02","","","","","","1","1882.0999999940395","","","","","","","","","","","","","","",""
"","","","","","html-keyboard-response","185","350204","0.0-3.0-2.0-0.2","5ce49f37dd4e16001771cd1f","A3","batch1","","null","<p class=block-text>Trial 3 out of 60</p>","null","spm_show_trial_num","","","","","","","","","","","","","","","","","","","","","","","","",""
"","","","","","image-button-response","186","352417","0.0-3.0-2.0-1.2","5ce49f37dd4e16001771cd1f","A3","batch1","","2211","img/question_1_3.jpeg","0","spm_respsonse","1","1","mat_03","","","","","","1","2211","","","","","","","","","","","","","","",""
"","","","","","html-keyboard-response","187","353474","0.0-3.0-2.0-0.3","5ce49f37dd4e16001771cd1f","A3","batch1","","null","<p class=block-text>Trial 4 out of 60</p>","null","spm_show_trial_num","","","","","","","","","","","","","","","","","","","","","","","","",""
"","","","","","image-button-response","188","356041","0.0-3.0-2.0-1.3","5ce49f37dd4e16001771cd1f","A3","batch1","","2565.8999999910593","img/question_1_4.jpeg","1","spm_respsonse","1","2","mat_04","","","","","","1","2565.8999999910593","","","","","","","","","","","","","","",""
"","","","","","html-keyboard-response","189","357093","0.0-3.0-2.0-0.4","5ce49f37dd4e16001771cd1f","A3","batch1","","null","<p class=block-text>Trial 5 out of 60</p>","null","spm_show_trial_num","","","","","","","","","","","","","","","","","","","","","","","","",""
"","","","","","image-button-response","190","361130","0.0-3.0-2.0-1.4","5ce49f37dd4e16001771cd1f","A3","batch1","","4034.2999999970198","img/question_1_5.jpeg","5","spm_respsonse","1","6","mat_05","","","","","","1","4034.2999999970198","","","","","","","","","","","","","","",""
"","","","","","html-keyboard-response","191","362189","0.0-3.0-2.0-0.5","5ce49f37dd4e16001771cd1f","A3","batch1","","null","<p class=block-text>Trial 6 out of 60</p>","null","spm_show_trial_num","","","","","","","","","","","","","","","","","","","","","","","","",""
"","","","","","image-button-response","192","365459","0.0-3.0-2.0-1.5","5ce49f37dd4e16001771cd1f","A3","batch1","","3268.5","img/question_1_6.jpeg","2","spm_respsonse","1","3","mat_06","","","","","","1","3268.5","","","","","","","","","","","","","","",""
"","","","","","html-keyboard-response","193","366524","0.0-3.0-2.0-0.6","5ce49f37dd4e16001771cd1f","A3","batch1","","null","<p class=block-text>Trial 7 out of 60</p>","null","spm_show_trial_num","","","","","","","","","","","","","","","","","","","","","","","","",""
"","","","","","image-button-response","194","370294","0.0-3.0-2.0-1.6","5ce49f37dd4e16001771cd1f","A3","batch1","","3768.300000011921","img/question_1_7.jpeg","5","spm_respsonse","1","6","mat_07","","","","","","1","3768.300000011921","","","","","","","","","","","","","","",""
"","","","","","html-keyboard-response","195","371346","0.0-3.0-2.0-0.7","5ce49f37dd4e16001771cd1f","A3","batch1","","null","<p class=block-text>Trial 8 out of 60</p>","null","spm_show_trial_num","","","","","","","","","","","","","","","","","","","","","","","","",""
"","","","","","image-button-response","196","375048","0.0-3.0-2.0-1.7","5ce49f37dd4e16001771cd1f","A3","batch1","","3700.5","img/question_1_8.jpeg","1","spm_respsonse","1","2","mat_08","","","","","","1","3700.5","","","","","","","","","","","","","","",""
"","","","","","html-keyboard-response","197","376110","0.0-3.0-2.0-0.8","5ce49f37dd4e16001771cd1f","A3","batch1","","null","<p class=block-text>Trial 9 out of 60</p>","null","spm_show_trial_num","","","","","","","","","","","","","","","","","","","","","","","","",""
"","","","","","image-button-response","198","378434","0.0-3.0-2.0-1.8","5ce49f37dd4e16001771cd1f","A3","batch1","","2323.1000000089407","img/question_1_9.jpeg","0","spm_respsonse","1","1","mat_09","","","","","","1","2323.1000000089407","","","","","","","","","","","","","","",""
"","","","","","html-keyboard-response","199","379488","0.0-3.0-2.0-0.9","5ce49f37dd4e16001771cd1f","A3","batch1","","null","<p class=block-text>Trial 10 out of 60</p>","null","spm_show_trial_num","","","","","","","","","","","","","","","","","","","","","","","","",""
"","","","","","image-button-response","200","383980","0.0-3.0-2.0-1.9","5ce49f37dd4e16001771cd1f","A3","batch1","","4491.29999999702","img/question_1_10.jpeg","2","spm_respsonse","1","3","mat_10","","","","","","1","4491.29999999702","","","","","","","","","","","","","","",""
"","","","","","html-keyboard-response","201","385039","0.0-3.0-2.0-0.10","5ce49f37dd4e16001771cd1f","A3","batch1","","null","<p class=block-text>Trial 11 out of 60</p>","null","spm_show_trial_num","","","","","","","","","","","","","","","","","","","","","","","","",""
"","","","","","image-button-response","202","391922","0.0-3.0-2.0-1.10","5ce49f37dd4e16001771cd1f","A3","batch1","","6881.4000000059605","img/question_1_11.jpeg","3","spm_respsonse","1","4","mat_11","","","","","","1","6881.4000000059605","","","","","","","","","","","","","","",""
"","","","","","html-keyboard-response","203","392980","0.0-3.0-2.0-0.11","5ce49f37dd4e16001771cd1f","A3","batch1","","null","<p class=block-text>Trial 12 out of 60</p>","null","spm_show_trial_num","","","","","","","","","","","","","","","","","","","","","","","","",""
"","","","","","image-button-response","204","400604","0.0-3.0-2.0-1.11","5ce49f37dd4e16001771cd1f","A3","batch1","","7622.800000011921","img/question_1_12.jpeg","0","spm_respsonse","0","5","mat_12","","","","","","0","7622.800000011921","","","","","","","","","","","","","","",""
"","","","","","html-keyboard-response","205","401661","0.0-3.0-2.0-0.12","5ce49f37dd4e16001771cd1f","A3","batch1","","null","<p class=block-text>Trial 13 out of 60</p>","null","spm_show_trial_num","","","","","","","","","","","","","","","","","","","","","","","","",""
"","","","","","image-button-response","206","404756","0.0-3.0-2.0-1.12","5ce49f37dd4e16001771cd1f","A3","batch1","","3093.1000000089407","img/question_2_1.jpeg","1","spm_respsonse","1","2","mat_13","","","","","","1","3093.1000000089407","","","","","","","","","","","","","","",""
"","","","","","html-keyboard-response","207","405824","0.0-3.0-2.0-0.13","5ce49f37dd4e16001771cd1f","A3","batch1","","null","<p class=block-text>Trial 14 out of 60</p>","null","spm_show_trial_num","","","","","","","","","","","","","","","","","","","","","","","","",""
"","","","","","image-button-response","208","411406","0.0-3.0-2.0-1.13","5ce49f37dd4e16001771cd1f","A3","batch1","","5581","img/question_2_2.jpeg","5","spm_respsonse","1","6","mat_14","","","","","","1","5581","","","","","","","","","","","","","","",""
"","","","","","html-keyboard-response","209","412470","0.0-3.0-2.0-0.14","5ce49f37dd4e16001771cd1f","A3","batch1","","null","<p class=block-text>Trial 15 out of 60</p>","null","spm_show_trial_num","","","","","","","","","","","","","","","","","","","","","","","","",""
"","","","","","image-button-response","210","415430","0.0-3.0-2.0-1.14","5ce49f37dd4e16001771cd1f","A3","batch1","","2958.300000011921","img/question_2_3.jpeg","0","spm_respsonse","1","1","mat_15","","","","","","1","2958.300000011921","","","","","","","","","","","","","","",""
"","","","","","html-keyboard-response","211","416485","0.0-3.0-2.0-0.15","5ce49f37dd4e16001771cd1f","A3","batch1","","null","<p class=block-text>Trial 16 out of 60</p>","null","spm_show_trial_num","","","","","","","","","","","","","","","","","","","","","","","","",""
"","","","","","image-button-response","212","419337","0.0-3.0-2.0-1.15","5ce49f37dd4e16001771cd1f","A3","batch1","","2851.4000000059605","img/question_2_4.jpeg","1","spm_respsonse","1","2","mat_16","","","","","","1","2851.4000000059605","","","","","","","","","","","","","","",""
"","","","","","html-keyboard-response","213","420389","0.0-3.0-2.0-0.16","5ce49f37dd4e16001771cd1f","A3","batch1","","null","<p class=block-text>Trial 17 out of 60</p>","null","spm_show_trial_num","","","","","","","","","","","","","","","","","","","","","","","","",""
"","","","","","image-button-response","214","423472","0.0-3.0-2.0-1.16","5ce49f37dd4e16001771cd1f","A3","batch1","","3080.9000000059605","img/question_2_5.jpeg","0","spm_respsonse","1","1","mat_17","","","","","","1","3080.9000000059605","","","","","","","","","","","","","","",""
"","","","","","html-keyboard-response","215","424541","0.0-3.0-2.0-0.17","5ce49f37dd4e16001771cd1f","A3","batch1","","null","<p class=block-text>Trial 18 out of 60</p>","null","spm_show_trial_num","","","","","","","","","","","","","","","","","","","","","","","","",""
"","","","","","image-button-response","216","430196","0.0-3.0-2.0-1.17","5ce49f37dd4e16001771cd1f","A3","batch1","","5652","img/question_2_6.jpeg","2","spm_respsonse","1","3","mat_18","","","","","","1","5652","","","","","","","","","","","","","","",""
"","","","","","html-keyboard-response","217","431255","0.0-3.0-2.0-0.18","5ce49f37dd4e16001771cd1f","A3","batch1","","null","<p class=block-text>Trial 19 out of 60</p>","null","spm_show_trial_num","","","","","","","","","","","","","","","","","","","","","","","","",""
"","","","","","image-button-response","218","435920","0.0-3.0-2.0-1.18","5ce49f37dd4e16001771cd1f","A3","batch1","","4662.699999988079","img/question_2_7.jpeg","4","spm_respsonse","1","5","mat_19","","","","","","1","4662.699999988079","","","","","","","","","","","","","","",""
"","","","","","html-keyboard-response","219","436974","0.0-3.0-2.0-0.19","5ce49f37dd4e16001771cd1f","A3","batch1","","null","<p class=block-text>Trial 20 out of 60</p>","null","spm_show_trial_num","","","","","","","","","","","","","","","","","","","","","","","","",""
"","","","","","image-button-response","220","441153","0.0-3.0-2.0-1.19","5ce49f37dd4e16001771cd1f","A3","batch1","","4177","img/question_2_8.jpeg","3","spm_respsonse","0","6","mat_20","","","","","","0","4177","","","","","","","","","","","","","","",""
"","","","","","html-keyboard-response","221","442211","0.0-3.0-2.0-0.20","5ce49f37dd4e16001771cd1f","A3","batch1","","null","<p class=block-text>Trial 21 out of 60</p>","null","spm_show_trial_num","","","","","","","","","","","","","","","","","","","","","","","","",""
"","","","","","image-button-response","222","445099","0.0-3.0-2.0-1.20","5ce49f37dd4e16001771cd1f","A3","batch1","","2885.7999999970198","img/question_2_9.jpeg","0","spm_respsonse","0","4","mat_21","","","","","","0","2885.7999999970198","","","","","","","","","","","","","","",""
"","","","","","html-keyboard-response","223","446168","0.0-3.0-2.0-0.21","5ce49f37dd4e16001771cd1f","A3","batch1","","null","<p class=block-text>Trial 22 out of 60</p>","null","spm_show_trial_num","","","","","","","","","","","","","","","","","","","","","","","","",""
"","","","","","image-button-response","224","451235","0.0-3.0-2.0-1.21","5ce49f37dd4e16001771cd1f","A3","batch1","","5065.79999999702","img/question_2_10.jpeg","2","spm_respsonse","1","3","mat_22","","","","","","1","5065.79999999702","","","","","","","","","","","","","","",""
"","","","","","html-keyboard-response","225","452292","0.0-3.0-2.0-0.22","5ce49f37dd4e16001771cd1f","A3","batch1","","null","<p class=block-text>Trial 23 out of 60</p>","null","spm_show_trial_num","","","","","","","","","","","","","","","","","","","","","","","","",""
"","","","","","image-button-response","226","456601","0.0-3.0-2.0-1.22","5ce49f37dd4e16001771cd1f","A3","batch1","","4307.5","img/question_2_11.jpeg","3","spm_respsonse","1","4","mat_23","","","","","","1","4307.5","","","","","","","","","","","","","","",""
"","","","","","html-keyboard-response","227","457668","0.0-3.0-2.0-0.23","5ce49f37dd4e16001771cd1f","A3","batch1","","null","<p class=block-text>Trial 24 out of 60</p>","null","spm_show_trial_num","","","","","","","","","","","","","","","","","","","","","","","","",""
"","","","","","image-button-response","228","468862","0.0-3.0-2.0-1.23","5ce49f37dd4e16001771cd1f","A3","batch1","","11190.79999999702","img/question_2_12.jpeg","4","spm_respsonse","1","5","mat_24","","","","","","1","11190.79999999702","","","","","","","","","","","","","","",""
"","","","","","html-button-response","229","470745","0.0-3.0-3.0","5ce49f37dd4e16001771cd1f","A3","batch1","","1632","<p class = block-text>Attention check: Please choose 1<br></p>","0","attention_check","true","","","","","","","","","","","","","","","","","","","","","","","",""
"","","","","","html-keyboard-response","230","471547","0.0-3.0-4.0-0.0","5ce49f37dd4e16001771cd1f","A3","batch1","","null","<p class=block-text>Trial 25 out of 60</p>","null","spm_show_trial_num","","","","","","","","","","","","","","","","","","","","","","","","",""
"","","","","","image-button-response","231","478595","0.0-3.0-4.0-1.0","5ce49f37dd4e16001771cd1f","A3","batch1","","7045.5999999940395","img/question_3_1.jpeg","7","spm_respsonse","1","8","mat_25","","","","","","1","7045.5999999940395","","","","","","","","","","","","","","",""
"","","","","","html-keyboard-response","232","479660","0.0-3.0-4.0-0.1","5ce49f37dd4e16001771cd1f","A3","batch1","","null","<p class=block-text>Trial 26 out of 60</p>","null","spm_show_trial_num","","","","","","","","","","","","","","","","","","","","","","","","",""
"","","","","","image-button-response","233","484264","0.0-3.0-4.0-1.1","5ce49f37dd4e16001771cd1f","A3","batch1","","4602.0999999940395","img/question_3_2.jpeg","1","spm_respsonse","1","2","mat_26","","","","","","1","4602.0999999940395","","","","","","","","","","","","","","",""
"","","","","","html-keyboard-response","234","485322","0.0-3.0-4.0-0.2","5ce49f37dd4e16001771cd1f","A3","batch1","","null","<p class=block-text>Trial 27 out of 60</p>","null","spm_show_trial_num","","","","","","","","","","","","","","","","","","","","","","","","",""
"","","","","","image-button-response","235","490752","0.0-3.0-4.0-1.2","5ce49f37dd4e16001771cd1f","A3","batch1","","5427.9000000059605","img/question_3_3.jpeg","2","spm_respsonse","1","3","mat_27","","","","","","1","5427.9000000059605","","","","","","","","","","","","","","",""
"","","","","","html-keyboard-response","236","491814","0.0-3.0-4.0-0.3","5ce49f37dd4e16001771cd1f","A3","batch1","","null","<p class=block-text>Trial 28 out of 60</p>","null","spm_show_trial_num","","","","","","","","","","","","","","","","","","","","","","","","",""
"","","","","","image-button-response","237","503653","0.0-3.0-4.0-1.3","5ce49f37dd4e16001771cd1f","A3","batch1","","11837.40000000596","img/question_3_4.jpeg","7","spm_respsonse","1","8","mat_28","","","","","","1","11837.40000000596","","","","","","","","","","","","","","",""
"","","","","","html-keyboard-response","238","504709","0.0-3.0-4.0-0.4","5ce49f37dd4e16001771cd1f","A3","batch1","","null","<p class=block-text>Trial 29 out of 60</p>","null","spm_show_trial_num","","","","","","","","","","","","","","","","","","","","","","","","",""
"","","","","","image-button-response","239","507955","0.0-3.0-4.0-1.4","5ce49f37dd4e16001771cd1f","A3","batch1","","3245","img/question_3_5.jpeg","6","spm_respsonse","1","7","mat_29","","","","","","1","3245","","","","","","","","","","","","","","",""
"","","","","","html-keyboard-response","240","509018","0.0-3.0-4.0-0.5","5ce49f37dd4e16001771cd1f","A3","batch1","","null","<p class=block-text>Trial 30 out of 60</p>","null","spm_show_trial_num","","","","","","","","","","","","","","","","","","","","","","","","",""
"","","","","","image-button-response","241","514817","0.0-3.0-4.0-1.5","5ce49f37dd4e16001771cd1f","A3","batch1","","5797.4000000059605","img/question_3_6.jpeg","3","spm_respsonse","1","4","mat_30","","","","","","1","5797.4000000059605","","","","","","","","","","","","","","",""
"","","","","","html-keyboard-response","242","515883","0.0-3.0-4.0-0.6","5ce49f37dd4e16001771cd1f","A3","batch1","","null","<p class=block-text>Trial 31 out of 60</p>","null","spm_show_trial_num","","","","","","","","","","","","","","","","","","","","","","","","",""
"","","","","","image-button-response","243","520854","0.0-3.0-4.0-1.6","5ce49f37dd4e16001771cd1f","A3","batch1","","4969.5","img/question_3_7.jpeg","4","spm_respsonse","1","5","mat_31","","","","","","1","4969.5","","","","","","","","","","","","","","",""
"","","","","","html-keyboard-response","244","521920","0.0-3.0-4.0-0.7","5ce49f37dd4e16001771cd1f","A3","batch1","","null","<p class=block-text>Trial 32 out of 60</p>","null","spm_show_trial_num","","","","","","","","","","","","","","","","","","","","","","","","",""
"","","","","","image-button-response","245","539121","0.0-3.0-4.0-1.7","5ce49f37dd4e16001771cd1f","A3","batch1","","17197.80000001192","img/question_3_8.jpeg","0","spm_respsonse","1","1","mat_32","","","","","","1","17197.80000001192","","","","","","","","","","","","","","",""
"","","","","","html-keyboard-response","246","540185","0.0-3.0-4.0-0.8","5ce49f37dd4e16001771cd1f","A3","batch1","","null","<p class=block-text>Trial 33 out of 60</p>","null","spm_show_trial_num","","","","","","","","","","","","","","","","","","","","","","","","",""
"","","","","","image-button-response","247","546938","0.0-3.0-4.0-1.8","5ce49f37dd4e16001771cd1f","A3","batch1","","6751.199999988079","img/question_3_9.jpeg","6","spm_respsonse","1","7","mat_33","","","","","","1","6751.199999988079","","","","","","","","","","","","","","",""
"","","","","","html-keyboard-response","248","547991","0.0-3.0-4.0-0.9","5ce49f37dd4e16001771cd1f","A3","batch1","","null","<p class=block-text>Trial 34 out of 60</p>","null","spm_show_trial_num","","","","","","","","","","","","","","","","","","","","","","","","",""
"","","","","","image-button-response","249","557635","0.0-3.0-4.0-1.9","5ce49f37dd4e16001771cd1f","A3","batch1","","9642.59999999404","img/question_3_10.jpeg","7","spm_respsonse","0","6","mat_34","","","","","","0","9642.59999999404","","","","","","","","","","","","","","",""
"","","","","","html-keyboard-response","250","558700","0.0-3.0-4.0-0.10","5ce49f37dd4e16001771cd1f","A3","batch1","","null","<p class=block-text>Trial 35 out of 60</p>","null","spm_show_trial_num","","","","","","","","","","","","","","","","","","","","","","","","",""
"","","","","","image-button-response","251","571445","0.0-3.0-4.0-1.10","5ce49f37dd4e16001771cd1f","A3","batch1","","12743","img/question_3_11.jpeg","0","spm_respsonse","1","1","mat_35","","","","","","1","12743","","","","","","","","","","","","","","",""
"","","","","","html-keyboard-response","252","572512","0.0-3.0-4.0-0.11","5ce49f37dd4e16001771cd1f","A3","batch1","","null","<p class=block-text>Trial 36 out of 60</p>","null","spm_show_trial_num","","","","","","","","","","","","","","","","","","","","","","","","",""
"","","","","","image-button-response","253","597818","0.0-3.0-4.0-1.11","5ce49f37dd4e16001771cd1f","A3","batch1","","25302.59999999404","img/question_3_12.jpeg","4","spm_respsonse","0","2","mat_36","","","","","","0","25302.59999999404","","","","","","","","","","","","","","",""
"","","","","","html-keyboard-response","254","598877","0.0-3.0-4.0-0.12","5ce49f37dd4e16001771cd1f","A3","batch1","","null","<p class=block-text>Trial 37 out of 60</p>","null","spm_show_trial_num","","","","","","","","","","","","","","","","","","","","","","","","",""
"","","","","","image-button-response","255","602894","0.0-3.0-4.0-1.12","5ce49f37dd4e16001771cd1f","A3","batch1","","4015.2000000029802","img/question_4_1.jpeg","2","spm_respsonse","1","3","mat_37","","","","","","1","4015.2000000029802","","","","","","","","","","","","","","",""
"","","","","","html-keyboard-response","256","603955","0.0-3.0-4.0-0.13","5ce49f37dd4e16001771cd1f","A3","batch1","","null","<p class=block-text>Trial 38 out of 60</p>","null","spm_show_trial_num","","","","","","","","","","","","","","","","","","","","","","","","",""
"","","","","","image-button-response","257","609428","0.0-3.0-4.0-1.13","5ce49f37dd4e16001771cd1f","A3","batch1","","5471.699999988079","img/question_4_2.jpeg","3","spm_respsonse","1","4","mat_38","","","","","","1","5471.699999988079","","","","","","","","","","","","","","",""
"","","","","","html-keyboard-response","258","610492","0.0-3.0-4.0-0.14","5ce49f37dd4e16001771cd1f","A3","batch1","","null","<p class=block-text>Trial 39 out of 60</p>","null","spm_show_trial_num","","","","","","","","","","","","","","","","","","","","","","","","",""
"","","","","","image-button-response","259","613738","0.0-3.0-4.0-1.14","5ce49f37dd4e16001771cd1f","A3","batch1","","3244","img/question_4_3.jpeg","3","spm_respsonse","0","3","mat_39","","","","","","0","3244","","","","","","","","","","","","","","",""
"","","","","","html-keyboard-response","260","614790","0.0-3.0-4.0-0.15","5ce49f37dd4e16001771cd1f","A3","batch1","","null","<p class=block-text>Trial 40 out of 60</p>","null","spm_show_trial_num","","","","","","","","","","","","","","","","","","","","","","","","",""
"","","","","","image-button-response","261","625751","0.0-3.0-4.0-1.15","5ce49f37dd4e16001771cd1f","A3","batch1","","10959.90000000596","img/question_4_4.jpeg","6","spm_respsonse","1","7","mat_40","","","","","","1","10959.90000000596","","","","","","","","","","","","","","",""
"","","","","","html-keyboard-response","262","626818","0.0-3.0-4.0-0.16","5ce49f37dd4e16001771cd1f","A3","batch1","","null","<p class=block-text>Trial 41 out of 60</p>","null","spm_show_trial_num","","","","","","","","","","","","","","","","","","","","","","","","",""
"","","","","","image-button-response","263","632087","0.0-3.0-4.0-1.16","5ce49f37dd4e16001771cd1f","A3","batch1","","5267.5","img/question_4_5.jpeg","7","spm_respsonse","1","8","mat_41","","","","","","1","5267.5","","","","","","","","","","","","","","",""
"","","","","","html-keyboard-response","264","633139","0.0-3.0-4.0-0.17","5ce49f37dd4e16001771cd1f","A3","batch1","","null","<p class=block-text>Trial 42 out of 60</p>","null","spm_show_trial_num","","","","","","","","","","","","","","","","","","","","","","","","",""
"","","","","","image-button-response","265","644812","0.0-3.0-4.0-1.17","5ce49f37dd4e16001771cd1f","A3","batch1","","11671.20000000298","img/question_4_6.jpeg","5","spm_respsonse","1","6","mat_42","","","","","","1","11671.20000000298","","","","","","","","","","","","","","",""
"","","","","","html-keyboard-response","266","645875","0.0-3.0-4.0-0.18","5ce49f37dd4e16001771cd1f","A3","batch1","","null","<p class=block-text>Trial 43 out of 60</p>","null","spm_show_trial_num","","","","","","","","","","","","","","","","","","","","","","","","",""
"","","","","","image-button-response","267","659346","0.0-3.0-4.0-1.18","5ce49f37dd4e16001771cd1f","A3","batch1","","13467.90000000596","img/question_4_7.jpeg","4","spm_respsonse","1","5","mat_43","","","","","","1","13467.90000000596","","","","","","","","","","","","","","",""
"","","","","","html-keyboard-response","268","660398","0.0-3.0-4.0-0.19","5ce49f37dd4e16001771cd1f","A3","batch1","","null","<p class=block-text>Trial 44 out of 60</p>","null","spm_show_trial_num","","","","","","","","","","","","","","","","","","","","","","","","",""
"","","","","","image-button-response","269","675416","0.0-3.0-4.0-1.19","5ce49f37dd4e16001771cd1f","A3","batch1","","15016.199999988079","img/question_4_8.jpeg","3","spm_respsonse","1","4","mat_44","","","","","","1","15016.199999988079","","","","","","","","","","","","","","",""
"","","","","","html-keyboard-response","270","676473","0.0-3.0-4.0-0.20","5ce49f37dd4e16001771cd1f","A3","batch1","","null","<p class=block-text>Trial 45 out of 60</p>","null","spm_show_trial_num","","","","","","","","","","","","","","","","","","","","","","","","",""
"","","","","","image-button-response","271","688155","0.0-3.0-4.0-1.20","5ce49f37dd4e16001771cd1f","A3","batch1","","11680.09999999404","img/question_4_9.jpeg","0","spm_respsonse","1","1","mat_45","","","","","","1","11680.09999999404","","","","","","","","","","","","","","",""
"","","","","","html-keyboard-response","272","689210","0.0-3.0-4.0-0.21","5ce49f37dd4e16001771cd1f","A3","batch1","","null","<p class=block-text>Trial 46 out of 60</p>","null","spm_show_trial_num","","","","","","","","","","","","","","","","","","","","","","","","",""
"","","","","","image-button-response","273","696928","0.0-3.0-4.0-1.21","5ce49f37dd4e16001771cd1f","A3","batch1","","7716.4000000059605","img/question_4_10.jpeg","1","spm_respsonse","1","2","mat_46","","","","","","1","7716.4000000059605","","","","","","","","","","","","","","",""
"","","","","","html-keyboard-response","274","697980","0.0-3.0-4.0-0.22","5ce49f37dd4e16001771cd1f","A3","batch1","","null","<p class=block-text>Trial 47 out of 60</p>","null","spm_show_trial_num","","","","","","","","","","","","","","","","","","","","","","","","",""
"","","","","","image-button-response","275","720724","0.0-3.0-4.0-1.22","5ce49f37dd4e16001771cd1f","A3","batch1","","22741.5","img/question_4_11.jpeg","2","spm_respsonse","0","5","mat_47","","","","","","0","22741.5","","","","","","","","","","","","","","",""
"","","","","","html-keyboard-response","276","721789","0.0-3.0-4.0-0.23","5ce49f37dd4e16001771cd1f","A3","batch1","","null","<p class=block-text>Trial 48 out of 60</p>","null","spm_show_trial_num","","","","","","","","","","","","","","","","","","","","","","","","",""
"","","","","","image-button-response","277","740437","0.0-3.0-4.0-1.23","5ce49f37dd4e16001771cd1f","A3","batch1","","18647","img/question_4_12.jpeg","5","spm_respsonse","1","6","mat_48","","","","","","1","18647","","","","","","","","","","","","","","",""
"","","","","","html-keyboard-response","278","741491","0.0-3.0-4.0-0.24","5ce49f37dd4e16001771cd1f","A3","batch1","","null","<p class=block-text>Trial 49 out of 60</p>","null","spm_show_trial_num","","","","","","","","","","","","","","","","","","","","","","","","",""
"","","","","","image-button-response","279","750078","0.0-3.0-4.0-1.24","5ce49f37dd4e16001771cd1f","A3","batch1","","8586.20000000298","img/question_5_1.jpeg","6","spm_respsonse","1","7","mat_49","","","","","","1","8586.20000000298","","","","","","","","","","","","","","",""
"","","","","","html-keyboard-response","280","751138","0.0-3.0-4.0-0.25","5ce49f37dd4e16001771cd1f","A3","batch1","","null","<p class=block-text>Trial 50 out of 60</p>","null","spm_show_trial_num","","","","","","","","","","","","","","","","","","","","","","","","",""
"","","","","","image-button-response","281","767276","0.0-3.0-4.0-1.25","5ce49f37dd4e16001771cd1f","A3","batch1","","16136.70000000298","img/question_5_2.jpeg","5","spm_respsonse","1","6","mat_50","","","","","","1","16136.70000000298","","","","","","","","","","","","","","",""
"","","","","","html-keyboard-response","282","768339","0.0-3.0-4.0-0.26","5ce49f37dd4e16001771cd1f","A3","batch1","","null","<p class=block-text>Trial 51 out of 60</p>","null","spm_show_trial_num","","","","","","","","","","","","","","","","","","","","","","","","",""
"","","","","","image-button-response","283","777500","0.0-3.0-4.0-1.26","5ce49f37dd4e16001771cd1f","A3","batch1","","9159.199999988079","img/question_5_3.jpeg","7","spm_respsonse","1","8","mat_51","","","","","","1","9159.199999988079","","","","","","","","","","","","","","",""
"","","","","","html-keyboard-response","284","778553","0.0-3.0-4.0-0.27","5ce49f37dd4e16001771cd1f","A3","batch1","","null","<p class=block-text>Trial 52 out of 60</p>","null","spm_show_trial_num","","","","","","","","","","","","","","","","","","","","","","","","",""
"","","","","","image-button-response","285","800045","0.0-3.0-4.0-1.27","5ce49f37dd4e16001771cd1f","A3","batch1","","21490.40000000596","img/question_5_4.jpeg","7","spm_respsonse","0","2","mat_52","","","","","","0","21490.40000000596","","","","","","","","","","","","","","",""
"","","","","","html-keyboard-response","286","801098","0.0-3.0-4.0-0.28","5ce49f37dd4e16001771cd1f","A3","batch1","","null","<p class=block-text>Trial 53 out of 60</p>","null","spm_show_trial_num","","","","","","","","","","","","","","","","","","","","","","","","",""
"","","","","","image-button-response","287","824779","0.0-3.0-4.0-1.28","5ce49f37dd4e16001771cd1f","A3","batch1","","23679","img/question_5_5.jpeg","0","spm_respsonse","1","1","mat_53","","","","","","1","23679","","","","","","","","","","","","","","",""
"","","","","","html-keyboard-response","288","825833","0.0-3.0-4.0-0.29","5ce49f37dd4e16001771cd1f","A3","batch1","","null","<p class=block-text>Trial 54 out of 60</p>","null","spm_show_trial_num","","","","","","","","","","","","","","","","","","","","","","","","",""
"","","","","","image-button-response","289","843438","0.0-3.0-4.0-1.29","5ce49f37dd4e16001771cd1f","A3","batch1","","17602.5","img/question_5_6.jpeg","4","spm_respsonse","1","5","mat_54","","","","","","1","17602.5","","","","","","","","","","","","","","",""
"","","","","","html-keyboard-response","290","844503","0.0-3.0-4.0-0.30","5ce49f37dd4e16001771cd1f","A3","batch1","","null","<p class=block-text>Trial 55 out of 60</p>","null","spm_show_trial_num","","","","","","","","","","","","","","","","","","","","","","","","",""
"","","","","","image-button-response","291","857044","0.0-3.0-4.0-1.30","5ce49f37dd4e16001771cd1f","A3","batch1","","12539.40000000596","img/question_5_7.jpeg","4","spm_respsonse","0","1","mat_55","","","","","","0","12539.40000000596","","","","","","","","","","","","","","",""
"","","","","","html-keyboard-response","292","858109","0.0-3.0-4.0-0.31","5ce49f37dd4e16001771cd1f","A3","batch1","","null","<p class=block-text>Trial 56 out of 60</p>","null","spm_show_trial_num","","","","","","","","","","","","","","","","","","","","","","","","",""
"","","","","","image-button-response","293","879492","0.0-3.0-4.0-1.31","5ce49f37dd4e16001771cd1f","A3","batch1","","21381.10000000894","img/question_5_8.jpeg","6","spm_respsonse","0","6","mat_56","","","","","","0","21381.10000000894","","","","","","","","","","","","","","",""
"","","","","","html-keyboard-response","294","880545","0.0-3.0-4.0-0.32","5ce49f37dd4e16001771cd1f","A3","batch1","","null","<p class=block-text>Trial 57 out of 60</p>","null","spm_show_trial_num","","","","","","","","","","","","","","","","","","","","","","","","",""
"","","","","","image-button-response","295","911972","0.0-3.0-4.0-1.32","5ce49f37dd4e16001771cd1f","A3","batch1","","31424.70000000298","img/question_5_9.jpeg","1","spm_respsonse","0","3","mat_57","","","","","","0","31424.70000000298","","","","","","","","","","","","","","",""
"","","","","","html-keyboard-response","296","913032","0.0-3.0-4.0-0.33","5ce49f37dd4e16001771cd1f","A3","batch1","","null","<p class=block-text>Trial 58 out of 60</p>","null","spm_show_trial_num","","","","","","","","","","","","","","","","","","","","","","","","",""
"","","","","","image-button-response","297","934583","0.0-3.0-4.0-1.33","5ce49f37dd4e16001771cd1f","A3","batch1","","21548.79999999702","img/question_5_10.jpeg","6","spm_respsonse","0","2","mat_58","","","","","","0","21548.79999999702","","","","","","","","","","","","","","",""
"","","","","","html-keyboard-response","298","935635","0.0-3.0-4.0-0.34","5ce49f37dd4e16001771cd1f","A3","batch1","","null","<p class=block-text>Trial 59 out of 60</p>","null","spm_show_trial_num","","","","","","","","","","","","","","","","","","","","","","","","",""
"","","","","","image-button-response","299","958269","0.0-3.0-4.0-1.34","5ce49f37dd4e16001771cd1f","A3","batch1","","22631.90000000596","img/question_5_11.jpeg","2","spm_respsonse","0","4","mat_59","","","","","","0","22631.90000000596","","","","","","","","","","","","","","",""
"","","","","","html-keyboard-response","300","959327","0.0-3.0-4.0-0.35","5ce49f37dd4e16001771cd1f","A3","batch1","","null","<p class=block-text>Trial 60 out of 60</p>","null","spm_show_trial_num","","","","","","","","","","","","","","","","","","","","","","","","",""
"","","","","","image-button-response","301","979621","0.0-3.0-4.0-1.35","5ce49f37dd4e16001771cd1f","A3","batch1","","20290.90000000596","img/question_5_12.jpeg","1","spm_respsonse","0","5","mat_60","","","","","","0","20290.90000000596","","","","","","","","","","","","","","",""
"","","","","","html-button-response","302","982049","0.0-3.0-5.0","5ce49f37dd4e16001771cd1f","A3","batch1","","2176.5","<p class= block-text>This concludes the Standard Progressive Matrix game. Thank you for your responses!<br> When you are ready, click the button continue</p>","0","spm_goodbye","","","","","","","","","","","","","","","","","","","","","","","","",""
"true","","","","","fullscreen","303","984195","0.0-4.0-0.0","5ce49f37dd4e16001771cd1f","A3","batch1","","","","","","","","","","","","","","","","","","","","","","","","","","","","","",""
"","","","","","instructions","304","1022735","0.0-4.0-1.0-0.0-0.0","5ce49f37dd4e16001771cd1f","A3","batch1","[{""page_index"":0,""viewing_time"":8457.5},{""page_index"":1,""viewing_time"":5278.0999999940395},{""page_index"":0,""viewing_time"":2071.300000011921},{""page_index"":1,""viewing_time"":614.2999999970198},{""page_index"":2,""viewing_time"":2327.3999999910593},{""page_index"":3,""viewing_time"":6119.5},{""page_index"":4,""viewing_time"":6023.4000000059605},{""page_index"":5,""viewing_time"":6640},{""page_index"":6,""viewing_time"":1007.0999999940395}]","38538.90000000596","","","tol-instructions","","","","","","","","","","","","","","","","","","","","","","","","",""
"","","","","","html-button-response","305","1023412","0.0-4.0-1.0-1.0-0.0","5ce49f37dd4e16001771cd1f","A3","batch1","","675.2000000029802","<p class=block-text> Let's answer a few questions <br>","0","tol_enter_quiz","","","","","","","","","","","","","","","","","","","","","","","","",""
"","","","","","html-button-response","306","1027851","0.0-4.0-1.0-1.0-1.0","5ce49f37dd4e16001771cd1f","A3","batch1","","4437.399999991059","<p class = block-text>True or False: You can only move the ball on top of a peg. <br></p>","0","tol_quiz","true","","","","","","","","","","","","","","","","","","","","","","","",""
"","","","","","html-button-response","307","1028826","0.0-4.0-1.0-1.0-2.0","5ce49f37dd4e16001771cd1f","A3","batch1","","974.5","<p class = block-text>Correct! You can only move the ball on top of a peg.</p>","0","tol_quiz_feedback","","","","","","","","","","","","","","","","","","","","","","","","",""
"","","","","","html-button-response","308","1030493","0.0-4.0-1.0-1.0-3.0","5ce49f37dd4e16001771cd1f","A3","batch1","","1665.6000000089407","<p class = block-text>True or False: You should try to match your board with the target board with fewest moves possible. <br></p>","0","tol_quiz","true","","","","","","","","","","","","","","","","","","","","","","","",""
"","","","","","html-button-response","309","1030932","0.0-4.0-1.0-1.0-4.0","5ce49f37dd4e16001771cd1f","A3","batch1","","438.29999999701977","<p class = block-text>Correct! </p>","0","tol_quiz_feedback","","","","","","","","","","","","","","","","","","","","","","","","",""
"","","","","","html-button-response","310","1031672","0.0-4.0-2.0","5ce49f37dd4e16001771cd1f","A3","batch1","","738.9000000059605","<p class=block-text> Now that you've understood the game, let's practice a few easier examples before we start!<br> <br>","0","","","","","","","","","","","","","","","","","","","","","","","","","",""
"","","","","","single-stim-button","311","1035094","0.0-4.0-3.0-0.0","5ce49f37dd4e16001771cd1f","A3","batch1","","3420","","","tol_practice","","","","","","","","","","","tol_peg_2","3420","3420","0","[[1,2,0],[0,0],[0]]","1","[[1,2,0],[0,0],[3]]","practice","3420","","","","","",""
"","","","","","single-stim-button","312","1035437","0.0-4.0-3.0-1.0","5ce49f37dd4e16001771cd1f","A3","batch1","","342","","","tol_practice","","","","","","","","","","","tol_peg_3","342","342","0","[[1,2,0],[0,0],[3]]","1","[[1,2,0],[0,0],[3]]","practice","342","","","","","",""
"","","","","","poldrack-single-stim","313","1036447","0.0-4.0-4.0","5ce49f37dd4e16001771cd1f","A3","batch1","","-1","","","tol_feedback","true","","","","","","","","","","","1000","1000","500","","","","","","-1","none","true","","0",""
"","","","","","single-stim-button","314","1038529","0.0-4.0-5.0-0.0","5ce49f37dd4e16001771cd1f","A3","batch1","","2081","","","tol_practice","","","","","","","","","","","tol_peg_1","2081","2081","0","[[1,0,0],[3,0],[0]]","2","[[0,0,0],[3,1],[2]]","practice","2081","","","","","",""
"","","","","","single-stim-button","315","1039015","0.0-4.0-5.0-1.0","5ce49f37dd4e16001771cd1f","A3","batch1","","484","","","tol_practice","","","","","","","","","","","tol_peg_3","484","484","0","[[1,0,0],[3,0],[2]]","2","[[0,0,0],[3,1],[2]]","practice","484","","","","","",""
"","","","","","single-stim-button","316","1039406","0.0-4.0-5.1-0.1","5ce49f37dd4e16001771cd1f","A3","batch1","","391","","","tol_practice","","","","","","","","","","","tol_peg_1","391","391","0","[[0,0,0],[3,0],[2]]","3","[[0,0,0],[3,1],[2]]","practice","391","","","","","",""
"","","","","","single-stim-button","317","1039849","0.0-4.0-5.1-1.1","5ce49f37dd4e16001771cd1f","A3","batch1","","443","","","tol_practice","","","","","","","","","","","tol_peg_2","443","443","0","[[0,0,0],[3,1],[2]]","3","[[0,0,0],[3,1],[2]]","practice","443","","","","","",""
"","","","","","poldrack-single-stim","318","1040865","0.0-4.0-6.0","5ce49f37dd4e16001771cd1f","A3","batch1","","-1","","","tol_feedback","true","","","","","","","","","","","1000","1000","500","","","","","","-1","none","true","","0",""
"","","","","","single-stim-button","319","1042472","0.0-4.0-7.0-0.0","5ce49f37dd4e16001771cd1f","A3","batch1","","1606","","","tol_practice","","","","","","","","","","","tol_peg_2","1606","1606","0","[[1,2,0],[0,0],[0]]","4","[[1,0,0],[2,0],[3]]","practice","1606","","","","","",""
"","","","","","single-stim-button","320","1042742","0.0-4.0-7.0-1.0","5ce49f37dd4e16001771cd1f","A3","batch1","","270","","","tol_practice","","","","","","","","","","","tol_peg_3","270","270","0","[[1,2,0],[0,0],[3]]","4","[[1,0,0],[2,0],[3]]","practice","270","","","","","",""
"","","","","","single-stim-button","321","1043244","0.0-4.0-7.1-0.1","5ce49f37dd4e16001771cd1f","A3","batch1","","500","","","tol_practice","","","","","","","","","","","tol_peg_1","500","500","0","[[1,0,0],[0,0],[3]]","5","[[1,0,0],[2,0],[3]]","practice","500","","","","","",""
"","","","","","single-stim-button","322","1043516","0.0-4.0-7.1-1.1","5ce49f37dd4e16001771cd1f","A3","batch1","","271","","","tol_practice","","","","","","","","","","","tol_peg_2","271","271","0","[[1,0,0],[2,0],[3]]","5","[[1,0,0],[2,0],[3]]","practice","271","","","","","",""
"","","","","","poldrack-single-stim","323","1044530","0.0-4.0-8.0","5ce49f37dd4e16001771cd1f","A3","batch1","","-1","","","tol_feedback","true","","","","","","","","","","","1000","1000","500","","","","","","-1","none","true","","0",""
"","","","","","html-button-response","324","1045422","0.0-4.0-9.0","5ce49f37dd4e16001771cd1f","A3","batch1","","890.6999999880791","<div class = centerbox><p class = center-block-text>Great job! You are done with practice trials<br>You are about to start official trials.<br> <br> Problem <strong>1</strong> out of 25 problems</p></div>","0","tol_instruction","","","","","","","","","","","","","","","","","","","","","","","","",""
"","","","","","single-stim-button","325","1048592","0.0-4.0-10.0-0.0","5ce49f37dd4e16001771cd1f","A3","batch1","","2169","","","tol_tohand","","","","","","","","","","","tol_peg_2","2169","2169","0","[[1,2,0],[0,0],[0]]","1","[[1,3,0],[2,0],[0]]","0","0","","","","","","3"
"","","","","","single-stim-button","326","1049076","0.0-4.0-10.0-1.0","5ce49f37dd4e16001771cd1f","A3","batch1","","482","","","tol_toboard","","","","","","","","","","","tol_peg_3","482","482","0","[[1,2,0],[0,0],[3]]","1","[[1,3,0],[2,0],[0]]","0","0","","","","","","3"
"","","","","","single-stim-button","327","1049625","0.0-4.0-10.1-0.1","5ce49f37dd4e16001771cd1f","A3","batch1","","549","","","tol_tohand","","","","","","","","","","","tol_peg_1","549","549","0","[[1,0,0],[0,0],[3]]","2","[[1,3,0],[2,0],[0]]","0","0","","","","","","3"
"","","","","","single-stim-button","328","1049920","0.0-4.0-10.1-1.1","5ce49f37dd4e16001771cd1f","A3","batch1","","294","","","tol_toboard","","","","","","","","","","","tol_peg_2","294","294","0","[[1,0,0],[2,0],[3]]","2","[[1,3,0],[2,0],[0]]","0","0","","","","","","3"
"","","","","","single-stim-button","329","1050247","0.0-4.0-10.2-0.2","5ce49f37dd4e16001771cd1f","A3","batch1","","325","","","tol_tohand","","","","","","","","","","","tol_peg_3","325","325","0","[[1,0,0],[2,0],[0]]","3","[[1,3,0],[2,0],[0]]","0","0","","","","","","3"
"","","","","","single-stim-button","330","1050592","0.0-4.0-10.2-1.2","5ce49f37dd4e16001771cd1f","A3","batch1","","344","","","tol_toboard","","","","","","","","","","","tol_peg_1","344","344","0","[[1,3,0],[2,0],[0]]","3","[[1,3,0],[2,0],[0]]","0","0","","","","","","3"
"","","","","","poldrack-single-stim","331","1051601","0.0-4.0-11.0","5ce49f37dd4e16001771cd1f","A3","batch1","","-1","","","tol_feedback","true","","","","","","","","","","","1000","1000","500","","","","","","-1","none","true","2169","3043",""
"","","","","","html-button-response","332","1052398","0.0-4.0-12.0","5ce49f37dd4e16001771cd1f","A3","batch1","","795.9000000059605","<div class = centerbox><p class = center-block-text>problem <strong>2</strong> out of 25 problems</p></div>","0","tol_trial_num","","","","","","","","","","","","","","","","","","","","","","","","",""
"","","","","","single-stim-button","333","1059680","0.0-4.0-13.0-0.0","5ce49f37dd4e16001771cd1f","A3","batch1","","7282","","","tol_tohand","","","","","","","","","","","tol_peg_2","7282","7282","0","[[1,2,0],[0,0],[0]]","1","[[2,1,3],[0,0],[0]]","1","0","","","","","","5"
"","","","","","single-stim-button","334","1060019","0.0-4.0-13.0-1.0","5ce49f37dd4e16001771cd1f","A3","batch1","","338","","","tol_toboard","","","","","","","","","","","tol_peg_3","338","338","0","[[1,2,0],[0,0],[3]]","1","[[2,1,3],[0,0],[0]]","1","0","","","","","","5"
"","","","","","single-stim-button","335","1060613","0.0-4.0-13.1-0.1","5ce49f37dd4e16001771cd1f","A3","batch1","","593","","","tol_tohand","","","","","","","","","","","tol_peg_1","593","593","0","[[1,0,0],[0,0],[3]]","2","[[2,1,3],[0,0],[0]]","1","0","","","","","","5"
"","","","","","single-stim-button","336","1060970","0.0-4.0-13.1-1.1","5ce49f37dd4e16001771cd1f","A3","batch1","","356","","","tol_toboard","","","","","","","","","","","tol_peg_2","356","356","0","[[1,0,0],[2,0],[3]]","2","[[2,1,3],[0,0],[0]]","1","0","","","","","","5"
"","","","","","single-stim-button","337","1061340","0.0-4.0-13.2-0.2","5ce49f37dd4e16001771cd1f","A3","batch1","","370","","","tol_tohand","","","","","","","","","","","tol_peg_1","370","370","0","[[0,0,0],[2,0],[3]]","3","[[2,1,3],[0,0],[0]]","1","0","","","","","","5"
"","","","","","single-stim-button","338","1061618","0.0-4.0-13.2-1.2","5ce49f37dd4e16001771cd1f","A3","batch1","","278","","","tol_toboard","","","","","","","","","","","tol_peg_2","278","278","0","[[0,0,0],[2,1],[3]]","3","[[2,1,3],[0,0],[0]]","1","0","","","","","","5"
"","","","","","single-stim-button","339","1061940","0.0-4.0-13.3-0.3","5ce49f37dd4e16001771cd1f","A3","batch1","","322","","","tol_tohand","","","","","","","","","","","tol_peg_3","322","322","0","[[0,0,0],[2,1],[0]]","4","[[2,1,3],[0,0],[0]]","1","0","","","","","","5"
"","","","","","single-stim-button","340","1063910","0.0-4.0-13.3-1.3","5ce49f37dd4e16001771cd1f","A3","batch1","","1969","","","tol_toboard","","","","","","","","","","","tol_peg_3","1969","1969","0","[[0,0,0],[2,1],[3]]","4","[[2,1,3],[0,0],[0]]","1","0","","","","","","5"
"","","","","","single-stim-button","341","1065731","0.0-4.0-13.4-0.4","5ce49f37dd4e16001771cd1f","A3","batch1","","1820","","","tol_tohand","","","","","","","","","","","tol_peg_2","1820","1820","0","[[0,0,0],[2,0],[3]]","5","[[2,1,3],[0,0],[0]]","1","0","","","","","","5"
"","","","","","single-stim-button","342","1066018","0.0-4.0-13.4-1.4","5ce49f37dd4e16001771cd1f","A3","batch1","","285","","","tol_toboard","","","","","","","","","","","tol_peg_2","285","285","0","[[0,0,0],[2,1],[3]]","5","[[2,1,3],[0,0],[0]]","1","0","","","","","","5"
"","","","","","single-stim-button","343","1066531","0.0-4.0-13.5-0.5","5ce49f37dd4e16001771cd1f","A3","batch1","","513","","","tol_tohand","","","","","","","","","","","tol_peg_2","513","513","0","[[0,0,0],[2,0],[3]]","6","[[2,1,3],[0,0],[0]]","1","0","","","","","","5"
"","","","","","single-stim-button","344","1067536","0.0-4.0-13.5-1.5","5ce49f37dd4e16001771cd1f","A3","batch1","","1005","","","tol_toboard","","","","","","","","","","","tol_peg_1","1005","1005","0","[[1,0,0],[2,0],[3]]","6","[[2,1,3],[0,0],[0]]","1","0","","","","","","5"
"","","","","","single-stim-button","345","1068198","0.0-4.0-13.6-0.6","5ce49f37dd4e16001771cd1f","A3","batch1","","661","","","tol_tohand","","","","","","","","","","","tol_peg_3","661","661","0","[[1,0,0],[2,0],[0]]","7","[[2,1,3],[0,0],[0]]","1","0","","","","","","5"
"","","","","","single-stim-button","346","1068606","0.0-4.0-13.6-1.6","5ce49f37dd4e16001771cd1f","A3","batch1","","407","","","tol_toboard","","","","","","","","","","","tol_peg_1","407","407","0","[[1,3,0],[2,0],[0]]","7","[[2,1,3],[0,0],[0]]","1","0","","","","","","5"
"","","","","","single-stim-button","347","1068993","0.0-4.0-13.7-0.7","5ce49f37dd4e16001771cd1f","A3","batch1","","387","","","tol_tohand","","","","","","","","","","","tol_peg_2","387","387","0","[[1,3,0],[0,0],[0]]","8","[[2,1,3],[0,0],[0]]","1","0","","","","","","5"
