"success","timeout","failed_images","failed_audio","failed_video","trial_type","trial_index","time_elapsed","internal_node_id","subject_id","study_id","session_id","view_history","rt","stimulus","response","task","correct","answer","item","fiar_detect_rt","fiar_detect_correct","total_correct_fiar_detect","post_trial_gap","choices","spm_correct","spm_rt","mouse_click","stim_duration","block_duration","timing_post_trial","current_position","tol_num_moves_made","tol_target","tol_problem_id","tol_rt","key_press","possible_responses","tol_correct","preplanning","tol_rt_per_trial","tol_min_moves"
"true","false","[]","[]","[]","preload","0","1951","0.0-0.0","5ce610802be975001b46f0ac","A3","batch1","","","","","","","","","","","","","","","","","","","","","","","","","","","","","",""
"true","","","","","fullscreen","1","9161","0.0-1.0-0.0","5ce610802be975001b46f0ac","A3","batch1","","","","","","","","","","","","","","","","","","","","","","","","","","","","","",""
"true","","","","","fullscreen","2","12033","0.0-2.0-0.0","5ce610802be975001b46f0ac","A3","batch1","","","","","","","","","","","","","","","","","","","","","","","","","","","","","",""
"","","","","","instructions","3","21033","0.0-2.0-1.0-0.0","5ce610802be975001b46f0ac","A3","batch1","[{""page_index"":0,""viewing_time"":6687},{""page_index"":1,""viewing_time"":2311.699999809265}]","8999.10000038147","","","","","","","","","","","","","","","","","","","","","","","","","","","",""
"","","","","","html-button-response","4","21761","0.0-2.0-1.0-1.0-0.0","5ce610802be975001b46f0ac","A3","batch1","","727.1999998092651","<p class=block-text> Let's answer a few questions <br>","0","pattern_enter_quiz","","","","","","","","","","","","","","","","","","","","","","","","",""
"","","","","","html-button-response","5","23217","0.0-2.0-1.0-1.0-1.0","5ce610802be975001b46f0ac","A3","batch1","","1454.9000005722046","<p class = block-text>True or False: You will have as much time as you want to make each choice. <br></p>","1","pattern_quiz","true","","","","","","","","","","","","","","","","","","","","","","","",""
"","","","","","html-button-response","6","23793","0.0-2.0-1.0-1.0-2.0","5ce610802be975001b46f0ac","A3","batch1","","575","<p class = block-text>Correct! You should make your choice <strong> as fast as you can</strong>.</p>","0","pattern_quiz_feedback","","","","","","","","","","","","","","","","","","","","","","","","",""
"","","","","","html-button-response","7","25569","0.0-2.0-1.0-1.0-3.0","5ce610802be975001b46f0ac","A3","batch1","","1775","<p class = block-text>True or False: You will look for 4 pieces in black or white color connected in a row either horizontally, vertically or diagonally. <br></p>","0","pattern_quiz","true","","","","","","","","","","","","","","","","","","","","","","","",""
"","","","","","html-button-response","8","25977","0.0-2.0-1.0-1.0-4.0","5ce610802be975001b46f0ac","A3","batch1","","407.1000003814697","<p class = block-text>Correct! </p>","0","pattern_quiz_feedback","","","","","","","","","","","","","","","","","","","","","","","","",""
"","","","","","html-button-response","9","26665","0.0-2.0-2.0","5ce610802be975001b46f0ac","A3","batch1","","687.1999998092651","<p class=block-text> Now that you've understood the game, let's do a few practice trials before we start!<br> <br>","0","pattern_enter_practice","","","","","","","","","","","","","","","","","","","","","","","","",""
"","","","","","image-keyboard-response","10","28707","0.0-2.0-3.0-0.0","5ce610802be975001b46f0ac","A3","batch1","","2040.4000005722046","stim/prac_no_18_1.png","j","pattern_practice","true","j","","","","","","","","","","","","","","","","","","","","","","",""
"","","","","","html-keyboard-response","11","29719","0.0-2.0-3.0-1.0","5ce610802be975001b46f0ac","A3","batch1","","null","<p style=""font-size:30px;color:green;"">Correct!</p>","null","pattern_feedback","","","","","","","","","","","","","","","","","","","","","","","","",""
"","","","","","image-keyboard-response","12","30522","0.0-2.0-3.0-0.1","5ce610802be975001b46f0ac","A3","batch1","","802.6999998092651","stim/prac_yes_16_ver_w1.png","f","pattern_practice","true","f","","","","","","","","","","","","","","","","","","","","","","",""
"","","","","","html-keyboard-response","13","31537","0.0-2.0-3.0-1.1","5ce610802be975001b46f0ac","A3","batch1","","null","<p style=""font-size:30px;color:green;"">Correct!</p>","null","pattern_feedback","","","","","","","","","","","","","","","","","","","","","","","","",""
"","","","","","image-keyboard-response","14","32162","0.0-2.0-3.0-0.2","5ce610802be975001b46f0ac","A3","batch1","","624.1999998092651","stim/prac_yes_18_hor_w1.png","f","pattern_practice","true","f","","","","","","","","","","","","","","","","","","","","","","",""
"","","","","","html-keyboard-response","15","33169","0.0-2.0-3.0-1.2","5ce610802be975001b46f0ac","A3","batch1","","null","<p style=""font-size:30px;color:green;"">Correct!</p>","null","pattern_feedback","","","","","","","","","","","","","","","","","","","","","","","","",""
"","","","","","image-keyboard-response","16","34075","0.0-2.0-3.0-0.3","5ce610802be975001b46f0ac","A3","batch1","","904.8000001907349","stim/prac_yes_20_dia_b1.png","f","pattern_practice","true","f","","","","","","","","","","","","","","","","","","","","","","",""
"","","","","","html-keyboard-response","17","35085","0.0-2.0-3.0-1.3","5ce610802be975001b46f0ac","A3","batch1","","null","<p style=""font-size:30px;color:green;"">Correct!</p>","null","pattern_feedback","","","","","","","","","","","","","","","","","","","","","","","","",""
"","","","","","image-keyboard-response","18","36010","0.0-2.0-3.0-0.4","5ce610802be975001b46f0ac","A3","batch1","","924.3000001907349","stim/prac_no_16_1.png","j","pattern_practice","true","j","","","","","","","","","","","","","","","","","","","","","","",""
"","","","","","html-keyboard-response","19","37019","0.0-2.0-3.0-1.4","5ce610802be975001b46f0ac","A3","batch1","","null","<p style=""font-size:30px;color:green;"">Correct!</p>","null","pattern_feedback","","","","","","","","","","","","","","","","","","","","","","","","",""
"","","","","","html-button-response","20","38753","0.0-2.0-4.0","5ce610802be975001b46f0ac","A3","batch1","","1733.1000003814697","<p class=block-text> Good job! You are done with practice trials!<br>
        You responded correctly on 100% of the trials.<br>
        Press the button below to start official trials. Now you won't see any feedback about your response</p>","0","pattern_enter_official_trials","","","","","","","","","","","","","","","","","","","","","","","","",""
"","","","","","html-keyboard-response","21","39554","0.0-2.0-5.0-0.0","5ce610802be975001b46f0ac","A3","batch1","","null","<p class=block-text>Trial 1 out of 78</p>","null","pattern_show_trial_num","","","","","","","","","","","","","","","","","","","","","","","","",""
"","","","","","image-keyboard-response","22","43891","0.0-2.0-5.0-1.0","5ce610802be975001b46f0ac","A3","batch1","","4336","stim/no_67_1.png","j","pattern_response","true","j","pattern_39","4336","true","1","","","","","","","","","","","","","","","","","","",""
"","","","","","html-keyboard-response","23","45215","0.0-2.0-5.0-0.1","5ce610802be975001b46f0ac","A3","batch1","","null","<p class=block-text>Trial 2 out of 78</p>","null","pattern_show_trial_num","","","","","","","","","","","","","","","","","","","","","","","","",""
"","","","","","image-keyboard-response","24","45914","0.0-2.0-5.0-1.1","5ce610802be975001b46f0ac","A3","batch1","","698.8999996185303","stim/no_28_2.png","f","pattern_response","false","j","pattern_11","698.8999996185303","false","1","","","","","","","","","","","","","","","","","","",""
"","","","","","html-keyboard-response","25","47231","0.0-2.0-5.0-0.2","5ce610802be975001b46f0ac","A3","batch1","","null","<p class=block-text>Trial 3 out of 78</p>","null","pattern_show_trial_num","","","","","","","","","","","","","","","","","","","","","","","","",""
"","","","","","image-keyboard-response","26","47859","0.0-2.0-5.0-1.2","5ce610802be975001b46f0ac","A3","batch1","","626.3999996185303","stim/yes_39_hor_w1_w.png","f","pattern_response","true","f","pattern_62","626.3999996185303","true","2","","","","","","","","","","","","","","","","","","",""
"","","","","","html-keyboard-response","27","49181","0.0-2.0-5.0-0.3","5ce610802be975001b46f0ac","A3","batch1","","null","<p class=block-text>Trial 4 out of 78</p>","null","pattern_show_trial_num","","","","","","","","","","","","","","","","","","","","","","","","",""
"","","","","","image-keyboard-response","28","50163","0.0-2.0-5.0-1.3","5ce610802be975001b46f0ac","A3","batch1","","980.5","stim/yes_49_hor_w1_b.png","f","pattern_response","true","f","pattern_70","980.5","true","3","","","","","","","","","","","","","","","","","","",""
"","","","","","html-keyboard-response","29","51470","0.0-2.0-5.0-0.4","5ce610802be975001b46f0ac","A3","batch1","","null","<p class=block-text>Trial 5 out of 78</p>","null","pattern_show_trial_num","","","","","","","","","","","","","","","","","","","","","","","","",""
"","","","","","image-keyboard-response","30","52378","0.0-2.0-5.0-1.4","5ce610802be975001b46f0ac","A3","batch1","","906.8000001907349","stim/no_25_1_b.png","j","pattern_response","true","j","pattern_09","906.8000001907349","true","4","","","","","","","","","","","","","","","","","","",""
"","","","","","html-keyboard-response","31","53689","0.0-2.0-5.0-0.5","5ce610802be975001b46f0ac","A3","batch1","","null","<p class=block-text>Trial 6 out of 78</p>","null","pattern_show_trial_num","","","","","","","","","","","","","","","","","","","","","","","","",""
"","","","","","image-keyboard-response","32","54843","0.0-2.0-5.0-1.5","5ce610802be975001b46f0ac","A3","batch1","","1153","stim/no_22_1_b.png","j","pattern_response","true","j","pattern_07","1153","true","5","","","","","","","","","","","","","","","","","","",""
"","","","","","html-keyboard-response","33","56164","0.0-2.0-5.0-0.6","5ce610802be975001b46f0ac","A3","batch1","","null","<p class=block-text>Trial 7 out of 78</p>","null","pattern_show_trial_num","","","","","","","","","","","","","","","","","","","","","","","","",""
"","","","","","image-keyboard-response","34","58838","0.0-2.0-5.0-1.6","5ce610802be975001b46f0ac","A3","batch1","","2677","stim/no_58_1_w.png","j","pattern_response","true","j","pattern_35","2677","true","6","","","","","","","","","","","","","","","","","","",""
"","","","","","html-keyboard-response","35","60160","0.0-2.0-5.0-0.7","5ce610802be975001b46f0ac","A3","batch1","","null","<p class=block-text>Trial 8 out of 78</p>","null","pattern_show_trial_num","","","","","","","","","","","","","","","","","","","","","","","","",""
"","","","","","image-keyboard-response","36","60886","0.0-2.0-5.0-1.7","5ce610802be975001b46f0ac","A3","batch1","","724.9000005722046","stim/yes_29_hor_b1_b.png","f","pattern_response","true","f","pattern_52","724.9000005722046","true","7","","","","","","","","","","","","","","","","","","",""
"","","","","","html-keyboard-response","37","62210","0.0-2.0-5.0-0.8","5ce610802be975001b46f0ac","A3","batch1","","null","<p class=block-text>Trial 9 out of 78</p>","null","pattern_show_trial_num","","","","","","","","","","","","","","","","","","","","","","","","",""
"","","","","","image-keyboard-response","38","63494","0.0-2.0-5.0-1.8","5ce610802be975001b46f0ac","A3","batch1","","1283.0999994277954","stim/no_36_1_b.png","j","pattern_response","true","j","pattern_17","1283.0999994277954","true","8","","","","","","","","","","","","","","","","","","",""
"","","","","","html-keyboard-response","39","64812","0.0-2.0-5.0-0.9","5ce610802be975001b46f0ac","A3","batch1","","null","<p class=block-text>Trial 10 out of 78</p>","null","pattern_show_trial_num","","","","","","","","","","","","","","","","","","","","","","","","",""
"","","","","","image-keyboard-response","40","66935","0.0-2.0-5.0-1.9","5ce610802be975001b46f0ac","A3","batch1","","2121.8999996185303","stim/yes_58_dia_w1_w.png","f","pattern_response","true","f","pattern_76","2121.8999996185303","true","9","","","","","","","","","","","","","","","","","","",""
"","","","","","html-keyboard-response","41","68260","0.0-2.0-5.0-0.10","5ce610802be975001b46f0ac","A3","batch1","","null","<p class=block-text>Trial 11 out of 78</p>","null","pattern_show_trial_num","","","","","","","","","","","","","","","","","","","","","","","","",""
"","","","","","image-keyboard-response","42","68982","0.0-2.0-5.0-1.10","5ce610802be975001b46f0ac","A3","batch1","","720.6999998092651","stim/yes_26_dia_w2_w.png","f","pattern_response","true","f","pattern_50","720.6999998092651","true","10","","","","","","","","","","","","","","","","","","",""
"","","","","","html-keyboard-response","43","70312","0.0-2.0-5.0-0.11","5ce610802be975001b46f0ac","A3","batch1","","null","<p class=block-text>Trial 12 out of 78</p>","null","pattern_show_trial_num","","","","","","","","","","","","","","","","","","","","","","","","",""
"","","","","","image-keyboard-response","44","71038","0.0-2.0-5.0-1.11","5ce610802be975001b46f0ac","A3","batch1","","725.3000001907349","stim/no_18_1_b.png","j","pattern_response","true","j","pattern_05","725.3000001907349","true","11","","","","","","","","","","","","","","","","","","",""
"","","","","","html-keyboard-response","45","72362","0.0-2.0-5.0-0.12","5ce610802be975001b46f0ac","A3","batch1","","null","<p class=block-text>Trial 13 out of 78</p>","null","pattern_show_trial_num","","","","","","","","","","","","","","","","","","","","","","","","",""
"","","","","","image-keyboard-response","46","72942","0.0-2.0-5.0-1.12","5ce610802be975001b46f0ac","A3","batch1","","579.2999992370605","stim/yes_12_hor_w1_w.png","f","pattern_response","true","f","pattern_42","579.2999992370605","true","12","","","","","","","","","","","","","","","","","","",""
"","","","","","html-keyboard-response","47","74260","0.0-2.0-5.0-0.13","5ce610802be975001b46f0ac","A3","batch1","","null","<p class=block-text>Trial 14 out of 78</p>","null","pattern_show_trial_num","","","","","","","","","","","","","","","","","","","","","","","","",""
"","","","","","image-keyboard-response","48","74990","0.0-2.0-5.0-1.13","5ce610802be975001b46f0ac","A3","batch1","","728.9000005722046","stim/yes_17_ver_b1_b.png","f","pattern_response","true","f","pattern_46","728.9000005722046","true","13","","","","","","","","","","","","","","","","","","",""
"","","","","","html-keyboard-response","49","76310","0.0-2.0-5.0-0.14","5ce610802be975001b46f0ac","A3","batch1","","null","<p class=block-text>Trial 15 out of 78</p>","null","pattern_show_trial_num","","","","","","","","","","","","","","","","","","","","","","","","",""
"","","","","","image-keyboard-response","50","77511","0.0-2.0-5.0-1.14","5ce610802be975001b46f0ac","A3","batch1","","1199.4000005722046","stim/no_33_1_b.png","j","pattern_response","true","j","pattern_15","1199.4000005722046","true","14","","","","","","","","","","","","","","","","","","",""
"","","","","","html-keyboard-response","51","78827","0.0-2.0-5.0-0.15","5ce610802be975001b46f0ac","A3","batch1","","null","<p class=block-text>Trial 16 out of 78</p>","null","pattern_show_trial_num","","","","","","","","","","","","","","","","","","","","","","","","",""
"","","","","","image-keyboard-response","52","79718","0.0-2.0-5.0-1.15","5ce610802be975001b46f0ac","A3","batch1","","890.2999992370605","stim/yes_53_ver_b1_b.png","f","pattern_response","true","f","pattern_74","890.2999992370605","true","15","","","","","","","","","","","","","","","","","","",""
"","","","","","html-keyboard-response","53","81044","0.0-2.0-5.0-0.16","5ce610802be975001b46f0ac","A3","batch1","","null","<p class=block-text>Trial 17 out of 78</p>","null","pattern_show_trial_num","","","","","","","","","","","","","","","","","","","","","","","","",""
"","","","","","image-keyboard-response","54","83894","0.0-2.0-5.0-1.16","5ce610802be975001b46f0ac","A3","batch1","","2849.6000003814697","stim/no_53_1_b.png","j","pattern_response","true","j","pattern_33","2849.6000003814697","true","16","","","","","","","","","","","","","","","","","","",""
"","","","","","html-keyboard-response","55","85210","0.0-2.0-5.0-0.17","5ce610802be975001b46f0ac","A3","batch1","","null","<p class=block-text>Trial 18 out of 78</p>","null","pattern_show_trial_num","","","","","","","","","","","","","","","","","","","","","","","","",""
"","","","","","image-keyboard-response","56","87951","0.0-2.0-5.0-1.17","5ce610802be975001b46f0ac","A3","batch1","","2739.0999994277954","stim/no_49_2_b.png","j","pattern_response","true","j","pattern_29","2739.0999994277954","true","17","","","","","","","","","","","","","","","","","","",""
"","","","","","html-keyboard-response","57","89276","0.0-2.0-5.0-0.18","5ce610802be975001b46f0ac","A3","batch1","","null","<p class=block-text>Trial 19 out of 78</p>","null","pattern_show_trial_num","","","","","","","","","","","","","","","","","","","","","","","","",""
"","","","","","image-keyboard-response","58","91046","0.0-2.0-5.0-1.18","5ce610802be975001b46f0ac","A3","batch1","","1769.0999994277954","stim/no_43_2_b.png","j","pattern_response","true","j","pattern_23","1769.0999994277954","true","18","","","","","","","","","","","","","","","","","","",""
"","","","","","html-keyboard-response","59","92377","0.0-2.0-5.0-0.19","5ce610802be975001b46f0ac","A3","batch1","","null","<p class=block-text>Trial 20 out of 78</p>","null","pattern_show_trial_num","","","","","","","","","","","","","","","","","","","","","","","","",""
"","","","","","image-keyboard-response","60","93326","0.0-2.0-5.0-1.19","5ce610802be975001b46f0ac","A3","batch1","","948.3000001907349","stim/no_12_1.png","j","pattern_response","true","j","pattern_01","948.3000001907349","true","19","","","","","","","","","","","","","","","","","","",""
"","","","","","html-keyboard-response","61","94644","0.0-2.0-5.0-0.20","5ce610802be975001b46f0ac","A3","batch1","","null","<p class=block-text>Trial 21 out of 78</p>","null","pattern_show_trial_num","","","","","","","","","","","","","","","","","","","","","","","","",""
"","","","","","image-keyboard-response","62","96854","0.0-2.0-5.0-1.20","5ce610802be975001b46f0ac","A3","batch1","","2209.8999996185303","stim/no_37_2_w.png","j","pattern_response","true","j","pattern_19","2209.8999996185303","true","20","","","","","","","","","","","","","","","","","","",""
"","","","","","html-keyboard-response","63","98177","0.0-2.0-5.0-0.21","5ce610802be975001b46f0ac","A3","batch1","","null","<p class=block-text>Trial 22 out of 78</p>","null","pattern_show_trial_num","","","","","","","","","","","","","","","","","","","","","","","","",""
"","","","","","image-keyboard-response","64","99439","0.0-2.0-5.0-1.21","5ce610802be975001b46f0ac","A3","batch1","","1260.5","stim/no_30_1_b.png","j","pattern_response","true","j","pattern_13","1260.5","true","21","","","","","","","","","","","","","","","","","","",""
"","","","","","html-keyboard-response","65","100746","0.0-2.0-5.0-0.22","5ce610802be975001b46f0ac","A3","batch1","","null","<p class=block-text>Trial 23 out of 78</p>","null","pattern_show_trial_num","","","","","","","","","","","","","","","","","","","","","","","","",""
"","","","","","image-keyboard-response","66","101814","0.0-2.0-5.0-1.22","5ce610802be975001b46f0ac","A3","batch1","","1067","stim/yes_33_dia_w1_w.png","j","pattern_response","false","f","pattern_56","1067","false","21","","","","","","","","","","","","","","","","","","",""
"","","","","","html-keyboard-response","67","103144","0.0-2.0-5.0-0.23","5ce610802be975001b46f0ac","A3","batch1","","null","<p class=block-text>Trial 24 out of 78</p>","null","pattern_show_trial_num","","","","","","","","","","","","","","","","","","","","","","","","",""
"","","","","","image-keyboard-response","68","107126","0.0-2.0-5.0-1.23","5ce610802be975001b46f0ac","A3","batch1","","3981.5999994277954","stim/yes_63_dia_b1.png","f","pattern_response","true","f","pattern_78","3981.5999994277954","true","22","","","","","","","","","","","","","","","","","","",""
"","","","","","html-keyboard-response","69","108444","0.0-2.0-5.0-0.24","5ce610802be975001b46f0ac","A3","batch1","","null","<p class=block-text>Trial 25 out of 78</p>","null","pattern_show_trial_num","","","","","","","","","","","","","","","","","","","","","","","","",""
"","","","","","image-keyboard-response","70","109991","0.0-2.0-5.0-1.24","5ce610802be975001b46f0ac","A3","batch1","","1545.5999994277954","stim/yes_42_dia_w1_w.png","f","pattern_response","true","f","pattern_64","1545.5999994277954","true","23","","","","","","","","","","","","","","","","","","",""
"","","","","","html-keyboard-response","71","111310","0.0-2.0-5.0-0.25","5ce610802be975001b46f0ac","A3","batch1","","null","<p class=block-text>Trial 26 out of 78</p>","null","pattern_show_trial_num","","","","","","","","","","","","","","","","","","","","","","","","",""
"","","","","","image-keyboard-response","72","112366","0.0-2.0-5.0-1.25","5ce610802be975001b46f0ac","A3","batch1","","1055","stim/yes_37_hor_w1_w.png","f","pattern_response","true","f","pattern_60","1055","true","24","","","","","","","","","","","","","","","","","","",""
"","","","","","html-keyboard-response","73","113694","0.0-2.0-5.0-0.26","5ce610802be975001b46f0ac","A3","batch1","","null","<p class=block-text>Trial 27 out of 78</p>","null","pattern_show_trial_num","","","","","","","","","","","","","","","","","","","","","","","","",""
"","","","","","image-keyboard-response","74","115078","0.0-2.0-5.0-1.26","5ce610802be975001b46f0ac","A3","batch1","","1383.3999996185303","stim/yes_51_dia_b1.png","f","pattern_response","true","f","pattern_72","1383.3999996185303","true","25","","","","","","","","","","","","","","","","","","",""
"","","","","","html-keyboard-response","75","116385","0.0-2.0-5.0-0.27","5ce610802be975001b46f0ac","A3","batch1","","null","<p class=block-text>Trial 28 out of 78</p>","null","pattern_show_trial_num","","","","","","","","","","","","","","","","","","","","","","","","",""
"","","","","","image-keyboard-response","76","118158","0.0-2.0-5.0-1.27","5ce610802be975001b46f0ac","A3","batch1","","1771.8000001907349","stim/yes_46_ver_b1_b.png","f","pattern_response","true","f","pattern_68","1771.8000001907349","true","26","","","","","","","","","","","","","","","","","","",""
"","","","","","html-keyboard-response","77","119482","0.0-2.0-5.0-0.28","5ce610802be975001b46f0ac","A3","batch1","","null","<p class=block-text>Trial 29 out of 78</p>","null","pattern_show_trial_num","","","","","","","","","","","","","","","","","","","","","","","","",""
"","","","","","image-keyboard-response","78","120331","0.0-2.0-5.0-1.28","5ce610802be975001b46f0ac","A3","batch1","","848.3999996185303","stim/yes_23_ver_b1.png","f","pattern_response","true","f","pattern_48","848.3999996185303","true","27","","","","","","","","","","","","","","","","","","",""
"","","","","","html-keyboard-response","79","121648","0.0-2.0-5.0-0.29","5ce610802be975001b46f0ac","A3","batch1","","null","<p class=block-text>Trial 30 out of 78</p>","null","pattern_show_trial_num","","","","","","","","","","","","","","","","","","","","","","","","",""
"","","","","","image-keyboard-response","80","122979","0.0-2.0-5.0-1.29","5ce610802be975001b46f0ac","A3","batch1","","1329.7999992370605","stim/no_51_1.png","f","pattern_response","false","j","pattern_31","1329.7999992370605","false","27","","","","","","","","","","","","","","","","","","",""
"","","","","","html-keyboard-response","81","124298","0.0-2.0-5.0-0.30","5ce610802be975001b46f0ac","A3","batch1","","null","<p class=block-text>Trial 31 out of 78</p>","null","pattern_show_trial_num","","","","","","","","","","","","","","","","","","","","","","","","",""
"","","","","","image-keyboard-response","82","129355","0.0-2.0-5.0-1.30","5ce610802be975001b46f0ac","A3","batch1","","5054.39999961853","stim/no_45_1_w.png","j","pattern_response","true","j","pattern_25","5054.39999961853","true","28","","","","","","","","","","","","","","","","","","",""
"","","","","","html-keyboard-response","83","130662","0.0-2.0-5.0-0.31","5ce610802be975001b46f0ac","A3","batch1","","null","<p class=block-text>Trial 32 out of 78</p>","null","pattern_show_trial_num","","","","","","","","","","","","","","","","","","","","","","","","",""
"","","","","","image-keyboard-response","84","131363","0.0-2.0-5.0-1.31","5ce610802be975001b46f0ac","A3","batch1","","699.6999998092651","stim/no_15_1_w.png","j","pattern_response","true","j","pattern_03","699.6999998092651","true","29","","","","","","","","","","","","","","","","","","",""
"","","","","","html-keyboard-response","85","132669","0.0-2.0-5.0-0.32","5ce610802be975001b46f0ac","A3","batch1","","null","<p class=block-text>Trial 33 out of 78</p>","null","pattern_show_trial_num","","","","","","","","","","","","","","","","","","","","","","","","",""
"","","","","","image-keyboard-response","86","133411","0.0-2.0-5.0-1.32","5ce610802be975001b46f0ac","A3","batch1","","741.3000001907349","stim/yes_36_ver_w1_w.png","f","pattern_response","true","f","pattern_58","741.3000001907349","true","30","","","","","","","","","","","","","","","","","","",""
"","","","","","html-keyboard-response","87","134732","0.0-2.0-5.0-0.33","5ce610802be975001b46f0ac","A3","batch1","","null","<p class=block-text>Trial 34 out of 78</p>","null","pattern_show_trial_num","","","","","","","","","","","","","","","","","","","","","","","","",""
"","","","","","image-keyboard-response","88","135539","0.0-2.0-5.0-1.33","5ce610802be975001b46f0ac","A3","batch1","","806.3999996185303","stim/yes_44_ver_w1_w.png","f","pattern_response","true","f","pattern_66","806.3999996185303","true","31","","","","","","","","","","","","","","","","","","",""
"","","","","","html-keyboard-response","89","136850","0.0-2.0-5.0-0.34","5ce610802be975001b46f0ac","A3","batch1","","null","<p class=block-text>Trial 35 out of 78</p>","null","pattern_show_trial_num","","","","","","","","","","","","","","","","","","","","","","","","",""
"","","","","","image-keyboard-response","90","137715","0.0-2.0-5.0-1.34","5ce610802be975001b46f0ac","A3","batch1","","863.8999996185303","stim/yes_70_ver_b1.png","f","pattern_response","true","f","pattern_80","863.8999996185303","true","32","","","","","","","","","","","","","","","","","","",""
"","","","","","html-keyboard-response","91","139033","0.0-2.0-5.0-0.35","5ce610802be975001b46f0ac","A3","batch1","","null","<p class=block-text>Trial 36 out of 78</p>","null","pattern_show_trial_num","","","","","","","","","","","","","","","","","","","","","","","","",""
"","","","","","image-keyboard-response","92","143067","0.0-2.0-5.0-1.35","5ce610802be975001b46f0ac","A3","batch1","","4033.9000005722046","stim/no_47_1_b.png","j","pattern_response","true","j","pattern_27","4033.9000005722046","true","33","","","","","","","","","","","","","","","","","","",""
"","","","","","html-keyboard-response","93","144383","0.0-2.0-5.0-0.36","5ce610802be975001b46f0ac","A3","batch1","","null","<p class=block-text>Trial 37 out of 78</p>","null","pattern_show_trial_num","","","","","","","","","","","","","","","","","","","","","","","","",""
"","","","","","image-keyboard-response","94","145107","0.0-2.0-5.0-1.36","5ce610802be975001b46f0ac","A3","batch1","","722.8000001907349","stim/yes_15_dia_b1u_b.png","f","pattern_response","true","f","pattern_44","722.8000001907349","true","34","","","","","","","","","","","","","","","","","","",""
"","","","","","html-keyboard-response","95","146432","0.0-2.0-5.0-0.37","5ce610802be975001b46f0ac","A3","batch1","","null","<p class=block-text>Trial 38 out of 78</p>","null","pattern_show_trial_num","","","","","","","","","","","","","","","","","","","","","","","","",""
"","","","","","image-keyboard-response","96","148755","0.0-2.0-5.0-1.37","5ce610802be975001b46f0ac","A3","batch1","","2322","stim/no_39_1_w.png","j","pattern_response","true","j","pattern_21","2322","true","35","","","","","","","","","","","","","","","","","","",""
"","","","","","html-keyboard-response","97","150082","0.0-2.0-5.0-0.38","5ce610802be975001b46f0ac","A3","batch1","","null","<p class=block-text>Trial 39 out of 78</p>","null","pattern_show_trial_num","","","","","","","","","","","","","","","","","","","","","","","","",""
"","","","","","image-keyboard-response","98","151259","0.0-2.0-5.0-1.38","5ce610802be975001b46f0ac","A3","batch1","","1176.0999994277954","stim/yes_30_ver_b1_b.png","f","pattern_response","true","f","pattern_54","1176.0999994277954","true","36","","","","","","","","","","","","","","","","","","",""
"","","","","","image-keyboard-response","99","152715","0.0-2.0-6.0","5ce610802be975001b46f0ac","A3","batch1","","946.6999998092651","stim/empty_board.png","j","attention_check","true","j","","","","","500","[""f"",""j""]","","","","","","","","","","","","","","","","",""
"","","","","","html-keyboard-response","100","153516","0.0-2.0-7.0-0.0","5ce610802be975001b46f0ac","A3","batch1","","null","<p class=block-text>Trial 40 out of 78</p>","null","pattern_show_trial_num","","","","","","","","","","","","","","","","","","","","","","","","",""
"","","","","","image-keyboard-response","101","154459","0.0-2.0-7.0-1.0","5ce610802be975001b46f0ac","A3","batch1","","941.8000001907349","stim/no_13_2_b.png","j","pattern_response","true","j","pattern_02","941.8000001907349","true","37","","","","","","","","","","","","","","","","","","",""
"","","","","","html-keyboard-response","102","155782","0.0-2.0-7.0-0.1","5ce610802be975001b46f0ac","A3","batch1","","null","<p class=block-text>Trial 41 out of 78</p>","null","pattern_show_trial_num","","","","","","","","","","","","","","","","","","","","","","","","",""
"","","","","","image-keyboard-response","103","159467","0.0-2.0-7.0-1.1","5ce610802be975001b46f0ac","A3","batch1","","3683.7999992370605","stim/yes_52_ver_w1.png","j","pattern_response","false","f","pattern_73","3683.7999992370605","false","37","","","","","","","","","","","","","","","","","","",""
"","","","","","html-keyboard-response","104","160782","0.0-2.0-7.0-0.2","5ce610802be975001b46f0ac","A3","batch1","","null","<p class=block-text>Trial 42 out of 78</p>","null","pattern_show_trial_num","","","","","","","","","","","","","","","","","","","","","","","","",""
"","","","","","image-keyboard-response","105","162635","0.0-2.0-7.0-1.2","5ce610802be975001b46f0ac","A3","batch1","","1851.8000001907349","stim/yes_55_hor_w1_w.png","f","pattern_response","true","f","pattern_75","1851.8000001907349","true","38","","","","","","","","","","","","","","","","","","",""
"","","","","","html-keyboard-response","106","163949","0.0-2.0-7.0-0.3","5ce610802be975001b46f0ac","A3","batch1","","null","<p class=block-text>Trial 43 out of 78</p>","null","pattern_show_trial_num","","","","","","","","","","","","","","","","","","","","","","","","",""
"","","","","","image-keyboard-response","107","165107","0.0-2.0-7.0-1.3","5ce610802be975001b46f0ac","A3","batch1","","1157.6999998092651","stim/yes_35_dia_b1.png","f","pattern_response","true","f","pattern_57","1157.6999998092651","true","39","","","","","","","","","","","","","","","","","","",""
"","","","","","html-keyboard-response","108","166432","0.0-2.0-7.0-0.4","5ce610802be975001b46f0ac","A3","batch1","","null","<p class=block-text>Trial 44 out of 78</p>","null","pattern_show_trial_num","","","","","","","","","","","","","","","","","","","","","","","","",""
"","","","","","image-keyboard-response","109","168531","0.0-2.0-7.0-1.4","5ce610802be975001b46f0ac","A3","batch1","","2097.7999992370605","stim/no_23_1.png","j","pattern_response","true","j","pattern_08","2097.7999992370605","true","40","","","","","","","","","","","","","","","","","","",""
"","","","","","html-keyboard-response","110","169849","0.0-2.0-7.0-0.5","5ce610802be975001b46f0ac","A3","batch1","","null","<p class=block-text>Trial 45 out of 78</p>","null","pattern_show_trial_num","","","","","","","","","","","","","","","","","","","","","","","","",""
"","","","","","image-keyboard-response","111","170491","0.0-2.0-7.0-1.5","5ce610802be975001b46f0ac","A3","batch1","","641.2999992370605","stim/yes_28_ver_b1.png","f","pattern_response","true","f","pattern_51","641.2999992370605","true","41","","","","","","","","","","","","","","","","","","",""
"","","","","","html-keyboard-response","112","171815","0.0-2.0-7.0-0.6","5ce610802be975001b46f0ac","A3","batch1","","null","<p class=block-text>Trial 46 out of 78</p>","null","pattern_show_trial_num","","","","","","","","","","","","","","","","","","","","","","","","",""
"","","","","","image-keyboard-response","113","175595","0.0-2.0-7.0-1.6","5ce610802be975001b46f0ac","A3","batch1","","3779.0999994277954","stim/no_65_1_b.png","j","pattern_response","true","j","pattern_38","3779.0999994277954","true","42","","","","","","","","","","","","","","","","","","",""
"","","","","","html-keyboard-response","114","176915","0.0-2.0-7.0-0.7","5ce610802be975001b46f0ac","A3","batch1","","null","<p class=block-text>Trial 47 out of 78</p>","null","pattern_show_trial_num","","","","","","","","","","","","","","","","","","","","","","","","",""
"","","","","","image-keyboard-response","115","179347","0.0-2.0-7.0-1.7","5ce610802be975001b46f0ac","A3","batch1","","2430.5","stim/no_46_1_b.png","j","pattern_response","true","j","pattern_26","2430.5","true","43","","","","","","","","","","","","","","","","","","",""
"","","","","","html-keyboard-response","116","180665","0.0-2.0-7.0-0.8","5ce610802be975001b46f0ac","A3","batch1","","null","<p class=block-text>Trial 48 out of 78</p>","null","pattern_show_trial_num","","","","","","","","","","","","","","","","","","","","","","","","",""
"","","","","","image-keyboard-response","117","182339","0.0-2.0-7.0-1.8","5ce610802be975001b46f0ac","A3","batch1","","1672.3999996185303","stim/yes_31_hor_b1.png","j","pattern_response","false","f","pattern_55","1672.3999996185303","false","43","","","","","","","","","","","","","","","","","","",""
"","","","","","html-keyboard-response","118","183665","0.0-2.0-7.0-0.9","5ce610802be975001b46f0ac","A3","batch1","","null","<p class=block-text>Trial 49 out of 78</p>","null","pattern_show_trial_num","","","","","","","","","","","","","","","","","","","","","","","","",""
"","","","","","image-keyboard-response","119","185731","0.0-2.0-7.0-1.9","5ce610802be975001b46f0ac","A3","batch1","","2065.199999809265","stim/no_34_1_b.png","j","pattern_response","true","j","pattern_16","2065.199999809265","true","44","","","","","","","","","","","","","","","","","","",""
"","","","","","html-keyboard-response","120","187055","0.0-2.0-7.0-0.10","5ce610802be975001b46f0ac","A3","batch1","","null","<p class=block-text>Trial 50 out of 78</p>","null","pattern_show_trial_num","","","","","","","","","","","","","","","","","","","","","","","","",""
"","","","","","image-keyboard-response","121","187787","0.0-2.0-7.0-1.10","5ce610802be975001b46f0ac","A3","batch1","","730.8000001907349","stim/yes_14_hor_b1_w.png","f","pattern_response","true","f","pattern_43","730.8000001907349","true","45","","","","","","","","","","","","","","","","","","",""
"","","","","","html-keyboard-response","122","189115","0.0-2.0-7.0-0.11","5ce610802be975001b46f0ac","A3","batch1","","null","<p class=block-text>Trial 51 out of 78</p>","null","pattern_show_trial_num","","","","","","","","","","","","","","","","","","","","","","","","",""
"","","","","","image-keyboard-response","123","190571","0.0-2.0-7.0-1.11","5ce610802be975001b46f0ac","A3","batch1","","1454.8000001907349","stim/yes_29_ver_w1.png","f","pattern_response","true","f","pattern_53","1454.8000001907349","true","46","","","","","","","","","","","","","","","","","","",""
"","","","","","html-keyboard-response","124","191898","0.0-2.0-7.0-0.12","5ce610802be975001b46f0ac","A3","batch1","","null","<p class=block-text>Trial 52 out of 78</p>","null","pattern_show_trial_num","","","","","","","","","","","","","","","","","","","","","","","","",""
"","","","","","image-keyboard-response","125","193859","0.0-2.0-7.0-1.12","5ce610802be975001b46f0ac","A3","batch1","","1959.2999992370605","stim/no_42_1_w.png","j","pattern_response","true","j","pattern_22","1959.2999992370605","true","47","","","","","","","","","","","","","","","","","","",""
"","","","","","html-keyboard-response","126","195182","0.0-2.0-7.0-0.13","5ce610802be975001b46f0ac","A3","batch1","","null","<p class=block-text>Trial 53 out of 78</p>","null","pattern_show_trial_num","","","","","","","","","","","","","","","","","","","","","","","","",""
"","","","","","image-keyboard-response","127","196091","0.0-2.0-7.0-1.13","5ce610802be975001b46f0ac","A3","batch1","","908","stim/yes_22_ver_w1.png","f","pattern_response","true","f","pattern_47","908","true","48","","","","","","","","","","","","","","","","","","",""
"","","","","","html-keyboard-response","128","197415","0.0-2.0-7.0-0.14","5ce610802be975001b46f0ac","A3","batch1","","null","<p class=block-text>Trial 54 out of 78</p>","null","pattern_show_trial_num","","","","","","","","","","","","","","","","","","","","","","","","",""
"","","","","","image-keyboard-response","129","198627","0.0-2.0-7.0-1.14","5ce610802be975001b46f0ac","A3","batch1","","1210.1999998092651","stim/no_26_1_w.png","j","pattern_response","true","j","pattern_10","1210.1999998092651","true","49","","","","","","","","","","","","","","","","","","",""
"","","","","","html-keyboard-response","130","199948","0.0-2.0-7.0-0.15","5ce610802be975001b46f0ac","A3","batch1","","null","<p class=block-text>Trial 55 out of 78</p>","null","pattern_show_trial_num","","","","","","","","","","","","","","","","","","","","","","","","",""
"","","","","","image-keyboard-response","131","200891","0.0-2.0-7.0-1.15","5ce610802be975001b46f0ac","A3","batch1","","941.5","stim/yes_38_hor_b1_b.png","f","pattern_response","true","f","pattern_61","941.5","true","50","","","","","","","","","","","","","","","","","","",""
"","","","","","html-keyboard-response","132","202215","0.0-2.0-7.0-0.16","5ce610802be975001b46f0ac","A3","batch1","","null","<p class=block-text>Trial 56 out of 78</p>","null","pattern_show_trial_num","","","","","","","","","","","","","","","","","","","","","","","","",""
"","","","","","image-keyboard-response","133","206179","0.0-2.0-7.0-1.16","5ce610802be975001b46f0ac","A3","batch1","","3963.1000003814697","stim/yes_50_dia_w1.png","f","pattern_response","true","f","pattern_71","3963.1000003814697","true","51","","","","","","","","","","","","","","","","","","",""
"","","","","","html-keyboard-response","134","207498","0.0-2.0-7.0-0.17","5ce610802be975001b46f0ac","A3","batch1","","null","<p class=block-text>Trial 57 out of 78</p>","null","pattern_show_trial_num","","","","","","","","","","","","","","","","","","","","","","","","",""
"","","","","","image-keyboard-response","135","209547","0.0-2.0-7.0-1.17","5ce610802be975001b46f0ac","A3","batch1","","2047","stim/yes_48_dia_w1_w.png","f","pattern_response","true","f","pattern_69","2047","true","52","","","","","","","","","","","","","","","","","","",""
"","","","","","html-keyboard-response","136","210865","0.0-2.0-7.0-0.18","5ce610802be975001b46f0ac","A3","batch1","","null","<p class=block-text>Trial 58 out of 78</p>","null","pattern_show_trial_num","","","","","","","","","","","","","","","","","","","","","","","","",""
"","","","","","image-keyboard-response","137","212259","0.0-2.0-7.0-1.18","5ce610802be975001b46f0ac","A3","batch1","","1392.2999992370605","stim/yes_45_hor_b2_b.png","f","pattern_response","true","f","pattern_67","1392.2999992370605","true","53","","","","","","","","","","","","","","","","","","",""
"","","","","","html-keyboard-response","138","213582","0.0-2.0-7.0-0.19","5ce610802be975001b46f0ac","A3","batch1","","null","<p class=block-text>Trial 59 out of 78</p>","null","pattern_show_trial_num","","","","","","","","","","","","","","","","","","","","","","","","",""
"","","","","","image-keyboard-response","139","214219","0.0-2.0-7.0-1.19","5ce610802be975001b46f0ac","A3","batch1","","635.8999996185303","stim/yes_67_hor_b1.png","f","pattern_response","true","f","pattern_79","635.8999996185303","true","54","","","","","","","","","","","","","","","","","","",""
"","","","","","html-keyboard-response","140","215543","0.0-2.0-7.0-0.20","5ce610802be975001b46f0ac","A3","batch1","","null","<p class=block-text>Trial 60 out of 78</p>","null","pattern_show_trial_num","","","","","","","","","","","","","","","","","","","","","","","","",""
"","","","","","image-keyboard-response","141","217027","0.0-2.0-7.0-1.20","5ce610802be975001b46f0ac","A3","batch1","","1483.1999998092651","stim/no_32_1_w.png","j","pattern_response","true","j","pattern_14","1483.1999998092651","true","55","","","","","","","","","","","","","","","","","","",""
"","","","","","html-keyboard-response","142","218349","0.0-2.0-7.0-0.21","5ce610802be975001b46f0ac","A3","batch1","","null","<p class=block-text>Trial 61 out of 78</p>","null","pattern_show_trial_num","","","","","","","","","","","","","","","","","","","","","","","","",""
"","","","","","image-keyboard-response","143","224011","0.0-2.0-7.0-1.21","5ce610802be975001b46f0ac","A3","batch1","","5661.099999427795","stim/no_62_1_w.png","j","pattern_response","true","j","pattern_36","5661.099999427795","true","56","","","","","","","","","","","","","","","","","","",""
"","","","","","html-keyboard-response","144","225312","0.0-2.0-7.0-0.22","5ce610802be975001b46f0ac","A3","batch1","","null","<p class=block-text>Trial 62 out of 78</p>","null","pattern_show_trial_num","","","","","","","","","","","","","","","","","","","","","","","","",""
"","","","","","image-keyboard-response","145","228451","0.0-2.0-7.0-1.22","5ce610802be975001b46f0ac","A3","batch1","","3138","stim/no_55_1_w.png","j","pattern_response","true","j","pattern_34","3138","true","57","","","","","","","","","","","","","","","","","","",""
"","","","","","html-keyboard-response","146","229765","0.0-2.0-7.0-0.23","5ce610802be975001b46f0ac","A3","batch1","","null","<p class=block-text>Trial 63 out of 78</p>","null","pattern_show_trial_num","","","","","","","","","","","","","","","","","","","","","","","","",""
"","","","","","image-keyboard-response","147","230603","0.0-2.0-7.0-1.23","5ce610802be975001b46f0ac","A3","batch1","","836.1999998092651","stim/yes_17_dia_w1.png","f","pattern_response","true","f","pattern_45","836.1999998092651","true","58","","","","","","","","","","","","","","","","","","",""
"","","","","","html-keyboard-response","148","231932","0.0-2.0-7.0-0.24","5ce610802be975001b46f0ac","A3","batch1","","null","<p class=block-text>Trial 64 out of 78</p>","null","pattern_show_trial_num","","","","","","","","","","","","","","","","","","","","","","","","",""
"","","","","","image-keyboard-response","149","235451","0.0-2.0-7.0-1.24","5ce610802be975001b46f0ac","A3","batch1","","3517.800000190735","stim/no_50_1.png","j","pattern_response","true","j","pattern_30","3517.800000190735","true","59","","","","","","","","","","","","","","","","","","",""
"","","","","","html-keyboard-response","150","236765","0.0-2.0-7.0-0.25","5ce610802be975001b46f0ac","A3","batch1","","null","<p class=block-text>Trial 65 out of 78</p>","null","pattern_show_trial_num","","","","","","","","","","","","","","","","","","","","","","","","",""
"","","","","","image-keyboard-response","151","240982","0.0-2.0-7.0-1.25","5ce610802be975001b46f0ac","A3","batch1","","4228.60000038147","stim/no_36_2_w.png","j","pattern_response","true","j","pattern_18","4228.60000038147","true","60","","","","","","","","","","","","","","","","","","",""
"","","","","","html-keyboard-response","152","242302","0.0-2.0-7.0-0.26","5ce610802be975001b46f0ac","A3","batch1","","null","<p class=block-text>Trial 66 out of 78</p>","null","pattern_show_trial_num","","","","","","","","","","","","","","","","","","","","","","","","",""
"","","","","","image-keyboard-response","153","243397","0.0-2.0-7.0-1.26","5ce610802be975001b46f0ac","A3","batch1","","1094.0999994277954","stim/no_17_1_w.png","j","pattern_response","true","j","pattern_04","1094.0999994277954","true","61","","","","","","","","","","","","","","","","","","",""
"","","","","","html-keyboard-response","154","244719","0.0-2.0-7.0-0.27","5ce610802be975001b46f0ac","A3","batch1","","null","<p class=block-text>Trial 67 out of 78</p>","null","pattern_show_trial_num","","","","","","","","","","","","","","","","","","","","","","","","",""
"","","","","","image-keyboard-response","155","246317","0.0-2.0-7.0-1.27","5ce610802be975001b46f0ac","A3","batch1","","1597.6000003814697","stim/yes_40_dia_b1_b.png","f","pattern_response","true","f","pattern_63","1597.6000003814697","true","62","","","","","","","","","","","","","","","","","","",""
"","","","","","html-keyboard-response","156","247635","0.0-2.0-7.0-0.28","5ce610802be975001b46f0ac","A3","batch1","","null","<p class=block-text>Trial 68 out of 78</p>","null","pattern_show_trial_num","","","","","","","","","","","","","","","","","","","","","","","","",""
"","","","","","image-keyboard-response","157","249870","0.0-2.0-7.0-1.28","5ce610802be975001b46f0ac","A3","batch1","","2233.199999809265","stim/no_48_1_w.png","j","pattern_response","true","j","pattern_28","2233.199999809265","true","63","","","","","","","","","","","","","","","","","","",""
"","","","","","html-keyboard-response","158","251187","0.0-2.0-7.0-0.29","5ce610802be975001b46f0ac","A3","batch1","","null","<p class=block-text>Trial 69 out of 78</p>","null","pattern_show_trial_num","","","","","","","","","","","","","","","","","","","","","","","","",""
"","","","","","image-keyboard-response","159","252206","0.0-2.0-7.0-1.29","5ce610802be975001b46f0ac","A3","batch1","","1018.1000003814697","stim/yes_60_ver_b1_b.png","f","pattern_response","true","f","pattern_77","1018.1000003814697","true","64","","","","","","","","","","","","","","","","","","",""
"","","","","","html-keyboard-response","160","253535","0.0-2.0-7.0-0.30","5ce610802be975001b46f0ac","A3","batch1","","null","<p class=block-text>Trial 70 out of 78</p>","null","pattern_show_trial_num","","","","","","","","","","","","","","","","","","","","","","","","",""
"","","","","","image-keyboard-response","161","255653","0.0-2.0-7.0-1.30","5ce610802be975001b46f0ac","A3","batch1","","2117.0999994277954","stim/yes_37_dia_w1.png","f","pattern_response","true","f","pattern_59","2117.0999994277954","true","65","","","","","","","","","","","","","","","","","","",""
"","","","","","html-keyboard-response","162","256969","0.0-2.0-7.0-0.31","5ce610802be975001b46f0ac","A3","batch1","","null","<p class=block-text>Trial 71 out of 78</p>","null","pattern_show_trial_num","","","","","","","","","","","","","","","","","","","","","","","","",""
"","","","","","image-keyboard-response","163","258805","0.0-2.0-7.0-1.31","5ce610802be975001b46f0ac","A3","batch1","","1835.5999994277954","stim/no_29_1_b.png","j","pattern_response","true","j","pattern_12","1835.5999994277954","true","66","","","","","","","","","","","","","","","","","","",""
"","","","","","html-keyboard-response","164","260135","0.0-2.0-7.0-0.32","5ce610802be975001b46f0ac","A3","batch1","","null","<p class=block-text>Trial 72 out of 78</p>","null","pattern_show_trial_num","","","","","","","","","","","","","","","","","","","","","","","","",""
"","","","","","image-keyboard-response","165","261181","0.0-2.0-7.0-1.32","5ce610802be975001b46f0ac","A3","batch1","","1045.0999994277954","stim/yes_43_ver_w1_w.png","f","pattern_response","true","f","pattern_65","1045.0999994277954","true","67","","","","","","","","","","","","","","","","","","",""
"","","","","","html-keyboard-response","166","262502","0.0-2.0-7.0-0.33","5ce610802be975001b46f0ac","A3","batch1","","null","<p class=block-text>Trial 73 out of 78</p>","null","pattern_show_trial_num","","","","","","","","","","","","","","","","","","","","","","","","",""
"","","","","","image-keyboard-response","167","266822","0.0-2.0-7.0-1.33","5ce610802be975001b46f0ac","A3","batch1","","4318.60000038147","stim/no_70_2.png","j","pattern_response","true","j","pattern_40","4318.60000038147","true","68","","","","","","","","","","","","","","","","","","",""
"","","","","","html-keyboard-response","168","268136","0.0-2.0-7.0-0.34","5ce610802be975001b46f0ac","A3","batch1","","null","<p class=block-text>Trial 74 out of 78</p>","null","pattern_show_trial_num","","","","","","","","","","","","","","","","","","","","","","","","",""
"","","","","","image-keyboard-response","169","268765","0.0-2.0-7.0-1.34","5ce610802be975001b46f0ac","A3","batch1","","628.8000001907349","stim/yes_25_hor_b1_b.png","j","pattern_response","false","f","pattern_49","628.8000001907349","false","68","","","","","","","","","","","","","","","","","","",""
"","","","","","html-keyboard-response","170","270085","0.0-2.0-7.0-0.35","5ce610802be975001b46f0ac","A3","batch1","","null","<p class=block-text>Trial 75 out of 78</p>","null","pattern_show_trial_num","","","","","","","","","","","","","","","","","","","","","","","","",""
"","","","","","image-keyboard-response","171","272022","0.0-2.0-7.0-1.35","5ce610802be975001b46f0ac","A3","batch1","","1935.3000001907349","stim/no_52_1.png","j","pattern_response","true","j","pattern_32","1935.3000001907349","true","69","","","","","","","","","","","","","","","","","","",""
"","","","","","html-keyboard-response","172","273337","0.0-2.0-7.0-0.36","5ce610802be975001b46f0ac","A3","batch1","","null","<p class=block-text>Trial 76 out of 78</p>","null","pattern_show_trial_num","","","","","","","","","","","","","","","","","","","","","","","","",""
"","","","","","image-keyboard-response","173","274422","0.0-2.0-7.0-1.36","5ce610802be975001b46f0ac","A3","batch1","","1083.6000003814697","stim/no_20_1_w.png","j","pattern_response","true","j","pattern_06","1083.6000003814697","true","70","","","","","","","","","","","","","","","","","","",""
"","","","","","html-keyboard-response","174","275736","0.0-2.0-7.0-0.37","5ce610802be975001b46f0ac","A3","batch1","","null","<p class=block-text>Trial 77 out of 78</p>","null","pattern_show_trial_num","","","","","","","","","","","","","","","","","","","","","","","","",""
"","","","","","image-keyboard-response","175","277902","0.0-2.0-7.0-1.37","5ce610802be975001b46f0ac","A3","batch1","","2165.3999996185303","stim/no_44_1.png","j","pattern_response","true","j","pattern_24","2165.3999996185303","true","71","","","","","","","","","","","","","","","","","","",""
"","","","","","html-keyboard-response","176","279219","0.0-2.0-7.0-0.38","5ce610802be975001b46f0ac","A3","batch1","","null","<p class=block-text>Trial 78 out of 78</p>","null","pattern_show_trial_num","","","","","","","","","","","","","","","","","","","","","","","","",""
"","","","","","image-keyboard-response","177","281725","0.0-2.0-7.0-1.38","5ce610802be975001b46f0ac","A3","batch1","","2505.3999996185303","stim/no_38_1_b.png","j","pattern_response","true","j","pattern_20","2505.3999996185303","true","72","","","","","","","","","","","","","","","","","","",""
"","","","","","html-button-response","178","368882","0.0-2.0-8.0","5ce610802be975001b46f0ac","A3","batch1","","86627.89999961853","<p class = block-text>This concludes the 4-in-a-row detection game.Thank you for your responses!<br>
            You responded correctly on 92% of the trials.<br>
            When you are ready, press ""Continue"" button to continue </p>","0","","","","","","","","","","","","","","","","","","","","","","","","","",""
"true","","","","","fullscreen","179","441930","0.0-3.0-0.0","5ce610802be975001b46f0ac","A3","batch1","","","","","spm_fullscreen","","","","","","","","","","","","","","","","","","","","","","","","",""
"","","","","","html-button-response","180","450962","0.0-3.0-1.0","5ce610802be975001b46f0ac","A3","batch1","","9030.199999809265","<p class = block-text><b>Instructions</b> <br>This is a widely used intelligence test in research. <br>In this test, a figure with a missing piece will be presented.<br>Below the figure are alternative pieces to complete the figure, only one of which is correct.<br> Different figures might involve different principles for obtaining the missing piece<br>Your job is to select the most logical piece to complete the figure.</p>","0","","","","","","","","","","","","","","","","","","","","","","","","","",""
"","","","","","html-keyboard-response","181","451766","0.0-3.0-2.0-0.0","5ce610802be975001b46f0ac","A3","batch1","","null","<p class=block-text>Trial 1 out of 60</p>","null","spm_show_trial_num","","","","","","","","","","","","","","","","","","","","","","","","",""
"","","","","","image-button-response","182","457042","0.0-3.0-2.0-1.0","5ce610802be975001b46f0ac","A3","batch1","","5273.199999809265","img/question_1_1.jpeg","3","spm_respsonse","1","4","mat_01","","","","","","1","5273.199999809265","","","","","","","","","","","","","","",""
"","","","","","html-keyboard-response","183","458117","0.0-3.0-2.0-0.1","5ce610802be975001b46f0ac","A3","batch1","","null","<p class=block-text>Trial 2 out of 60</p>","null","spm_show_trial_num","","","","","","","","","","","","","","","","","","","","","","","","",""
"","","","","","image-button-response","184","459866","0.0-3.0-2.0-1.1","5ce610802be975001b46f0ac","A3","batch1","","1747.5","img/question_1_2.jpeg","4","spm_respsonse","1","5","mat_02","","","","","","1","1747.5","","","","","","","","","","","","","","",""
"","","","","","html-keyboard-response","185","460924","0.0-3.0-2.0-0.2","5ce610802be975001b46f0ac","A3","batch1","","null","<p class=block-text>Trial 3 out of 60</p>","null","spm_show_trial_num","","","","","","","","","","","","","","","","","","","","","","","","",""
"","","","","","image-button-response","186","462481","0.0-3.0-2.0-1.2","5ce610802be975001b46f0ac","A3","batch1","","1555.7999992370605","img/question_1_3.jpeg","0","spm_respsonse","1","1","mat_03","","","","","","1","1555.7999992370605","","","","","","","","","","","","","","",""
"","","","","","html-keyboard-response","187","463538","0.0-3.0-2.0-0.3","5ce610802be975001b46f0ac","A3","batch1","","null","<p class=block-text>Trial 4 out of 60</p>","null","spm_show_trial_num","","","","","","","","","","","","","","","","","","","","","","","","",""
"","","","","","image-button-response","188","468114","0.0-3.0-2.0-1.3","5ce610802be975001b46f0ac","A3","batch1","","4574.300000190735","img/question_1_4.jpeg","1","spm_respsonse","1","2","mat_04","","","","","","1","4574.300000190735","","","","","","","","","","","","","","",""
"","","","","","html-keyboard-response","189","469170","0.0-3.0-2.0-0.4","5ce610802be975001b46f0ac","A3","batch1","","null","<p class=block-text>Trial 5 out of 60</p>","null","spm_show_trial_num","","","","","","","","","","","","","","","","","","","","","","","","",""
"","","","","","image-button-response","190","474002","0.0-3.0-2.0-1.4","5ce610802be975001b46f0ac","A3","batch1","","4829.60000038147","img/question_1_5.jpeg","5","spm_respsonse","1","6","mat_05","","","","","","1","4829.60000038147","","","","","","","","","","","","","","",""
"","","","","","html-keyboard-response","191","475054","0.0-3.0-2.0-0.5","5ce610802be975001b46f0ac","A3","batch1","","null","<p class=block-text>Trial 6 out of 60</p>","null","spm_show_trial_num","","","","","","","","","","","","","","","","","","","","","","","","",""
"","","","","","image-button-response","192","477658","0.0-3.0-2.0-1.5","5ce610802be975001b46f0ac","A3","batch1","","2602.800000190735","img/question_1_6.jpeg","2","spm_respsonse","1","3","mat_06","","","","","","1","2602.800000190735","","","","","","","","","","","","","","",""
"","","","","","html-keyboard-response","193","478712","0.0-3.0-2.0-0.6","5ce610802be975001b46f0ac","A3","batch1","","null","<p class=block-text>Trial 7 out of 60</p>","null","spm_show_trial_num","","","","","","","","","","","","","","","","","","","","","","","","",""
"","","","","","image-button-response","194","482066","0.0-3.0-2.0-1.6","5ce610802be975001b46f0ac","A3","batch1","","3351.699999809265","img/question_1_7.jpeg","5","spm_respsonse","1","6","mat_07","","","","","","1","3351.699999809265","","","","","","","","","","","","","","",""
"","","","","","html-keyboard-response","195","483121","0.0-3.0-2.0-0.7","5ce610802be975001b46f0ac","A3","batch1","","null","<p class=block-text>Trial 8 out of 60</p>","null","spm_show_trial_num","","","","","","","","","","","","","","","","","","","","","","","","",""
"","","","","","image-button-response","196","486922","0.0-3.0-2.0-1.7","5ce610802be975001b46f0ac","A3","batch1","","3799.3999996185303","img/question_1_8.jpeg","1","spm_respsonse","1","2","mat_08","","","","","","1","3799.3999996185303","","","","","","","","","","","","","","",""
"","","","","","html-keyboard-response","197","487990","0.0-3.0-2.0-0.8","5ce610802be975001b46f0ac","A3","batch1","","null","<p class=block-text>Trial 9 out of 60</p>","null","spm_show_trial_num","","","","","","","","","","","","","","","","","","","","","","","","",""
"","","","","","image-button-response","198","491930","0.0-3.0-2.0-1.8","5ce610802be975001b46f0ac","A3","batch1","","3938.4000005722046","img/question_1_9.jpeg","0","spm_respsonse","1","1","mat_09","","","","","","1","3938.4000005722046","","","","","","","","","","","","","","",""
"","","","","","html-keyboard-response","199","492982","0.0-3.0-2.0-0.9","5ce610802be975001b46f0ac","A3","batch1","","null","<p class=block-text>Trial 10 out of 60</p>","null","spm_show_trial_num","","","","","","","","","","","","","","","","","","","","","","","","",""
"","","","","","image-button-response","200","497290","0.0-3.0-2.0-1.9","5ce610802be975001b46f0ac","A3","batch1","","4306","img/question_1_10.jpeg","2","spm_respsonse","1","3","mat_10","","","","","","1","4306","","","","","","","","","","","","","","",""
"","","","","","html-keyboard-response","201","498352","0.0-3.0-2.0-0.10","5ce610802be975001b46f0ac","A3","batch1","","null","<p class=block-text>Trial 11 out of 60</p>","null","spm_show_trial_num","","","","","","","","","","","","","","","","","","","","","","","","",""
"","","","","","image-button-response","202","509826","0.0-3.0-2.0-1.10","5ce610802be975001b46f0ac","A3","batch1","","11472","img/question_1_11.jpeg","3","spm_respsonse","1","4","mat_11","","","","","","1","11472","","","","","","","","","","","","","","",""
"","","","","","html-keyboard-response","203","510885","0.0-3.0-2.0-0.11","5ce610802be975001b46f0ac","A3","batch1","","null","<p class=block-text>Trial 12 out of 60</p>","null","spm_show_trial_num","","","","","","","","","","","","","","","","","","","","","","","","",""
"","","","","","image-button-response","204","516762","0.0-3.0-2.0-1.11","5ce610802be975001b46f0ac","A3","batch1","","5874.89999961853","img/question_1_12.jpeg","0","spm_respsonse","0","5","mat_12","","","","","","0","5874.89999961853","","","","","","","","","","","","","","",""
"","","","","","html-keyboard-response","205","517825","0.0-3.0-2.0-0.12","5ce610802be975001b46f0ac","A3","batch1","","null","<p class=block-text>Trial 13 out of 60</p>","null","spm_show_trial_num","","","","","","","","","","","","","","","","","","","","","","","","",""
"","","","","","image-button-response","206","520042","0.0-3.0-2.0-1.12","5ce610802be975001b46f0ac","A3","batch1","","2214.8999996185303","img/question_2_1.jpeg","1","spm_respsonse","1","2","mat_13","","","","","","1","2214.8999996185303","","","","","","","","","","","","","","",""
"","","","","","html-keyboard-response","207","521093","0.0-3.0-2.0-0.13","5ce610802be975001b46f0ac","A3","batch1","","null","<p class=block-text>Trial 14 out of 60</p>","null","spm_show_trial_num","","","","","","","","","","","","","","","","","","","","","","","","",""
"","","","","","image-button-response","208","527666","0.0-3.0-2.0-1.13","5ce610802be975001b46f0ac","A3","batch1","","6570.699999809265","img/question_2_2.jpeg","5","spm_respsonse","1","6","mat_14","","","","","","1","6570.699999809265","","","","","","","","","","","","","","",""
"","","","","","html-keyboard-response","209","528727","0.0-3.0-2.0-0.14","5ce610802be975001b46f0ac","A3","batch1","","null","<p class=block-text>Trial 15 out of 60</p>","null","spm_show_trial_num","","","","","","","","","","","","","","","","","","","","","","","","",""
"","","","","","image-button-response","210","531954","0.0-3.0-2.0-1.14","5ce610802be975001b46f0ac","A3","batch1","","3225.3999996185303","img/question_2_3.jpeg","0","spm_respsonse","1","1","mat_15","","","","","","1","3225.3999996185303","","","","","","","","","","","","","","",""
"","","","","","html-keyboard-response","211","533021","0.0-3.0-2.0-0.15","5ce610802be975001b46f0ac","A3","batch1","","null","<p class=block-text>Trial 16 out of 60</p>","null","spm_show_trial_num","","","","","","","","","","","","","","","","","","","","","","","","",""
"","","","","","image-button-response","212","535666","0.0-3.0-2.0-1.15","5ce610802be975001b46f0ac","A3","batch1","","2643.300000190735","img/question_2_4.jpeg","1","spm_respsonse","1","2","mat_16","","","","","","1","2643.300000190735","","","","","","","","","","","","","","",""
"","","","","","html-keyboard-response","213","536723","0.0-3.0-2.0-0.16","5ce610802be975001b46f0ac","A3","batch1","","null","<p class=block-text>Trial 17 out of 60</p>","null","spm_show_trial_num","","","","","","","","","","","","","","","","","","","","","","","","",""
"","","","","","image-button-response","214","539914","0.0-3.0-2.0-1.16","5ce610802be975001b46f0ac","A3","batch1","","3188.699999809265","img/question_2_5.jpeg","0","spm_respsonse","1","1","mat_17","","","","","","1","3188.699999809265","","","","","","","","","","","","","","",""
"","","","","","html-keyboard-response","215","540977","0.0-3.0-2.0-0.17","5ce610802be975001b46f0ac","A3","batch1","","null","<p class=block-text>Trial 18 out of 60</p>","null","spm_show_trial_num","","","","","","","","","","","","","","","","","","","","","","","","",""
"","","","","","image-button-response","216","545914","0.0-3.0-2.0-1.17","5ce610802be975001b46f0ac","A3","batch1","","4935.300000190735","img/question_2_6.jpeg","2","spm_respsonse","1","3","mat_18","","","","","","1","4935.300000190735","","","","","","","","","","","","","","",""
"","","","","","html-keyboard-response","217","546967","0.0-3.0-2.0-0.18","5ce610802be975001b46f0ac","A3","batch1","","null","<p class=block-text>Trial 19 out of 60</p>","null","spm_show_trial_num","","","","","","","","","","","","","","","","","","","","","","","","",""
"","","","","","image-button-response","218","551130","0.0-3.0-2.0-1.18","5ce610802be975001b46f0ac","A3","batch1","","4161.5","img/question_2_7.jpeg","4","spm_respsonse","1","5","mat_19","","","","","","1","4161.5","","","","","","","","","","","","","","",""
"","","","","","html-keyboard-response","219","552187","0.0-3.0-2.0-0.19","5ce610802be975001b46f0ac","A3","batch1","","null","<p class=block-text>Trial 20 out of 60</p>","null","spm_show_trial_num","","","","","","","","","","","","","","","","","","","","","","","","",""
"","","","","","image-button-response","220","556258","0.0-3.0-2.0-1.19","5ce610802be975001b46f0ac","A3","batch1","","4069.3999996185303","img/question_2_8.jpeg","5","spm_respsonse","1","6","mat_20","","","","","","1","4069.3999996185303","","","","","","","","","","","","","","",""
"","","","","","html-keyboard-response","221","557325","0.0-3.0-2.0-0.20","5ce610802be975001b46f0ac","A3","batch1","","null","<p class=block-text>Trial 21 out of 60</p>","null","spm_show_trial_num","","","","","","","","","","","","","","","","","","","","","","","","",""
"","","","","","image-button-response","222","563161","0.0-3.0-2.0-1.20","5ce610802be975001b46f0ac","A3","batch1","","5835.300000190735","img/question_2_9.jpeg","3","spm_respsonse","1","4","mat_21","","","","","","1","5835.300000190735","","","","","","","","","","","","","","",""
"","","","","","html-keyboard-response","223","564234","0.0-3.0-2.0-0.21","5ce610802be975001b46f0ac","A3","batch1","","null","<p class=block-text>Trial 22 out of 60</p>","null","spm_show_trial_num","","","","","","","","","","","","","","","","","","","","","","","","",""
"","","","","","image-button-response","224","569881","0.0-3.0-2.0-1.21","5ce610802be975001b46f0ac","A3","batch1","","5645.5","img/question_2_10.jpeg","2","spm_respsonse","1","3","mat_22","","","","","","1","5645.5","","","","","","","","","","","","","","",""
"","","","","","html-keyboard-response","225","570933","0.0-3.0-2.0-0.22","5ce610802be975001b46f0ac","A3","batch1","","null","<p class=block-text>Trial 23 out of 60</p>","null","spm_show_trial_num","","","","","","","","","","","","","","","","","","","","","","","","",""
"","","","","","image-button-response","226","578161","0.0-3.0-2.0-1.22","5ce610802be975001b46f0ac","A3","batch1","","7226.5","img/question_2_11.jpeg","3","spm_respsonse","1","4","mat_23","","","","","","1","7226.5","","","","","","","","","","","","","","",""
"","","","","","html-keyboard-response","227","579214","0.0-3.0-2.0-0.23","5ce610802be975001b46f0ac","A3","batch1","","null","<p class=block-text>Trial 24 out of 60</p>","null","spm_show_trial_num","","","","","","","","","","","","","","","","","","","","","","","","",""
"","","","","","image-button-response","228","593857","0.0-3.0-2.0-1.23","5ce610802be975001b46f0ac","A3","batch1","","14641","img/question_2_12.jpeg","4","spm_respsonse","1","5","mat_24","","","","","","1","14641","","","","","","","","","","","","","","",""
"","","","","","html-button-response","229","604961","0.0-3.0-3.0","5ce610802be975001b46f0ac","A3","batch1","","10852","<p class = block-text>Attention check: Please choose 1<br></p>","0","attention_check","true","","","","","","","","","","","","","","","","","","","","","","","",""
"","","","","","html-keyboard-response","230","605766","0.0-3.0-4.0-0.0","5ce610802be975001b46f0ac","A3","batch1","","null","<p class=block-text>Trial 25 out of 60</p>","null","spm_show_trial_num","","","","","","","","","","","","","","","","","","","","","","","","",""
"","","","","","image-button-response","231","613353","0.0-3.0-4.0-1.0","5ce610802be975001b46f0ac","A3","batch1","","7584.900000572205","img/question_3_1.jpeg","7","spm_respsonse","1","8","mat_25","","","","","","1","7584.900000572205","","","","","","","","","","","","","","",""
"","","","","","html-keyboard-response","232","614416","0.0-3.0-4.0-0.1","5ce610802be975001b46f0ac","A3","batch1","","null","<p class=block-text>Trial 26 out of 60</p>","null","spm_show_trial_num","","","","","","","","","","","","","","","","","","","","","","","","",""
"","","","","","image-button-response","233","623682","0.0-3.0-4.0-1.1","5ce610802be975001b46f0ac","A3","batch1","","9263.699999809265","img/question_3_2.jpeg","1","spm_respsonse","1","2","mat_26","","","","","","1","9263.699999809265","","","","","","","","","","","","","","",""
"","","","","","html-keyboard-response","234","624734","0.0-3.0-4.0-0.2","5ce610802be975001b46f0ac","A3","batch1","","null","<p class=block-text>Trial 27 out of 60</p>","null","spm_show_trial_num","","","","","","","","","","","","","","","","","","","","","","","","",""
"","","","","","image-button-response","235","631602","0.0-3.0-4.0-1.2","5ce610802be975001b46f0ac","A3","batch1","","6866.400000572205","img/question_3_3.jpeg","2","spm_respsonse","1","3","mat_27","","","","","","1","6866.400000572205","","","","","","","","","","","","","","",""
"","","","","","html-keyboard-response","236","632655","0.0-3.0-4.0-0.3","5ce610802be975001b46f0ac","A3","batch1","","null","<p class=block-text>Trial 28 out of 60</p>","null","spm_show_trial_num","","","","","","","","","","","","","","","","","","","","","","","","",""
"","","","","","image-button-response","237","645722","0.0-3.0-4.0-1.3","5ce610802be975001b46f0ac","A3","batch1","","13065.10000038147","img/question_3_4.jpeg","7","spm_respsonse","1","8","mat_28","","","","","","1","13065.10000038147","","","","","","","","","","","","","","",""
"","","","","","html-keyboard-response","238","646774","0.0-3.0-4.0-0.4","5ce610802be975001b46f0ac","A3","batch1","","null","<p class=block-text>Trial 29 out of 60</p>","null","spm_show_trial_num","","","","","","","","","","","","","","","","","","","","","","","","",""
"","","","","","image-button-response","239","657018","0.0-3.0-4.0-1.4","5ce610802be975001b46f0ac","A3","batch1","","10241.89999961853","img/question_3_5.jpeg","6","spm_respsonse","1","7","mat_29","","","","","","1","10241.89999961853","","","","","","","","","","","","","","",""
"","","","","","html-keyboard-response","240","658084","0.0-3.0-4.0-0.5","5ce610802be975001b46f0ac","A3","batch1","","null","<p class=block-text>Trial 30 out of 60</p>","null","spm_show_trial_num","","","","","","","","","","","","","","","","","","","","","","","","",""
"","","","","","image-button-response","241","668346","0.0-3.0-4.0-1.5","5ce610802be975001b46f0ac","A3","batch1","","10259.900000572205","img/question_3_6.jpeg","3","spm_respsonse","1","4","mat_30","","","","","","1","10259.900000572205","","","","","","","","","","","","","","",""
"","","","","","html-keyboard-response","242","669400","0.0-3.0-4.0-0.6","5ce610802be975001b46f0ac","A3","batch1","","null","<p class=block-text>Trial 31 out of 60</p>","null","spm_show_trial_num","","","","","","","","","","","","","","","","","","","","","","","","",""
"","","","","","image-button-response","243","674362","0.0-3.0-4.0-1.6","5ce610802be975001b46f0ac","A3","batch1","","4960.199999809265","img/question_3_7.jpeg","4","spm_respsonse","1","5","mat_31","","","","","","1","4960.199999809265","","","","","","","","","","","","","","",""
"","","","","","html-keyboard-response","244","675435","0.0-3.0-4.0-0.7","5ce610802be975001b46f0ac","A3","batch1","","null","<p class=block-text>Trial 32 out of 60</p>","null","spm_show_trial_num","","","","","","","","","","","","","","","","","","","","","","","","",""
"","","","","","image-button-response","245","685858","0.0-3.0-4.0-1.7","5ce610802be975001b46f0ac","A3","batch1","","10421.10000038147","img/question_3_8.jpeg","0","spm_respsonse","1","1","mat_32","","","","","","1","10421.10000038147","","","","","","","","","","","","","","",""
"","","","","","html-keyboard-response","246","686934","0.0-3.0-4.0-0.8","5ce610802be975001b46f0ac","A3","batch1","","null","<p class=block-text>Trial 33 out of 60</p>","null","spm_show_trial_num","","","","","","","","","","","","","","","","","","","","","","","","",""
"","","","","","image-button-response","247","695506","0.0-3.0-4.0-1.8","5ce610802be975001b46f0ac","A3","batch1","","8570","img/question_3_9.jpeg","6","spm_respsonse","1","7","mat_33","","","","","","1","8570","","","","","","","","","","","","","","",""
"","","","","","html-keyboard-response","248","696559","0.0-3.0-4.0-0.9","5ce610802be975001b46f0ac","A3","batch1","","null","<p class=block-text>Trial 34 out of 60</p>","null","spm_show_trial_num","","","","","","","","","","","","","","","","","","","","","","","","",""
"","","","","","image-button-response","249","705562","0.0-3.0-4.0-1.9","5ce610802be975001b46f0ac","A3","batch1","","9001.699999809265","img/question_3_10.jpeg","5","spm_respsonse","1","6","mat_34","","","","","","1","9001.699999809265","","","","","","","","","","","","","","",""
"","","","","","html-keyboard-response","250","706614","0.0-3.0-4.0-0.10","5ce610802be975001b46f0ac","A3","batch1","","null","<p class=block-text>Trial 35 out of 60</p>","null","spm_show_trial_num","","","","","","","","","","","","","","","","","","","","","","","","",""
"","","","","","image-button-response","251","717186","0.0-3.0-4.0-1.10","5ce610802be975001b46f0ac","A3","batch1","","10570.5","img/question_3_11.jpeg","0","spm_respsonse","1","1","mat_35","","","","","","1","10570.5","","","","","","","","","","","","","","",""
"","","","","","html-keyboard-response","252","718248","0.0-3.0-4.0-0.11","5ce610802be975001b46f0ac","A3","batch1","","null","<p class=block-text>Trial 36 out of 60</p>","null","spm_show_trial_num","","","","","","","","","","","","","","","","","","","","","","","","",""
"","","","","","image-button-response","253","726801","0.0-3.0-4.0-1.11","5ce610802be975001b46f0ac","A3","batch1","","8552","img/question_3_12.jpeg","1","spm_respsonse","1","2","mat_36","","","","","","1","8552","","","","","","","","","","","","","","",""
"","","","","","html-keyboard-response","254","727866","0.0-3.0-4.0-0.12","5ce610802be975001b46f0ac","A3","batch1","","null","<p class=block-text>Trial 37 out of 60</p>","null","spm_show_trial_num","","","","","","","","","","","","","","","","","","","","","","","","",""
"","","","","","image-button-response","255","731746","0.0-3.0-4.0-1.12","5ce610802be975001b46f0ac","A3","batch1","","3878","img/question_4_1.jpeg","2","spm_respsonse","1","3","mat_37","","","","","","1","3878","","","","","","","","","","","","","","",""
"","","","","","html-keyboard-response","256","732813","0.0-3.0-4.0-0.13","5ce610802be975001b46f0ac","A3","batch1","","null","<p class=block-text>Trial 38 out of 60</p>","null","spm_show_trial_num","","","","","","","","","","","","","","","","","","","","","","","","",""
"","","","","","image-button-response","257","741514","0.0-3.0-4.0-1.13","5ce610802be975001b46f0ac","A3","batch1","","8699.5","img/question_4_2.jpeg","3","spm_respsonse","1","4","mat_38","","","","","","1","8699.5","","","","","","","","","","","","","","",""
"","","","","","html-keyboard-response","258","742574","0.0-3.0-4.0-0.14","5ce610802be975001b46f0ac","A3","batch1","","null","<p class=block-text>Trial 39 out of 60</p>","null","spm_show_trial_num","","","","","","","","","","","","","","","","","","","","","","","","",""
"","","","","","image-button-response","259","754538","0.0-3.0-4.0-1.14","5ce610802be975001b46f0ac","A3","batch1","","11962","img/question_4_3.jpeg","2","spm_respsonse","1","3","mat_39","","","","","","1","11962","","","","","","","","","","","","","","",""
"","","","","","html-keyboard-response","260","755592","0.0-3.0-4.0-0.15","5ce610802be975001b46f0ac","A3","batch1","","null","<p class=block-text>Trial 40 out of 60</p>","null","spm_show_trial_num","","","","","","","","","","","","","","","","","","","","","","","","",""
"","","","","","image-button-response","261","761506","0.0-3.0-4.0-1.15","5ce610802be975001b46f0ac","A3","batch1","","5912.5","img/question_4_4.jpeg","6","spm_respsonse","1","7","mat_40","","","","","","1","5912.5","","","","","","","","","","","","","","",""
"","","","","","html-keyboard-response","262","762568","0.0-3.0-4.0-0.16","5ce610802be975001b46f0ac","A3","batch1","","null","<p class=block-text>Trial 41 out of 60</p>","null","spm_show_trial_num","","","","","","","","","","","","","","","","","","","","","","","","",""
"","","","","","image-button-response","263","770786","0.0-3.0-4.0-1.16","5ce610802be975001b46f0ac","A3","batch1","","8216.300000190735","img/question_4_5.jpeg","7","spm_respsonse","1","8","mat_41","","","","","","1","8216.300000190735","","","","","","","","","","","","","","",""
"","","","","","html-keyboard-response","264","771838","0.0-3.0-4.0-0.17","5ce610802be975001b46f0ac","A3","batch1","","null","<p class=block-text>Trial 42 out of 60</p>","null","spm_show_trial_num","","","","","","","","","","","","","","","","","","","","","","","","",""
"","","","","","image-button-response","265","782826","0.0-3.0-4.0-1.17","5ce610802be975001b46f0ac","A3","batch1","","10986.599999427795","img/question_4_6.jpeg","5","spm_respsonse","1","6","mat_42","","","","","","1","10986.599999427795","","","","","","","","","","","","","","",""
"","","","","","html-keyboard-response","266","783888","0.0-3.0-4.0-0.18","5ce610802be975001b46f0ac","A3","batch1","","null","<p class=block-text>Trial 43 out of 60</p>","null","spm_show_trial_num","","","","","","","","","","","","","","","","","","","","","","","","",""
"","","","","","image-button-response","267","798074","0.0-3.0-4.0-1.18","5ce610802be975001b46f0ac","A3","batch1","","14184.400000572205","img/question_4_7.jpeg","4","spm_respsonse","1","5","mat_43","","","","","","1","14184.400000572205","","","","","","","","","","","","","","",""
"","","","","","html-keyboard-response","268","799125","0.0-3.0-4.0-0.19","5ce610802be975001b46f0ac","A3","batch1","","null","<p class=block-text>Trial 44 out of 60</p>","null","spm_show_trial_num","","","","","","","","","","","","","","","","","","","","","","","","",""
"","","","","","image-button-response","269","811242","0.0-3.0-4.0-1.19","5ce610802be975001b46f0ac","A3","batch1","","12115.199999809265","img/question_4_8.jpeg","3","spm_respsonse","1","4","mat_44","","","","","","1","12115.199999809265","","","","","","","","","","","","","","",""
"","","","","","html-keyboard-response","270","812300","0.0-3.0-4.0-0.20","5ce610802be975001b46f0ac","A3","batch1","","null","<p class=block-text>Trial 45 out of 60</p>","null","spm_show_trial_num","","","","","","","","","","","","","","","","","","","","","","","","",""
"","","","","","image-button-response","271","827306","0.0-3.0-4.0-1.20","5ce610802be975001b46f0ac","A3","batch1","","15004","img/question_4_9.jpeg","0","spm_respsonse","1","1","mat_45","","","","","","1","15004","","","","","","","","","","","","","","",""
"","","","","","html-keyboard-response","272","828358","0.0-3.0-4.0-0.21","5ce610802be975001b46f0ac","A3","batch1","","null","<p class=block-text>Trial 46 out of 60</p>","null","spm_show_trial_num","","","","","","","","","","","","","","","","","","","","","","","","",""
"","","","","","image-button-response","273","849897","0.0-3.0-4.0-1.21","5ce610802be975001b46f0ac","A3","batch1","","21537.800000190735","img/question_4_10.jpeg","1","spm_respsonse","1","2","mat_46","","","","","","1","21537.800000190735","","","","","","","","","","","","","","",""
"","","","","","html-keyboard-response","274","850956","0.0-3.0-4.0-0.22","5ce610802be975001b46f0ac","A3","batch1","","null","<p class=block-text>Trial 47 out of 60</p>","null","spm_show_trial_num","","","","","","","","","","","","","","","","","","","","","","","","",""
"","","","","","image-button-response","275","904258","0.0-3.0-4.0-1.22","5ce610802be975001b46f0ac","A3","batch1","","53299.79999923706","img/question_4_11.jpeg","4","spm_respsonse","1","5","mat_47","","","","","","1","53299.79999923706","","","","","","","","","","","","","","",""
"","","","","","html-keyboard-response","276","905316","0.0-3.0-4.0-0.23","5ce610802be975001b46f0ac","A3","batch1","","null","<p class=block-text>Trial 48 out of 60</p>","null","spm_show_trial_num","","","","","","","","","","","","","","","","","","","","","","","","",""
"","","","","","image-button-response","277","1013930","0.0-3.0-4.0-1.23","5ce610802be975001b46f0ac","A3","batch1","","108612.60000038147","img/question_4_12.jpeg","5","spm_respsonse","1","6","mat_48","","","","","","1","108612.60000038147","","","","","","","","","","","","","","",""
"","","","","","html-keyboard-response","278","1014989","0.0-3.0-4.0-0.24","5ce610802be975001b46f0ac","A3","batch1","","null","<p class=block-text>Trial 49 out of 60</p>","null","spm_show_trial_num","","","","","","","","","","","","","","","","","","","","","","","","",""
"","","","","","image-button-response","279","1026954","0.0-3.0-4.0-1.24","5ce610802be975001b46f0ac","A3","batch1","","11963.300000190735","img/question_5_1.jpeg","6","spm_respsonse","1","7","mat_49","","","","","","1","11963.300000190735","","","","","","","","","","","","","","",""
"","","","","","html-keyboard-response","280","1028020","0.0-3.0-4.0-0.25","5ce610802be975001b46f0ac","A3","batch1","","null","<p class=block-text>Trial 50 out of 60</p>","null","spm_show_trial_num","","","","","","","","","","","","","","","","","","","","","","","","",""
"","","","","","image-button-response","281","1043362","0.0-3.0-4.0-1.25","5ce610802be975001b46f0ac","A3","batch1","","15340.39999961853","img/question_5_2.jpeg","5","spm_respsonse","1","6","mat_50","","","","","","1","15340.39999961853","","","","","","","","","","","","","","",""
"","","","","","html-keyboard-response","282","1044422","0.0-3.0-4.0-0.26","5ce610802be975001b46f0ac","A3","batch1","","null","<p class=block-text>Trial 51 out of 60</p>","null","spm_show_trial_num","","","","","","","","","","","","","","","","","","","","","","","","",""
"","","","","","image-button-response","283","1058075","0.0-3.0-4.0-1.26","5ce610802be975001b46f0ac","A3","batch1","","13650.60000038147","img/question_5_3.jpeg","7","spm_respsonse","1","8","mat_51","","","","","","1","13650.60000038147","","","","","","","","","","","","","","",""
"","","","","","html-keyboard-response","284","1059142","0.0-3.0-4.0-0.27","5ce610802be975001b46f0ac","A3","batch1","","null","<p class=block-text>Trial 52 out of 60</p>","null","spm_show_trial_num","","","","","","","","","","","","","","","","","","","","","","","","",""
"","","","","","image-button-response","285","1068522","0.0-3.0-4.0-1.27","5ce610802be975001b46f0ac","A3","batch1","","9378.5","img/question_5_4.jpeg","1","spm_respsonse","1","2","mat_52","","","","","","1","9378.5","","","","","","","","","","","","","","",""
"","","","","","html-keyboard-response","286","1069580","0.0-3.0-4.0-0.28","5ce610802be975001b46f0ac","A3","batch1","","null","<p class=block-text>Trial 53 out of 60</p>","null","spm_show_trial_num","","","","","","","","","","","","","","","","","","","","","","","","",""
"","","","","","image-button-response","287","1077082","0.0-3.0-4.0-1.28","5ce610802be975001b46f0ac","A3","batch1","","7499.89999961853","img/question_5_5.jpeg","0","spm_respsonse","1","1","mat_53","","","","","","1","7499.89999961853","","","","","","","","","","","","","","",""
"","","","","","html-keyboard-response","288","1078149","0.0-3.0-4.0-0.29","5ce610802be975001b46f0ac","A3","batch1","","null","<p class=block-text>Trial 54 out of 60</p>","null","spm_show_trial_num","","","","","","","","","","","","","","","","","","","","","","","","",""
"","","","","","image-button-response","289","1201034","0.0-3.0-4.0-1.29","5ce610802be975001b46f0ac","A3","batch1","","122883.30000019073","img/question_5_6.jpeg","4","spm_respsonse","1","5","mat_54","","","","","","1","122883.30000019073","","","","","","","","","","","","","","",""
"","","","","","html-keyboard-response","290","1202085","0.0-3.0-4.0-0.30","5ce610802be975001b46f0ac","A3","batch1","","null","<p class=block-text>Trial 55 out of 60</p>","null","spm_show_trial_num","","","","","","","","","","","","","","","","","","","","","","","","",""
"","","","","","image-button-response","291","1242138","0.0-3.0-4.0-1.30","5ce610802be975001b46f0ac","A3","batch1","","40051.10000038147","img/question_5_7.jpeg","0","spm_respsonse","1","1","mat_55","","","","","","1","40051.10000038147","","","","","","","","","","","","","","",""
"","","","","","html-keyboard-response","292","1243209","0.0-3.0-4.0-0.31","5ce610802be975001b46f0ac","A3","batch1","","null","<p class=block-text>Trial 56 out of 60</p>","null","spm_show_trial_num","","","","","","","","","","","","","","","","","","","","","","","","",""
"","","","","","image-button-response","293","1267610","0.0-3.0-4.0-1.31","5ce610802be975001b46f0ac","A3","batch1","","24399.20000076294","img/question_5_8.jpeg","5","spm_respsonse","1","6","mat_56","","","","","","1","24399.20000076294","","","","","","","","","","","","","","",""
"","","","","","html-keyboard-response","294","1268662","0.0-3.0-4.0-0.32","5ce610802be975001b46f0ac","A3","batch1","","null","<p class=block-text>Trial 57 out of 60</p>","null","spm_show_trial_num","","","","","","","","","","","","","","","","","","","","","","","","",""
"","","","","","image-button-response","295","1290498","0.0-3.0-4.0-1.32","5ce610802be975001b46f0ac","A3","batch1","","21834.300000190735","img/question_5_9.jpeg","2","spm_respsonse","1","3","mat_57","","","","","","1","21834.300000190735","","","","","","","","","","","","","","",""
"","","","","","html-keyboard-response","296","1291556","0.0-3.0-4.0-0.33","5ce610802be975001b46f0ac","A3","batch1","","null","<p class=block-text>Trial 58 out of 60</p>","null","spm_show_trial_num","","","","","","","","","","","","","","","","","","","","","","","","",""
"","","","","","image-button-response","297","1390610","0.0-3.0-4.0-1.33","5ce610802be975001b46f0ac","A3","batch1","","99052.5","img/question_5_10.jpeg","1","spm_respsonse","1","2","mat_58","","","","","","1","99052.5","","","","","","","","","","","","","","",""
"","","","","","html-keyboard-response","298","1391674","0.0-3.0-4.0-0.34","5ce610802be975001b46f0ac","A3","batch1","","null","<p class=block-text>Trial 59 out of 60</p>","null","spm_show_trial_num","","","","","","","","","","","","","","","","","","","","","","","","",""
"","","","","","image-button-response","299","1457666","0.0-3.0-4.0-1.34","5ce610802be975001b46f0ac","A3","batch1","","65990.5999994278","img/question_5_11.jpeg","2","spm_respsonse","0","4","mat_59","","","","","","0","65990.5999994278","","","","","","","","","","","","","","",""
"","","","","","html-keyboard-response","300","1458718","0.0-3.0-4.0-0.35","5ce610802be975001b46f0ac","A3","batch1","","null","<p class=block-text>Trial 60 out of 60</p>","null","spm_show_trial_num","","","","","","","","","","","","","","","","","","","","","","","","",""
"","","","","","image-button-response","301","1469122","0.0-3.0-4.0-1.35","5ce610802be975001b46f0ac","A3","batch1","","10402.5","img/question_5_12.jpeg","1","spm_respsonse","0","5","mat_60","","","","","","0","10402.5","","","","","","","","","","","","","","",""
"","","","","","html-button-response","302","1471098","0.0-3.0-5.0","5ce610802be975001b46f0ac","A3","batch1","","1724.8999996185303","<p class= block-text>This concludes the Standard Progressive Matrix game. Thank you for your responses!<br> When you are ready, click the button continue</p>","0","spm_goodbye","","","","","","","","","","","","","","","","","","","","","","","","",""
"true","","","","","fullscreen","303","1474038","0.0-4.0-0.0","5ce610802be975001b46f0ac","A3","batch1","","","","","","","","","","","","","","","","","","","","","","","","","","","","","",""
"","","","","","instructions","304","1512890","0.0-4.0-1.0-0.0-0.0","5ce610802be975001b46f0ac","A3","batch1","[{""page_index"":0,""viewing_time"":5707.199999809265},{""page_index"":1,""viewing_time"":3207.9000005722046},{""page_index"":2,""viewing_time"":2847.8999996185303},{""page_index"":3,""viewing_time"":9008.199999809265},{""page_index"":4,""viewing_time"":4232},{""page_index"":5,""viewing_time"":12127.5},{""page_index"":6,""viewing_time"":1720.3000001907349}]","38851.300000190735","","","tol-instructions","","","","","","","","","","","","","","","","","","","","","","","","",""
"","","","","","html-button-response","305","1513578","0.0-4.0-1.0-1.0-0.0","5ce610802be975001b46f0ac","A3","batch1","","687.1999998092651","<p class=block-text> Let's answer a few questions <br>","0","tol_enter_quiz","","","","","","","","","","","","","","","","","","","","","","","","",""
"","","","","","html-button-response","306","1517634","0.0-4.0-1.0-1.0-1.0","5ce610802be975001b46f0ac","A3","batch1","","4055","<p class = block-text>True or False: You can only move the ball on top of a peg. <br></p>","0","tol_quiz","true","","","","","","","","","","","","","","","","","","","","","","","",""
"","","","","","html-button-response","307","1518242","0.0-4.0-1.0-1.0-2.0","5ce610802be975001b46f0ac","A3","batch1","","606.3999996185303","<p class = block-text>Correct! You can only move the ball on top of a peg.</p>","0","tol_quiz_feedback","","","","","","","","","","","","","","","","","","","","","","","","",""
"","","","","","html-button-response","308","1520362","0.0-4.0-1.0-1.0-3.0","5ce610802be975001b46f0ac","A3","batch1","","2119.5","<p class = block-text>True or False: You should try to match your board with the target board with fewest moves possible. <br></p>","0","tol_quiz","true","","","","","","","","","","","","","","","","","","","","","","","",""
"","","","","","html-button-response","309","1520722","0.0-4.0-1.0-1.0-4.0","5ce610802be975001b46f0ac","A3","batch1","","359","<p class = block-text>Correct! </p>","0","tol_quiz_feedback","","","","","","","","","","","","","","","","","","","","","","","","",""
"","","","","","html-button-response","310","1521346","0.0-4.0-2.0","5ce610802be975001b46f0ac","A3","batch1","","623","<p class=block-text> Now that you've understood the game, let's practice a few easier examples before we start!<br> <br>","0","","","","","","","","","","","","","","","","","","","","","","","","","",""
"","","","","","single-stim-button","311","1522779","0.0-4.0-3.0-0.0","5ce610802be975001b46f0ac","A3","batch1","","1431","","","tol_practice","","","","","","","","","","","tol_peg_2","1431","1431","0","[[1,2,0],[0,0],[0]]","1","[[1,2,0],[0,0],[3]]","practice","1431","","","","","",""
"","","","","","single-stim-button","312","1523362","0.0-4.0-3.0-1.0","5ce610802be975001b46f0ac","A3","batch1","","583","","","tol_practice","","","","","","","","","","","tol_peg_3","583","583","0","[[1,2,0],[0,0],[3]]","1","[[1,2,0],[0,0],[3]]","practice","583","","","","","",""
"","","","","","poldrack-single-stim","313","1524377","0.0-4.0-4.0","5ce610802be975001b46f0ac","A3","batch1","","-1","","","tol_feedback","true","","","","","","","","","","","1000","1000","500","","","","","","-1","none","true","","0",""
"","","","","","single-stim-button","314","1528242","0.0-4.0-5.0-0.0","5ce610802be975001b46f0ac","A3","batch1","","3864","","","tol_practice","","","","","","","","","","","tol_peg_1","3864","3864","0","[[1,0,0],[3,0],[0]]","2","[[0,0,0],[3,1],[2]]","practice","3864","","","","","",""
"","","","","","single-stim-button","315","1537154","0.0-4.0-5.0-1.0","5ce610802be975001b46f0ac","A3","batch1","","8911","","","tol_practice","","","","","","","","","","","tol_peg_3","8911","8911","0","[[1,0,0],[3,0],[2]]","2","[[0,0,0],[3,1],[2]]","practice","8911","","","","","",""
"","","","","","single-stim-button","316","1538658","0.0-4.0-5.1-0.1","5ce610802be975001b46f0ac","A3","batch1","","1503","","","tol_practice","","","","","","","","","","","tol_peg_3","1503","1503","0","[[1,0,0],[3,0],[0]]","3","[[0,0,0],[3,1],[2]]","practice","1503","","","","","",""
"","","","","","single-stim-button","317","1540218","0.0-4.0-5.1-1.1","5ce610802be975001b46f0ac","A3","batch1","","1560","","","tol_practice","","","","","","","","","","","tol_peg_1","1560","1560","0","[[1,2,0],[3,0],[0]]","3","[[0,0,0],[3,1],[2]]","practice","1560","","","","","",""
"","","","","","single-stim-button","318","1541378","0.0-4.0-5.2-0.2","5ce610802be975001b46f0ac","A3","batch1","","1160","","","tol_practice","","","","","","","","","","","tol_peg_2","1160","1160","0","[[1,2,0],[0,0],[0]]","4","[[0,0,0],[3,1],[2]]","practice","1160","","","","","",""
"","","","","","single-stim-button","319","1542002","0.0-4.0-5.2-1.2","5ce610802be975001b46f0ac","A3","batch1","","624","","","tol_practice","","","","","","","","","","","tol_peg_3","624","624","0","[[1,2,0],[0,0],[3]]","4","[[0,0,0],[3,1],[2]]","practice","624","","","","","",""
"","","","","","single-stim-button","320","1542778","0.0-4.0-5.3-0.3","5ce610802be975001b46f0ac","A3","batch1","","775","","","tol_practice","","","","","","","","","","","tol_peg_1","775","775","0","[[1,0,0],[0,0],[3]]","5","[[0,0,0],[3,1],[2]]","practice","775","","","","","",""
"","","","","","single-stim-button","321","1543706","0.0-4.0-5.3-1.3","5ce610802be975001b46f0ac","A3","batch1","","928","","","tol_practice","","","","","","","","","","","tol_peg_2","928","928","0","[[1,0,0],[2,0],[3]]","5","[[0,0,0],[3,1],[2]]","practice","928","","","","","",""
"","","","","","single-stim-button","322","1544234","0.0-4.0-5.4-0.4","5ce610802be975001b46f0ac","A3","batch1","","527","","","tol_practice","","","","","","","","","","","tol_peg_1","527","527","0","[[0,0,0],[2,0],[3]]","6","[[0,0,0],[3,1],[2]]","practice","527","","","","","",""
"","","","","","single-stim-button","323","1544946","0.0-4.0-5.4-1.4","5ce610802be975001b46f0ac","A3","batch1","","711","","","tol_practice","","","","","","","","","","","tol_peg_2","711","711","0","[[0,0,0],[2,1],[3]]","6","[[0,0,0],[3,1],[2]]","practice","711","","","","","",""
"","","","","","single-stim-button","324","1545738","0.0-4.0-5.5-0.5","5ce610802be975001b46f0ac","A3","batch1","","791","","","tol_practice","","","","","","","","","","","tol_peg_3","791","791","0","[[0,0,0],[2,1],[0]]","7","[[0,0,0],[3,1],[2]]","practice","791","","","","","",""
"","","","","","single-stim-button","325","1547802","0.0-4.0-5.5-1.5","5ce610802be975001b46f0ac","A3","batch1","","2064","","","tol_practice","","","","","","","","","","","tol_peg_1","2064","2064","0","[[3,0,0],[2,1],[0]]","7","[[0,0,0],[3,1],[2]]","practice","2064","","","","","",""
"","","","","","single-stim-button","326","1548538","0.0-4.0-5.6-0.6","5ce610802be975001b46f0ac","A3","batch1","","736","","","tol_practice","","","","","","","","","","","tol_peg_2","736","736","0","[[3,0,0],[2,0],[0]]","8","[[0,0,0],[3,1],[2]]","practice","736","","","","","",""
"","","","","","single-stim-button","327","1548922","0.0-4.0-5.6-1.6","5ce610802be975001b46f0ac","A3","batch1","","384","","","tol_practice","","","","","","","","","","","tol_peg_1","384","384","0","[[3,1,0],[2,0],[0]]","8","[[0,0,0],[3,1],[2]]","practice","384","","","","","",""
"","","","","","single-stim-button","328","1549346","0.0-4.0-5.7-0.7","5ce610802be975001b46f0ac","A3","batch1","","424","","","tol_practice","","","","","","","","","","","tol_peg_2","424","424","0","[[3,1,0],[0,0],[0]]","9","[[0,0,0],[3,1],[2]]","practice","424","","","","","",""
"","","","","","single-stim-button","329","1549738","0.0-4.0-5.7-1.7","5ce610802be975001b46f0ac","A3","batch1","","392","","","tol_practice","","","","","","","","","","","tol_peg_3","392","392","0","[[3,1,0],[0,0],[2]]","9","[[0,0,0],[3,1],[2]]","practice","392","","","","","",""
"","","","","","single-stim-button","330","1550363","0.0-4.0-5.8-0.8","5ce610802be975001b46f0ac","A3","batch1","","625","","","tol_practice","","","","","","","","","","","tol_peg_1","625","625","0","[[3,0,0],[0,0],[2]]","10","[[0,0,0],[3,1],[2]]","practice","625","","","","","",""
"","","","","","single-stim-button","331","1550810","0.0-4.0-5.8-1.8","5ce610802be975001b46f0ac","A3","batch1","","447","","","tol_practice","","","","","","","","","","","tol_peg_2","447","447","0","[[3,0,0],[1,0],[2]]","10","[[0,0,0],[3,1],[2]]","practice","447","","","","","",""
"","","","","","single-stim-button","332","1551563","0.0-4.0-5.9-0.9","5ce610802be975001b46f0ac","A3","batch1","","752","","","tol_practice","","","","","","","","","","","tol_peg_1","752","752","0","[[0,0,0],[1,0],[2]]","11","[[0,0,0],[3,1],[2]]","practice","752","","","","","",""
"","","","","","single-stim-button","333","1551930","0.0-4.0-5.9-1.9","5ce610802be975001b46f0ac","A3","batch1","","367","","","tol_practice","","","","","","","","","","","tol_peg_2","367","367","0","[[0,0,0],[1,3],[2]]","11","[[0,0,0],[3,1],[2]]","practice","367","","","","","",""
"","","","","","single-stim-button","334","1552610","0.0-4.0-5.10-0.10","5ce610802be975001b46f0ac","A3","batch1","","680","","","tol_practice","","","","","","","","","","","tol_peg_2","680","680","0","[[0,0,0],[1,0],[2]]","12","[[0,0,0],[3,1],[2]]","practice","680","","","","","",""
"","","","","","single-stim-button","335","1552882","0.0-4.0-5.10-1.10","5ce610802be975001b46f0ac","A3","batch1","","272","","","tol_practice","","","","","","","","","","","tol_peg_1","272","272","0","[[3,0,0],[1,0],[2]]","12","[[0,0,0],[3,1],[2]]","practice","272","","","","","",""
"","","","","","single-stim-button","336","1553243","0.0-4.0-5.11-0.11","5ce610802be975001b46f0ac","A3","batch1","","360","","","tol_practice","","","","","","","","","","","tol_peg_2","360","360","0","[[3,0,0],[0,0],[2]]","13","[[0,0,0],[3,1],[2]]","practice","360","","","","","",""
"","","","","","single-stim-button","337","1553490","0.0-4.0-5.11-1.11","5ce610802be975001b46f0ac","A3","batch1","","247","","","tol_practice","","","","","","","","","","","tol_peg_1","247","247","0","[[3,1,0],[0,0],[2]]","13","[[0,0,0],[3,1],[2]]","practice","247","","","","","",""
"","","","","","single-stim-button","338","1554522","0.0-4.0-5.12-0.12","5ce610802be975001b46f0ac","A3","batch1","","1032","","","tol_practice","","","","","","","","","","","tol_peg_3","1032","1032","0","[[3,1,0],[0,0],[0]]","14","[[0,0,0],[3,1],[2]]","practice","1032","","","","","",""
"","","","","","single-stim-button","339","1554850","0.0-4.0-5.12-1.12","5ce610802be975001b46f0ac","A3","batch1","","327","","","tol_practice","","","","","","","","","","","tol_peg_2","327","327","0","[[3,1,0],[2,0],[0]]","14","[[0,0,0],[3,1],[2]]","practice","327","","","","","",""
"","","","","","single-stim-button","340","1555866","0.0-4.0-5.13-0.13","5ce610802be975001b46f0ac","A3","batch1","","1016","","","tol_practice","","","","","","","","","","","tol_peg_1","1016","1016","0","[[3,0,0],[2,0],[0]]","15","[[0,0,0],[3,1],[2]]","practice","1016","","","","","",""
"","","","","","single-stim-button","341","1557778","0.0-4.0-5.13-1.13","5ce610802be975001b46f0ac","A3","batch1","","1912","","","tol_practice","","","","","","","","","","","tol_peg_3","1912","1912","0","[[3,0,0],[2,0],[1]]","15","[[0,0,0],[3,1],[2]]","practice","1912","","","","","",""
"","","","","","single-stim-button","342","1559298","0.0-4.0-5.14-0.14","5ce610802be975001b46f0ac","A3","batch1","","1519","","","tol_practice","","","","","","","","","","","tol_peg_1","1519","1519","0","[[0,0,0],[2,0],[1]]","16","[[0,0,0],[3,1],[2]]","practice","1519","","","","","",""
"","","","","","single-stim-button","343","1559754","0.0-4.0-5.14-1.14","5ce610802be975001b46f0ac","A3","batch1","","455","","","tol_practice","","","","","","","","","","","tol_peg_2","455","455","0","[[0,0,0],[2,3],[1]]","16","[[0,0,0],[3,1],[2]]","practice","455","","","","","",""
"","","","","","single-stim-button","344","1562042","0.0-4.0-5.15-0.15","5ce610802be975001b46f0ac","A3","batch1","","2288","","","tol_practice","","","","","","","","","","","tol_peg_3","2288","2288","0","[[0,0,0],[2,3],[0]]","17","[[0,0,0],[3,1],[2]]","practice","2288","","","","","",""
"","","","","","single-stim-button","345","1562490","0.0-4.0-5.15-1.15","5ce610802be975001b46f0ac","A3","batch1","","448","","","tol_practice","","","","","","","","","","","tol_peg_1","448","448","0","[[1,0,0],[2,3],[0]]","17","[[0,0,0],[3,1],[2]]","practice","448","","","","","",""
"","","","","","single-stim-button","346","1562858","0.0-4.0-5.16-0.16","5ce610802be975001b46f0ac","A3","batch1","","368","","","tol_practice","","","","","","","","","","","tol_peg_2","368","368","0","[[1,0,0],[2,0],[0]]","18","[[0,0,0],[3,1],[2]]","practice","368","","","","","",""
"","","","","","single-stim-button","347","1563186","0.0-4.0-5.16-1.16","5ce610802be975001b46f0ac","A3","batch1","","328","","","tol_practice","","","","","","","","","","","tol_peg_1","328","328","0","[[1,3,0],[2,0],[0]]","18","[[0,0,0],[3,1],[2]]","practice","328","","","","","",""
