"success","timeout","failed_images","failed_audio","failed_video","trial_type","trial_index","time_elapsed","internal_node_id","subject_id","study_id","session_id","view_history","rt","stimulus","response","task","correct","answer","item","fiar_detect_rt","fiar_detect_correct","total_correct_fiar_detect","post_trial_gap","choices","spm_correct","spm_rt","mouse_click","stim_duration","block_duration","timing_post_trial","current_position","tol_num_moves_made","tol_target","tol_problem_id","tol_rt","key_press","possible_responses","tol_correct","preplanning","tol_rt_per_trial","tol_min_moves"
"true","false","[]","[]","[]","preload","0","1126","0.0-0.0","5ce973ea6c890100012ea2ae","E1","batch5","","","","","","","","","","","","","","","","","","","","","","","","","","","","","",""
"true","","","","","fullscreen","1","39894","0.0-1.0-0.0","5ce973ea6c890100012ea2ae","E1","batch5","","","","","","","","","","","","","","","","","","","","","","","","","","","","","",""
"true","","","","","fullscreen","2","46997","0.0-2.0-0.0","5ce973ea6c890100012ea2ae","E1","batch5","","","","","","","","","","","","","","","","","","","","","","","","","","","","","",""
"","","","","","instructions","3","100847","0.0-2.0-1.0-0.0","5ce973ea6c890100012ea2ae","E1","batch5","[{""page_index"":0,""viewing_time"":34026.300000190735},{""page_index"":1,""viewing_time"":19821.89999985695}]","53848.700000047684","","","","","","","","","","","","","","","","","","","","","","","","","","","",""
"","","","","","html-button-response","4","102840","0.0-2.0-1.0-1.0-0.0","5ce973ea6c890100012ea2ae","E1","batch5","","1991","<p class=block-text> Let's answer a few questions <br>","0","pattern_enter_quiz","","","","","","","","","","","","","","","","","","","","","","","","",""
"","","","","","html-button-response","5","113238","0.0-2.0-1.0-1.0-1.0","5ce973ea6c890100012ea2ae","E1","batch5","","10396.899999856949","<p class = block-text>True or False: You will have as much time as you want to make each choice. <br></p>","0","pattern_quiz","false","","","","","","","","","","","","","","","","","","","","","","","",""
"","","","","","html-button-response","6","116477","0.0-2.0-1.0-1.0-2.0","5ce973ea6c890100012ea2ae","E1","batch5","","3236.5","<p class = block-text>Incorrect. Remember, You should make your choice as fast as you can.</p>","0","pattern_quiz_feedback","","","","","","","","","","","","","","","","","","","","","","","","",""
"","","","","","html-button-response","7","122773","0.0-2.0-1.0-1.0-3.0","5ce973ea6c890100012ea2ae","E1","batch5","","6295.199999809265","<p class = block-text>True or False: You will look for 4 pieces in black or white color connected in a row either horizontally, vertically or diagonally. <br></p>","0","pattern_quiz","true","","","","","","","","","","","","","","","","","","","","","","","",""
"","","","","","html-button-response","8","123912","0.0-2.0-1.0-1.0-4.0","5ce973ea6c890100012ea2ae","E1","batch5","","1137.9000000953674","<p class = block-text>Correct! </p>","0","pattern_quiz_feedback","","","","","","","","","","","","","","","","","","","","","","","","",""
"","","","","","html-button-response","9","127948","0.0-2.0-1.0-2.0-0.0","5ce973ea6c890100012ea2ae","E1","batch5","","4033.7999999523163","<p class = block-text>You made too many incorrect choices.</p><p class = block-text>You will now repeat the instruction and quiz</p>","0","","","","","","","","","","","","","","","","","","","","","","","","","",""
"","","","","","instructions","10","132273","0.0-2.0-1.1-0.1","5ce973ea6c890100012ea2ae","E1","batch5","[{""page_index"":0,""viewing_time"":2717.9000000953674},{""page_index"":1,""viewing_time"":1606}]","4324.300000190735","","","","","","","","","","","","","","","","","","","","","","","","","","","",""
"","","","","","html-button-response","11","133357","0.0-2.0-1.1-1.1-0.1","5ce973ea6c890100012ea2ae","E1","batch5","","1082.7000000476837","<p class=block-text> Let's answer a few questions <br>","0","pattern_enter_quiz","","","","","","","","","","","","","","","","","","","","","","","","",""
"","","","","","html-button-response","12","136796","0.0-2.0-1.1-1.1-1.1","5ce973ea6c890100012ea2ae","E1","batch5","","3437.5999999046326","<p class = block-text>True or False: You will have as much time as you want to make each choice. <br></p>","1","pattern_quiz","true","","","","","","","","","","","","","","","","","","","","","","","",""
"","","","","","html-button-response","13","138704","0.0-2.0-1.1-1.1-2.1","5ce973ea6c890100012ea2ae","E1","batch5","","1906.3999998569489","<p class = block-text>Correct! You should make your choice <strong> as fast as you can</strong>.</p>","0","pattern_quiz_feedback","","","","","","","","","","","","","","","","","","","","","","","","",""
"","","","","","html-button-response","14","142656","0.0-2.0-1.1-1.1-3.1","5ce973ea6c890100012ea2ae","E1","batch5","","3950.7000000476837","<p class = block-text>True or False: You will look for 4 pieces in black or white color connected in a row either horizontally, vertically or diagonally. <br></p>","0","pattern_quiz","true","","","","","","","","","","","","","","","","","","","","","","","",""
"","","","","","html-button-response","15","143734","0.0-2.0-1.1-1.1-4.1","5ce973ea6c890100012ea2ae","E1","batch5","","1076.8999998569489","<p class = block-text>Correct! </p>","0","pattern_quiz_feedback","","","","","","","","","","","","","","","","","","","","","","","","",""
"","","","","","html-button-response","16","146641","0.0-2.0-2.0","5ce973ea6c890100012ea2ae","E1","batch5","","2906.5","<p class=block-text> Now that you've understood the game, let's do a few practice trials before we start!<br> <br>","0","pattern_enter_practice","","","","","","","","","","","","","","","","","","","","","","","","",""
"","","","","","image-keyboard-response","17","149967","0.0-2.0-3.0-0.0","5ce973ea6c890100012ea2ae","E1","batch5","","3318.4000000953674","stim/prac_no_18_1.png","j","pattern_practice","true","j","","","","","","","","","","","","","","","","","","","","","","",""
"","","","","","html-keyboard-response","18","150983","0.0-2.0-3.0-1.0","5ce973ea6c890100012ea2ae","E1","batch5","","null","<p style=""font-size:30px;color:green;"">Correct!</p>","null","pattern_feedback","","","","","","","","","","","","","","","","","","","","","","","","",""
"","","","","","image-keyboard-response","19","153391","0.0-2.0-3.0-0.1","5ce973ea6c890100012ea2ae","E1","batch5","","2405.9000000953674","stim/prac_no_16_1.png","j","pattern_practice","true","j","","","","","","","","","","","","","","","","","","","","","","",""
"","","","","","html-keyboard-response","20","154414","0.0-2.0-3.0-1.1","5ce973ea6c890100012ea2ae","E1","batch5","","null","<p style=""font-size:30px;color:green;"">Correct!</p>","null","pattern_feedback","","","","","","","","","","","","","","","","","","","","","","","","",""
"","","","","","image-keyboard-response","21","155342","0.0-2.0-3.0-0.2","5ce973ea6c890100012ea2ae","E1","batch5","","925.7000000476837","stim/prac_yes_16_ver_w1.png","f","pattern_practice","true","f","","","","","","","","","","","","","","","","","","","","","","",""
"","","","","","html-keyboard-response","22","156375","0.0-2.0-3.0-1.2","5ce973ea6c890100012ea2ae","E1","batch5","","null","<p style=""font-size:30px;color:green;"">Correct!</p>","null","pattern_feedback","","","","","","","","","","","","","","","","","","","","","","","","",""
"","","","","","image-keyboard-response","23","157485","0.0-2.0-3.0-0.3","5ce973ea6c890100012ea2ae","E1","batch5","","1107.5999999046326","stim/prac_yes_18_hor_w1.png","f","pattern_practice","true","f","","","","","","","","","","","","","","","","","","","","","","",""
"","","","","","html-keyboard-response","24","158499","0.0-2.0-3.0-1.3","5ce973ea6c890100012ea2ae","E1","batch5","","null","<p style=""font-size:30px;color:green;"">Correct!</p>","null","pattern_feedback","","","","","","","","","","","","","","","","","","","","","","","","",""
"","","","","","image-keyboard-response","25","159588","0.0-2.0-3.0-0.4","5ce973ea6c890100012ea2ae","E1","batch5","","1087.7999999523163","stim/prac_yes_20_dia_b1.png","f","pattern_practice","true","f","","","","","","","","","","","","","","","","","","","","","","",""
"","","","","","html-keyboard-response","26","160616","0.0-2.0-3.0-1.4","5ce973ea6c890100012ea2ae","E1","batch5","","null","<p style=""font-size:30px;color:green;"">Correct!</p>","null","pattern_feedback","","","","","","","","","","","","","","","","","","","","","","","","",""
"","","","","","html-button-response","27","167968","0.0-2.0-4.0","5ce973ea6c890100012ea2ae","E1","batch5","","7350.900000095367","<p class=block-text> Good job! You are done with practice trials!<br>
        You responded correctly on 100% of the trials.<br>
        Press the button below to start official trials. Now you won't see any feedback about your response</p>","0","pattern_enter_official_trials","","","","","","","","","","","","","","","","","","","","","","","","",""
"","","","","","html-keyboard-response","28","168780","0.0-2.0-5.0-0.0","5ce973ea6c890100012ea2ae","E1","batch5","","null","<p class=block-text>Trial 1 out of 78</p>","null","pattern_show_trial_num","","","","","","","","","","","","","","","","","","","","","","","","",""
"","","","","","image-keyboard-response","29","171848","0.0-2.0-5.0-1.0","5ce973ea6c890100012ea2ae","E1","batch5","","3066.4000000953674","stim/no_47_1_b.png","j","pattern_response","true","j","pattern_27","3066.4000000953674","true","1","","","","","","","","","","","","","","","","","","",""
"","","","","","html-keyboard-response","30","173180","0.0-2.0-5.0-0.1","5ce973ea6c890100012ea2ae","E1","batch5","","null","<p class=block-text>Trial 2 out of 78</p>","null","pattern_show_trial_num","","","","","","","","","","","","","","","","","","","","","","","","",""
"","","","","","image-keyboard-response","31","175223","0.0-2.0-5.0-1.1","5ce973ea6c890100012ea2ae","E1","batch5","","2041.3999998569489","stim/no_22_1_b.png","j","pattern_response","true","j","pattern_07","2041.3999998569489","true","2","","","","","","","","","","","","","","","","","","",""
"","","","","","html-keyboard-response","32","176546","0.0-2.0-5.0-0.2","5ce973ea6c890100012ea2ae","E1","batch5","","null","<p class=block-text>Trial 3 out of 78</p>","null","pattern_show_trial_num","","","","","","","","","","","","","","","","","","","","","","","","",""
"","","","","","image-keyboard-response","33","178405","0.0-2.0-5.0-1.2","5ce973ea6c890100012ea2ae","E1","batch5","","1856.3999998569489","stim/yes_33_dia_w1_w.png","f","pattern_response","true","f","pattern_56","1856.3999998569489","true","3","","","","","","","","","","","","","","","","","","",""
"","","","","","html-keyboard-response","34","179729","0.0-2.0-5.0-0.3","5ce973ea6c890100012ea2ae","E1","batch5","","null","<p class=block-text>Trial 4 out of 78</p>","null","pattern_show_trial_num","","","","","","","","","","","","","","","","","","","","","","","","",""
"","","","","","image-keyboard-response","35","183202","0.0-2.0-5.0-1.3","5ce973ea6c890100012ea2ae","E1","batch5","","3472","stim/yes_58_dia_w1_w.png","j","pattern_response","false","f","pattern_76","3472","false","3","","","","","","","","","","","","","","","","","","",""
"","","","","","html-keyboard-response","36","184529","0.0-2.0-5.0-0.4","5ce973ea6c890100012ea2ae","E1","batch5","","null","<p class=block-text>Trial 5 out of 78</p>","null","pattern_show_trial_num","","","","","","","","","","","","","","","","","","","","","","","","",""
"","","","","","image-keyboard-response","37","185561","0.0-2.0-5.0-1.4","5ce973ea6c890100012ea2ae","E1","batch5","","1030","stim/yes_15_dia_b1u_b.png","f","pattern_response","true","f","pattern_44","1030","true","4","","","","","","","","","","","","","","","","","","",""
"","","","","","html-keyboard-response","38","186879","0.0-2.0-5.0-0.5","5ce973ea6c890100012ea2ae","E1","batch5","","null","<p class=block-text>Trial 6 out of 78</p>","null","pattern_show_trial_num","","","","","","","","","","","","","","","","","","","","","","","","",""
"","","","","","image-keyboard-response","39","190743","0.0-2.0-5.0-1.5","5ce973ea6c890100012ea2ae","E1","batch5","","3862.5","stim/no_39_1_w.png","j","pattern_response","true","j","pattern_21","3862.5","true","5","","","","","","","","","","","","","","","","","","",""
"","","","","","html-keyboard-response","40","192061","0.0-2.0-5.0-0.6","5ce973ea6c890100012ea2ae","E1","batch5","","null","<p class=block-text>Trial 7 out of 78</p>","null","pattern_show_trial_num","","","","","","","","","","","","","","","","","","","","","","","","",""
"","","","","","image-keyboard-response","41","196480","0.0-2.0-5.0-1.6","5ce973ea6c890100012ea2ae","E1","batch5","","4416.400000095367","stim/no_67_1.png","j","pattern_response","true","j","pattern_39","4416.400000095367","true","6","","","","","","","","","","","","","","","","","","",""
"","","","","","html-keyboard-response","42","197783","0.0-2.0-5.0-0.7","5ce973ea6c890100012ea2ae","E1","batch5","","null","<p class=block-text>Trial 8 out of 78</p>","null","pattern_show_trial_num","","","","","","","","","","","","","","","","","","","","","","","","",""
"","","","","","image-keyboard-response","43","200789","0.0-2.0-5.0-1.7","5ce973ea6c890100012ea2ae","E1","batch5","","3002.899999856949","stim/no_37_2_w.png","j","pattern_response","true","j","pattern_19","3002.899999856949","true","7","","","","","","","","","","","","","","","","","","",""
"","","","","","html-keyboard-response","44","202112","0.0-2.0-5.0-0.8","5ce973ea6c890100012ea2ae","E1","batch5","","null","<p class=block-text>Trial 9 out of 78</p>","null","pattern_show_trial_num","","","","","","","","","","","","","","","","","","","","","","","","",""
"","","","","","image-keyboard-response","45","205210","0.0-2.0-5.0-1.8","5ce973ea6c890100012ea2ae","E1","batch5","","3096.0999999046326","stim/no_33_1_b.png","j","pattern_response","true","j","pattern_15","3096.0999999046326","true","8","","","","","","","","","","","","","","","","","","",""
"","","","","","html-keyboard-response","46","206528","0.0-2.0-5.0-0.9","5ce973ea6c890100012ea2ae","E1","batch5","","null","<p class=block-text>Trial 10 out of 78</p>","null","pattern_show_trial_num","","","","","","","","","","","","","","","","","","","","","","","","",""
"","","","","","image-keyboard-response","47","207776","0.0-2.0-5.0-1.9","5ce973ea6c890100012ea2ae","E1","batch5","","1245.7999999523163","stim/yes_70_ver_b1.png","f","pattern_response","true","f","pattern_80","1245.7999999523163","true","9","","","","","","","","","","","","","","","","","","",""
"","","","","","html-keyboard-response","48","209095","0.0-2.0-5.0-0.10","5ce973ea6c890100012ea2ae","E1","batch5","","null","<p class=block-text>Trial 11 out of 78</p>","null","pattern_show_trial_num","","","","","","","","","","","","","","","","","","","","","","","","",""
"","","","","","image-keyboard-response","49","211505","0.0-2.0-5.0-1.10","5ce973ea6c890100012ea2ae","E1","batch5","","2408.0999999046326","stim/yes_53_ver_b1_b.png","f","pattern_response","true","f","pattern_74","2408.0999999046326","true","10","","","","","","","","","","","","","","","","","","",""
"","","","","","html-keyboard-response","50","212829","0.0-2.0-5.0-0.11","5ce973ea6c890100012ea2ae","E1","batch5","","null","<p class=block-text>Trial 12 out of 78</p>","null","pattern_show_trial_num","","","","","","","","","","","","","","","","","","","","","","","","",""
"","","","","","image-keyboard-response","51","215628","0.0-2.0-5.0-1.11","5ce973ea6c890100012ea2ae","E1","batch5","","2797.7000000476837","stim/no_53_1_b.png","j","pattern_response","true","j","pattern_33","2797.7000000476837","true","11","","","","","","","","","","","","","","","","","","",""
"","","","","","html-keyboard-response","52","216945","0.0-2.0-5.0-0.12","5ce973ea6c890100012ea2ae","E1","batch5","","null","<p class=block-text>Trial 13 out of 78</p>","null","pattern_show_trial_num","","","","","","","","","","","","","","","","","","","","","","","","",""
"","","","","","image-keyboard-response","53","219391","0.0-2.0-5.0-1.12","5ce973ea6c890100012ea2ae","E1","batch5","","2444.2999999523163","stim/no_43_2_b.png","j","pattern_response","true","j","pattern_23","2444.2999999523163","true","12","","","","","","","","","","","","","","","","","","",""
"","","","","","html-keyboard-response","54","220712","0.0-2.0-5.0-0.13","5ce973ea6c890100012ea2ae","E1","batch5","","null","<p class=block-text>Trial 14 out of 78</p>","null","pattern_show_trial_num","","","","","","","","","","","","","","","","","","","","","","","","",""
"","","","","","image-keyboard-response","55","221937","0.0-2.0-5.0-1.13","5ce973ea6c890100012ea2ae","E1","batch5","","1223.5","stim/yes_23_ver_b1.png","f","pattern_response","true","f","pattern_48","1223.5","true","13","","","","","","","","","","","","","","","","","","",""
"","","","","","html-keyboard-response","56","223261","0.0-2.0-5.0-0.14","5ce973ea6c890100012ea2ae","E1","batch5","","null","<p class=block-text>Trial 15 out of 78</p>","null","pattern_show_trial_num","","","","","","","","","","","","","","","","","","","","","","","","",""
"","","","","","image-keyboard-response","57","224776","0.0-2.0-5.0-1.14","5ce973ea6c890100012ea2ae","E1","batch5","","1512.7999999523163","stim/yes_49_hor_w1_b.png","f","pattern_response","true","f","pattern_70","1512.7999999523163","true","14","","","","","","","","","","","","","","","","","","",""
"","","","","","html-keyboard-response","58","226095","0.0-2.0-5.0-0.15","5ce973ea6c890100012ea2ae","E1","batch5","","null","<p class=block-text>Trial 16 out of 78</p>","null","pattern_show_trial_num","","","","","","","","","","","","","","","","","","","","","","","","",""
"","","","","","image-keyboard-response","59","228802","0.0-2.0-5.0-1.15","5ce973ea6c890100012ea2ae","E1","batch5","","2705.5","stim/no_51_1.png","j","pattern_response","true","j","pattern_31","2705.5","true","15","","","","","","","","","","","","","","","","","","",""
"","","","","","html-keyboard-response","60","230128","0.0-2.0-5.0-0.16","5ce973ea6c890100012ea2ae","E1","batch5","","null","<p class=block-text>Trial 17 out of 78</p>","null","pattern_show_trial_num","","","","","","","","","","","","","","","","","","","","","","","","",""
"","","","","","image-keyboard-response","61","231489","0.0-2.0-5.0-1.16","5ce973ea6c890100012ea2ae","E1","batch5","","1359.9000000953674","stim/no_12_1.png","j","pattern_response","true","j","pattern_01","1359.9000000953674","true","16","","","","","","","","","","","","","","","","","","",""
"","","","","","html-keyboard-response","62","232812","0.0-2.0-5.0-0.17","5ce973ea6c890100012ea2ae","E1","batch5","","null","<p class=block-text>Trial 18 out of 78</p>","null","pattern_show_trial_num","","","","","","","","","","","","","","","","","","","","","","","","",""
"","","","","","image-keyboard-response","63","235981","0.0-2.0-5.0-1.17","5ce973ea6c890100012ea2ae","E1","batch5","","3167.300000190735","stim/no_58_1_w.png","j","pattern_response","true","j","pattern_35","3167.300000190735","true","17","","","","","","","","","","","","","","","","","","",""
"","","","","","html-keyboard-response","64","237311","0.0-2.0-5.0-0.18","5ce973ea6c890100012ea2ae","E1","batch5","","null","<p class=block-text>Trial 19 out of 78</p>","null","pattern_show_trial_num","","","","","","","","","","","","","","","","","","","","","","","","",""
"","","","","","image-keyboard-response","65","238366","0.0-2.0-5.0-1.18","5ce973ea6c890100012ea2ae","E1","batch5","","1053.5999999046326","stim/yes_46_ver_b1_b.png","f","pattern_response","true","f","pattern_68","1053.5999999046326","true","18","","","","","","","","","","","","","","","","","","",""
"","","","","","html-keyboard-response","66","239678","0.0-2.0-5.0-0.19","5ce973ea6c890100012ea2ae","E1","batch5","","null","<p class=block-text>Trial 20 out of 78</p>","null","pattern_show_trial_num","","","","","","","","","","","","","","","","","","","","","","","","",""
"","","","","","image-keyboard-response","67","240624","0.0-2.0-5.0-1.19","5ce973ea6c890100012ea2ae","E1","batch5","","944.4000000953674","stim/yes_29_hor_b1_b.png","f","pattern_response","true","f","pattern_52","944.4000000953674","true","19","","","","","","","","","","","","","","","","","","",""
"","","","","","html-keyboard-response","68","241948","0.0-2.0-5.0-0.20","5ce973ea6c890100012ea2ae","E1","batch5","","null","<p class=block-text>Trial 21 out of 78</p>","null","pattern_show_trial_num","","","","","","","","","","","","","","","","","","","","","","","","",""
"","","","","","image-keyboard-response","69","242754","0.0-2.0-5.0-1.20","5ce973ea6c890100012ea2ae","E1","batch5","","803.7999999523163","stim/yes_12_hor_w1_w.png","f","pattern_response","true","f","pattern_42","803.7999999523163","true","20","","","","","","","","","","","","","","","","","","",""
"","","","","","html-keyboard-response","70","244077","0.0-2.0-5.0-0.21","5ce973ea6c890100012ea2ae","E1","batch5","","null","<p class=block-text>Trial 22 out of 78</p>","null","pattern_show_trial_num","","","","","","","","","","","","","","","","","","","","","","","","",""
"","","","","","image-keyboard-response","71","244856","0.0-2.0-5.0-1.21","5ce973ea6c890100012ea2ae","E1","batch5","","776.6000001430511","stim/yes_39_hor_w1_w.png","f","pattern_response","true","f","pattern_62","776.6000001430511","true","21","","","","","","","","","","","","","","","","","","",""
"","","","","","html-keyboard-response","72","246178","0.0-2.0-5.0-0.22","5ce973ea6c890100012ea2ae","E1","batch5","","null","<p class=block-text>Trial 23 out of 78</p>","null","pattern_show_trial_num","","","","","","","","","","","","","","","","","","","","","","","","",""
"","","","","","image-keyboard-response","73","249671","0.0-2.0-5.0-1.22","5ce973ea6c890100012ea2ae","E1","batch5","","3490.9000000953674","stim/no_36_1_b.png","j","pattern_response","true","j","pattern_17","3490.9000000953674","true","22","","","","","","","","","","","","","","","","","","",""
"","","","","","html-keyboard-response","74","250994","0.0-2.0-5.0-0.23","5ce973ea6c890100012ea2ae","E1","batch5","","null","<p class=block-text>Trial 24 out of 78</p>","null","pattern_show_trial_num","","","","","","","","","","","","","","","","","","","","","","","","",""
"","","","","","image-keyboard-response","75","253066","0.0-2.0-5.0-1.23","5ce973ea6c890100012ea2ae","E1","batch5","","2073.2999999523163","stim/yes_51_dia_b1.png","j","pattern_response","false","f","pattern_72","2073.2999999523163","false","22","","","","","","","","","","","","","","","","","","",""
"","","","","","html-keyboard-response","76","254391","0.0-2.0-5.0-0.24","5ce973ea6c890100012ea2ae","E1","batch5","","null","<p class=block-text>Trial 25 out of 78</p>","null","pattern_show_trial_num","","","","","","","","","","","","","","","","","","","","","","","","",""
"","","","","","image-keyboard-response","77","255629","0.0-2.0-5.0-1.24","5ce973ea6c890100012ea2ae","E1","batch5","","1236.0999999046326","stim/yes_37_hor_w1_w.png","f","pattern_response","true","f","pattern_60","1236.0999999046326","true","23","","","","","","","","","","","","","","","","","","",""
"","","","","","html-keyboard-response","78","256957","0.0-2.0-5.0-0.25","5ce973ea6c890100012ea2ae","E1","batch5","","null","<p class=block-text>Trial 26 out of 78</p>","null","pattern_show_trial_num","","","","","","","","","","","","","","","","","","","","","","","","",""
"","","","","","image-keyboard-response","79","259340","0.0-2.0-5.0-1.25","5ce973ea6c890100012ea2ae","E1","batch5","","2381.0999999046326","stim/no_45_1_w.png","j","pattern_response","true","j","pattern_25","2381.0999999046326","true","24","","","","","","","","","","","","","","","","","","",""
"","","","","","html-keyboard-response","80","260657","0.0-2.0-5.0-0.26","5ce973ea6c890100012ea2ae","E1","batch5","","null","<p class=block-text>Trial 27 out of 78</p>","null","pattern_show_trial_num","","","","","","","","","","","","","","","","","","","","","","","","",""
"","","","","","image-keyboard-response","81","262722","0.0-2.0-5.0-1.26","5ce973ea6c890100012ea2ae","E1","batch5","","2063.4000000953674","stim/no_25_1_b.png","j","pattern_response","true","j","pattern_09","2063.4000000953674","true","25","","","","","","","","","","","","","","","","","","",""
"","","","","","html-keyboard-response","82","264041","0.0-2.0-5.0-0.27","5ce973ea6c890100012ea2ae","E1","batch5","","null","<p class=block-text>Trial 28 out of 78</p>","null","pattern_show_trial_num","","","","","","","","","","","","","","","","","","","","","","","","",""
"","","","","","image-keyboard-response","83","266161","0.0-2.0-5.0-1.27","5ce973ea6c890100012ea2ae","E1","batch5","","2118.899999856949","stim/no_28_2.png","j","pattern_response","true","j","pattern_11","2118.899999856949","true","26","","","","","","","","","","","","","","","","","","",""
"","","","","","html-keyboard-response","84","267493","0.0-2.0-5.0-0.28","5ce973ea6c890100012ea2ae","E1","batch5","","null","<p class=block-text>Trial 29 out of 78</p>","null","pattern_show_trial_num","","","","","","","","","","","","","","","","","","","","","","","","",""
"","","","","","image-keyboard-response","85","271020","0.0-2.0-5.0-1.28","5ce973ea6c890100012ea2ae","E1","batch5","","3525.5","stim/yes_63_dia_b1.png","f","pattern_response","true","f","pattern_78","3525.5","true","27","","","","","","","","","","","","","","","","","","",""
"","","","","","html-keyboard-response","86","272341","0.0-2.0-5.0-0.29","5ce973ea6c890100012ea2ae","E1","batch5","","null","<p class=block-text>Trial 30 out of 78</p>","null","pattern_show_trial_num","","","","","","","","","","","","","","","","","","","","","","","","",""
"","","","","","image-keyboard-response","87","276282","0.0-2.0-5.0-1.29","5ce973ea6c890100012ea2ae","E1","batch5","","3939.5999999046326","stim/yes_44_ver_w1_w.png","f","pattern_response","true","f","pattern_66","3939.5999999046326","true","28","","","","","","","","","","","","","","","","","","",""
"","","","","","html-keyboard-response","88","277606","0.0-2.0-5.0-0.30","5ce973ea6c890100012ea2ae","E1","batch5","","null","<p class=block-text>Trial 31 out of 78</p>","null","pattern_show_trial_num","","","","","","","","","","","","","","","","","","","","","","","","",""
"","","","","","image-keyboard-response","89","279491","0.0-2.0-5.0-1.30","5ce973ea6c890100012ea2ae","E1","batch5","","1883.2000000476837","stim/no_15_1_w.png","j","pattern_response","true","j","pattern_03","1883.2000000476837","true","29","","","","","","","","","","","","","","","","","","",""
"","","","","","html-keyboard-response","90","280807","0.0-2.0-5.0-0.31","5ce973ea6c890100012ea2ae","E1","batch5","","null","<p class=block-text>Trial 32 out of 78</p>","null","pattern_show_trial_num","","","","","","","","","","","","","","","","","","","","","","","","",""
"","","","","","image-keyboard-response","91","283321","0.0-2.0-5.0-1.31","5ce973ea6c890100012ea2ae","E1","batch5","","2512","stim/no_30_1_b.png","j","pattern_response","true","j","pattern_13","2512","true","30","","","","","","","","","","","","","","","","","","",""
"","","","","","html-keyboard-response","92","284640","0.0-2.0-5.0-0.32","5ce973ea6c890100012ea2ae","E1","batch5","","null","<p class=block-text>Trial 33 out of 78</p>","null","pattern_show_trial_num","","","","","","","","","","","","","","","","","","","","","","","","",""
"","","","","","image-keyboard-response","93","286690","0.0-2.0-5.0-1.32","5ce973ea6c890100012ea2ae","E1","batch5","","2048","stim/no_18_1_b.png","j","pattern_response","true","j","pattern_05","2048","true","31","","","","","","","","","","","","","","","","","","",""
"","","","","","html-keyboard-response","94","287995","0.0-2.0-5.0-0.33","5ce973ea6c890100012ea2ae","E1","batch5","","null","<p class=block-text>Trial 34 out of 78</p>","null","pattern_show_trial_num","","","","","","","","","","","","","","","","","","","","","","","","",""
"","","","","","image-keyboard-response","95","294920","0.0-2.0-5.0-1.33","5ce973ea6c890100012ea2ae","E1","batch5","","6923.400000095367","stim/yes_42_dia_w1_w.png","f","pattern_response","true","f","pattern_64","6923.400000095367","true","32","","","","","","","","","","","","","","","","","","",""
"","","","","","html-keyboard-response","96","296240","0.0-2.0-5.0-0.34","5ce973ea6c890100012ea2ae","E1","batch5","","null","<p class=block-text>Trial 35 out of 78</p>","null","pattern_show_trial_num","","","","","","","","","","","","","","","","","","","","","","","","",""
"","","","","","image-keyboard-response","97","298648","0.0-2.0-5.0-1.34","5ce973ea6c890100012ea2ae","E1","batch5","","2406.0999999046326","stim/yes_36_ver_w1_w.png","f","pattern_response","true","f","pattern_58","2406.0999999046326","true","33","","","","","","","","","","","","","","","","","","",""
"","","","","","html-keyboard-response","98","299961","0.0-2.0-5.0-0.35","5ce973ea6c890100012ea2ae","E1","batch5","","null","<p class=block-text>Trial 36 out of 78</p>","null","pattern_show_trial_num","","","","","","","","","","","","","","","","","","","","","","","","",""
"","","","","","image-keyboard-response","99","301856","0.0-2.0-5.0-1.35","5ce973ea6c890100012ea2ae","E1","batch5","","1893.7000000476837","stim/yes_30_ver_b1_b.png","f","pattern_response","true","f","pattern_54","1893.7000000476837","true","34","","","","","","","","","","","","","","","","","","",""
"","","","","","html-keyboard-response","100","303174","0.0-2.0-5.0-0.36","5ce973ea6c890100012ea2ae","E1","batch5","","null","<p class=block-text>Trial 37 out of 78</p>","null","pattern_show_trial_num","","","","","","","","","","","","","","","","","","","","","","","","",""
"","","","","","image-keyboard-response","101","306128","0.0-2.0-5.0-1.36","5ce973ea6c890100012ea2ae","E1","batch5","","2951.7999999523163","stim/no_49_2_b.png","j","pattern_response","true","j","pattern_29","2951.7999999523163","true","35","","","","","","","","","","","","","","","","","","",""
"","","","","","html-keyboard-response","102","307457","0.0-2.0-5.0-0.37","5ce973ea6c890100012ea2ae","E1","batch5","","null","<p class=block-text>Trial 38 out of 78</p>","null","pattern_show_trial_num","","","","","","","","","","","","","","","","","","","","","","","","",""
"","","","","","image-keyboard-response","103","310142","0.0-2.0-5.0-1.37","5ce973ea6c890100012ea2ae","E1","batch5","","2683.800000190735","stim/yes_17_ver_b1_b.png","f","pattern_response","true","f","pattern_46","2683.800000190735","true","36","","","","","","","","","","","","","","","","","","",""
"","","","","","html-keyboard-response","104","311456","0.0-2.0-5.0-0.38","5ce973ea6c890100012ea2ae","E1","batch5","","null","<p class=block-text>Trial 39 out of 78</p>","null","pattern_show_trial_num","","","","","","","","","","","","","","","","","","","","","","","","",""
"","","","","","image-keyboard-response","105","315968","0.0-2.0-5.0-1.38","5ce973ea6c890100012ea2ae","E1","batch5","","4514.5","stim/yes_26_dia_w2_w.png","f","pattern_response","true","f","pattern_50","4514.5","true","37","","","","","","","","","","","","","","","","","","",""
"","","","","","image-keyboard-response","106","319678","0.0-2.0-6.0","5ce973ea6c890100012ea2ae","E1","batch5","","3204.199999809265","stim/empty_board.png","j","attention_check","true","j","","","","","500","[""f"",""j""]","","","","","","","","","","","","","","","","",""
"","","","","","html-keyboard-response","107","320485","0.0-2.0-7.0-0.0","5ce973ea6c890100012ea2ae","E1","batch5","","null","<p class=block-text>Trial 40 out of 78</p>","null","pattern_show_trial_num","","","","","","","","","","","","","","","","","","","","","","","","",""
"","","","","","image-keyboard-response","108","324972","0.0-2.0-7.0-1.0","5ce973ea6c890100012ea2ae","E1","batch5","","4485.599999904633","stim/no_17_1_w.png","j","pattern_response","true","j","pattern_04","4485.599999904633","true","38","","","","","","","","","","","","","","","","","","",""
"","","","","","html-keyboard-response","109","326303","0.0-2.0-7.0-0.1","5ce973ea6c890100012ea2ae","E1","batch5","","null","<p class=block-text>Trial 41 out of 78</p>","null","pattern_show_trial_num","","","","","","","","","","","","","","","","","","","","","","","","",""
"","","","","","image-keyboard-response","110","336524","0.0-2.0-7.0-1.1","5ce973ea6c890100012ea2ae","E1","batch5","","10218.599999904633","stim/no_46_1_b.png","j","pattern_response","true","j","pattern_26","10218.599999904633","true","39","","","","","","","","","","","","","","","","","","",""
"","","","","","html-keyboard-response","111","337851","0.0-2.0-7.0-0.2","5ce973ea6c890100012ea2ae","E1","batch5","","null","<p class=block-text>Trial 42 out of 78</p>","null","pattern_show_trial_num","","","","","","","","","","","","","","","","","","","","","","","","",""
"","","","","","image-keyboard-response","112","340911","0.0-2.0-7.0-1.2","5ce973ea6c890100012ea2ae","E1","batch5","","3058.4000000953674","stim/no_48_1_w.png","j","pattern_response","true","j","pattern_28","3058.4000000953674","true","40","","","","","","","","","","","","","","","","","","",""
"","","","","","html-keyboard-response","113","342235","0.0-2.0-7.0-0.3","5ce973ea6c890100012ea2ae","E1","batch5","","null","<p class=block-text>Trial 43 out of 78</p>","null","pattern_show_trial_num","","","","","","","","","","","","","","","","","","","","","","","","",""
"","","","","","image-keyboard-response","114","344019","0.0-2.0-7.0-1.3","5ce973ea6c890100012ea2ae","E1","batch5","","1781.9000000953674","stim/no_26_1_w.png","j","pattern_response","true","j","pattern_10","1781.9000000953674","true","41","","","","","","","","","","","","","","","","","","",""
"","","","","","html-keyboard-response","115","345336","0.0-2.0-7.0-0.4","5ce973ea6c890100012ea2ae","E1","batch5","","null","<p class=block-text>Trial 44 out of 78</p>","null","pattern_show_trial_num","","","","","","","","","","","","","","","","","","","","","","","","",""
"","","","","","image-keyboard-response","116","347187","0.0-2.0-7.0-1.4","5ce973ea6c890100012ea2ae","E1","batch5","","1849.5","stim/yes_35_dia_b1.png","f","pattern_response","true","f","pattern_57","1849.5","true","42","","","","","","","","","","","","","","","","","","",""
"","","","","","html-keyboard-response","117","348506","0.0-2.0-7.0-0.5","5ce973ea6c890100012ea2ae","E1","batch5","","null","<p class=block-text>Trial 45 out of 78</p>","null","pattern_show_trial_num","","","","","","","","","","","","","","","","","","","","","","","","",""
"","","","","","image-keyboard-response","118","350309","0.0-2.0-7.0-1.5","5ce973ea6c890100012ea2ae","E1","batch5","","1801.7000000476837","stim/no_20_1_w.png","j","pattern_response","true","j","pattern_06","1801.7000000476837","true","43","","","","","","","","","","","","","","","","","","",""
"","","","","","html-keyboard-response","119","351636","0.0-2.0-7.0-0.6","5ce973ea6c890100012ea2ae","E1","batch5","","null","<p class=block-text>Trial 46 out of 78</p>","null","pattern_show_trial_num","","","","","","","","","","","","","","","","","","","","","","","","",""
"","","","","","image-keyboard-response","120","355730","0.0-2.0-7.0-1.6","5ce973ea6c890100012ea2ae","E1","batch5","","4092.7000000476837","stim/yes_50_dia_w1.png","j","pattern_response","false","f","pattern_71","4092.7000000476837","false","43","","","","","","","","","","","","","","","","","","",""
"","","","","","html-keyboard-response","121","357051","0.0-2.0-7.0-0.7","5ce973ea6c890100012ea2ae","E1","batch5","","null","<p class=block-text>Trial 47 out of 78</p>","null","pattern_show_trial_num","","","","","","","","","","","","","","","","","","","","","","","","",""
"","","","","","image-keyboard-response","122","360437","0.0-2.0-7.0-1.7","5ce973ea6c890100012ea2ae","E1","batch5","","3384.199999809265","stim/no_52_1.png","j","pattern_response","true","j","pattern_32","3384.199999809265","true","44","","","","","","","","","","","","","","","","","","",""
"","","","","","html-keyboard-response","123","361769","0.0-2.0-7.0-0.8","5ce973ea6c890100012ea2ae","E1","batch5","","null","<p class=block-text>Trial 48 out of 78</p>","null","pattern_show_trial_num","","","","","","","","","","","","","","","","","","","","","","","","",""
"","","","","","image-keyboard-response","124","363054","0.0-2.0-7.0-1.8","5ce973ea6c890100012ea2ae","E1","batch5","","1282.5","stim/no_13_2_b.png","j","pattern_response","true","j","pattern_02","1282.5","true","45","","","","","","","","","","","","","","","","","","",""
"","","","","","html-keyboard-response","125","364369","0.0-2.0-7.0-0.9","5ce973ea6c890100012ea2ae","E1","batch5","","null","<p class=block-text>Trial 49 out of 78</p>","null","pattern_show_trial_num","","","","","","","","","","","","","","","","","","","","","","","","",""
"","","","","","image-keyboard-response","126","370222","0.0-2.0-7.0-1.9","5ce973ea6c890100012ea2ae","E1","batch5","","5851.800000190735","stim/no_62_1_w.png","j","pattern_response","true","j","pattern_36","5851.800000190735","true","46","","","","","","","","","","","","","","","","","","",""
"","","","","","html-keyboard-response","127","371551","0.0-2.0-7.0-0.10","5ce973ea6c890100012ea2ae","E1","batch5","","null","<p class=block-text>Trial 50 out of 78</p>","null","pattern_show_trial_num","","","","","","","","","","","","","","","","","","","","","","","","",""
"","","","","","image-keyboard-response","128","374489","0.0-2.0-7.0-1.10","5ce973ea6c890100012ea2ae","E1","batch5","","2936.5","stim/no_42_1_w.png","j","pattern_response","true","j","pattern_22","2936.5","true","47","","","","","","","","","","","","","","","","","","",""
"","","","","","html-keyboard-response","129","375820","0.0-2.0-7.0-0.11","5ce973ea6c890100012ea2ae","E1","batch5","","null","<p class=block-text>Trial 51 out of 78</p>","null","pattern_show_trial_num","","","","","","","","","","","","","","","","","","","","","","","","",""
"","","","","","image-keyboard-response","130","376893","0.0-2.0-7.0-1.11","5ce973ea6c890100012ea2ae","E1","batch5","","1066.7999999523163","stim/yes_29_ver_w1.png","f","pattern_response","true","f","pattern_53","1066.7999999523163","true","48","","","","","","","","","","","","","","","","","","",""
"","","","","","html-keyboard-response","131","378213","0.0-2.0-7.0-0.12","5ce973ea6c890100012ea2ae","E1","batch5","","null","<p class=block-text>Trial 52 out of 78</p>","null","pattern_show_trial_num","","","","","","","","","","","","","","","","","","","","","","","","",""
"","","","","","image-keyboard-response","132","381440","0.0-2.0-7.0-1.12","5ce973ea6c890100012ea2ae","E1","batch5","","3225.9000000953674","stim/no_32_1_w.png","j","pattern_response","true","j","pattern_14","3225.9000000953674","true","49","","","","","","","","","","","","","","","","","","",""
"","","","","","html-keyboard-response","133","382756","0.0-2.0-7.0-0.13","5ce973ea6c890100012ea2ae","E1","batch5","","null","<p class=block-text>Trial 53 out of 78</p>","null","pattern_show_trial_num","","","","","","","","","","","","","","","","","","","","","","","","",""
"","","","","","image-keyboard-response","134","386697","0.0-2.0-7.0-1.13","5ce973ea6c890100012ea2ae","E1","batch5","","3938.5","stim/yes_37_dia_w1.png","j","pattern_response","false","f","pattern_59","3938.5","false","49","","","","","","","","","","","","","","","","","","",""
"","","","","","html-keyboard-response","135","388023","0.0-2.0-7.0-0.14","5ce973ea6c890100012ea2ae","E1","batch5","","null","<p class=block-text>Trial 54 out of 78</p>","null","pattern_show_trial_num","","","","","","","","","","","","","","","","","","","","","","","","",""
"","","","","","image-keyboard-response","136","394240","0.0-2.0-7.0-1.14","5ce973ea6c890100012ea2ae","E1","batch5","","6215","stim/no_50_1.png","j","pattern_response","true","j","pattern_30","6215","true","50","","","","","","","","","","","","","","","","","","",""
"","","","","","html-keyboard-response","137","395556","0.0-2.0-7.0-0.15","5ce973ea6c890100012ea2ae","E1","batch5","","null","<p class=block-text>Trial 55 out of 78</p>","null","pattern_show_trial_num","","","","","","","","","","","","","","","","","","","","","","","","",""
"","","","","","image-keyboard-response","138","396804","0.0-2.0-7.0-1.15","5ce973ea6c890100012ea2ae","E1","batch5","","1245.1000001430511","stim/yes_43_ver_w1_w.png","f","pattern_response","true","f","pattern_65","1245.1000001430511","true","51","","","","","","","","","","","","","","","","","","",""
"","","","","","html-keyboard-response","139","398123","0.0-2.0-7.0-0.16","5ce973ea6c890100012ea2ae","E1","batch5","","null","<p class=block-text>Trial 56 out of 78</p>","null","pattern_show_trial_num","","","","","","","","","","","","","","","","","","","","","","","","",""
"","","","","","image-keyboard-response","140","399122","0.0-2.0-7.0-1.16","5ce973ea6c890100012ea2ae","E1","batch5","","996.5999999046326","stim/yes_22_ver_w1.png","f","pattern_response","true","f","pattern_47","996.5999999046326","true","52","","","","","","","","","","","","","","","","","","",""
"","","","","","html-keyboard-response","141","400440","0.0-2.0-7.0-0.17","5ce973ea6c890100012ea2ae","E1","batch5","","null","<p class=block-text>Trial 57 out of 78</p>","null","pattern_show_trial_num","","","","","","","","","","","","","","","","","","","","","","","","",""
"","","","","","image-keyboard-response","142","401285","0.0-2.0-7.0-1.17","5ce973ea6c890100012ea2ae","E1","batch5","","844","stim/yes_17_dia_w1.png","f","pattern_response","true","f","pattern_45","844","true","53","","","","","","","","","","","","","","","","","","",""
"","","","","","html-keyboard-response","143","402605","0.0-2.0-7.0-0.18","5ce973ea6c890100012ea2ae","E1","batch5","","null","<p class=block-text>Trial 58 out of 78</p>","null","pattern_show_trial_num","","","","","","","","","","","","","","","","","","","","","","","","",""
"","","","","","image-keyboard-response","144","410210","0.0-2.0-7.0-1.18","5ce973ea6c890100012ea2ae","E1","batch5","","7603.199999809265","stim/no_65_1_b.png","j","pattern_response","true","j","pattern_38","7603.199999809265","true","54","","","","","","","","","","","","","","","","","","",""
"","","","","","html-keyboard-response","145","411519","0.0-2.0-7.0-0.19","5ce973ea6c890100012ea2ae","E1","batch5","","null","<p class=block-text>Trial 59 out of 78</p>","null","pattern_show_trial_num","","","","","","","","","","","","","","","","","","","","","","","","",""
"","","","","","image-keyboard-response","146","415838","0.0-2.0-7.0-1.19","5ce973ea6c890100012ea2ae","E1","batch5","","4316.400000095367","stim/yes_67_hor_b1.png","f","pattern_response","true","f","pattern_79","4316.400000095367","true","55","","","","","","","","","","","","","","","","","","",""
"","","","","","html-keyboard-response","147","417156","0.0-2.0-7.0-0.20","5ce973ea6c890100012ea2ae","E1","batch5","","null","<p class=block-text>Trial 60 out of 78</p>","null","pattern_show_trial_num","","","","","","","","","","","","","","","","","","","","","","","","",""
"","","","","","image-keyboard-response","148","418866","0.0-2.0-7.0-1.20","5ce973ea6c890100012ea2ae","E1","batch5","","1707.9000000953674","stim/yes_31_hor_b1.png","f","pattern_response","true","f","pattern_55","1707.9000000953674","true","56","","","","","","","","","","","","","","","","","","",""
"","","","","","html-keyboard-response","149","420189","0.0-2.0-7.0-0.21","5ce973ea6c890100012ea2ae","E1","batch5","","null","<p class=block-text>Trial 61 out of 78</p>","null","pattern_show_trial_num","","","","","","","","","","","","","","","","","","","","","","","","",""
"","","","","","image-keyboard-response","150","422182","0.0-2.0-7.0-1.21","5ce973ea6c890100012ea2ae","E1","batch5","","1991.5999999046326","stim/yes_38_hor_b1_b.png","f","pattern_response","true","f","pattern_61","1991.5999999046326","true","57","","","","","","","","","","","","","","","","","","",""
"","","","","","html-keyboard-response","151","423495","0.0-2.0-7.0-0.22","5ce973ea6c890100012ea2ae","E1","batch5","","null","<p class=block-text>Trial 62 out of 78</p>","null","pattern_show_trial_num","","","","","","","","","","","","","","","","","","","","","","","","",""
"","","","","","image-keyboard-response","152","426026","0.0-2.0-7.0-1.22","5ce973ea6c890100012ea2ae","E1","batch5","","2528.899999856949","stim/no_44_1.png","j","pattern_response","true","j","pattern_24","2528.899999856949","true","58","","","","","","","","","","","","","","","","","","",""
"","","","","","html-keyboard-response","153","427356","0.0-2.0-7.0-0.23","5ce973ea6c890100012ea2ae","E1","batch5","","null","<p class=block-text>Trial 63 out of 78</p>","null","pattern_show_trial_num","","","","","","","","","","","","","","","","","","","","","","","","",""
"","","","","","image-keyboard-response","154","428388","0.0-2.0-7.0-1.23","5ce973ea6c890100012ea2ae","E1","batch5","","1030.6000001430511","stim/yes_25_hor_b1_b.png","f","pattern_response","true","f","pattern_49","1030.6000001430511","true","59","","","","","","","","","","","","","","","","","","",""
"","","","","","html-keyboard-response","155","429705","0.0-2.0-7.0-0.24","5ce973ea6c890100012ea2ae","E1","batch5","","null","<p class=block-text>Trial 64 out of 78</p>","null","pattern_show_trial_num","","","","","","","","","","","","","","","","","","","","","","","","",""
"","","","","","image-keyboard-response","156","432877","0.0-2.0-7.0-1.24","5ce973ea6c890100012ea2ae","E1","batch5","","3171.2000000476837","stim/no_34_1_b.png","j","pattern_response","true","j","pattern_16","3171.2000000476837","true","60","","","","","","","","","","","","","","","","","","",""
"","","","","","html-keyboard-response","157","434205","0.0-2.0-7.0-0.25","5ce973ea6c890100012ea2ae","E1","batch5","","null","<p class=block-text>Trial 65 out of 78</p>","null","pattern_show_trial_num","","","","","","","","","","","","","","","","","","","","","","","","",""
"","","","","","image-keyboard-response","158","437443","0.0-2.0-7.0-1.25","5ce973ea6c890100012ea2ae","E1","batch5","","3240.5","stim/yes_48_dia_w1_w.png","j","pattern_response","false","f","pattern_69","3240.5","false","60","","","","","","","","","","","","","","","","","","",""
"","","","","","html-keyboard-response","159","438767","0.0-2.0-7.0-0.26","5ce973ea6c890100012ea2ae","E1","batch5","","null","<p class=block-text>Trial 66 out of 78</p>","null","pattern_show_trial_num","","","","","","","","","","","","","","","","","","","","","","","","",""
"","","","","","image-keyboard-response","160","440634","0.0-2.0-7.0-1.26","5ce973ea6c890100012ea2ae","E1","batch5","","1865.6000001430511","stim/yes_45_hor_b2_b.png","f","pattern_response","true","f","pattern_67","1865.6000001430511","true","61","","","","","","","","","","","","","","","","","","",""
"","","","","","html-keyboard-response","161","441952","0.0-2.0-7.0-0.27","5ce973ea6c890100012ea2ae","E1","batch5","","null","<p class=block-text>Trial 67 out of 78</p>","null","pattern_show_trial_num","","","","","","","","","","","","","","","","","","","","","","","","",""
"","","","","","image-keyboard-response","162","443859","0.0-2.0-7.0-1.27","5ce973ea6c890100012ea2ae","E1","batch5","","1905.3000001907349","stim/yes_28_ver_b1.png","f","pattern_response","true","f","pattern_51","1905.3000001907349","true","62","","","","","","","","","","","","","","","","","","",""
"","","","","","html-keyboard-response","163","445184","0.0-2.0-7.0-0.28","5ce973ea6c890100012ea2ae","E1","batch5","","null","<p class=block-text>Trial 68 out of 78</p>","null","pattern_show_trial_num","","","","","","","","","","","","","","","","","","","","","","","","",""
"","","","","","image-keyboard-response","164","446403","0.0-2.0-7.0-1.28","5ce973ea6c890100012ea2ae","E1","batch5","","1216.5999999046326","stim/yes_55_hor_w1_w.png","f","pattern_response","true","f","pattern_75","1216.5999999046326","true","63","","","","","","","","","","","","","","","","","","",""
"","","","","","html-keyboard-response","165","447718","0.0-2.0-7.0-0.29","5ce973ea6c890100012ea2ae","E1","batch5","","null","<p class=block-text>Trial 69 out of 78</p>","null","pattern_show_trial_num","","","","","","","","","","","","","","","","","","","","","","","","",""
"","","","","","image-keyboard-response","166","451772","0.0-2.0-7.0-1.29","5ce973ea6c890100012ea2ae","E1","batch5","","4053.4000000953674","stim/yes_60_ver_b1_b.png","j","pattern_response","false","f","pattern_77","4053.4000000953674","false","63","","","","","","","","","","","","","","","","","","",""
"","","","","","html-keyboard-response","167","453088","0.0-2.0-7.0-0.30","5ce973ea6c890100012ea2ae","E1","batch5","","null","<p class=block-text>Trial 70 out of 78</p>","null","pattern_show_trial_num","","","","","","","","","","","","","","","","","","","","","","","","",""
"","","","","","image-keyboard-response","168","454292","0.0-2.0-7.0-1.30","5ce973ea6c890100012ea2ae","E1","batch5","","1202.5999999046326","stim/yes_52_ver_w1.png","f","pattern_response","true","f","pattern_73","1202.5999999046326","true","64","","","","","","","","","","","","","","","","","","",""
"","","","","","html-keyboard-response","169","455619","0.0-2.0-7.0-0.31","5ce973ea6c890100012ea2ae","E1","batch5","","null","<p class=block-text>Trial 71 out of 78</p>","null","pattern_show_trial_num","","","","","","","","","","","","","","","","","","","","","","","","",""
"","","","","","image-keyboard-response","170","457520","0.0-2.0-7.0-1.31","5ce973ea6c890100012ea2ae","E1","batch5","","1899.2999999523163","stim/no_23_1.png","j","pattern_response","true","j","pattern_08","1899.2999999523163","true","65","","","","","","","","","","","","","","","","","","",""
"","","","","","html-keyboard-response","171","458850","0.0-2.0-7.0-0.32","5ce973ea6c890100012ea2ae","E1","batch5","","null","<p class=block-text>Trial 72 out of 78</p>","null","pattern_show_trial_num","","","","","","","","","","","","","","","","","","","","","","","","",""
"","","","","","image-keyboard-response","172","461747","0.0-2.0-7.0-1.32","5ce973ea6c890100012ea2ae","E1","batch5","","2895.899999856949","stim/no_36_2_w.png","j","pattern_response","true","j","pattern_18","2895.899999856949","true","66","","","","","","","","","","","","","","","","","","",""
"","","","","","html-keyboard-response","173","463066","0.0-2.0-7.0-0.33","5ce973ea6c890100012ea2ae","E1","batch5","","null","<p class=block-text>Trial 73 out of 78</p>","null","pattern_show_trial_num","","","","","","","","","","","","","","","","","","","","","","","","",""
"","","","","","image-keyboard-response","174","468915","0.0-2.0-7.0-1.33","5ce973ea6c890100012ea2ae","E1","batch5","","5846.900000095367","stim/no_55_1_w.png","j","pattern_response","true","j","pattern_34","5846.900000095367","true","67","","","","","","","","","","","","","","","","","","",""
"","","","","","html-keyboard-response","175","470229","0.0-2.0-7.0-0.34","5ce973ea6c890100012ea2ae","E1","batch5","","null","<p class=block-text>Trial 74 out of 78</p>","null","pattern_show_trial_num","","","","","","","","","","","","","","","","","","","","","","","","",""
"","","","","","image-keyboard-response","176","472780","0.0-2.0-7.0-1.34","5ce973ea6c890100012ea2ae","E1","batch5","","2548.7000000476837","stim/no_38_1_b.png","f","pattern_response","false","j","pattern_20","2548.7000000476837","false","67","","","","","","","","","","","","","","","","","","",""
"","","","","","html-keyboard-response","177","474102","0.0-2.0-7.0-0.35","5ce973ea6c890100012ea2ae","E1","batch5","","null","<p class=block-text>Trial 75 out of 78</p>","null","pattern_show_trial_num","","","","","","","","","","","","","","","","","","","","","","","","",""
"","","","","","image-keyboard-response","178","475393","0.0-2.0-7.0-1.35","5ce973ea6c890100012ea2ae","E1","batch5","","1288.5999999046326","stim/yes_14_hor_b1_w.png","f","pattern_response","true","f","pattern_43","1288.5999999046326","true","68","","","","","","","","","","","","","","","","","","",""
"","","","","","html-keyboard-response","179","476716","0.0-2.0-7.0-0.36","5ce973ea6c890100012ea2ae","E1","batch5","","null","<p class=block-text>Trial 76 out of 78</p>","null","pattern_show_trial_num","","","","","","","","","","","","","","","","","","","","","","","","",""
"","","","","","image-keyboard-response","180","479584","0.0-2.0-7.0-1.36","5ce973ea6c890100012ea2ae","E1","batch5","","2866.5","stim/yes_40_dia_b1_b.png","j","pattern_response","false","f","pattern_63","2866.5","false","68","","","","","","","","","","","","","","","","","","",""
"","","","","","html-keyboard-response","181","480901","0.0-2.0-7.0-0.37","5ce973ea6c890100012ea2ae","E1","batch5","","null","<p class=block-text>Trial 77 out of 78</p>","null","pattern_show_trial_num","","","","","","","","","","","","","","","","","","","","","","","","",""
"","","","","","image-keyboard-response","182","486612","0.0-2.0-7.0-1.37","5ce973ea6c890100012ea2ae","E1","batch5","","5709.100000143051","stim/no_29_1_b.png","j","pattern_response","true","j","pattern_12","5709.100000143051","true","69","","","","","","","","","","","","","","","","","","",""
"","","","","","html-keyboard-response","183","487933","0.0-2.0-7.0-0.38","5ce973ea6c890100012ea2ae","E1","batch5","","null","<p class=block-text>Trial 78 out of 78</p>","null","pattern_show_trial_num","","","","","","","","","","","","","","","","","","","","","","","","",""
"","","","","","image-keyboard-response","184","493770","0.0-2.0-7.0-1.38","5ce973ea6c890100012ea2ae","E1","batch5","","5835.299999952316","stim/no_70_2.png","j","pattern_response","true","j","pattern_40","5835.299999952316","true","70","","","","","","","","","","","","","","","","","","",""
"","","","","","html-button-response","185","505331","0.0-2.0-8.0","5ce973ea6c890100012ea2ae","E1","batch5","","11037.5","<p class = block-text>This concludes the 4-in-a-row detection game.Thank you for your responses!<br>
            You responded correctly on 90% of the trials.<br>
            When you are ready, press ""Continue"" button to continue </p>","0","","","","","","","","","","","","","","","","","","","","","","","","","",""
"true","","","","","fullscreen","186","510178","0.0-3.0-0.0","5ce973ea6c890100012ea2ae","E1","batch5","","","","","spm_fullscreen","","","","","","","","","","","","","","","","","","","","","","","","",""
"","","","","","html-button-response","187","525053","0.0-3.0-1.0","5ce973ea6c890100012ea2ae","E1","batch5","","14873","<p class = block-text><b>Instructions</b> <br>This is a widely used intelligence test in research. <br>In this test, a figure with a missing piece will be presented.<br>Below the figure are alternative pieces to complete the figure, only one of which is correct.<br> Different figures might involve different principles for obtaining the missing piece<br>Your job is to select the most logical piece to complete the figure.</p>","0","","","","","","","","","","","","","","","","","","","","","","","","","",""
"","","","","","html-keyboard-response","188","525862","0.0-3.0-2.0-0.0","5ce973ea6c890100012ea2ae","E1","batch5","","null","<p class=block-text>Trial 1 out of 60</p>","null","spm_show_trial_num","","","","","","","","","","","","","","","","","","","","","","","","",""
"","","","","","image-button-response","189","541759","0.0-3.0-2.0-1.0","5ce973ea6c890100012ea2ae","E1","batch5","","15892.799999952316","img/question_1_1.jpeg","3","spm_respsonse","1","4","mat_01","","","","","","1","15892.799999952316","","","","","","","","","","","","","","",""
"","","","","","html-keyboard-response","190","542824","0.0-3.0-2.0-0.1","5ce973ea6c890100012ea2ae","E1","batch5","","null","<p class=block-text>Trial 2 out of 60</p>","null","spm_show_trial_num","","","","","","","","","","","","","","","","","","","","","","","","",""
"","","","","","image-button-response","191","548211","0.0-3.0-2.0-1.1","5ce973ea6c890100012ea2ae","E1","batch5","","5383.799999952316","img/question_1_2.jpeg","4","spm_respsonse","1","5","mat_02","","","","","","1","5383.799999952316","","","","","","","","","","","","","","",""
"","","","","","html-keyboard-response","192","549275","0.0-3.0-2.0-0.2","5ce973ea6c890100012ea2ae","E1","batch5","","null","<p class=block-text>Trial 3 out of 60</p>","null","spm_show_trial_num","","","","","","","","","","","","","","","","","","","","","","","","",""
"","","","","","image-button-response","193","552370","0.0-3.0-2.0-1.2","5ce973ea6c890100012ea2ae","E1","batch5","","3093","img/question_1_3.jpeg","0","spm_respsonse","1","1","mat_03","","","","","","1","3093","","","","","","","","","","","","","","",""
"","","","","","html-keyboard-response","194","553439","0.0-3.0-2.0-0.3","5ce973ea6c890100012ea2ae","E1","batch5","","null","<p class=block-text>Trial 4 out of 60</p>","null","spm_show_trial_num","","","","","","","","","","","","","","","","","","","","","","","","",""
"","","","","","image-button-response","195","557033","0.0-3.0-2.0-1.3","5ce973ea6c890100012ea2ae","E1","batch5","","3591","img/question_1_4.jpeg","1","spm_respsonse","1","2","mat_04","","","","","","1","3591","","","","","","","","","","","","","","",""
"","","","","","html-keyboard-response","196","558092","0.0-3.0-2.0-0.4","5ce973ea6c890100012ea2ae","E1","batch5","","null","<p class=block-text>Trial 5 out of 60</p>","null","spm_show_trial_num","","","","","","","","","","","","","","","","","","","","","","","","",""
"","","","","","image-button-response","197","561639","0.0-3.0-2.0-1.4","5ce973ea6c890100012ea2ae","E1","batch5","","3544.4000000953674","img/question_1_5.jpeg","5","spm_respsonse","1","6","mat_05","","","","","","1","3544.4000000953674","","","","","","","","","","","","","","",""
"","","","","","html-keyboard-response","198","562694","0.0-3.0-2.0-0.5","5ce973ea6c890100012ea2ae","E1","batch5","","null","<p class=block-text>Trial 6 out of 60</p>","null","spm_show_trial_num","","","","","","","","","","","","","","","","","","","","","","","","",""
"","","","","","image-button-response","199","566638","0.0-3.0-2.0-1.5","5ce973ea6c890100012ea2ae","E1","batch5","","3940.5","img/question_1_6.jpeg","2","spm_respsonse","1","3","mat_06","","","","","","1","3940.5","","","","","","","","","","","","","","",""
"","","","","","html-keyboard-response","200","567702","0.0-3.0-2.0-0.6","5ce973ea6c890100012ea2ae","E1","batch5","","null","<p class=block-text>Trial 7 out of 60</p>","null","spm_show_trial_num","","","","","","","","","","","","","","","","","","","","","","","","",""
"","","","","","image-button-response","201","575135","0.0-3.0-2.0-1.6","5ce973ea6c890100012ea2ae","E1","batch5","","7431.099999904633","img/question_1_7.jpeg","5","spm_respsonse","1","6","mat_07","","","","","","1","7431.099999904633","","","","","","","","","","","","","","",""
"","","","","","html-keyboard-response","202","576206","0.0-3.0-2.0-0.7","5ce973ea6c890100012ea2ae","E1","batch5","","null","<p class=block-text>Trial 8 out of 60</p>","null","spm_show_trial_num","","","","","","","","","","","","","","","","","","","","","","","","",""
"","","","","","image-button-response","203","583006","0.0-3.0-2.0-1.7","5ce973ea6c890100012ea2ae","E1","batch5","","6796.899999856949","img/question_1_8.jpeg","1","spm_respsonse","1","2","mat_08","","","","","","1","6796.899999856949","","","","","","","","","","","","","","",""
"","","","","","html-keyboard-response","204","584059","0.0-3.0-2.0-0.8","5ce973ea6c890100012ea2ae","E1","batch5","","null","<p class=block-text>Trial 9 out of 60</p>","null","spm_show_trial_num","","","","","","","","","","","","","","","","","","","","","","","","",""
"","","","","","image-button-response","205","587421","0.0-3.0-2.0-1.8","5ce973ea6c890100012ea2ae","E1","batch5","","3358.600000143051","img/question_1_9.jpeg","0","spm_respsonse","1","1","mat_09","","","","","","1","3358.600000143051","","","","","","","","","","","","","","",""
"","","","","","html-keyboard-response","206","588491","0.0-3.0-2.0-0.9","5ce973ea6c890100012ea2ae","E1","batch5","","null","<p class=block-text>Trial 10 out of 60</p>","null","spm_show_trial_num","","","","","","","","","","","","","","","","","","","","","","","","",""
"","","","","","image-button-response","207","596423","0.0-3.0-2.0-1.9","5ce973ea6c890100012ea2ae","E1","batch5","","7929.399999856949","img/question_1_10.jpeg","2","spm_respsonse","1","3","mat_10","","","","","","1","7929.399999856949","","","","","","","","","","","","","","",""
"","","","","","html-keyboard-response","208","597490","0.0-3.0-2.0-0.10","5ce973ea6c890100012ea2ae","E1","batch5","","null","<p class=block-text>Trial 11 out of 60</p>","null","spm_show_trial_num","","","","","","","","","","","","","","","","","","","","","","","","",""
"","","","","","image-button-response","209","608460","0.0-3.0-2.0-1.10","5ce973ea6c890100012ea2ae","E1","batch5","","10966.600000143051","img/question_1_11.jpeg","3","spm_respsonse","1","4","mat_11","","","","","","1","10966.600000143051","","","","","","","","","","","","","","",""
"","","","","","html-keyboard-response","210","609525","0.0-3.0-2.0-0.11","5ce973ea6c890100012ea2ae","E1","batch5","","null","<p class=block-text>Trial 12 out of 60</p>","null","spm_show_trial_num","","","","","","","","","","","","","","","","","","","","","","","","",""
"","","","","","image-button-response","211","636894","0.0-3.0-2.0-1.11","5ce973ea6c890100012ea2ae","E1","batch5","","27365.700000047684","img/question_1_12.jpeg","0","spm_respsonse","0","5","mat_12","","","","","","0","27365.700000047684","","","","","","","","","","","","","","",""
"","","","","","html-keyboard-response","212","637957","0.0-3.0-2.0-0.12","5ce973ea6c890100012ea2ae","E1","batch5","","null","<p class=block-text>Trial 13 out of 60</p>","null","spm_show_trial_num","","","","","","","","","","","","","","","","","","","","","","","","",""
"","","","","","image-button-response","213","640557","0.0-3.0-2.0-1.12","5ce973ea6c890100012ea2ae","E1","batch5","","2597.7999999523163","img/question_2_1.jpeg","1","spm_respsonse","1","2","mat_13","","","","","","1","2597.7999999523163","","","","","","","","","","","","","","",""
"","","","","","html-keyboard-response","214","641639","0.0-3.0-2.0-0.13","5ce973ea6c890100012ea2ae","E1","batch5","","null","<p class=block-text>Trial 14 out of 60</p>","null","spm_show_trial_num","","","","","","","","","","","","","","","","","","","","","","","","",""
"","","","","","image-button-response","215","661491","0.0-3.0-2.0-1.13","5ce973ea6c890100012ea2ae","E1","batch5","","19849.10000014305","img/question_2_2.jpeg","5","spm_respsonse","1","6","mat_14","","","","","","1","19849.10000014305","","","","","","","","","","","","","","",""
"","","","","","html-keyboard-response","216","662572","0.0-3.0-2.0-0.14","5ce973ea6c890100012ea2ae","E1","batch5","","null","<p class=block-text>Trial 15 out of 60</p>","null","spm_show_trial_num","","","","","","","","","","","","","","","","","","","","","","","","",""
"","","","","","image-button-response","217","666025","0.0-3.0-2.0-1.14","5ce973ea6c890100012ea2ae","E1","batch5","","3450.699999809265","img/question_2_3.jpeg","0","spm_respsonse","1","1","mat_15","","","","","","1","3450.699999809265","","","","","","","","","","","","","","",""
"","","","","","html-keyboard-response","218","667100","0.0-3.0-2.0-0.15","5ce973ea6c890100012ea2ae","E1","batch5","","null","<p class=block-text>Trial 16 out of 60</p>","null","spm_show_trial_num","","","","","","","","","","","","","","","","","","","","","","","","",""
"","","","","","image-button-response","219","674117","0.0-3.0-2.0-1.15","5ce973ea6c890100012ea2ae","E1","batch5","","7013.799999952316","img/question_2_4.jpeg","1","spm_respsonse","1","2","mat_16","","","","","","1","7013.799999952316","","","","","","","","","","","","","","",""
"","","","","","html-keyboard-response","220","675182","0.0-3.0-2.0-0.16","5ce973ea6c890100012ea2ae","E1","batch5","","null","<p class=block-text>Trial 17 out of 60</p>","null","spm_show_trial_num","","","","","","","","","","","","","","","","","","","","","","","","",""
"","","","","","image-button-response","221","680778","0.0-3.0-2.0-1.16","5ce973ea6c890100012ea2ae","E1","batch5","","5593.100000143051","img/question_2_5.jpeg","0","spm_respsonse","1","1","mat_17","","","","","","1","5593.100000143051","","","","","","","","","","","","","","",""
"","","","","","html-keyboard-response","222","681855","0.0-3.0-2.0-0.17","5ce973ea6c890100012ea2ae","E1","batch5","","null","<p class=block-text>Trial 18 out of 60</p>","null","spm_show_trial_num","","","","","","","","","","","","","","","","","","","","","","","","",""
"","","","","","image-button-response","223","692854","0.0-3.0-2.0-1.17","5ce973ea6c890100012ea2ae","E1","batch5","","10995.700000047684","img/question_2_6.jpeg","2","spm_respsonse","1","3","mat_18","","","","","","1","10995.700000047684","","","","","","","","","","","","","","",""
"","","","","","html-keyboard-response","224","693921","0.0-3.0-2.0-0.18","5ce973ea6c890100012ea2ae","E1","batch5","","null","<p class=block-text>Trial 19 out of 60</p>","null","spm_show_trial_num","","","","","","","","","","","","","","","","","","","","","","","","",""
"","","","","","image-button-response","225","699904","0.0-3.0-2.0-1.18","5ce973ea6c890100012ea2ae","E1","batch5","","5981.200000047684","img/question_2_7.jpeg","5","spm_respsonse","0","5","mat_19","","","","","","0","5981.200000047684","","","","","","","","","","","","","","",""
"","","","","","html-keyboard-response","226","700972","0.0-3.0-2.0-0.19","5ce973ea6c890100012ea2ae","E1","batch5","","null","<p class=block-text>Trial 20 out of 60</p>","null","spm_show_trial_num","","","","","","","","","","","","","","","","","","","","","","","","",""
"","","","","","image-button-response","227","710304","0.0-3.0-2.0-1.19","5ce973ea6c890100012ea2ae","E1","batch5","","9329.299999952316","img/question_2_8.jpeg","5","spm_respsonse","1","6","mat_20","","","","","","1","9329.299999952316","","","","","","","","","","","","","","",""
"","","","","","html-keyboard-response","228","711362","0.0-3.0-2.0-0.20","5ce973ea6c890100012ea2ae","E1","batch5","","null","<p class=block-text>Trial 21 out of 60</p>","null","spm_show_trial_num","","","","","","","","","","","","","","","","","","","","","","","","",""
"","","","","","image-button-response","229","721639","0.0-3.0-2.0-1.20","5ce973ea6c890100012ea2ae","E1","batch5","","10274.899999856949","img/question_2_9.jpeg","3","spm_respsonse","1","4","mat_21","","","","","","1","10274.899999856949","","","","","","","","","","","","","","",""
"","","","","","html-keyboard-response","230","722703","0.0-3.0-2.0-0.21","5ce973ea6c890100012ea2ae","E1","batch5","","null","<p class=block-text>Trial 22 out of 60</p>","null","spm_show_trial_num","","","","","","","","","","","","","","","","","","","","","","","","",""
"","","","","","image-button-response","231","729811","0.0-3.0-2.0-1.21","5ce973ea6c890100012ea2ae","E1","batch5","","7105","img/question_2_10.jpeg","2","spm_respsonse","1","3","mat_22","","","","","","1","7105","","","","","","","","","","","","","","",""
"","","","","","html-keyboard-response","232","730886","0.0-3.0-2.0-0.22","5ce973ea6c890100012ea2ae","E1","batch5","","null","<p class=block-text>Trial 23 out of 60</p>","null","spm_show_trial_num","","","","","","","","","","","","","","","","","","","","","","","","",""
"","","","","","image-button-response","233","737299","0.0-3.0-2.0-1.22","5ce973ea6c890100012ea2ae","E1","batch5","","6410.099999904633","img/question_2_11.jpeg","3","spm_respsonse","1","4","mat_23","","","","","","1","6410.099999904633","","","","","","","","","","","","","","",""
"","","","","","html-keyboard-response","234","738359","0.0-3.0-2.0-0.23","5ce973ea6c890100012ea2ae","E1","batch5","","null","<p class=block-text>Trial 24 out of 60</p>","null","spm_show_trial_num","","","","","","","","","","","","","","","","","","","","","","","","",""
"","","","","","image-button-response","235","784046","0.0-3.0-2.0-1.23","5ce973ea6c890100012ea2ae","E1","batch5","","45683.5","img/question_2_12.jpeg","1","spm_respsonse","0","5","mat_24","","","","","","0","45683.5","","","","","","","","","","","","","","",""
"","","","","","html-button-response","236","786490","0.0-3.0-3.0","5ce973ea6c890100012ea2ae","E1","batch5","","2192.199999809265","<p class = block-text>Attention check: Please choose 1<br></p>","0","attention_check","true","","","","","","","","","","","","","","","","","","","","","","","",""
"","","","","","html-keyboard-response","237","787298","0.0-3.0-4.0-0.0","5ce973ea6c890100012ea2ae","E1","batch5","","null","<p class=block-text>Trial 25 out of 60</p>","null","spm_show_trial_num","","","","","","","","","","","","","","","","","","","","","","","","",""
"","","","","","image-button-response","238","798026","0.0-3.0-4.0-1.0","5ce973ea6c890100012ea2ae","E1","batch5","","10725.400000095367","img/question_3_1.jpeg","7","spm_respsonse","1","8","mat_25","","","","","","1","10725.400000095367","","","","","","","","","","","","","","",""
"","","","","","html-keyboard-response","239","799104","0.0-3.0-4.0-0.1","5ce973ea6c890100012ea2ae","E1","batch5","","null","<p class=block-text>Trial 26 out of 60</p>","null","spm_show_trial_num","","","","","","","","","","","","","","","","","","","","","","","","",""
"","","","","","image-button-response","240","807280","0.0-3.0-4.0-1.1","5ce973ea6c890100012ea2ae","E1","batch5","","8173.5","img/question_3_2.jpeg","1","spm_respsonse","1","2","mat_26","","","","","","1","8173.5","","","","","","","","","","","","","","",""
"","","","","","html-keyboard-response","241","808354","0.0-3.0-4.0-0.2","5ce973ea6c890100012ea2ae","E1","batch5","","null","<p class=block-text>Trial 27 out of 60</p>","null","spm_show_trial_num","","","","","","","","","","","","","","","","","","","","","","","","",""
"","","","","","image-button-response","242","820408","0.0-3.0-4.0-1.2","5ce973ea6c890100012ea2ae","E1","batch5","","12050.299999952316","img/question_3_3.jpeg","2","spm_respsonse","1","3","mat_27","","","","","","1","12050.299999952316","","","","","","","","","","","","","","",""
"","","","","","html-keyboard-response","243","821469","0.0-3.0-4.0-0.3","5ce973ea6c890100012ea2ae","E1","batch5","","null","<p class=block-text>Trial 28 out of 60</p>","null","spm_show_trial_num","","","","","","","","","","","","","","","","","","","","","","","","",""
"","","","","","image-button-response","244","829769","0.0-3.0-4.0-1.3","5ce973ea6c890100012ea2ae","E1","batch5","","8297","img/question_3_4.jpeg","3","spm_respsonse","0","8","mat_28","","","","","","0","8297","","","","","","","","","","","","","","",""
"","","","","","html-keyboard-response","245","830836","0.0-3.0-4.0-0.4","5ce973ea6c890100012ea2ae","E1","batch5","","null","<p class=block-text>Trial 29 out of 60</p>","null","spm_show_trial_num","","","","","","","","","","","","","","","","","","","","","","","","",""
"","","","","","image-button-response","246","875606","0.0-3.0-4.0-1.4","5ce973ea6c890100012ea2ae","E1","batch5","","44766.699999809265","img/question_3_5.jpeg","6","spm_respsonse","1","7","mat_29","","","","","","1","44766.699999809265","","","","","","","","","","","","","","",""
"","","","","","html-keyboard-response","247","876658","0.0-3.0-4.0-0.5","5ce973ea6c890100012ea2ae","E1","batch5","","null","<p class=block-text>Trial 30 out of 60</p>","null","spm_show_trial_num","","","","","","","","","","","","","","","","","","","","","","","","",""
"","","","","","image-button-response","248","903635","0.0-3.0-4.0-1.5","5ce973ea6c890100012ea2ae","E1","batch5","","26974","img/question_3_6.jpeg","3","spm_respsonse","1","4","mat_30","","","","","","1","26974","","","","","","","","","","","","","","",""
"","","","","","html-keyboard-response","249","904688","0.0-3.0-4.0-0.6","5ce973ea6c890100012ea2ae","E1","batch5","","null","<p class=block-text>Trial 31 out of 60</p>","null","spm_show_trial_num","","","","","","","","","","","","","","","","","","","","","","","","",""
"","","","","","image-button-response","250","924944","0.0-3.0-4.0-1.6","5ce973ea6c890100012ea2ae","E1","batch5","","20253.5","img/question_3_7.jpeg","4","spm_respsonse","1","5","mat_31","","","","","","1","20253.5","","","","","","","","","","","","","","",""
"","","","","","html-keyboard-response","251","926002","0.0-3.0-4.0-0.7","5ce973ea6c890100012ea2ae","E1","batch5","","null","<p class=block-text>Trial 32 out of 60</p>","null","spm_show_trial_num","","","","","","","","","","","","","","","","","","","","","","","","",""
"","","","","","image-button-response","252","966087","0.0-3.0-4.0-1.7","5ce973ea6c890100012ea2ae","E1","batch5","","40082.5","img/question_3_8.jpeg","3","spm_respsonse","0","1","mat_32","","","","","","0","40082.5","","","","","","","","","","","","","","",""
"","","","","","html-keyboard-response","253","967152","0.0-3.0-4.0-0.8","5ce973ea6c890100012ea2ae","E1","batch5","","null","<p class=block-text>Trial 33 out of 60</p>","null","spm_show_trial_num","","","","","","","","","","","","","","","","","","","","","","","","",""
"","","","","","image-button-response","254","981427","0.0-3.0-4.0-1.8","5ce973ea6c890100012ea2ae","E1","batch5","","14272.200000047684","img/question_3_9.jpeg","6","spm_respsonse","1","7","mat_33","","","","","","1","14272.200000047684","","","","","","","","","","","","","","",""
"","","","","","html-keyboard-response","255","982494","0.0-3.0-4.0-0.9","5ce973ea6c890100012ea2ae","E1","batch5","","null","<p class=block-text>Trial 34 out of 60</p>","null","spm_show_trial_num","","","","","","","","","","","","","","","","","","","","","","","","",""
"","","","","","image-button-response","256","1001098","0.0-3.0-4.0-1.9","5ce973ea6c890100012ea2ae","E1","batch5","","18601","img/question_3_10.jpeg","5","spm_respsonse","1","6","mat_34","","","","","","1","18601","","","","","","","","","","","","","","",""
"","","","","","html-keyboard-response","257","1002163","0.0-3.0-4.0-0.10","5ce973ea6c890100012ea2ae","E1","batch5","","null","<p class=block-text>Trial 35 out of 60</p>","null","spm_show_trial_num","","","","","","","","","","","","","","","","","","","","","","","","",""
"","","","","","image-button-response","258","1016092","0.0-3.0-4.0-1.10","5ce973ea6c890100012ea2ae","E1","batch5","","13925.799999952316","img/question_3_11.jpeg","4","spm_respsonse","0","1","mat_35","","","","","","0","13925.799999952316","","","","","","","","","","","","","","",""
"","","","","","html-keyboard-response","259","1017166","0.0-3.0-4.0-0.11","5ce973ea6c890100012ea2ae","E1","batch5","","null","<p class=block-text>Trial 36 out of 60</p>","null","spm_show_trial_num","","","","","","","","","","","","","","","","","","","","","","","","",""
"","","","","","image-button-response","260","1050030","0.0-3.0-4.0-1.11","5ce973ea6c890100012ea2ae","E1","batch5","","32860.59999990463","img/question_3_12.jpeg","6","spm_respsonse","0","2","mat_36","","","","","","0","32860.59999990463","","","","","","","","","","","","","","",""
"","","","","","html-keyboard-response","261","1051097","0.0-3.0-4.0-0.12","5ce973ea6c890100012ea2ae","E1","batch5","","null","<p class=block-text>Trial 37 out of 60</p>","null","spm_show_trial_num","","","","","","","","","","","","","","","","","","","","","","","","",""
"","","","","","image-button-response","262","1063354","0.0-3.0-4.0-1.12","5ce973ea6c890100012ea2ae","E1","batch5","","12254.799999952316","img/question_4_1.jpeg","2","spm_respsonse","1","3","mat_37","","","","","","1","12254.799999952316","","","","","","","","","","","","","","",""
"","","","","","html-keyboard-response","263","1064417","0.0-3.0-4.0-0.13","5ce973ea6c890100012ea2ae","E1","batch5","","null","<p class=block-text>Trial 38 out of 60</p>","null","spm_show_trial_num","","","","","","","","","","","","","","","","","","","","","","","","",""
"","","","","","image-button-response","264","1070057","0.0-3.0-4.0-1.13","5ce973ea6c890100012ea2ae","E1","batch5","","5637","img/question_4_2.jpeg","3","spm_respsonse","1","4","mat_38","","","","","","1","5637","","","","","","","","","","","","","","",""
"","","","","","html-keyboard-response","265","1071133","0.0-3.0-4.0-0.14","5ce973ea6c890100012ea2ae","E1","batch5","","null","<p class=block-text>Trial 39 out of 60</p>","null","spm_show_trial_num","","","","","","","","","","","","","","","","","","","","","","","","",""
"","","","","","image-button-response","266","1081945","0.0-3.0-4.0-1.14","5ce973ea6c890100012ea2ae","E1","batch5","","10810","img/question_4_3.jpeg","2","spm_respsonse","1","3","mat_39","","","","","","1","10810","","","","","","","","","","","","","","",""
"","","","","","html-keyboard-response","267","1083006","0.0-3.0-4.0-0.15","5ce973ea6c890100012ea2ae","E1","batch5","","null","<p class=block-text>Trial 40 out of 60</p>","null","spm_show_trial_num","","","","","","","","","","","","","","","","","","","","","","","","",""
"","","","","","image-button-response","268","1099009","0.0-3.0-4.0-1.15","5ce973ea6c890100012ea2ae","E1","batch5","","16000.599999904633","img/question_4_4.jpeg","6","spm_respsonse","1","7","mat_40","","","","","","1","16000.599999904633","","","","","","","","","","","","","","",""
"","","","","","html-keyboard-response","269","1100068","0.0-3.0-4.0-0.16","5ce973ea6c890100012ea2ae","E1","batch5","","null","<p class=block-text>Trial 41 out of 60</p>","null","spm_show_trial_num","","","","","","","","","","","","","","","","","","","","","","","","",""
"","","","","","image-button-response","270","1112415","0.0-3.0-4.0-1.16","5ce973ea6c890100012ea2ae","E1","batch5","","12344.200000047684","img/question_4_5.jpeg","7","spm_respsonse","1","8","mat_41","","","","","","1","12344.200000047684","","","","","","","","","","","","","","",""
"","","","","","html-keyboard-response","271","1113482","0.0-3.0-4.0-0.17","5ce973ea6c890100012ea2ae","E1","batch5","","null","<p class=block-text>Trial 42 out of 60</p>","null","spm_show_trial_num","","","","","","","","","","","","","","","","","","","","","","","","",""
"","","","","","image-button-response","272","1126947","0.0-3.0-4.0-1.17","5ce973ea6c890100012ea2ae","E1","batch5","","13462.099999904633","img/question_4_6.jpeg","5","spm_respsonse","1","6","mat_42","","","","","","1","13462.099999904633","","","","","","","","","","","","","","",""
"","","","","","html-keyboard-response","273","1128004","0.0-3.0-4.0-0.18","5ce973ea6c890100012ea2ae","E1","batch5","","null","<p class=block-text>Trial 43 out of 60</p>","null","spm_show_trial_num","","","","","","","","","","","","","","","","","","","","","","","","",""
"","","","","","image-button-response","274","1149991","0.0-3.0-4.0-1.18","5ce973ea6c890100012ea2ae","E1","batch5","","21983.900000095367","img/question_4_7.jpeg","6","spm_respsonse","0","5","mat_43","","","","","","0","21983.900000095367","","","","","","","","","","","","","","",""
"","","","","","html-keyboard-response","275","1151051","0.0-3.0-4.0-0.19","5ce973ea6c890100012ea2ae","E1","batch5","","null","<p class=block-text>Trial 44 out of 60</p>","null","spm_show_trial_num","","","","","","","","","","","","","","","","","","","","","","","","",""
"","","","","","image-button-response","276","1156981","0.0-3.0-4.0-1.19","5ce973ea6c890100012ea2ae","E1","batch5","","5926.799999952316","img/question_4_8.jpeg","6","spm_respsonse","0","4","mat_44","","","","","","0","5926.799999952316","","","","","","","","","","","","","","",""
"","","","","","html-keyboard-response","277","1158049","0.0-3.0-4.0-0.20","5ce973ea6c890100012ea2ae","E1","batch5","","null","<p class=block-text>Trial 45 out of 60</p>","null","spm_show_trial_num","","","","","","","","","","","","","","","","","","","","","","","","",""
"","","","","","image-button-response","278","1188288","0.0-3.0-4.0-1.20","5ce973ea6c890100012ea2ae","E1","batch5","","30235.900000095367","img/question_4_9.jpeg","1","spm_respsonse","0","1","mat_45","","","","","","0","30235.900000095367","","","","","","","","","","","","","","",""
"","","","","","html-keyboard-response","279","1189348","0.0-3.0-4.0-0.21","5ce973ea6c890100012ea2ae","E1","batch5","","null","<p class=block-text>Trial 46 out of 60</p>","null","spm_show_trial_num","","","","","","","","","","","","","","","","","","","","","","","","",""
"","","","","","image-button-response","280","1218207","0.0-3.0-4.0-1.21","5ce973ea6c890100012ea2ae","E1","batch5","","28856.200000047684","img/question_4_10.jpeg","7","spm_respsonse","0","2","mat_46","","","","","","0","28856.200000047684","","","","","","","","","","","","","","",""
"","","","","","html-keyboard-response","281","1219277","0.0-3.0-4.0-0.22","5ce973ea6c890100012ea2ae","E1","batch5","","null","<p class=block-text>Trial 47 out of 60</p>","null","spm_show_trial_num","","","","","","","","","","","","","","","","","","","","","","","","",""
"","","","","","image-button-response","282","1254958","0.0-3.0-4.0-1.22","5ce973ea6c890100012ea2ae","E1","batch5","","35678.299999952316","img/question_4_11.jpeg","6","spm_respsonse","0","5","mat_47","","","","","","0","35678.299999952316","","","","","","","","","","","","","","",""
"","","","","","html-keyboard-response","283","1256014","0.0-3.0-4.0-0.23","5ce973ea6c890100012ea2ae","E1","batch5","","null","<p class=block-text>Trial 48 out of 60</p>","null","spm_show_trial_num","","","","","","","","","","","","","","","","","","","","","","","","",""
"","","","","","image-button-response","284","1269718","0.0-3.0-4.0-1.23","5ce973ea6c890100012ea2ae","E1","batch5","","13701.099999904633","img/question_4_12.jpeg","6","spm_respsonse","0","6","mat_48","","","","","","0","13701.099999904633","","","","","","","","","","","","","","",""
"","","","","","html-keyboard-response","285","1270796","0.0-3.0-4.0-0.24","5ce973ea6c890100012ea2ae","E1","batch5","","null","<p class=block-text>Trial 49 out of 60</p>","null","spm_show_trial_num","","","","","","","","","","","","","","","","","","","","","","","","",""
"","","","","","image-button-response","286","1284191","0.0-3.0-4.0-1.24","5ce973ea6c890100012ea2ae","E1","batch5","","13392.700000047684","img/question_5_1.jpeg","0","spm_respsonse","0","7","mat_49","","","","","","0","13392.700000047684","","","","","","","","","","","","","","",""
"","","","","","html-keyboard-response","287","1285246","0.0-3.0-4.0-0.25","5ce973ea6c890100012ea2ae","E1","batch5","","null","<p class=block-text>Trial 50 out of 60</p>","null","spm_show_trial_num","","","","","","","","","","","","","","","","","","","","","","","","",""
"","","","","","image-button-response","288","1304297","0.0-3.0-4.0-1.25","5ce973ea6c890100012ea2ae","E1","batch5","","19047.199999809265","img/question_5_2.jpeg","2","spm_respsonse","0","6","mat_50","","","","","","0","19047.199999809265","","","","","","","","","","","","","","",""
"","","","","","html-keyboard-response","289","1305363","0.0-3.0-4.0-0.26","5ce973ea6c890100012ea2ae","E1","batch5","","null","<p class=block-text>Trial 51 out of 60</p>","null","spm_show_trial_num","","","","","","","","","","","","","","","","","","","","","","","","",""
"","","","","","image-button-response","290","1320258","0.0-3.0-4.0-1.26","5ce973ea6c890100012ea2ae","E1","batch5","","14892.099999904633","img/question_5_3.jpeg","3","spm_respsonse","0","8","mat_51","","","","","","0","14892.099999904633","","","","","","","","","","","","","","",""
"","","","","","html-keyboard-response","291","1321328","0.0-3.0-4.0-0.27","5ce973ea6c890100012ea2ae","E1","batch5","","null","<p class=block-text>Trial 52 out of 60</p>","null","spm_show_trial_num","","","","","","","","","","","","","","","","","","","","","","","","",""
"","","","","","image-button-response","292","1332538","0.0-3.0-4.0-1.27","5ce973ea6c890100012ea2ae","E1","batch5","","11207.599999904633","img/question_5_4.jpeg","2","spm_respsonse","0","2","mat_52","","","","","","0","11207.599999904633","","","","","","","","","","","","","","",""
"","","","","","html-keyboard-response","293","1333599","0.0-3.0-4.0-0.28","5ce973ea6c890100012ea2ae","E1","batch5","","null","<p class=block-text>Trial 53 out of 60</p>","null","spm_show_trial_num","","","","","","","","","","","","","","","","","","","","","","","","",""
"","","","","","image-button-response","294","1343625","0.0-3.0-4.0-1.28","5ce973ea6c890100012ea2ae","E1","batch5","","10032.799999952316","img/question_5_5.jpeg","5","spm_respsonse","0","1","mat_53","","","","","","0","10032.799999952316","","","","","","","","","","","","","","",""
"","","","","","html-keyboard-response","295","1344701","0.0-3.0-4.0-0.29","5ce973ea6c890100012ea2ae","E1","batch5","","null","<p class=block-text>Trial 54 out of 60</p>","null","spm_show_trial_num","","","","","","","","","","","","","","","","","","","","","","","","",""
"","","","","","image-button-response","296","1359747","0.0-3.0-4.0-1.29","5ce973ea6c890100012ea2ae","E1","batch5","","15044.099999904633","img/question_5_6.jpeg","7","spm_respsonse","0","5","mat_54","","","","","","0","15044.099999904633","","","","","","","","","","","","","","",""
"","","","","","html-keyboard-response","297","1360803","0.0-3.0-4.0-0.30","5ce973ea6c890100012ea2ae","E1","batch5","","null","<p class=block-text>Trial 55 out of 60</p>","null","spm_show_trial_num","","","","","","","","","","","","","","","","","","","","","","","","",""
"","","","","","image-button-response","298","1375411","0.0-3.0-4.0-1.30","5ce973ea6c890100012ea2ae","E1","batch5","","14604.799999952316","img/question_5_7.jpeg","4","spm_respsonse","0","1","mat_55","","","","","","0","14604.799999952316","","","","","","","","","","","","","","",""
"","","","","","html-keyboard-response","299","1376469","0.0-3.0-4.0-0.31","5ce973ea6c890100012ea2ae","E1","batch5","","null","<p class=block-text>Trial 56 out of 60</p>","null","spm_show_trial_num","","","","","","","","","","","","","","","","","","","","","","","","",""
"","","","","","image-button-response","300","1401631","0.0-3.0-4.0-1.31","5ce973ea6c890100012ea2ae","E1","batch5","","25158.099999904633","img/question_5_8.jpeg","7","spm_respsonse","0","6","mat_56","","","","","","0","25158.099999904633","","","","","","","","","","","","","","",""
"","","","","","html-keyboard-response","301","1402690","0.0-3.0-4.0-0.32","5ce973ea6c890100012ea2ae","E1","batch5","","null","<p class=block-text>Trial 57 out of 60</p>","null","spm_show_trial_num","","","","","","","","","","","","","","","","","","","","","","","","",""
"","","","","","image-button-response","302","1423932","0.0-3.0-4.0-1.32","5ce973ea6c890100012ea2ae","E1","batch5","","21229.400000095367","img/question_5_9.jpeg","7","spm_respsonse","0","3","mat_57","","","","","","0","21229.400000095367","","","","","","","","","","","","","","",""
"","","","","","html-keyboard-response","303","1424995","0.0-3.0-4.0-0.33","5ce973ea6c890100012ea2ae","E1","batch5","","null","<p class=block-text>Trial 58 out of 60</p>","null","spm_show_trial_num","","","","","","","","","","","","","","","","","","","","","","","","",""
"","","","","","image-button-response","304","1444265","0.0-3.0-4.0-1.33","5ce973ea6c890100012ea2ae","E1","batch5","","19267.60000014305","img/question_5_10.jpeg","6","spm_respsonse","0","2","mat_58","","","","","","0","19267.60000014305","","","","","","","","","","","","","","",""
"","","","","","html-keyboard-response","305","1445342","0.0-3.0-4.0-0.34","5ce973ea6c890100012ea2ae","E1","batch5","","null","<p class=block-text>Trial 59 out of 60</p>","null","spm_show_trial_num","","","","","","","","","","","","","","","","","","","","","","","","",""
"","","","","","image-button-response","306","1466684","0.0-3.0-4.0-1.34","5ce973ea6c890100012ea2ae","E1","batch5","","21338.799999952316","img/question_5_11.jpeg","6","spm_respsonse","0","4","mat_59","","","","","","0","21338.799999952316","","","","","","","","","","","","","","",""
"","","","","","html-keyboard-response","307","1467760","0.0-3.0-4.0-0.35","5ce973ea6c890100012ea2ae","E1","batch5","","null","<p class=block-text>Trial 60 out of 60</p>","null","spm_show_trial_num","","","","","","","","","","","","","","","","","","","","","","","","",""
"","","","","","image-button-response","308","1484641","0.0-3.0-4.0-1.35","5ce973ea6c890100012ea2ae","E1","batch5","","16878.599999904633","img/question_5_12.jpeg","0","spm_respsonse","0","5","mat_60","","","","","","0","16878.599999904633","","","","","","","","","","","","","","",""
"","","","","","html-button-response","309","1488369","0.0-3.0-5.0","5ce973ea6c890100012ea2ae","E1","batch5","","3475.4000000953674","<p class= block-text>This concludes the Standard Progressive Matrix game. Thank you for your responses!<br> When you are ready, click the button continue</p>","0","spm_goodbye","","","","","","","","","","","","","","","","","","","","","","","","",""
"true","","","","","fullscreen","310","1491550","0.0-4.0-0.0","5ce973ea6c890100012ea2ae","E1","batch5","","","","","","","","","","","","","","","","","","","","","","","","","","","","","",""
"","","","","","instructions","311","1605202","0.0-4.0-1.0-0.0-0.0","5ce973ea6c890100012ea2ae","E1","batch5","[{""page_index"":0,""viewing_time"":25101.699999809265},{""page_index"":1,""viewing_time"":19506.10000014305},{""page_index"":2,""viewing_time"":8971},{""page_index"":3,""viewing_time"":22170.700000047684},{""page_index"":4,""viewing_time"":8214.899999856949},{""page_index"":5,""viewing_time"":22334.299999952316},{""page_index"":6,""viewing_time"":7362.900000095367}]","113662.09999990463","","","tol-instructions","","","","","","","","","","","","","","","","","","","","","","","","",""
"","","","","","html-button-response","312","1606477","0.0-4.0-1.0-1.0-0.0","5ce973ea6c890100012ea2ae","E1","batch5","","1274.2999999523163","<p class=block-text> Let's answer a few questions <br>","0","tol_enter_quiz","","","","","","","","","","","","","","","","","","","","","","","","",""
"","","","","","html-button-response","313","1613836","0.0-4.0-1.0-1.0-1.0","5ce973ea6c890100012ea2ae","E1","batch5","","7357","<p class = block-text>True or False: You can only move the ball on top of a peg. <br></p>","0","tol_quiz","true","","","","","","","","","","","","","","","","","","","","","","","",""
"","","","","","html-button-response","314","1615540","0.0-4.0-1.0-1.0-2.0","5ce973ea6c890100012ea2ae","E1","batch5","","1702.4000000953674","<p class = block-text>Correct! You can only move the ball on top of a peg.</p>","0","tol_quiz_feedback","","","","","","","","","","","","","","","","","","","","","","","","",""
"","","","","","html-button-response","315","1619772","0.0-4.0-1.0-1.0-3.0","5ce973ea6c890100012ea2ae","E1","batch5","","4231.100000143051","<p class = block-text>True or False: You should try to match your board with the target board with fewest moves possible. <br></p>","0","tol_quiz","true","","","","","","","","","","","","","","","","","","","","","","","",""
"","","","","","html-button-response","316","1620920","0.0-4.0-1.0-1.0-4.0","5ce973ea6c890100012ea2ae","E1","batch5","","1147.1999998092651","<p class = block-text>Correct! </p>","0","tol_quiz_feedback","","","","","","","","","","","","","","","","","","","","","","","","",""
"","","","","","html-button-response","317","1624511","0.0-4.0-2.0","5ce973ea6c890100012ea2ae","E1","batch5","","3589.699999809265","<p class=block-text> Now that you've understood the game, let's practice a few easier examples before we start!<br> <br>","0","","","","","","","","","","","","","","","","","","","","","","","","","",""
"","","","","","single-stim-button","318","1628096","0.0-4.0-3.0-0.0","5ce973ea6c890100012ea2ae","E1","batch5","","3583","","","tol_practice","","","","","","","","","","","tol_peg_2","3583","3583","0","[[1,2,0],[0,0],[0]]","1","[[1,2,0],[0,0],[3]]","practice","3583","","","","","",""
"","","","","","single-stim-button","319","1633604","0.0-4.0-3.0-1.0","5ce973ea6c890100012ea2ae","E1","batch5","","5507","","","tol_practice","","","","","","","","","","","tol_peg_3","5507","5507","0","[[1,2,0],[0,0],[3]]","1","[[1,2,0],[0,0],[3]]","practice","5507","","","","","",""
"","","","","","poldrack-single-stim","320","1634620","0.0-4.0-4.0","5ce973ea6c890100012ea2ae","E1","batch5","","-1","","","tol_feedback","true","","","","","","","","","","","1000","1000","500","","","","","","-1","none","true","","0",""
"","","","","","single-stim-button","321","1643346","0.0-4.0-5.0-0.0","5ce973ea6c890100012ea2ae","E1","batch5","","8725","","","tol_practice","","","","","","","","","","","tol_peg_1","8725","8725","0","[[1,0,0],[3,0],[0]]","2","[[0,0,0],[3,1],[2]]","practice","8725","","","","","",""
"","","","","","single-stim-button","322","1644364","0.0-4.0-5.0-1.0","5ce973ea6c890100012ea2ae","E1","batch5","","1017","","","tol_practice","","","","","","","","","","","tol_peg_3","1017","1017","0","[[1,0,0],[3,0],[2]]","2","[[0,0,0],[3,1],[2]]","practice","1017","","","","","",""
"","","","","","single-stim-button","323","1646569","0.0-4.0-5.1-0.1","5ce973ea6c890100012ea2ae","E1","batch5","","2204","","","tol_practice","","","","","","","","","","","tol_peg_1","2204","2204","0","[[0,0,0],[3,0],[2]]","3","[[0,0,0],[3,1],[2]]","practice","2204","","","","","",""
"","","","","","single-stim-button","324","1647340","0.0-4.0-5.1-1.1","5ce973ea6c890100012ea2ae","E1","batch5","","769","","","tol_practice","","","","","","","","","","","tol_peg_2","769","769","0","[[0,0,0],[3,1],[2]]","3","[[0,0,0],[3,1],[2]]","practice","769","","","","","",""
"","","","","","poldrack-single-stim","325","1648348","0.0-4.0-6.0","5ce973ea6c890100012ea2ae","E1","batch5","","-1","","","tol_feedback","true","","","","","","","","","","","1000","1000","500","","","","","","-1","none","true","","0",""
"","","","","","single-stim-button","326","1656097","0.0-4.0-7.0-0.0","5ce973ea6c890100012ea2ae","E1","batch5","","7747","","","tol_practice","","","","","","","","","","","tol_peg_2","7747","7747","0","[[1,2,0],[0,0],[0]]","4","[[1,0,0],[2,0],[3]]","practice","7747","","","","","",""
"","","","","","single-stim-button","327","1657543","0.0-4.0-7.0-1.0","5ce973ea6c890100012ea2ae","E1","batch5","","1446","","","tol_practice","","","","","","","","","","","tol_peg_3","1446","1446","0","[[1,2,0],[0,0],[3]]","4","[[1,0,0],[2,0],[3]]","practice","1446","","","","","",""
"","","","","","single-stim-button","328","1658360","0.0-4.0-7.1-0.1","5ce973ea6c890100012ea2ae","E1","batch5","","816","","","tol_practice","","","","","","","","","","","tol_peg_1","816","816","0","[[1,0,0],[0,0],[3]]","5","[[1,0,0],[2,0],[3]]","practice","816","","","","","",""
"","","","","","single-stim-button","329","1658879","0.0-4.0-7.1-1.1","5ce973ea6c890100012ea2ae","E1","batch5","","517","","","tol_practice","","","","","","","","","","","tol_peg_2","517","517","0","[[1,0,0],[2,0],[3]]","5","[[1,0,0],[2,0],[3]]","practice","517","","","","","",""
"","","","","","poldrack-single-stim","330","1659881","0.0-4.0-8.0","5ce973ea6c890100012ea2ae","E1","batch5","","-1","","","tol_feedback","true","","","","","","","","","","","1000","1000","500","","","","","","-1","none","true","","0",""
"","","","","","html-button-response","331","1662657","0.0-4.0-9.0","5ce973ea6c890100012ea2ae","E1","batch5","","2775.9000000953674","<div class = centerbox><p class = center-block-text>Great job! You are done with practice trials<br>You are about to start official trials.<br> <br> Problem <strong>1</strong> out of 25 problems</p></div>","0","tol_instruction","","","","","","","","","","","","","","","","","","","","","","","","",""
"","","","","","single-stim-button","332","1674557","0.0-4.0-10.0-0.0","5ce973ea6c890100012ea2ae","E1","batch5","","10895","","","tol_tohand","","","","","","","","","","","tol_peg_1","10895","10895","0","[[1,0,0],[3,0],[0]]","1","[[1,3,0],[2,0],[0]]","0","0","","","","","","3"
"","","","","","single-stim-button","333","1681625","0.0-4.0-10.0-1.0","5ce973ea6c890100012ea2ae","E1","batch5","","7067","","","tol_toboard","","","","","","","","","","","tol_peg_3","7067","7067","0","[[1,0,0],[3,0],[2]]","1","[[1,3,0],[2,0],[0]]","0","0","","","","","","3"
"","","","","","single-stim-button","334","1683827","0.0-4.0-10.1-0.1","5ce973ea6c890100012ea2ae","E1","batch5","","2201","","","tol_tohand","","","","","","","","","","","tol_peg_2","2201","2201","0","[[1,0,0],[0,0],[2]]","2","[[1,3,0],[2,0],[0]]","0","0","","","","","","3"
"","","","","","single-stim-button","335","1684523","0.0-4.0-10.1-1.1","5ce973ea6c890100012ea2ae","E1","batch5","","694","","","tol_toboard","","","","","","","","","","","tol_peg_1","694","694","0","[[1,3,0],[0,0],[2]]","2","[[1,3,0],[2,0],[0]]","0","0","","","","","","3"
"","","","","","single-stim-button","336","1687991","0.0-4.0-10.2-0.2","5ce973ea6c890100012ea2ae","E1","batch5","","3467","","","tol_tohand","","","","","","","","","","","tol_peg_3","3467","3467","0","[[1,3,0],[0,0],[0]]","3","[[1,3,0],[2,0],[0]]","0","0","","","","","","3"
"","","","","","single-stim-button","337","1688707","0.0-4.0-10.2-1.2","5ce973ea6c890100012ea2ae","E1","batch5","","715","","","tol_toboard","","","","","","","","","","","tol_peg_2","715","715","0","[[1,3,0],[2,0],[0]]","3","[[1,3,0],[2,0],[0]]","0","0","","","","","","3"
"","","","","","poldrack-single-stim","338","1689713","0.0-4.0-11.0","5ce973ea6c890100012ea2ae","E1","batch5","","-1","","","tol_feedback","true","","","","","","","","","","","1000","1000","500","","","","","","-1","none","true","10895","16563",""
"","","","","","html-button-response","339","1690571","0.0-4.0-12.0","5ce973ea6c890100012ea2ae","E1","batch5","","857.0999999046326","<div class = centerbox><p class = center-block-text>problem <strong>2</strong> out of 25 problems</p></div>","0","tol_trial_num","","","","","","","","","","","","","","","","","","","","","","","","",""
"","","","","","single-stim-button","340","1698652","0.0-4.0-13.0-0.0","5ce973ea6c890100012ea2ae","E1","batch5","","8079","","","tol_tohand","","","","","","","","","","","tol_peg_1","8079","8079","0","[[1,0,0],[3,0],[0]]","1","[[2,1,3],[0,0],[0]]","1","0","","","","","","5"
"","","","","","single-stim-button","341","1699589","0.0-4.0-13.0-1.0","5ce973ea6c890100012ea2ae","E1","batch5","","937","","","tol_toboard","","","","","","","","","","","tol_peg_3","937","937","0","[[1,0,0],[3,0],[2]]","1","[[2,1,3],[0,0],[0]]","1","0","","","","","","5"
"","","","","","single-stim-button","342","1702254","0.0-4.0-13.1-0.1","5ce973ea6c890100012ea2ae","E1","batch5","","2663","","","tol_tohand","","","","","","","","","","","tol_peg_1","2663","2663","0","[[0,0,0],[3,0],[2]]","2","[[2,1,3],[0,0],[0]]","1","0","","","","","","5"
"","","","","","single-stim-button","343","1708868","0.0-4.0-13.1-1.1","5ce973ea6c890100012ea2ae","E1","batch5","","6614","","","tol_toboard","","","","","","","","","","","tol_peg_2","6614","6614","0","[[0,0,0],[3,1],[2]]","2","[[2,1,3],[0,0],[0]]","1","0","","","","","","5"
"","","","","","single-stim-button","344","1709887","0.0-4.0-13.2-0.2","5ce973ea6c890100012ea2ae","E1","batch5","","1017","","","tol_tohand","","","","","","","","","","","tol_peg_3","1017","1017","0","[[0,0,0],[3,1],[0]]","3","[[2,1,3],[0,0],[0]]","1","0","","","","","","5"
"","","","","","single-stim-button","345","1710734","0.0-4.0-13.2-1.2","5ce973ea6c890100012ea2ae","E1","batch5","","847","","","tol_toboard","","","","","","","","","","","tol_peg_1","847","847","0","[[2,0,0],[3,1],[0]]","3","[[2,1,3],[0,0],[0]]","1","0","","","","","","5"
