"success","timeout","failed_images","failed_audio","failed_video","trial_type","trial_index","time_elapsed","internal_node_id","subject_id","study_id","session_id","view_history","rt","task","stimulus","response","correct","mouse_click","stim_duration","block_duration","timing_post_trial","current_position","tol_num_moves_made","tol_target","tol_problem_id","tol_rt","key_press","possible_responses","tol_correct","preplanning","tol_rt_per_trial","tol_min_moves","item","answer","spm_correct","spm_rt","fiar_detect_rt","fiar_detect_correct","total_correct_fiar_detect","post_trial_gap","choices"
"true","false","[]","[]","[]","preload","0","1578","0.0-0.0","5cf5134c8f8ff80019e76721","B2","batch2","","","","","","","","","","","","","","","","","","","","","","","","","","","","","",""
"true","","","","","fullscreen","1","18210","0.0-1.0-0.0","5cf5134c8f8ff80019e76721","B2","batch2","","","","","","","","","","","","","","","","","","","","","","","","","","","","","",""
"true","","","","","fullscreen","2","22321","0.0-2.0-0.0","5cf5134c8f8ff80019e76721","B2","batch2","","","","","","","","","","","","","","","","","","","","","","","","","","","","","",""
"","","","","","instructions","3","75485","0.0-2.0-1.0-0.0-0.0","5cf5134c8f8ff80019e76721","B2","batch2","[{""page_index"":0,""viewing_time"":7979},{""page_index"":1,""viewing_time"":7470},{""page_index"":2,""viewing_time"":6348},{""page_index"":3,""viewing_time"":9232},{""page_index"":4,""viewing_time"":5606},{""page_index"":5,""viewing_time"":12960},{""page_index"":6,""viewing_time"":3565}]","53160","tol-instructions","","","","","","","","","","","","","","","","","","","","","","","","","","",""
"","","","","","html-button-response","4","76613","0.0-2.0-1.0-1.0-0.0","5cf5134c8f8ff80019e76721","B2","batch2","","1127","tol_enter_quiz","<p class=block-text> Let's answer a few questions <br>","0","","","","","","","","","","","","","","","","","","","","","","","","",""
"","","","","","html-button-response","5","82861","0.0-2.0-1.0-1.0-1.0","5cf5134c8f8ff80019e76721","B2","batch2","","6246","tol_quiz","<p class = block-text>True or False: You can only move the ball on top of a peg. <br></p>","0","true","","","","","","","","","","","","","","","","","","","","","","","",""
"","","","","","html-button-response","6","83975","0.0-2.0-1.0-1.0-2.0","5cf5134c8f8ff80019e76721","B2","batch2","","1113","tol_quiz_feedback","<p class = block-text>Correct! You can only move the ball on top of a peg.</p>","0","","","","","","","","","","","","","","","","","","","","","","","","",""
"","","","","","html-button-response","7","86812","0.0-2.0-1.0-1.0-3.0","5cf5134c8f8ff80019e76721","B2","batch2","","2836","tol_quiz","<p class = block-text>True or False: You should try to match your board with the target board with fewest moves possible. <br></p>","0","true","","","","","","","","","","","","","","","","","","","","","","","",""
"","","","","","html-button-response","8","87361","0.0-2.0-1.0-1.0-4.0","5cf5134c8f8ff80019e76721","B2","batch2","","549","tol_quiz_feedback","<p class = block-text>Correct! </p>","0","","","","","","","","","","","","","","","","","","","","","","","","",""
"","","","","","html-button-response","9","88583","0.0-2.0-2.0","5cf5134c8f8ff80019e76721","B2","batch2","","1221","","<p class=block-text> Now that you've understood the game, let's practice a few easier examples before we start!<br> <br>","0","","","","","","","","","","","","","","","","","","","","","","","","",""
"","","","","","single-stim-button","10","90772","0.0-2.0-3.0-0.0","5cf5134c8f8ff80019e76721","B2","batch2","","2187","tol_practice","","","","tol_peg_2","2187","2187","0","[[1,2,0],[0,0],[0]]","1","[[1,2,0],[0,0],[3]]","practice","2187","","","","","","","","","","","","","","",""
"","","","","","single-stim-button","11","91528","0.0-2.0-3.0-1.0","5cf5134c8f8ff80019e76721","B2","batch2","","756","tol_practice","","","","tol_peg_3","756","756","0","[[1,2,0],[0,0],[3]]","1","[[1,2,0],[0,0],[3]]","practice","756","","","","","","","","","","","","","","",""
"","","","","","poldrack-single-stim","12","92541","0.0-2.0-4.0","5cf5134c8f8ff80019e76721","B2","batch2","","-1","tol_feedback","","","true","","1000","1000","500","","","","","","-1","none","true","","0","","","","","","","","","",""
"","","","","","single-stim-button","13","94986","0.0-2.0-5.0-0.0","5cf5134c8f8ff80019e76721","B2","batch2","","2444","tol_practice","","","","tol_peg_1","2444","2444","0","[[1,0,0],[3,0],[0]]","2","[[0,0,0],[3,1],[2]]","practice","2444","","","","","","","","","","","","","","",""
"","","","","","single-stim-button","14","95625","0.0-2.0-5.0-1.0","5cf5134c8f8ff80019e76721","B2","batch2","","638","tol_practice","","","","tol_peg_3","638","638","0","[[1,0,0],[3,0],[2]]","2","[[0,0,0],[3,1],[2]]","practice","638","","","","","","","","","","","","","","",""
"","","","","","single-stim-button","15","96152","0.0-2.0-5.1-0.1","5cf5134c8f8ff80019e76721","B2","batch2","","526","tol_practice","","","","tol_peg_1","526","526","0","[[0,0,0],[3,0],[2]]","3","[[0,0,0],[3,1],[2]]","practice","526","","","","","","","","","","","","","","",""
"","","","","","single-stim-button","16","96515","0.0-2.0-5.1-1.1","5cf5134c8f8ff80019e76721","B2","batch2","","363","tol_practice","","","","tol_peg_2","363","363","0","[[0,0,0],[3,1],[2]]","3","[[0,0,0],[3,1],[2]]","practice","363","","","","","","","","","","","","","","",""
"","","","","","poldrack-single-stim","17","97527","0.0-2.0-6.0","5cf5134c8f8ff80019e76721","B2","batch2","","-1","tol_feedback","","","true","","1000","1000","500","","","","","","-1","none","true","","0","","","","","","","","","",""
"","","","","","single-stim-button","18","99058","0.0-2.0-7.0-0.0","5cf5134c8f8ff80019e76721","B2","batch2","","1531","tol_practice","","","","tol_peg_2","1531","1531","0","[[1,2,0],[0,0],[0]]","4","[[1,0,0],[2,0],[3]]","practice","1531","","","","","","","","","","","","","","",""
"","","","","","single-stim-button","19","99632","0.0-2.0-7.0-1.0","5cf5134c8f8ff80019e76721","B2","batch2","","573","tol_practice","","","","tol_peg_3","573","573","0","[[1,2,0],[0,0],[3]]","4","[[1,0,0],[2,0],[3]]","practice","573","","","","","","","","","","","","","","",""
"","","","","","single-stim-button","20","100536","0.0-2.0-7.1-0.1","5cf5134c8f8ff80019e76721","B2","batch2","","903","tol_practice","","","","tol_peg_1","903","903","0","[[1,0,0],[0,0],[3]]","5","[[1,0,0],[2,0],[3]]","practice","903","","","","","","","","","","","","","","",""
"","","","","","single-stim-button","21","100921","0.0-2.0-7.1-1.1","5cf5134c8f8ff80019e76721","B2","batch2","","385","tol_practice","","","","tol_peg_2","385","385","0","[[1,0,0],[2,0],[3]]","5","[[1,0,0],[2,0],[3]]","practice","385","","","","","","","","","","","","","","",""
"","","","","","poldrack-single-stim","22","101924","0.0-2.0-8.0","5cf5134c8f8ff80019e76721","B2","batch2","","-1","tol_feedback","","","true","","1000","1000","500","","","","","","-1","none","true","","0","","","","","","","","","",""
"","","","","","html-button-response","23","103233","0.0-2.0-9.0","5cf5134c8f8ff80019e76721","B2","batch2","","1308","tol_instruction","<div class = centerbox><p class = center-block-text>Great job! You are done with practice trials<br>You are about to start official trials.<br> <br> Problem <strong>1</strong> out of 25 problems</p></div>","0","","","","","","","","","","","","","","","","","","","","","","","","",""
"","","","","","single-stim-button","24","108601","0.0-2.0-10.0-0.0","5cf5134c8f8ff80019e76721","B2","batch2","","4345","tol_tohand","","","","tol_peg_2","4345","4345","0","[[1,2,0],[0,0],[0]]","1","[[1,3,0],[2,0],[0]]","0","0","","","","","","3","","","","","","","","",""
"","","","","","single-stim-button","25","109219","0.0-2.0-10.0-1.0","5cf5134c8f8ff80019e76721","B2","batch2","","617","tol_toboard","","","","tol_peg_3","617","617","0","[[1,2,0],[0,0],[3]]","1","[[1,3,0],[2,0],[0]]","0","0","","","","","","3","","","","","","","","",""
"","","","","","single-stim-button","26","109829","0.0-2.0-10.1-0.1","5cf5134c8f8ff80019e76721","B2","batch2","","610","tol_tohand","","","","tol_peg_1","610","610","0","[[1,0,0],[0,0],[3]]","2","[[1,3,0],[2,0],[0]]","0","0","","","","","","3","","","","","","","","",""
"","","","","","single-stim-button","27","110363","0.0-2.0-10.1-1.1","5cf5134c8f8ff80019e76721","B2","batch2","","534","tol_toboard","","","","tol_peg_2","534","534","0","[[1,0,0],[2,0],[3]]","2","[[1,3,0],[2,0],[0]]","0","0","","","","","","3","","","","","","","","",""
"","","","","","single-stim-button","28","110719","0.0-2.0-10.2-0.2","5cf5134c8f8ff80019e76721","B2","batch2","","355","tol_tohand","","","","tol_peg_3","355","355","0","[[1,0,0],[2,0],[0]]","3","[[1,3,0],[2,0],[0]]","0","0","","","","","","3","","","","","","","","",""
"","","","","","single-stim-button","29","111251","0.0-2.0-10.2-1.2","5cf5134c8f8ff80019e76721","B2","batch2","","532","tol_toboard","","","","tol_peg_1","532","532","0","[[1,3,0],[2,0],[0]]","3","[[1,3,0],[2,0],[0]]","0","0","","","","","","3","","","","","","","","",""
"","","","","","poldrack-single-stim","30","112257","0.0-2.0-11.0","5cf5134c8f8ff80019e76721","B2","batch2","","-1","tol_feedback","","","true","","1000","1000","500","","","","","","-1","none","true","4345","5310","","","","","","","","","",""
"","","","","","html-button-response","31","112990","0.0-2.0-12.0","5cf5134c8f8ff80019e76721","B2","batch2","","734","tol_trial_num","<div class = centerbox><p class = center-block-text>problem <strong>2</strong> out of 25 problems</p></div>","0","","","","","","","","","","","","","","","","","","","","","","","","",""
"","","","","","single-stim-button","32","115333","0.0-2.0-13.0-0.0","5cf5134c8f8ff80019e76721","B2","batch2","","2342","tol_tohand","","","","tol_peg_1","2342","2342","0","[[1,0,0],[3,0],[0]]","1","[[2,1,3],[0,0],[0]]","1","0","","","","","","5","","","","","","","","",""
"","","","","","single-stim-button","33","116007","0.0-2.0-13.0-1.0","5cf5134c8f8ff80019e76721","B2","batch2","","674","tol_toboard","","","","tol_peg_3","674","674","0","[[1,0,0],[3,0],[2]]","1","[[2,1,3],[0,0],[0]]","1","0","","","","","","5","","","","","","","","",""
"","","","","","single-stim-button","34","119161","0.0-2.0-13.1-0.1","5cf5134c8f8ff80019e76721","B2","batch2","","3153","tol_tohand","","","","tol_peg_1","3153","3153","0","[[0,0,0],[3,0],[2]]","2","[[2,1,3],[0,0],[0]]","1","0","","","","","","5","","","","","","","","",""
"","","","","","single-stim-button","35","120181","0.0-2.0-13.1-1.1","5cf5134c8f8ff80019e76721","B2","batch2","","1020","tol_toboard","","","","tol_peg_2","1020","1020","0","[[0,0,0],[3,1],[2]]","2","[[2,1,3],[0,0],[0]]","1","0","","","","","","5","","","","","","","","",""
"","","","","","single-stim-button","36","120654","0.0-2.0-13.2-0.2","5cf5134c8f8ff80019e76721","B2","batch2","","471","tol_tohand","","","","tol_peg_3","471","471","0","[[0,0,0],[3,1],[0]]","3","[[2,1,3],[0,0],[0]]","1","0","","","","","","5","","","","","","","","",""
"","","","","","single-stim-button","37","121279","0.0-2.0-13.2-1.2","5cf5134c8f8ff80019e76721","B2","batch2","","625","tol_toboard","","","","tol_peg_1","625","625","0","[[2,0,0],[3,1],[0]]","3","[[2,1,3],[0,0],[0]]","1","0","","","","","","5","","","","","","","","",""
"","","","","","single-stim-button","38","121743","0.0-2.0-13.3-0.3","5cf5134c8f8ff80019e76721","B2","batch2","","464","tol_tohand","","","","tol_peg_2","464","464","0","[[2,0,0],[3,0],[0]]","4","[[2,1,3],[0,0],[0]]","1","0","","","","","","5","","","","","","","","",""
"","","","","","single-stim-button","39","122120","0.0-2.0-13.3-1.3","5cf5134c8f8ff80019e76721","B2","batch2","","377","tol_toboard","","","","tol_peg_1","377","377","0","[[2,1,0],[3,0],[0]]","4","[[2,1,3],[0,0],[0]]","1","0","","","","","","5","","","","","","","","",""
"","","","","","single-stim-button","40","122509","0.0-2.0-13.4-0.4","5cf5134c8f8ff80019e76721","B2","batch2","","388","tol_tohand","","","","tol_peg_2","388","388","0","[[2,1,0],[0,0],[0]]","5","[[2,1,3],[0,0],[0]]","1","0","","","","","","5","","","","","","","","",""
"","","","","","single-stim-button","41","122858","0.0-2.0-13.4-1.4","5cf5134c8f8ff80019e76721","B2","batch2","","348","tol_toboard","","","","tol_peg_1","348","348","0","[[2,1,3],[0,0],[0]]","5","[[2,1,3],[0,0],[0]]","1","0","","","","","","5","","","","","","","","",""
"","","","","","poldrack-single-stim","42","123873","0.0-2.0-14.0","5cf5134c8f8ff80019e76721","B2","batch2","","-1","tol_feedback","","","true","","1000","1000","500","","","","","","-1","none","true","2342","6818","","","","","","","","","",""
"","","","","","html-button-response","43","124565","0.0-2.0-15.0","5cf5134c8f8ff80019e76721","B2","batch2","","691","tol_trial_num","<div class = centerbox><p class = center-block-text>problem <strong>3</strong> out of 25 problems</p></div>","0","","","","","","","","","","","","","","","","","","","","","","","","",""
"","","","","","single-stim-button","44","131855","0.0-2.0-16.0-0.0","5cf5134c8f8ff80019e76721","B2","batch2","","7289","tol_tohand","","","","tol_peg_1","7289","7289","0","[[2,0,0],[0,0],[1]]","1","[[1,2,0],[3,0],[0]]","2","0","","","","","","4","","","","","","","","",""
"","","","","","single-stim-button","45","133054","0.0-2.0-16.0-1.0","5cf5134c8f8ff80019e76721","B2","batch2","","1199","tol_toboard","","","","tol_peg_2","1199","1199","0","[[2,0,0],[3,0],[1]]","1","[[1,2,0],[3,0],[0]]","2","0","","","","","","4","","","","","","","","",""
"","","","","","single-stim-button","46","134724","0.0-2.0-16.1-0.1","5cf5134c8f8ff80019e76721","B2","batch2","","1669","tol_tohand","","","","tol_peg_1","1669","1669","0","[[0,0,0],[3,0],[1]]","2","[[1,2,0],[3,0],[0]]","2","0","","","","","","4","","","","","","","","",""
"","","","","","single-stim-button","47","140291","0.0-2.0-16.1-1.1","5cf5134c8f8ff80019e76721","B2","batch2","","5567","tol_toboard","","","","tol_peg_2","5567","5567","0","[[0,0,0],[3,2],[1]]","2","[[1,2,0],[3,0],[0]]","2","0","","","","","","4","","","","","","","","",""
"","","","","","single-stim-button","48","140739","0.0-2.0-16.2-0.2","5cf5134c8f8ff80019e76721","B2","batch2","","448","tol_tohand","","","","tol_peg_3","448","448","0","[[0,0,0],[3,2],[0]]","3","[[1,2,0],[3,0],[0]]","2","0","","","","","","4","","","","","","","","",""
"","","","","","single-stim-button","49","141265","0.0-2.0-16.2-1.2","5cf5134c8f8ff80019e76721","B2","batch2","","526","tol_toboard","","","","tol_peg_1","526","526","0","[[1,0,0],[3,2],[0]]","3","[[1,2,0],[3,0],[0]]","2","0","","","","","","4","","","","","","","","",""
"","","","","","single-stim-button","50","141729","0.0-2.0-16.3-0.3","5cf5134c8f8ff80019e76721","B2","batch2","","464","tol_tohand","","","","tol_peg_2","464","464","0","[[1,0,0],[3,0],[0]]","4","[[1,2,0],[3,0],[0]]","2","0","","","","","","4","","","","","","","","",""
"","","","","","single-stim-button","51","142509","0.0-2.0-16.3-1.3","5cf5134c8f8ff80019e76721","B2","batch2","","780","tol_toboard","","","","tol_peg_1","780","780","0","[[1,2,0],[3,0],[0]]","4","[[1,2,0],[3,0],[0]]","2","0","","","","","","4","","","","","","","","",""
"","","","","","poldrack-single-stim","52","143520","0.0-2.0-17.0","5cf5134c8f8ff80019e76721","B2","batch2","","-1","tol_feedback","","","true","","1000","1000","500","","","","","","-1","none","true","7289","9870","","","","","","","","","",""
"","","","","","html-button-response","53","144179","0.0-2.0-18.0","5cf5134c8f8ff80019e76721","B2","batch2","","659","tol_trial_num","<div class = centerbox><p class = center-block-text>problem <strong>4</strong> out of 25 problems</p></div>","0","","","","","","","","","","","","","","","","","","","","","","","","",""
"","","","","","single-stim-button","54","148269","0.0-2.0-19.0-0.0","5cf5134c8f8ff80019e76721","B2","batch2","","4090","tol_tohand","","","","tol_peg_2","4090","4090","0","[[3,0,0],[2,0],[0]]","1","[[3,0,0],[1,0],[2]]","3","0","","","","","","3","","","","","","","","",""
"","","","","","single-stim-button","55","149360","0.0-2.0-19.0-1.0","5cf5134c8f8ff80019e76721","B2","batch2","","1091","tol_toboard","","","","tol_peg_1","1091","1091","0","[[3,1,0],[2,0],[0]]","1","[[3,0,0],[1,0],[2]]","3","0","","","","","","3","","","","","","","","",""
"","","","","","single-stim-button","56","149837","0.0-2.0-19.1-0.1","5cf5134c8f8ff80019e76721","B2","batch2","","477","tol_tohand","","","","tol_peg_2","477","477","0","[[3,1,0],[0,0],[0]]","2","[[3,0,0],[1,0],[2]]","3","0","","","","","","3","","","","","","","","",""
"","","","","","single-stim-button","57","150209","0.0-2.0-19.1-1.1","5cf5134c8f8ff80019e76721","B2","batch2","","372","tol_toboard","","","","tol_peg_3","372","372","0","[[3,1,0],[0,0],[2]]","2","[[3,0,0],[1,0],[2]]","3","0","","","","","","3","","","","","","","","",""
"","","","","","single-stim-button","58","150703","0.0-2.0-19.2-0.2","5cf5134c8f8ff80019e76721","B2","batch2","","494","tol_tohand","","","","tol_peg_1","494","494","0","[[3,0,0],[0,0],[2]]","3","[[3,0,0],[1,0],[2]]","3","0","","","","","","3","","","","","","","","",""
"","","","","","single-stim-button","59","151105","0.0-2.0-19.2-1.2","5cf5134c8f8ff80019e76721","B2","batch2","","402","tol_toboard","","","","tol_peg_2","402","402","0","[[3,0,0],[1,0],[2]]","3","[[3,0,0],[1,0],[2]]","3","0","","","","","","3","","","","","","","","",""
"","","","","","poldrack-single-stim","60","152111","0.0-2.0-20.0","5cf5134c8f8ff80019e76721","B2","batch2","","-1","tol_feedback","","","true","","1000","1000","500","","","","","","-1","none","true","4090","5061","","","","","","","","","",""
"","","","","","html-button-response","61","152931","0.0-2.0-21.0","5cf5134c8f8ff80019e76721","B2","batch2","","820","tol_trial_num","<div class = centerbox><p class = center-block-text>problem <strong>5</strong> out of 25 problems</p></div>","0","","","","","","","","","","","","","","","","","","","","","","","","",""
"","","","","","single-stim-button","62","155003","0.0-2.0-22.0-0.0","5cf5134c8f8ff80019e76721","B2","batch2","","2071","tol_tohand","","","","tol_peg_2","2071","2071","0","[[1,0,0],[0,0],[3]]","1","[[0,0,0],[1,2],[3]]","4","0","","","","","","7","","","","","","","","",""
"","","","","","single-stim-button","63","162927","0.0-2.0-22.0-1.0","5cf5134c8f8ff80019e76721","B2","batch2","","7924","tol_toboard","","","","tol_peg_2","7924","7924","0","[[1,0,0],[2,0],[3]]","1","[[0,0,0],[1,2],[3]]","4","0","","","","","","7","","","","","","","","",""
"","","","","","single-stim-button","64","163516","0.0-2.0-22.1-0.1","5cf5134c8f8ff80019e76721","B2","batch2","","589","tol_tohand","","","","tol_peg_3","589","589","0","[[1,0,0],[2,0],[0]]","2","[[0,0,0],[1,2],[3]]","4","0","","","","","","7","","","","","","","","",""
"","","","","","single-stim-button","65","164212","0.0-2.0-22.1-1.1","5cf5134c8f8ff80019e76721","B2","batch2","","695","tol_toboard","","","","tol_peg_1","695","695","0","[[1,3,0],[2,0],[0]]","2","[[0,0,0],[1,2],[3]]","4","0","","","","","","7","","","","","","","","",""
"","","","","","single-stim-button","66","164751","0.0-2.0-22.2-0.2","5cf5134c8f8ff80019e76721","B2","batch2","","539","tol_tohand","","","","tol_peg_2","539","539","0","[[1,3,0],[0,0],[0]]","3","[[0,0,0],[1,2],[3]]","4","0","","","","","","7","","","","","","","","",""
"","","","","","single-stim-button","67","165254","0.0-2.0-22.2-1.2","5cf5134c8f8ff80019e76721","B2","batch2","","501","tol_toboard","","","","tol_peg_3","501","501","0","[[1,3,0],[0,0],[2]]","3","[[0,0,0],[1,2],[3]]","4","0","","","","","","7","","","","","","","","",""
"","","","","","single-stim-button","68","167317","0.0-2.0-22.3-0.3","5cf5134c8f8ff80019e76721","B2","batch2","","2063","tol_tohand","","","","tol_peg_1","2063","2063","0","[[1,0,0],[0,0],[2]]","4","[[0,0,0],[1,2],[3]]","4","0","","","","","","7","","","","","","","","",""
"","","","","","single-stim-button","69","169521","0.0-2.0-22.3-1.3","5cf5134c8f8ff80019e76721","B2","batch2","","2203","tol_toboard","","","","tol_peg_2","2203","2203","0","[[1,0,0],[3,0],[2]]","4","[[0,0,0],[1,2],[3]]","4","0","","","","","","7","","","","","","","","",""
"","","","","","single-stim-button","70","169939","0.0-2.0-22.4-0.4","5cf5134c8f8ff80019e76721","B2","batch2","","417","tol_tohand","","","","tol_peg_1","417","417","0","[[0,0,0],[3,0],[2]]","5","[[0,0,0],[1,2],[3]]","4","0","","","","","","7","","","","","","","","",""
"","","","","","single-stim-button","71","171262","0.0-2.0-22.4-1.4","5cf5134c8f8ff80019e76721","B2","batch2","","1323","tol_toboard","","","","tol_peg_2","1323","1323","0","[[0,0,0],[3,1],[2]]","5","[[0,0,0],[1,2],[3]]","4","0","","","","","","7","","","","","","","","",""
"","","","","","single-stim-button","72","172970","0.0-2.0-22.5-0.5","5cf5134c8f8ff80019e76721","B2","batch2","","1707","tol_tohand","","","","tol_peg_2","1707","1707","0","[[0,0,0],[3,0],[2]]","6","[[0,0,0],[1,2],[3]]","4","0","","","","","","7","","","","","","","","",""
"","","","","","single-stim-button","73","174988","0.0-2.0-22.5-1.5","5cf5134c8f8ff80019e76721","B2","batch2","","2017","tol_toboard","","","","tol_peg_1","2017","2017","0","[[1,0,0],[3,0],[2]]","6","[[0,0,0],[1,2],[3]]","4","0","","","","","","7","","","","","","","","",""
"","","","","","single-stim-button","74","175792","0.0-2.0-22.6-0.6","5cf5134c8f8ff80019e76721","B2","batch2","","804","tol_tohand","","","","tol_peg_3","804","804","0","[[1,0,0],[3,0],[0]]","7","[[0,0,0],[1,2],[3]]","4","0","","","","","","7","","","","","","","","",""
"","","","","","single-stim-button","75","176650","0.0-2.0-22.6-1.6","5cf5134c8f8ff80019e76721","B2","batch2","","858","tol_toboard","","","","tol_peg_1","858","858","0","[[1,2,0],[3,0],[0]]","7","[[0,0,0],[1,2],[3]]","4","0","","","","","","7","","","","","","","","",""
"","","","","","single-stim-button","76","177106","0.0-2.0-22.7-0.7","5cf5134c8f8ff80019e76721","B2","batch2","","456","tol_tohand","","","","tol_peg_2","456","456","0","[[1,2,0],[0,0],[0]]","8","[[0,0,0],[1,2],[3]]","4","0","","","","","","7","","","","","","","","",""
"","","","","","single-stim-button","77","177570","0.0-2.0-22.7-1.7","5cf5134c8f8ff80019e76721","B2","batch2","","464","tol_toboard","","","","tol_peg_3","464","464","0","[[1,2,0],[0,0],[3]]","8","[[0,0,0],[1,2],[3]]","4","0","","","","","","7","","","","","","","","",""
"","","","","","single-stim-button","78","179379","0.0-2.0-22.8-0.8","5cf5134c8f8ff80019e76721","B2","batch2","","1808","tol_tohand","","","","tol_peg_1","1808","1808","0","[[1,0,0],[0,0],[3]]","9","[[0,0,0],[1,2],[3]]","4","0","","","","","","7","","","","","","","","",""
"","","","","","single-stim-button","79","180469","0.0-2.0-22.8-1.8","5cf5134c8f8ff80019e76721","B2","batch2","","1090","tol_toboard","","","","tol_peg_1","1090","1090","0","[[1,2,0],[0,0],[3]]","9","[[0,0,0],[1,2],[3]]","4","0","","","","","","7","","","","","","","","",""
"","","","","","single-stim-button","80","182053","0.0-2.0-22.9-0.9","5cf5134c8f8ff80019e76721","B2","batch2","","1584","tol_tohand","","","","tol_peg_3","1584","1584","0","[[1,2,0],[0,0],[0]]","10","[[0,0,0],[1,2],[3]]","4","0","","","","","","7","","","","","","","","",""
"","","","","","single-stim-button","81","183407","0.0-2.0-22.9-1.9","5cf5134c8f8ff80019e76721","B2","batch2","","1354","tol_toboard","","","","tol_peg_1","1354","1354","0","[[1,2,3],[0,0],[0]]","10","[[0,0,0],[1,2],[3]]","4","0","","","","","","7","","","","","","","","",""
"","","","","","single-stim-button","82","184382","0.0-2.0-22.10-0.10","5cf5134c8f8ff80019e76721","B2","batch2","","974","tol_tohand","","","","tol_peg_1","974","974","0","[[1,2,0],[0,0],[0]]","11","[[0,0,0],[1,2],[3]]","4","0","","","","","","7","","","","","","","","",""
"","","","","","single-stim-button","83","184883","0.0-2.0-22.10-1.10","5cf5134c8f8ff80019e76721","B2","batch2","","501","tol_toboard","","","","tol_peg_2","501","501","0","[[1,2,0],[3,0],[0]]","11","[[0,0,0],[1,2],[3]]","4","0","","","","","","7","","","","","","","","",""
"","","","","","single-stim-button","84","185355","0.0-2.0-22.11-0.11","5cf5134c8f8ff80019e76721","B2","batch2","","472","tol_tohand","","","","tol_peg_1","472","472","0","[[1,0,0],[3,0],[0]]","12","[[0,0,0],[1,2],[3]]","4","0","","","","","","7","","","","","","","","",""
"","","","","","single-stim-button","85","186027","0.0-2.0-22.11-1.11","5cf5134c8f8ff80019e76721","B2","batch2","","672","tol_toboard","","","","tol_peg_3","672","672","0","[[1,0,0],[3,0],[2]]","12","[[0,0,0],[1,2],[3]]","4","0","","","","","","7","","","","","","","","",""
"","","","","","single-stim-button","86","188223","0.0-2.0-22.12-0.12","5cf5134c8f8ff80019e76721","B2","batch2","","2195","tol_tohand","","","","tol_peg_2","2195","2195","0","[[1,0,0],[0,0],[2]]","13","[[0,0,0],[1,2],[3]]","4","0","","","","","","7","","","","","","","","",""
"","","","","","single-stim-button","87","188841","0.0-2.0-22.12-1.12","5cf5134c8f8ff80019e76721","B2","batch2","","618","tol_toboard","","","","tol_peg_1","618","618","0","[[1,3,0],[0,0],[2]]","13","[[0,0,0],[1,2],[3]]","4","0","","","","","","7","","","","","","","","",""
"","","","","","single-stim-button","88","189753","0.0-2.0-22.13-0.13","5cf5134c8f8ff80019e76721","B2","batch2","","912","tol_tohand","","","","tol_peg_1","912","912","0","[[1,0,0],[0,0],[2]]","14","[[0,0,0],[1,2],[3]]","4","0","","","","","","7","","","","","","","","",""
"","","","","","single-stim-button","89","194345","0.0-2.0-22.13-1.13","5cf5134c8f8ff80019e76721","B2","batch2","","4591","tol_toboard","","","","tol_peg_1","4591","4591","0","[[1,3,0],[0,0],[2]]","14","[[0,0,0],[1,2],[3]]","4","0","","","","","","7","","","","","","","","",""
"","","","","","single-stim-button","90","195674","0.0-2.0-22.14-0.14","5cf5134c8f8ff80019e76721","B2","batch2","","1329","tol_tohand","","","","tol_peg_3","1329","1329","0","[[1,3,0],[0,0],[0]]","15","[[0,0,0],[1,2],[3]]","4","0","","","","","","7","","","","","","","","",""
"","","","","","single-stim-button","91","196857","0.0-2.0-22.14-1.14","5cf5134c8f8ff80019e76721","B2","batch2","","1182","tol_toboard","","","","tol_peg_2","1182","1182","0","[[1,3,0],[2,0],[0]]","15","[[0,0,0],[1,2],[3]]","4","0","","","","","","7","","","","","","","","",""
"","","","","","single-stim-button","92","199062","0.0-2.0-22.15-0.15","5cf5134c8f8ff80019e76721","B2","batch2","","2204","tol_tohand","","","","tol_peg_1","2204","2204","0","[[1,0,0],[2,0],[0]]","16","[[0,0,0],[1,2],[3]]","4","0","","","","","","7","","","","","","","","",""
"","","","","","single-stim-button","93","201843","0.0-2.0-22.15-1.15","5cf5134c8f8ff80019e76721","B2","batch2","","2781","tol_toboard","","","","tol_peg_2","2781","2781","0","[[1,0,0],[2,3],[0]]","16","[[0,0,0],[1,2],[3]]","4","0","","","","","","7","","","","","","","","",""
"","","","","","single-stim-button","94","202386","0.0-2.0-22.16-0.16","5cf5134c8f8ff80019e76721","B2","batch2","","542","tol_tohand","","","","tol_peg_1","542","542","0","[[0,0,0],[2,3],[0]]","17","[[0,0,0],[1,2],[3]]","4","0","","","","","","7","","","","","","","","",""
"","","","","","single-stim-button","95","203119","0.0-2.0-22.16-1.16","5cf5134c8f8ff80019e76721","B2","batch2","","733","tol_toboard","","","","tol_peg_3","733","733","0","[[0,0,0],[2,3],[1]]","17","[[0,0,0],[1,2],[3]]","4","0","","","","","","7","","","","","","","","",""
"","","","","","single-stim-button","96","204959","0.0-2.0-22.17-0.17","5cf5134c8f8ff80019e76721","B2","batch2","","1840","tol_tohand","","","","tol_peg_2","1840","1840","0","[[0,0,0],[2,0],[1]]","18","[[0,0,0],[1,2],[3]]","4","0","","","","","","7","","","","","","","","",""
"","","","","","single-stim-button","97","205731","0.0-2.0-22.17-1.17","5cf5134c8f8ff80019e76721","B2","batch2","","771","tol_toboard","","","","tol_peg_1","771","771","0","[[3,0,0],[2,0],[1]]","18","[[0,0,0],[1,2],[3]]","4","0","","","","","","7","","","","","","","","",""
"","","","","","single-stim-button","98","208259","0.0-2.0-22.18-0.18","5cf5134c8f8ff80019e76721","B2","batch2","","2528","tol_tohand","","","","tol_peg_3","2528","2528","0","[[3,0,0],[2,0],[0]]","19","[[0,0,0],[1,2],[3]]","4","0","","","","","","7","","","","","","","","",""
"","","","","","single-stim-button","99","211375","0.0-2.0-22.18-1.18","5cf5134c8f8ff80019e76721","B2","batch2","","3115","tol_toboard","","","","tol_peg_1","3115","3115","0","[[3,1,0],[2,0],[0]]","19","[[0,0,0],[1,2],[3]]","4","0","","","","","","7","","","","","","","","",""
"","","","","","single-stim-button","100","211931","0.0-2.0-22.19-0.19","5cf5134c8f8ff80019e76721","B2","batch2","","556","tol_tohand","","","","tol_peg_2","556","556","0","[[3,1,0],[0,0],[0]]","20","[[0,0,0],[1,2],[3]]","4","0","","","","","","7","","","","","","","","",""
"","","","","","single-stim-button","101","212519","0.0-2.0-22.19-1.19","5cf5134c8f8ff80019e76721","B2","batch2","","587","tol_toboard","","","","tol_peg_3","587","587","0","[[3,1,0],[0,0],[2]]","20","[[0,0,0],[1,2],[3]]","4","0","","","","","","7","","","","","","","","",""
"","","","","","single-stim-button","102","213191","0.0-2.0-22.20-0.20","5cf5134c8f8ff80019e76721","B2","batch2","","672","tol_tohand","","","","tol_peg_1","672","672","0","[[3,0,0],[0,0],[2]]","21","[[0,0,0],[1,2],[3]]","4","0","","","","","","7","","","","","","","","",""
"","","","","","single-stim-button","103","213895","0.0-2.0-22.20-1.20","5cf5134c8f8ff80019e76721","B2","batch2","","704","tol_toboard","","","","tol_peg_2","704","704","0","[[3,0,0],[1,0],[2]]","21","[[0,0,0],[1,2],[3]]","4","0","","","","","","7","","","","","","","","",""
"","","","","","single-stim-button","104","215209","0.0-2.0-22.21-0.21","5cf5134c8f8ff80019e76721","B2","batch2","","1313","tol_tohand","","","","tol_peg_3","1313","1313","0","[[3,0,0],[1,0],[0]]","22","[[0,0,0],[1,2],[3]]","4","0","","","","","","7","","","","","","","","",""
"","","","","","single-stim-button","105","215851","0.0-2.0-22.21-1.21","5cf5134c8f8ff80019e76721","B2","batch2","","642","tol_toboard","","","","tol_peg_2","642","642","0","[[3,0,0],[1,2],[0]]","22","[[0,0,0],[1,2],[3]]","4","0","","","","","","7","","","","","","","","",""
"","","","","","single-stim-button","106","216353","0.0-2.0-22.22-0.22","5cf5134c8f8ff80019e76721","B2","batch2","","502","tol_tohand","","","","tol_peg_1","502","502","0","[[0,0,0],[1,2],[0]]","23","[[0,0,0],[1,2],[3]]","4","0","","","","","","7","","","","","","","","",""
"","","","","","single-stim-button","107","216910","0.0-2.0-22.22-1.22","5cf5134c8f8ff80019e76721","B2","batch2","","557","tol_toboard","","","","tol_peg_3","557","557","0","[[0,0,0],[1,2],[3]]","23","[[0,0,0],[1,2],[3]]","4","0","","","","","","7","","","","","","","","",""
"","","","","","poldrack-single-stim","108","217916","0.0-2.0-23.0","5cf5134c8f8ff80019e76721","B2","batch2","","-1","tol_feedback","","","true","","1000","1000","500","","","","","","-1","none","true","2071","28077","","","","","","","","","",""
"","","","","","html-button-response","109","218704","0.0-2.0-24.0","5cf5134c8f8ff80019e76721","B2","batch2","","788","tol_trial_num","<div class = centerbox><p class = center-block-text>problem <strong>6</strong> out of 25 problems</p></div>","0","","","","","","","","","","","","","","","","","","","","","","","","",""
"","","","","","single-stim-button","110","225837","0.0-2.0-25.0-0.0","5cf5134c8f8ff80019e76721","B2","batch2","","7133","tol_tohand","","","","tol_peg_3","7133","7133","0","[[0,0,0],[1,2],[0]]","1","[[1,0,0],[2,3],[0]]","5","0","","","","","","6","","","","","","","","",""
"","","","","","single-stim-button","111","226635","0.0-2.0-25.0-1.0","5cf5134c8f8ff80019e76721","B2","batch2","","798","tol_toboard","","","","tol_peg_1","798","798","0","[[3,0,0],[1,2],[0]]","1","[[1,0,0],[2,3],[0]]","5","0","","","","","","6","","","","","","","","",""
"","","","","","single-stim-button","112","227673","0.0-2.0-25.1-0.1","5cf5134c8f8ff80019e76721","B2","batch2","","1037","tol_tohand","","","","tol_peg_2","1037","1037","0","[[3,0,0],[1,0],[0]]","2","[[1,0,0],[2,3],[0]]","5","0","","","","","","6","","","","","","","","",""
"","","","","","single-stim-button","113","229566","0.0-2.0-25.1-1.1","5cf5134c8f8ff80019e76721","B2","batch2","","1893","tol_toboard","","","","tol_peg_1","1893","1893","0","[[3,2,0],[1,0],[0]]","2","[[1,0,0],[2,3],[0]]","5","0","","","","","","6","","","","","","","","",""
"","","","","","single-stim-button","114","230053","0.0-2.0-25.2-0.2","5cf5134c8f8ff80019e76721","B2","batch2","","487","tol_tohand","","","","tol_peg_2","487","487","0","[[3,2,0],[0,0],[0]]","3","[[1,0,0],[2,3],[0]]","5","0","","","","","","6","","","","","","","","",""
"","","","","","single-stim-button","115","230625","0.0-2.0-25.2-1.2","5cf5134c8f8ff80019e76721","B2","batch2","","571","tol_toboard","","","","tol_peg_3","571","571","0","[[3,2,0],[0,0],[1]]","3","[[1,0,0],[2,3],[0]]","5","0","","","","","","6","","","","","","","","",""
"","","","","","single-stim-button","116","231513","0.0-2.0-25.3-0.3","5cf5134c8f8ff80019e76721","B2","batch2","","887","tol_tohand","","","","tol_peg_1","887","887","0","[[3,0,0],[0,0],[1]]","4","[[1,0,0],[2,3],[0]]","5","0","","","","","","6","","","","","","","","",""
"","","","","","single-stim-button","117","231960","0.0-2.0-25.3-1.3","5cf5134c8f8ff80019e76721","B2","batch2","","447","tol_toboard","","","","tol_peg_2","447","447","0","[[3,0,0],[2,0],[1]]","4","[[1,0,0],[2,3],[0]]","5","0","","","","","","6","","","","","","","","",""
"","","","","","single-stim-button","118","232412","0.0-2.0-25.4-0.4","5cf5134c8f8ff80019e76721","B2","batch2","","451","tol_tohand","","","","tol_peg_1","451","451","0","[[0,0,0],[2,0],[1]]","5","[[1,0,0],[2,3],[0]]","5","0","","","","","","6","","","","","","","","",""
"","","","","","single-stim-button","119","232819","0.0-2.0-25.4-1.4","5cf5134c8f8ff80019e76721","B2","batch2","","407","tol_toboard","","","","tol_peg_2","407","407","0","[[0,0,0],[2,3],[1]]","5","[[1,0,0],[2,3],[0]]","5","0","","","","","","6","","","","","","","","",""
"","","","","","single-stim-button","120","233269","0.0-2.0-25.5-0.5","5cf5134c8f8ff80019e76721","B2","batch2","","450","tol_tohand","","","","tol_peg_3","450","450","0","[[0,0,0],[2,3],[0]]","6","[[1,0,0],[2,3],[0]]","5","0","","","","","","6","","","","","","","","",""
"","","","","","single-stim-button","121","233725","0.0-2.0-25.5-1.5","5cf5134c8f8ff80019e76721","B2","batch2","","455","tol_toboard","","","","tol_peg_1","455","455","0","[[1,0,0],[2,3],[0]]","6","[[1,0,0],[2,3],[0]]","5","0","","","","","","6","","","","","","","","",""
"","","","","","poldrack-single-stim","122","234729","0.0-2.0-26.0","5cf5134c8f8ff80019e76721","B2","batch2","","-1","tol_feedback","","","true","","1000","1000","500","","","","","","-1","none","true","7133","10445","","","","","","","","","",""
"","","","","","html-button-response","123","235566","0.0-2.0-27.0","5cf5134c8f8ff80019e76721","B2","batch2","","837","tol_trial_num","<div class = centerbox><p class = center-block-text>problem <strong>7</strong> out of 25 problems</p></div>","0","","","","","","","","","","","","","","","","","","","","","","","","",""
"","","","","","single-stim-button","124","247881","0.0-2.0-28.0-0.0","5cf5134c8f8ff80019e76721","B2","batch2","","12315","tol_tohand","","","","tol_peg_1","12315","12315","0","[[2,0,0],[0,0],[3]]","1","[[1,2,0],[3,0],[0]]","6","0","","","","","","5","","","","","","","","",""
"","","","","","single-stim-button","125","248399","0.0-2.0-28.0-1.0","5cf5134c8f8ff80019e76721","B2","batch2","","517","tol_toboard","","","","tol_peg_2","517","517","0","[[2,0,0],[1,0],[3]]","1","[[1,2,0],[3,0],[0]]","6","0","","","","","","5","","","","","","","","",""
"","","","","","single-stim-button","126","249188","0.0-2.0-28.1-0.1","5cf5134c8f8ff80019e76721","B2","batch2","","789","tol_tohand","","","","tol_peg_1","789","789","0","[[0,0,0],[1,0],[3]]","2","[[1,2,0],[3,0],[0]]","6","0","","","","","","5","","","","","","","","",""
"","","","","","single-stim-button","127","249712","0.0-2.0-28.1-1.1","5cf5134c8f8ff80019e76721","B2","batch2","","524","tol_toboard","","","","tol_peg_2","524","524","0","[[0,0,0],[1,2],[3]]","2","[[1,2,0],[3,0],[0]]","6","0","","","","","","5","","","","","","","","",""
"","","","","","single-stim-button","128","250989","0.0-2.0-28.2-0.2","5cf5134c8f8ff80019e76721","B2","batch2","","1277","tol_tohand","","","","tol_peg_3","1277","1277","0","[[0,0,0],[1,2],[0]]","3","[[1,2,0],[3,0],[0]]","6","0","","","","","","5","","","","","","","","",""
"","","","","","single-stim-button","129","251569","0.0-2.0-28.2-1.2","5cf5134c8f8ff80019e76721","B2","batch2","","579","tol_toboard","","","","tol_peg_1","579","579","0","[[3,0,0],[1,2],[0]]","3","[[1,2,0],[3,0],[0]]","6","0","","","","","","5","","","","","","","","",""
"","","","","","single-stim-button","130","252071","0.0-2.0-28.3-0.3","5cf5134c8f8ff80019e76721","B2","batch2","","502","tol_tohand","","","","tol_peg_2","502","502","0","[[3,0,0],[1,0],[0]]","4","[[1,2,0],[3,0],[0]]","6","0","","","","","","5","","","","","","","","",""
"","","","","","single-stim-button","131","252575","0.0-2.0-28.3-1.3","5cf5134c8f8ff80019e76721","B2","batch2","","503","tol_toboard","","","","tol_peg_3","503","503","0","[[3,0,0],[1,0],[2]]","4","[[1,2,0],[3,0],[0]]","6","0","","","","","","5","","","","","","","","",""
"","","","","","single-stim-button","132","259717","0.0-2.0-28.4-0.4","5cf5134c8f8ff80019e76721","B2","batch2","","7141","tol_tohand","","","","tol_peg_3","7141","7141","0","[[3,0,0],[1,0],[0]]","5","[[1,2,0],[3,0],[0]]","6","0","","","","","","5","","","","","","","","",""
"","","","","","single-stim-button","133","261095","0.0-2.0-28.4-1.4","5cf5134c8f8ff80019e76721","B2","batch2","","1377","tol_toboard","","","","tol_peg_2","1377","1377","0","[[3,0,0],[1,2],[0]]","5","[[1,2,0],[3,0],[0]]","6","0","","","","","","5","","","","","","","","",""
"","","","","","single-stim-button","134","261889","0.0-2.0-28.5-0.5","5cf5134c8f8ff80019e76721","B2","batch2","","794","tol_tohand","","","","tol_peg_1","794","794","0","[[0,0,0],[1,2],[0]]","6","[[1,2,0],[3,0],[0]]","6","0","","","","","","5","","","","","","","","",""
"","","","","","single-stim-button","135","262469","0.0-2.0-28.5-1.5","5cf5134c8f8ff80019e76721","B2","batch2","","580","tol_toboard","","","","tol_peg_3","580","580","0","[[0,0,0],[1,2],[3]]","6","[[1,2,0],[3,0],[0]]","6","0","","","","","","5","","","","","","","","",""
"","","","","","single-stim-button","136","263087","0.0-2.0-28.6-0.6","5cf5134c8f8ff80019e76721","B2","batch2","","618","tol_tohand","","","","tol_peg_2","618","618","0","[[0,0,0],[1,0],[3]]","7","[[1,2,0],[3,0],[0]]","6","0","","","","","","5","","","","","","","","",""
"","","","","","single-stim-button","137","263584","0.0-2.0-28.6-1.6","5cf5134c8f8ff80019e76721","B2","batch2","","497","tol_toboard","","","","tol_peg_1","497","497","0","[[2,0,0],[1,0],[3]]","7","[[1,2,0],[3,0],[0]]","6","0","","","","","","5","","","","","","","","",""
"","","","","","single-stim-button","138","265391","0.0-2.0-28.7-0.7","5cf5134c8f8ff80019e76721","B2","batch2","","1807","tol_tohand","","","","tol_peg_3","1807","1807","0","[[2,0,0],[1,0],[0]]","8","[[1,2,0],[3,0],[0]]","6","0","","","","","","5","","","","","","","","",""
"","","","","","single-stim-button","139","270450","0.0-2.0-28.7-1.7","5cf5134c8f8ff80019e76721","B2","batch2","","5059","tol_toboard","","","","tol_peg_1","5059","5059","0","[[2,3,0],[1,0],[0]]","8","[[1,2,0],[3,0],[0]]","6","0","","","","","","5","","","","","","","","",""
"","","","","","single-stim-button","140","270959","0.0-2.0-28.8-0.8","5cf5134c8f8ff80019e76721","B2","batch2","","509","tol_tohand","","","","tol_peg_2","509","509","0","[[2,3,0],[0,0],[0]]","9","[[1,2,0],[3,0],[0]]","6","0","","","","","","5","","","","","","","","",""
"","","","","","single-stim-button","141","271407","0.0-2.0-28.8-1.8","5cf5134c8f8ff80019e76721","B2","batch2","","448","tol_toboard","","","","tol_peg_3","448","448","0","[[2,3,0],[0,0],[1]]","9","[[1,2,0],[3,0],[0]]","6","0","","","","","","5","","","","","","","","",""
"","","","","","single-stim-button","142","271895","0.0-2.0-28.9-0.9","5cf5134c8f8ff80019e76721","B2","batch2","","488","tol_tohand","","","","tol_peg_1","488","488","0","[[2,0,0],[0,0],[1]]","10","[[1,2,0],[3,0],[0]]","6","0","","","","","","5","","","","","","","","",""
"","","","","","single-stim-button","143","272304","0.0-2.0-28.9-1.9","5cf5134c8f8ff80019e76721","B2","batch2","","408","tol_toboard","","","","tol_peg_2","408","408","0","[[2,0,0],[3,0],[1]]","10","[[1,2,0],[3,0],[0]]","6","0","","","","","","5","","","","","","","","",""
"","","","","","single-stim-button","144","272729","0.0-2.0-28.10-0.10","5cf5134c8f8ff80019e76721","B2","batch2","","425","tol_tohand","","","","tol_peg_1","425","425","0","[[0,0,0],[3,0],[1]]","11","[[1,2,0],[3,0],[0]]","6","0","","","","","","5","","","","","","","","",""
"","","","","","single-stim-button","145","273086","0.0-2.0-28.10-1.10","5cf5134c8f8ff80019e76721","B2","batch2","","357","tol_toboard","","","","tol_peg_2","357","357","0","[[0,0,0],[3,2],[1]]","11","[[1,2,0],[3,0],[0]]","6","0","","","","","","5","","","","","","","","",""
"","","","","","single-stim-button","146","273611","0.0-2.0-28.11-0.11","5cf5134c8f8ff80019e76721","B2","batch2","","525","tol_tohand","","","","tol_peg_3","525","525","0","[[0,0,0],[3,2],[0]]","12","[[1,2,0],[3,0],[0]]","6","0","","","","","","5","","","","","","","","",""
"","","","","","single-stim-button","147","274073","0.0-2.0-28.11-1.11","5cf5134c8f8ff80019e76721","B2","batch2","","460","tol_toboard","","","","tol_peg_1","460","460","0","[[1,0,0],[3,2],[0]]","12","[[1,2,0],[3,0],[0]]","6","0","","","","","","5","","","","","","","","",""
"","","","","","single-stim-button","148","274516","0.0-2.0-28.12-0.12","5cf5134c8f8ff80019e76721","B2","batch2","","441","tol_tohand","","","","tol_peg_2","441","441","0","[[1,0,0],[3,0],[0]]","13","[[1,2,0],[3,0],[0]]","6","0","","","","","","5","","","","","","","","",""
"","","","","","single-stim-button","149","274886","0.0-2.0-28.12-1.12","5cf5134c8f8ff80019e76721","B2","batch2","","370","tol_toboard","","","","tol_peg_1","370","370","0","[[1,2,0],[3,0],[0]]","13","[[1,2,0],[3,0],[0]]","6","0","","","","","","5","","","","","","","","",""
"","","","","","poldrack-single-stim","150","275891","0.0-2.0-29.0","5cf5134c8f8ff80019e76721","B2","batch2","","-1","tol_feedback","","","true","","1000","1000","500","","","","","","-1","none","true","12315","27631","","","","","","","","","",""
"","","","","","html-button-response","151","276679","0.0-2.0-30.0","5cf5134c8f8ff80019e76721","B2","batch2","","788","tol_trial_num","<div class = centerbox><p class = center-block-text>problem <strong>8</strong> out of 25 problems</p></div>","0","","","","","","","","","","","","","","","","","","","","","","","","",""
"","","","","","single-stim-button","152","284295","0.0-2.0-31.0-0.0","5cf5134c8f8ff80019e76721","B2","batch2","","7615","tol_tohand","","","","tol_peg_3","7615","7615","0","[[0,0,0],[2,3],[0]]","1","[[1,2,0],[3,0],[0]]","7","0","","","","","","4","","","","","","","","",""
"","","","","","single-stim-button","153","284983","0.0-2.0-31.0-1.0","5cf5134c8f8ff80019e76721","B2","batch2","","688","tol_toboard","","","","tol_peg_1","688","688","0","[[1,0,0],[2,3],[0]]","1","[[1,2,0],[3,0],[0]]","7","0","","","","","","4","","","","","","","","",""
"","","","","","single-stim-button","154","287751","0.0-2.0-31.1-0.1","5cf5134c8f8ff80019e76721","B2","batch2","","2768","tol_tohand","","","","tol_peg_2","2768","2768","0","[[1,0,0],[2,0],[0]]","2","[[1,2,0],[3,0],[0]]","7","0","","","","","","4","","","","","","","","",""
"","","","","","single-stim-button","155","288834","0.0-2.0-31.1-1.1","5cf5134c8f8ff80019e76721","B2","batch2","","1082","tol_toboard","","","","tol_peg_3","1082","1082","0","[[1,0,0],[2,0],[3]]","2","[[1,2,0],[3,0],[0]]","7","0","","","","","","4","","","","","","","","",""
"","","","","","single-stim-button","156","289197","0.0-2.0-31.2-0.2","5cf5134c8f8ff80019e76721","B2","batch2","","363","tol_tohand","","","","tol_peg_2","363","363","0","[[1,0,0],[0,0],[3]]","3","[[1,2,0],[3,0],[0]]","7","0","","","","","","4","","","","","","","","",""
"","","","","","single-stim-button","157","289645","0.0-2.0-31.2-1.2","5cf5134c8f8ff80019e76721","B2","batch2","","448","tol_toboard","","","","tol_peg_1","448","448","0","[[1,2,0],[0,0],[3]]","3","[[1,2,0],[3,0],[0]]","7","0","","","","","","4","","","","","","","","",""
"","","","","","single-stim-button","158","290396","0.0-2.0-31.3-0.3","5cf5134c8f8ff80019e76721","B2","batch2","","751","tol_tohand","","","","tol_peg_3","751","751","0","[[1,2,0],[0,0],[0]]","4","[[1,2,0],[3,0],[0]]","7","0","","","","","","4","","","","","","","","",""
"","","","","","single-stim-button","159","290757","0.0-2.0-31.3-1.3","5cf5134c8f8ff80019e76721","B2","batch2","","361","tol_toboard","","","","tol_peg_2","361","361","0","[[1,2,0],[3,0],[0]]","4","[[1,2,0],[3,0],[0]]","7","0","","","","","","4","","","","","","","","",""
"","","","","","poldrack-single-stim","160","291768","0.0-2.0-32.0","5cf5134c8f8ff80019e76721","B2","batch2","","-1","tol_feedback","","","true","","1000","1000","500","","","","","","-1","none","true","7615","11497","","","","","","","","","",""
"","","","","","html-button-response","161","292481","0.0-2.0-33.0","5cf5134c8f8ff80019e76721","B2","batch2","","712","tol_trial_num","<div class = centerbox><p class = center-block-text>problem <strong>9</strong> out of 25 problems</p></div>","0","","","","","","","","","","","","","","","","","","","","","","","","",""
"","","","","","single-stim-button","162","300707","0.0-2.0-34.0-0.0","5cf5134c8f8ff80019e76721","B2","batch2","","8225","tol_tohand","","","","tol_peg_3","8225","8225","0","[[3,2,0],[0,0],[0]]","1","[[2,1,0],[3,0],[0]]","8","0","","","","","","6","","","","","","","","",""
"","","","","","single-stim-button","163","301205","0.0-2.0-34.0-1.0","5cf5134c8f8ff80019e76721","B2","batch2","","498","tol_toboard","","","","tol_peg_2","498","498","0","[[3,2,0],[1,0],[0]]","1","[[2,1,0],[3,0],[0]]","8","0","","","","","","6","","","","","","","","",""
"","","","","","single-stim-button","164","301643","0.0-2.0-34.1-0.1","5cf5134c8f8ff80019e76721","B2","batch2","","438","tol_tohand","","","","tol_peg_1","438","438","0","[[3,0,0],[1,0],[0]]","2","[[2,1,0],[3,0],[0]]","8","0","","","","","","6","","","","","","","","",""
"","","","","","single-stim-button","165","302092","0.0-2.0-34.1-1.1","5cf5134c8f8ff80019e76721","B2","batch2","","448","tol_toboard","","","","tol_peg_2","448","448","0","[[3,0,0],[1,2],[0]]","2","[[2,1,0],[3,0],[0]]","8","0","","","","","","6","","","","","","","","",""
"","","","","","single-stim-button","166","302486","0.0-2.0-34.2-0.2","5cf5134c8f8ff80019e76721","B2","batch2","","394","tol_tohand","","","","tol_peg_1","394","394","0","[[0,0,0],[1,2],[0]]","3","[[2,1,0],[3,0],[0]]","8","0","","","","","","6","","","","","","","","",""
"","","","","","single-stim-button","167","302987","0.0-2.0-34.2-1.2","5cf5134c8f8ff80019e76721","B2","batch2","","500","tol_toboard","","","","tol_peg_3","500","500","0","[[0,0,0],[1,2],[3]]","3","[[2,1,0],[3,0],[0]]","8","0","","","","","","6","","","","","","","","",""
"","","","","","single-stim-button","168","303607","0.0-2.0-34.3-0.3","5cf5134c8f8ff80019e76721","B2","batch2","","619","tol_tohand","","","","tol_peg_2","619","619","0","[[0,0,0],[1,0],[3]]","4","[[2,1,0],[3,0],[0]]","8","0","","","","","","6","","","","","","","","",""
"","","","","","single-stim-button","169","304519","0.0-2.0-34.3-1.3","5cf5134c8f8ff80019e76721","B2","batch2","","912","tol_toboard","","","","tol_peg_1","912","912","0","[[2,0,0],[1,0],[3]]","4","[[2,1,0],[3,0],[0]]","8","0","","","","","","6","","","","","","","","",""
"","","","","","single-stim-button","170","304959","0.0-2.0-34.4-0.4","5cf5134c8f8ff80019e76721","B2","batch2","","440","tol_tohand","","","","tol_peg_2","440","440","0","[[2,0,0],[0,0],[3]]","5","[[2,1,0],[3,0],[0]]","8","0","","","","","","6","","","","","","","","",""
"","","","","","single-stim-button","171","305323","0.0-2.0-34.4-1.4","5cf5134c8f8ff80019e76721","B2","batch2","","363","tol_toboard","","","","tol_peg_1","363","363","0","[[2,1,0],[0,0],[3]]","5","[[2,1,0],[3,0],[0]]","8","0","","","","","","6","","","","","","","","",""
"","","","","","single-stim-button","172","307032","0.0-2.0-34.5-0.5","5cf5134c8f8ff80019e76721","B2","batch2","","1709","tol_tohand","","","","tol_peg_3","1709","1709","0","[[2,1,0],[0,0],[0]]","6","[[2,1,0],[3,0],[0]]","8","0","","","","","","6","","","","","","","","",""
"","","","","","single-stim-button","173","307408","0.0-2.0-34.5-1.5","5cf5134c8f8ff80019e76721","B2","batch2","","376","tol_toboard","","","","tol_peg_2","376","376","0","[[2,1,0],[3,0],[0]]","6","[[2,1,0],[3,0],[0]]","8","0","","","","","","6","","","","","","","","",""
"","","","","","poldrack-single-stim","174","308422","0.0-2.0-35.0","5cf5134c8f8ff80019e76721","B2","batch2","","-1","tol_feedback","","","true","","1000","1000","500","","","","","","-1","none","true","8225","11825","","","","","","","","","",""
"","","","","","html-button-response","175","309120","0.0-2.0-36.0","5cf5134c8f8ff80019e76721","B2","batch2","","696","tol_trial_num","<div class = centerbox><p class = center-block-text>problem <strong>10</strong> out of 25 problems</p></div>","0","","","","","","","","","","","","","","","","","","","","","","","","",""
"","","","","","single-stim-button","176","312234","0.0-2.0-37.0-0.0","5cf5134c8f8ff80019e76721","B2","batch2","","3114","tol_tohand","","","","tol_peg_2","3114","3114","0","[[3,0,0],[0,0],[2]]","1","[[3,0,0],[2,1],[0]]","9","0","","","","","","3","","","","","","","","",""
"","","","","","single-stim-button","177","314762","0.0-2.0-37.0-1.0","5cf5134c8f8ff80019e76721","B2","batch2","","2528","tol_toboard","","","","tol_peg_1","2528","2528","0","[[3,1,0],[0,0],[2]]","1","[[3,0,0],[2,1],[0]]","9","0","","","","","","3","","","","","","","","",""
"","","","","","single-stim-button","178","315483","0.0-2.0-37.1-0.1","5cf5134c8f8ff80019e76721","B2","batch2","","721","tol_tohand","","","","tol_peg_3","721","721","0","[[3,1,0],[0,0],[0]]","2","[[3,0,0],[2,1],[0]]","9","0","","","","","","3","","","","","","","","",""
"","","","","","single-stim-button","179","315891","0.0-2.0-37.1-1.1","5cf5134c8f8ff80019e76721","B2","batch2","","408","tol_toboard","","","","tol_peg_2","408","408","0","[[3,1,0],[2,0],[0]]","2","[[3,0,0],[2,1],[0]]","9","0","","","","","","3","","","","","","","","",""
"","","","","","single-stim-button","180","316385","0.0-2.0-37.2-0.2","5cf5134c8f8ff80019e76721","B2","batch2","","494","tol_tohand","","","","tol_peg_1","494","494","0","[[3,0,0],[2,0],[0]]","3","[[3,0,0],[2,1],[0]]","9","0","","","","","","3","","","","","","","","",""
"","","","","","single-stim-button","181","316734","0.0-2.0-37.2-1.2","5cf5134c8f8ff80019e76721","B2","batch2","","348","tol_toboard","","","","tol_peg_2","348","348","0","[[3,0,0],[2,1],[0]]","3","[[3,0,0],[2,1],[0]]","9","0","","","","","","3","","","","","","","","",""
"","","","","","poldrack-single-stim","182","317746","0.0-2.0-38.0","5cf5134c8f8ff80019e76721","B2","batch2","","-1","tol_feedback","","","true","","1000","1000","500","","","","","","-1","none","true","3114","4329","","","","","","","","","",""
"","","","","","html-button-response","183","318434","0.0-2.0-39.0","5cf5134c8f8ff80019e76721","B2","batch2","","687","tol_trial_num","<div class = centerbox><p class = center-block-text>problem <strong>11</strong> out of 25 problems</p></div>","0","","","","","","","","","","","","","","","","","","","","","","","","",""
"","","","","","single-stim-button","184","322571","0.0-2.0-40.0-0.0","5cf5134c8f8ff80019e76721","B2","batch2","","4135","tol_tohand","","","","tol_peg_1","4135","4135","0","[[1,0,0],[3,0],[0]]","1","[[2,0,0],[1,3],[0]]","10","0","","","","","","6","","","","","","","","",""
"","","","","","single-stim-button","185","337401","0.0-2.0-40.0-1.0","5cf5134c8f8ff80019e76721","B2","batch2","","14830","tol_toboard","","","","tol_peg_2","14830","14830","0","[[1,0,0],[3,2],[0]]","1","[[2,0,0],[1,3],[0]]","10","0","","","","","","6","","","","","","","","",""
"","","","","","single-stim-button","186","337895","0.0-2.0-40.1-0.1","5cf5134c8f8ff80019e76721","B2","batch2","","494","tol_tohand","","","","tol_peg_1","494","494","0","[[0,0,0],[3,2],[0]]","2","[[2,0,0],[1,3],[0]]","10","0","","","","","","6","","","","","","","","",""
"","","","","","single-stim-button","187","339017","0.0-2.0-40.1-1.1","5cf5134c8f8ff80019e76721","B2","batch2","","1121","tol_toboard","","","","tol_peg_3","1121","1121","0","[[0,0,0],[3,2],[1]]","2","[[2,0,0],[1,3],[0]]","10","0","","","","","","6","","","","","","","","",""
"","","","","","single-stim-button","188","339483","0.0-2.0-40.2-0.2","5cf5134c8f8ff80019e76721","B2","batch2","","465","tol_tohand","","","","tol_peg_2","465","465","0","[[0,0,0],[3,0],[1]]","3","[[2,0,0],[1,3],[0]]","10","0","","","","","","6","","","","","","","","",""
"","","","","","single-stim-button","189","340354","0.0-2.0-40.2-1.2","5cf5134c8f8ff80019e76721","B2","batch2","","871","tol_toboard","","","","tol_peg_1","871","871","0","[[2,0,0],[3,0],[1]]","3","[[2,0,0],[1,3],[0]]","10","0","","","","","","6","","","","","","","","",""
"","","","","","single-stim-button","190","341090","0.0-2.0-40.3-0.3","5cf5134c8f8ff80019e76721","B2","batch2","","736","tol_tohand","","","","tol_peg_2","736","736","0","[[2,0,0],[0,0],[1]]","4","[[2,0,0],[1,3],[0]]","10","0","","","","","","6","","","","","","","","",""
"","","","","","single-stim-button","191","341653","0.0-2.0-40.3-1.3","5cf5134c8f8ff80019e76721","B2","batch2","","562","tol_toboard","","","","tol_peg_1","562","562","0","[[2,3,0],[0,0],[1]]","4","[[2,0,0],[1,3],[0]]","10","0","","","","","","6","","","","","","","","",""
"","","","","","single-stim-button","192","342201","0.0-2.0-40.4-0.4","5cf5134c8f8ff80019e76721","B2","batch2","","548","tol_tohand","","","","tol_peg_3","548","548","0","[[2,3,0],[0,0],[0]]","5","[[2,0,0],[1,3],[0]]","10","0","","","","","","6","","","","","","","","",""
"","","","","","single-stim-button","193","342736","0.0-2.0-40.4-1.4","5cf5134c8f8ff80019e76721","B2","batch2","","535","tol_toboard","","","","tol_peg_2","535","535","0","[[2,3,0],[1,0],[0]]","5","[[2,0,0],[1,3],[0]]","10","0","","","","","","6","","","","","","","","",""
"","","","","","single-stim-button","194","343208","0.0-2.0-40.5-0.5","5cf5134c8f8ff80019e76721","B2","batch2","","470","tol_tohand","","","","tol_peg_1","470","470","0","[[2,0,0],[1,0],[0]]","6","[[2,0,0],[1,3],[0]]","10","0","","","","","","6","","","","","","","","",""
"","","","","","single-stim-button","195","343547","0.0-2.0-40.5-1.5","5cf5134c8f8ff80019e76721","B2","batch2","","339","tol_toboard","","","","tol_peg_2","339","339","0","[[2,0,0],[1,3],[0]]","6","[[2,0,0],[1,3],[0]]","10","0","","","","","","6","","","","","","","","",""
"","","","","","poldrack-single-stim","196","344552","0.0-2.0-41.0","5cf5134c8f8ff80019e76721","B2","batch2","","-1","tol_feedback","","","true","","1000","1000","500","","","","","","-1","none","true","4135","6848","","","","","","","","","",""
"","","","","","html-button-response","197","345433","0.0-2.0-42.0","5cf5134c8f8ff80019e76721","B2","batch2","","882","tol_trial_num","<div class = centerbox><p class = center-block-text>problem <strong>12</strong> out of 25 problems</p></div>","0","","","","","","","","","","","","","","","","","","","","","","","","",""
"","","","","","single-stim-button","198","355607","0.0-2.0-43.0-0.0","5cf5134c8f8ff80019e76721","B2","batch2","","10173","tol_tohand","","","","tol_peg_2","10173","10173","0","[[1,2,0],[0,0],[0]]","1","[[2,3,0],[0,0],[1]]","11","0","","","","","","4","","","","","","","","",""
"","","","","","single-stim-button","199","356218","0.0-2.0-43.0-1.0","5cf5134c8f8ff80019e76721","B2","batch2","","610","tol_toboard","","","","tol_peg_3","610","610","0","[[1,2,0],[0,0],[3]]","1","[[2,3,0],[0,0],[1]]","11","0","","","","","","4","","","","","","","","",""
"","","","","","single-stim-button","200","356922","0.0-2.0-43.1-0.1","5cf5134c8f8ff80019e76721","B2","batch2","","704","tol_tohand","","","","tol_peg_1","704","704","0","[[1,0,0],[0,0],[3]]","2","[[2,3,0],[0,0],[1]]","11","0","","","","","","4","","","","","","","","",""
"","","","","","single-stim-button","201","358359","0.0-2.0-43.1-1.1","5cf5134c8f8ff80019e76721","B2","batch2","","1437","tol_toboard","","","","tol_peg_2","1437","1437","0","[[1,0,0],[2,0],[3]]","2","[[2,3,0],[0,0],[1]]","11","0","","","","","","4","","","","","","","","",""
"","","","","","single-stim-button","202","359279","0.0-2.0-43.2-0.2","5cf5134c8f8ff80019e76721","B2","batch2","","919","tol_tohand","","","","tol_peg_1","919","919","0","[[0,0,0],[2,0],[3]]","3","[[2,3,0],[0,0],[1]]","11","0","","","","","","4","","","","","","","","",""
"","","","","","single-stim-button","203","359828","0.0-2.0-43.2-1.2","5cf5134c8f8ff80019e76721","B2","batch2","","549","tol_toboard","","","","tol_peg_2","549","549","0","[[0,0,0],[2,1],[3]]","3","[[2,3,0],[0,0],[1]]","11","0","","","","","","4","","","","","","","","",""
"","","","","","single-stim-button","204","360941","0.0-2.0-43.3-0.3","5cf5134c8f8ff80019e76721","B2","batch2","","1113","tol_tohand","","","","tol_peg_3","1113","1113","0","[[0,0,0],[2,1],[0]]","4","[[2,3,0],[0,0],[1]]","11","0","","","","","","4","","","","","","","","",""
"","","","","","single-stim-button","205","361568","0.0-2.0-43.3-1.3","5cf5134c8f8ff80019e76721","B2","batch2","","626","tol_toboard","","","","tol_peg_1","626","626","0","[[3,0,0],[2,1],[0]]","4","[[2,3,0],[0,0],[1]]","11","0","","","","","","4","","","","","","","","",""
"","","","","","single-stim-button","206","362064","0.0-2.0-43.4-0.4","5cf5134c8f8ff80019e76721","B2","batch2","","495","tol_tohand","","","","tol_peg_2","495","495","0","[[3,0,0],[2,0],[0]]","5","[[2,3,0],[0,0],[1]]","11","0","","","","","","4","","","","","","","","",""
"","","","","","single-stim-button","207","362580","0.0-2.0-43.4-1.4","5cf5134c8f8ff80019e76721","B2","batch2","","516","tol_toboard","","","","tol_peg_3","516","516","0","[[3,0,0],[2,0],[1]]","5","[[2,3,0],[0,0],[1]]","11","0","","","","","","4","","","","","","","","",""
"","","","","","single-stim-button","208","367128","0.0-2.0-43.5-0.5","5cf5134c8f8ff80019e76721","B2","batch2","","4547","tol_tohand","","","","tol_peg_2","4547","4547","0","[[3,0,0],[0,0],[1]]","6","[[2,3,0],[0,0],[1]]","11","0","","","","","","4","","","","","","","","",""
"","","","","","single-stim-button","209","367824","0.0-2.0-43.5-1.5","5cf5134c8f8ff80019e76721","B2","batch2","","695","tol_toboard","","","","tol_peg_1","695","695","0","[[3,2,0],[0,0],[1]]","6","[[2,3,0],[0,0],[1]]","11","0","","","","","","4","","","","","","","","",""
"","","","","","single-stim-button","210","368968","0.0-2.0-43.6-0.6","5cf5134c8f8ff80019e76721","B2","batch2","","1143","tol_tohand","","","","tol_peg_3","1143","1143","0","[[3,2,0],[0,0],[0]]","7","[[2,3,0],[0,0],[1]]","11","0","","","","","","4","","","","","","","","",""
"","","","","","single-stim-button","211","369848","0.0-2.0-43.6-1.6","5cf5134c8f8ff80019e76721","B2","batch2","","880","tol_toboard","","","","tol_peg_2","880","880","0","[[3,2,0],[1,0],[0]]","7","[[2,3,0],[0,0],[1]]","11","0","","","","","","4","","","","","","","","",""
"","","","","","single-stim-button","212","371881","0.0-2.0-43.7-0.7","5cf5134c8f8ff80019e76721","B2","batch2","","2033","tol_tohand","","","","tol_peg_1","2033","2033","0","[[3,0,0],[1,0],[0]]","8","[[2,3,0],[0,0],[1]]","11","0","","","","","","4","","","","","","","","",""
"","","","","","single-stim-button","213","373350","0.0-2.0-43.7-1.7","5cf5134c8f8ff80019e76721","B2","batch2","","1468","tol_toboard","","","","tol_peg_3","1468","1468","0","[[3,0,0],[1,0],[2]]","8","[[2,3,0],[0,0],[1]]","11","0","","","","","","4","","","","","","","","",""
"","","","","","single-stim-button","214","373846","0.0-2.0-43.8-0.8","5cf5134c8f8ff80019e76721","B2","batch2","","496","tol_tohand","","","","tol_peg_1","496","496","0","[[0,0,0],[1,0],[2]]","9","[[2,3,0],[0,0],[1]]","11","0","","","","","","4","","","","","","","","",""
"","","","","","single-stim-button","215","374369","0.0-2.0-43.8-1.8","5cf5134c8f8ff80019e76721","B2","batch2","","523","tol_toboard","","","","tol_peg_2","523","523","0","[[0,0,0],[1,3],[2]]","9","[[2,3,0],[0,0],[1]]","11","0","","","","","","4","","","","","","","","",""
"","","","","","single-stim-button","216","374795","0.0-2.0-43.9-0.9","5cf5134c8f8ff80019e76721","B2","batch2","","426","tol_tohand","","","","tol_peg_3","426","426","0","[[0,0,0],[1,3],[0]]","10","[[2,3,0],[0,0],[1]]","11","0","","","","","","4","","","","","","","","",""
"","","","","","single-stim-button","217","375398","0.0-2.0-43.9-1.9","5cf5134c8f8ff80019e76721","B2","batch2","","603","tol_toboard","","","","tol_peg_1","603","603","0","[[2,0,0],[1,3],[0]]","10","[[2,3,0],[0,0],[1]]","11","0","","","","","","4","","","","","","","","",""
"","","","","","single-stim-button","218","375907","0.0-2.0-43.10-0.10","5cf5134c8f8ff80019e76721","B2","batch2","","509","tol_tohand","","","","tol_peg_2","509","509","0","[[2,0,0],[1,0],[0]]","11","[[2,3,0],[0,0],[1]]","11","0","","","","","","4","","","","","","","","",""
"","","","","","single-stim-button","219","376404","0.0-2.0-43.10-1.10","5cf5134c8f8ff80019e76721","B2","batch2","","496","tol_toboard","","","","tol_peg_1","496","496","0","[[2,3,0],[1,0],[0]]","11","[[2,3,0],[0,0],[1]]","11","0","","","","","","4","","","","","","","","",""
"","","","","","single-stim-button","220","378104","0.0-2.0-43.11-0.11","5cf5134c8f8ff80019e76721","B2","batch2","","1700","tol_tohand","","","","tol_peg_2","1700","1700","0","[[2,3,0],[0,0],[0]]","12","[[2,3,0],[0,0],[1]]","11","0","","","","","","4","","","","","","","","",""
"","","","","","single-stim-button","221","378605","0.0-2.0-43.11-1.11","5cf5134c8f8ff80019e76721","B2","batch2","","501","tol_toboard","","","","tol_peg_3","501","501","0","[[2,3,0],[0,0],[1]]","12","[[2,3,0],[0,0],[1]]","11","0","","","","","","4","","","","","","","","",""
"","","","","","poldrack-single-stim","222","379617","0.0-2.0-44.0","5cf5134c8f8ff80019e76721","B2","batch2","","-1","tol_feedback","","","true","","1000","1000","500","","","","","","-1","none","true","10173","24258","","","","","","","","","",""
"","","","","","html-button-response","223","380353","0.0-2.0-45.0","5cf5134c8f8ff80019e76721","B2","batch2","","736","tol_trial_num","<div class = centerbox><p class = center-block-text>problem <strong>13</strong> out of 25 problems</p></div>","0","","","","","","","","","","","","","","","","","","","","","","","","",""
"","","","","","single-stim-button","224","386577","0.0-2.0-46.0-0.0","5cf5134c8f8ff80019e76721","B2","batch2","","6223","tol_tohand","","","","tol_peg_2","6223","6223","0","[[1,2,0],[0,0],[0]]","1","[[0,0,0],[2,3],[1]]","12","0","","","","","","4","","","","","","","","",""
"","","","","","single-stim-button","225","387033","0.0-2.0-46.0-1.0","5cf5134c8f8ff80019e76721","B2","batch2","","455","tol_toboard","","","","tol_peg_3","455","455","0","[[1,2,0],[0,0],[3]]","1","[[0,0,0],[2,3],[1]]","12","0","","","","","","4","","","","","","","","",""
"","","","","","single-stim-button","226","387457","0.0-2.0-46.1-0.1","5cf5134c8f8ff80019e76721","B2","batch2","","424","tol_tohand","","","","tol_peg_1","424","424","0","[[1,0,0],[0,0],[3]]","2","[[0,0,0],[2,3],[1]]","12","0","","","","","","4","","","","","","","","",""
"","","","","","single-stim-button","227","388053","0.0-2.0-46.1-1.1","5cf5134c8f8ff80019e76721","B2","batch2","","596","tol_toboard","","","","tol_peg_2","596","596","0","[[1,0,0],[2,0],[3]]","2","[[0,0,0],[2,3],[1]]","12","0","","","","","","4","","","","","","","","",""
"","","","","","single-stim-button","228","388517","0.0-2.0-46.2-0.2","5cf5134c8f8ff80019e76721","B2","batch2","","464","tol_tohand","","","","tol_peg_3","464","464","0","[[1,0,0],[2,0],[0]]","3","[[0,0,0],[2,3],[1]]","12","0","","","","","","4","","","","","","","","",""
"","","","","","single-stim-button","229","389036","0.0-2.0-46.2-1.2","5cf5134c8f8ff80019e76721","B2","batch2","","519","tol_toboard","","","","tol_peg_2","519","519","0","[[1,0,0],[2,3],[0]]","3","[[0,0,0],[2,3],[1]]","12","0","","","","","","4","","","","","","","","",""
"","","","","","single-stim-button","230","389520","0.0-2.0-46.3-0.3","5cf5134c8f8ff80019e76721","B2","batch2","","484","tol_tohand","","","","tol_peg_1","484","484","0","[[0,0,0],[2,3],[0]]","4","[[0,0,0],[2,3],[1]]","12","0","","","","","","4","","","","","","","","",""
"","","","","","single-stim-button","231","390077","0.0-2.0-46.3-1.3","5cf5134c8f8ff80019e76721","B2","batch2","","556","tol_toboard","","","","tol_peg_3","556","556","0","[[0,0,0],[2,3],[1]]","4","[[0,0,0],[2,3],[1]]","12","0","","","","","","4","","","","","","","","",""
"","","","","","poldrack-single-stim","232","391096","0.0-2.0-47.0","5cf5134c8f8ff80019e76721","B2","batch2","","-1","tol_feedback","","","true","","1000","1000","500","","","","","","-1","none","true","6223","7595","","","","","","","","","",""
"","","","","","html-button-response","233","394253","0.0-2.0-48.0","5cf5134c8f8ff80019e76721","B2","batch2","","3155","attention_check","<p class = block-text>How many balls are in your board<br></p>","1","true","","","","","","","","","","","","","","","","","","","","","","","",""
"","","","","","html-button-response","234","395103","0.0-2.0-49.0","5cf5134c8f8ff80019e76721","B2","batch2","","850","tol_trial_num","<div class = centerbox><p class = center-block-text>problem <strong>14</strong> out of 25 problems</p></div>","0","","","","","","","","","","","","","","","","","","","","","","","","",""
"","","","","","single-stim-button","235","400834","0.0-2.0-50.0-0.0","5cf5134c8f8ff80019e76721","B2","batch2","","5729","tol_tohand","","","","tol_peg_1","5729","5729","0","[[2,0,0],[3,0],[0]]","1","[[1,2,0],[3,0],[0]]","13","0","","","","","","4","","","","","","","","",""
"","","","","","single-stim-button","236","402511","0.0-2.0-50.0-1.0","5cf5134c8f8ff80019e76721","B2","batch2","","1677","tol_toboard","","","","tol_peg_3","1677","1677","0","[[2,0,0],[3,0],[1]]","1","[[1,2,0],[3,0],[0]]","13","0","","","","","","4","","","","","","","","",""
"","","","","","single-stim-button","237","406622","0.0-2.0-50.1-0.1","5cf5134c8f8ff80019e76721","B2","batch2","","4111","tol_tohand","","","","tol_peg_1","4111","4111","0","[[0,0,0],[3,0],[1]]","2","[[1,2,0],[3,0],[0]]","13","0","","","","","","4","","","","","","","","",""
"","","","","","single-stim-button","238","407162","0.0-2.0-50.1-1.1","5cf5134c8f8ff80019e76721","B2","batch2","","540","tol_toboard","","","","tol_peg_2","540","540","0","[[0,0,0],[3,2],[1]]","2","[[1,2,0],[3,0],[0]]","13","0","","","","","","4","","","","","","","","",""
"","","","","","single-stim-button","239","407697","0.0-2.0-50.2-0.2","5cf5134c8f8ff80019e76721","B2","batch2","","534","tol_tohand","","","","tol_peg_3","534","534","0","[[0,0,0],[3,2],[0]]","3","[[1,2,0],[3,0],[0]]","13","0","","","","","","4","","","","","","","","",""
"","","","","","single-stim-button","240","408193","0.0-2.0-50.2-1.2","5cf5134c8f8ff80019e76721","B2","batch2","","494","tol_toboard","","","","tol_peg_1","494","494","0","[[1,0,0],[3,2],[0]]","3","[[1,2,0],[3,0],[0]]","13","0","","","","","","4","","","","","","","","",""
"","","","","","single-stim-button","241","408586","0.0-2.0-50.3-0.3","5cf5134c8f8ff80019e76721","B2","batch2","","393","tol_tohand","","","","tol_peg_2","393","393","0","[[1,0,0],[3,0],[0]]","4","[[1,2,0],[3,0],[0]]","13","0","","","","","","4","","","","","","","","",""
"","","","","","single-stim-button","242","409003","0.0-2.0-50.3-1.3","5cf5134c8f8ff80019e76721","B2","batch2","","417","tol_toboard","","","","tol_peg_1","417","417","0","[[1,2,0],[3,0],[0]]","4","[[1,2,0],[3,0],[0]]","13","0","","","","","","4","","","","","","","","",""
"","","","","","poldrack-single-stim","243","410012","0.0-2.0-51.0","5cf5134c8f8ff80019e76721","B2","batch2","","-1","tol_feedback","","","true","","1000","1000","500","","","","","","-1","none","true","5729","10767","","","","","","","","","",""
"","","","","","html-button-response","244","410696","0.0-2.0-52.0","5cf5134c8f8ff80019e76721","B2","batch2","","684","tol_trial_num","<div class = centerbox><p class = center-block-text>problem <strong>15</strong> out of 25 problems</p></div>","0","","","","","","","","","","","","","","","","","","","","","","","","",""
"","","","","","single-stim-button","245","414518","0.0-2.0-53.0-0.0","5cf5134c8f8ff80019e76721","B2","batch2","","3820","tol_tohand","","","","tol_peg_1","3820","3820","0","[[1,0,0],[3,0],[0]]","1","[[2,0,0],[3,0],[1]]","14","0","","","","","","3","","","","","","","","",""
"","","","","","single-stim-button","246","415065","0.0-2.0-53.0-1.0","5cf5134c8f8ff80019e76721","B2","batch2","","546","tol_toboard","","","","tol_peg_2","546","546","0","[[1,0,0],[3,2],[0]]","1","[[2,0,0],[3,0],[1]]","14","0","","","","","","3","","","","","","","","",""
"","","","","","single-stim-button","247","415467","0.0-2.0-53.1-0.1","5cf5134c8f8ff80019e76721","B2","batch2","","402","tol_tohand","","","","tol_peg_1","402","402","0","[[0,0,0],[3,2],[0]]","2","[[2,0,0],[3,0],[1]]","14","0","","","","","","3","","","","","","","","",""
"","","","","","single-stim-button","248","415968","0.0-2.0-53.1-1.1","5cf5134c8f8ff80019e76721","B2","batch2","","501","tol_toboard","","","","tol_peg_3","501","501","0","[[0,0,0],[3,2],[1]]","2","[[2,0,0],[3,0],[1]]","14","0","","","","","","3","","","","","","","","",""
"","","","","","single-stim-button","249","416324","0.0-2.0-53.2-0.2","5cf5134c8f8ff80019e76721","B2","batch2","","355","tol_tohand","","","","tol_peg_2","355","355","0","[[0,0,0],[3,0],[1]]","3","[[2,0,0],[3,0],[1]]","14","0","","","","","","3","","","","","","","","",""
"","","","","","single-stim-button","250","416790","0.0-2.0-53.2-1.2","5cf5134c8f8ff80019e76721","B2","batch2","","465","tol_toboard","","","","tol_peg_1","465","465","0","[[2,0,0],[3,0],[1]]","3","[[2,0,0],[3,0],[1]]","14","0","","","","","","3","","","","","","","","",""
"","","","","","poldrack-single-stim","251","417806","0.0-2.0-54.0","5cf5134c8f8ff80019e76721","B2","batch2","","-1","tol_feedback","","","true","","1000","1000","500","","","","","","-1","none","true","3820","4577","","","","","","","","","",""
"","","","","","html-button-response","252","418429","0.0-2.0-55.0","5cf5134c8f8ff80019e76721","B2","batch2","","622","tol_trial_num","<div class = centerbox><p class = center-block-text>problem <strong>16</strong> out of 25 problems</p></div>","0","","","","","","","","","","","","","","","","","","","","","","","","",""
"","","","","","single-stim-button","253","443362","0.0-2.0-56.0-0.0","5cf5134c8f8ff80019e76721","B2","batch2","","24932","tol_tohand","","","","tol_peg_3","24932","24932","0","[[0,0,0],[2,3],[0]]","1","[[2,3,0],[1,0],[0]]","15","0","","","","","","7","","","","","","","","",""
"","","","","","single-stim-button","254","444583","0.0-2.0-56.0-1.0","5cf5134c8f8ff80019e76721","B2","batch2","","1221","tol_toboard","","","","tol_peg_1","1221","1221","0","[[1,0,0],[2,3],[0]]","1","[[2,3,0],[1,0],[0]]","15","0","","","","","","7","","","","","","","","",""
"","","","","","single-stim-button","255","446175","0.0-2.0-56.1-0.1","5cf5134c8f8ff80019e76721","B2","batch2","","1591","tol_tohand","","","","tol_peg_2","1591","1591","0","[[1,0,0],[2,0],[0]]","2","[[2,3,0],[1,0],[0]]","15","0","","","","","","7","","","","","","","","",""
"","","","","","single-stim-button","256","446871","0.0-2.0-56.1-1.1","5cf5134c8f8ff80019e76721","B2","batch2","","696","tol_toboard","","","","tol_peg_1","696","696","0","[[1,3,0],[2,0],[0]]","2","[[2,3,0],[1,0],[0]]","15","0","","","","","","7","","","","","","","","",""
"","","","","","single-stim-button","257","447265","0.0-2.0-56.2-0.2","5cf5134c8f8ff80019e76721","B2","batch2","","394","tol_tohand","","","","tol_peg_2","394","394","0","[[1,3,0],[0,0],[0]]","3","[[2,3,0],[1,0],[0]]","15","0","","","","","","7","","","","","","","","",""
"","","","","","single-stim-button","258","447699","0.0-2.0-56.2-1.2","5cf5134c8f8ff80019e76721","B2","batch2","","434","tol_toboard","","","","tol_peg_3","434","434","0","[[1,3,0],[0,0],[2]]","3","[[2,3,0],[1,0],[0]]","15","0","","","","","","7","","","","","","","","",""
"","","","","","single-stim-button","259","452777","0.0-2.0-56.3-0.3","5cf5134c8f8ff80019e76721","B2","batch2","","5078","tol_tohand","","","","tol_peg_1","5078","5078","0","[[1,0,0],[0,0],[2]]","4","[[2,3,0],[1,0],[0]]","15","0","","","","","","7","","","","","","","","",""
"","","","","","single-stim-button","260","453327","0.0-2.0-56.3-1.3","5cf5134c8f8ff80019e76721","B2","batch2","","549","tol_toboard","","","","tol_peg_2","549","549","0","[[1,0,0],[3,0],[2]]","4","[[2,3,0],[1,0],[0]]","15","0","","","","","","7","","","","","","","","",""
"","","","","","single-stim-button","261","453767","0.0-2.0-56.4-0.4","5cf5134c8f8ff80019e76721","B2","batch2","","440","tol_tohand","","","","tol_peg_1","440","440","0","[[0,0,0],[3,0],[2]]","5","[[2,3,0],[1,0],[0]]","15","0","","","","","","7","","","","","","","","",""
"","","","","","single-stim-button","262","454324","0.0-2.0-56.4-1.4","5cf5134c8f8ff80019e76721","B2","batch2","","555","tol_toboard","","","","tol_peg_2","555","555","0","[[0,0,0],[3,1],[2]]","5","[[2,3,0],[1,0],[0]]","15","0","","","","","","7","","","","","","","","",""
"","","","","","single-stim-button","263","454811","0.0-2.0-56.5-0.5","5cf5134c8f8ff80019e76721","B2","batch2","","487","tol_tohand","","","","tol_peg_3","487","487","0","[[0,0,0],[3,1],[0]]","6","[[2,3,0],[1,0],[0]]","15","0","","","","","","7","","","","","","","","",""
"","","","","","single-stim-button","264","455507","0.0-2.0-56.5-1.5","5cf5134c8f8ff80019e76721","B2","batch2","","696","tol_toboard","","","","tol_peg_1","696","696","0","[[2,0,0],[3,1],[0]]","6","[[2,3,0],[1,0],[0]]","15","0","","","","","","7","","","","","","","","",""
"","","","","","single-stim-button","265","456009","0.0-2.0-56.6-0.6","5cf5134c8f8ff80019e76721","B2","batch2","","501","tol_tohand","","","","tol_peg_2","501","501","0","[[2,0,0],[3,0],[0]]","7","[[2,3,0],[1,0],[0]]","15","0","","","","","","7","","","","","","","","",""
"","","","","","single-stim-button","266","456566","0.0-2.0-56.6-1.6","5cf5134c8f8ff80019e76721","B2","batch2","","556","tol_toboard","","","","tol_peg_3","556","556","0","[[2,0,0],[3,0],[1]]","7","[[2,3,0],[1,0],[0]]","15","0","","","","","","7","","","","","","","","",""
"","","","","","single-stim-button","267","456930","0.0-2.0-56.7-0.7","5cf5134c8f8ff80019e76721","B2","batch2","","364","tol_tohand","","","","tol_peg_2","364","364","0","[[2,0,0],[0,0],[1]]","8","[[2,3,0],[1,0],[0]]","15","0","","","","","","7","","","","","","","","",""
"","","","","","single-stim-button","268","457284","0.0-2.0-56.7-1.7","5cf5134c8f8ff80019e76721","B2","batch2","","354","tol_toboard","","","","tol_peg_1","354","354","0","[[2,3,0],[0,0],[1]]","8","[[2,3,0],[1,0],[0]]","15","0","","","","","","7","","","","","","","","",""
"","","","","","single-stim-button","269","457771","0.0-2.0-56.8-0.8","5cf5134c8f8ff80019e76721","B2","batch2","","487","tol_tohand","","","","tol_peg_3","487","487","0","[[2,3,0],[0,0],[0]]","9","[[2,3,0],[1,0],[0]]","15","0","","","","","","7","","","","","","","","",""
"","","","","","single-stim-button","270","458049","0.0-2.0-56.8-1.8","5cf5134c8f8ff80019e76721","B2","batch2","","277","tol_toboard","","","","tol_peg_2","277","277","0","[[2,3,0],[1,0],[0]]","9","[[2,3,0],[1,0],[0]]","15","0","","","","","","7","","","","","","","","",""
"","","","","","poldrack-single-stim","271","459057","0.0-2.0-57.0","5cf5134c8f8ff80019e76721","B2","batch2","","-1","tol_feedback","","","true","","1000","1000","500","","","","","","-1","none","true","24932","34274","","","","","","","","","",""
"","","","","","html-button-response","272","459857","0.0-2.0-58.0","5cf5134c8f8ff80019e76721","B2","batch2","","799","tol_trial_num","<div class = centerbox><p class = center-block-text>problem <strong>17</strong> out of 25 problems</p></div>","0","","","","","","","","","","","","","","","","","","","","","","","","",""
"","","","","","single-stim-button","273","467450","0.0-2.0-59.0-0.0","5cf5134c8f8ff80019e76721","B2","batch2","","7592","tol_tohand","","","","tol_peg_2","7592","7592","0","[[1,2,0],[0,0],[0]]","1","[[3,1,0],[2,0],[0]]","16","0","","","","","","5","","","","","","","","",""
"","","","","","single-stim-button","274","468101","0.0-2.0-59.0-1.0","5cf5134c8f8ff80019e76721","B2","batch2","","651","tol_toboard","","","","tol_peg_3","651","651","0","[[1,2,0],[0,0],[3]]","1","[[3,1,0],[2,0],[0]]","16","0","","","","","","5","","","","","","","","",""
"","","","","","single-stim-button","275","468795","0.0-2.0-59.1-0.1","5cf5134c8f8ff80019e76721","B2","batch2","","694","tol_tohand","","","","tol_peg_1","694","694","0","[[1,0,0],[0,0],[3]]","2","[[3,1,0],[2,0],[0]]","16","0","","","","","","5","","","","","","","","",""
"","","","","","single-stim-button","276","469382","0.0-2.0-59.1-1.1","5cf5134c8f8ff80019e76721","B2","batch2","","586","tol_toboard","","","","tol_peg_2","586","586","0","[[1,0,0],[2,0],[3]]","2","[[3,1,0],[2,0],[0]]","16","0","","","","","","5","","","","","","","","",""
"","","","","","single-stim-button","277","469939","0.0-2.0-59.2-0.2","5cf5134c8f8ff80019e76721","B2","batch2","","557","tol_tohand","","","","tol_peg_1","557","557","0","[[0,0,0],[2,0],[3]]","3","[[3,1,0],[2,0],[0]]","16","0","","","","","","5","","","","","","","","",""
"","","","","","single-stim-button","278","470434","0.0-2.0-59.2-1.2","5cf5134c8f8ff80019e76721","B2","batch2","","495","tol_toboard","","","","tol_peg_2","495","495","0","[[0,0,0],[2,1],[3]]","3","[[3,1,0],[2,0],[0]]","16","0","","","","","","5","","","","","","","","",""
"","","","","","single-stim-button","279","470951","0.0-2.0-59.3-0.3","5cf5134c8f8ff80019e76721","B2","batch2","","516","tol_tohand","","","","tol_peg_3","516","516","0","[[0,0,0],[2,1],[0]]","4","[[3,1,0],[2,0],[0]]","16","0","","","","","","5","","","","","","","","",""
"","","","","","single-stim-button","280","471415","0.0-2.0-59.3-1.3","5cf5134c8f8ff80019e76721","B2","batch2","","464","tol_toboard","","","","tol_peg_1","464","464","0","[[3,0,0],[2,1],[0]]","4","[[3,1,0],[2,0],[0]]","16","0","","","","","","5","","","","","","","","",""
"","","","","","single-stim-button","281","471785","0.0-2.0-59.4-0.4","5cf5134c8f8ff80019e76721","B2","batch2","","369","tol_tohand","","","","tol_peg_2","369","369","0","[[3,0,0],[2,0],[0]]","5","[[3,1,0],[2,0],[0]]","16","0","","","","","","5","","","","","","","","",""
"","","","","","single-stim-button","282","472179","0.0-2.0-59.4-1.4","5cf5134c8f8ff80019e76721","B2","batch2","","394","tol_toboard","","","","tol_peg_1","394","394","0","[[3,1,0],[2,0],[0]]","5","[[3,1,0],[2,0],[0]]","16","0","","","","","","5","","","","","","","","",""
"","","","","","poldrack-single-stim","283","473196","0.0-2.0-60.0","5cf5134c8f8ff80019e76721","B2","batch2","","-1","tol_feedback","","","true","","1000","1000","500","","","","","","-1","none","true","7592","9728","","","","","","","","","",""
"","","","","","html-button-response","284","474035","0.0-2.0-61.0","5cf5134c8f8ff80019e76721","B2","batch2","","838","tol_trial_num","<div class = centerbox><p class = center-block-text>problem <strong>18</strong> out of 25 problems</p></div>","0","","","","","","","","","","","","","","","","","","","","","","","","",""
"","","","","","single-stim-button","285","481734","0.0-2.0-62.0-0.0","5cf5134c8f8ff80019e76721","B2","batch2","","7698","tol_tohand","","","","tol_peg_2","7698","7698","0","[[1,2,0],[0,0],[0]]","1","[[3,0,0],[2,0],[1]]","17","0","","","","","","5","","","","","","","","",""
"","","","","","single-stim-button","286","482197","0.0-2.0-62.0-1.0","5cf5134c8f8ff80019e76721","B2","batch2","","462","tol_toboard","","","","tol_peg_3","462","462","0","[[1,2,0],[0,0],[3]]","1","[[3,0,0],[2,0],[1]]","17","0","","","","","","5","","","","","","","","",""
"","","","","","single-stim-button","287","482685","0.0-2.0-62.1-0.1","5cf5134c8f8ff80019e76721","B2","batch2","","487","tol_tohand","","","","tol_peg_1","487","487","0","[[1,0,0],[0,0],[3]]","2","[[3,0,0],[2,0],[1]]","17","0","","","","","","5","","","","","","","","",""
"","","","","","single-stim-button","288","483212","0.0-2.0-62.1-1.1","5cf5134c8f8ff80019e76721","B2","batch2","","527","tol_toboard","","","","tol_peg_2","527","527","0","[[1,0,0],[2,0],[3]]","2","[[3,0,0],[2,0],[1]]","17","0","","","","","","5","","","","","","","","",""
"","","","","","single-stim-button","289","483721","0.0-2.0-62.2-0.2","5cf5134c8f8ff80019e76721","B2","batch2","","509","tol_tohand","","","","tol_peg_1","509","509","0","[[0,0,0],[2,0],[3]]","3","[[3,0,0],[2,0],[1]]","17","0","","","","","","5","","","","","","","","",""
"","","","","","single-stim-button","290","484240","0.0-2.0-62.2-1.2","5cf5134c8f8ff80019e76721","B2","batch2","","518","tol_toboard","","","","tol_peg_2","518","518","0","[[0,0,0],[2,1],[3]]","3","[[3,0,0],[2,0],[1]]","17","0","","","","","","5","","","","","","","","",""
"","","","","","single-stim-button","291","484742","0.0-2.0-62.3-0.3","5cf5134c8f8ff80019e76721","B2","batch2","","502","tol_tohand","","","","tol_peg_3","502","502","0","[[0,0,0],[2,1],[0]]","4","[[3,0,0],[2,0],[1]]","17","0","","","","","","5","","","","","","","","",""
"","","","","","single-stim-button","292","485443","0.0-2.0-62.3-1.3","5cf5134c8f8ff80019e76721","B2","batch2","","701","tol_toboard","","","","tol_peg_1","701","701","0","[[3,0,0],[2,1],[0]]","4","[[3,0,0],[2,0],[1]]","17","0","","","","","","5","","","","","","","","",""
"","","","","","single-stim-button","293","486047","0.0-2.0-62.4-0.4","5cf5134c8f8ff80019e76721","B2","batch2","","604","tol_tohand","","","","tol_peg_2","604","604","0","[[3,0,0],[2,0],[0]]","5","[[3,0,0],[2,0],[1]]","17","0","","","","","","5","","","","","","","","",""
"","","","","","single-stim-button","294","486504","0.0-2.0-62.4-1.4","5cf5134c8f8ff80019e76721","B2","batch2","","456","tol_toboard","","","","tol_peg_3","456","456","0","[[3,0,0],[2,0],[1]]","5","[[3,0,0],[2,0],[1]]","17","0","","","","","","5","","","","","","","","",""
"","","","","","poldrack-single-stim","295","487513","0.0-2.0-63.0","5cf5134c8f8ff80019e76721","B2","batch2","","-1","tol_feedback","","","true","","1000","1000","500","","","","","","-1","none","true","7698","9800","","","","","","","","","",""
"","","","","","html-button-response","296","488289","0.0-2.0-64.0","5cf5134c8f8ff80019e76721","B2","batch2","","775","tol_trial_num","<div class = centerbox><p class = center-block-text>problem <strong>19</strong> out of 25 problems</p></div>","0","","","","","","","","","","","","","","","","","","","","","","","","",""
"","","","","","single-stim-button","297","517743","0.0-2.0-65.0-0.0","5cf5134c8f8ff80019e76721","B2","batch2","","29453","tol_tohand","","","","tol_peg_2","29453","29453","0","[[1,2,0],[0,0],[0]]","1","[[0,0,0],[1,2],[3]]","18","0","","","","","","7","","","","","","","","",""
"","","","","","single-stim-button","298","518214","0.0-2.0-65.0-1.0","5cf5134c8f8ff80019e76721","B2","batch2","","471","tol_toboard","","","","tol_peg_3","471","471","0","[[1,2,0],[0,0],[3]]","1","[[0,0,0],[1,2],[3]]","18","0","","","","","","7","","","","","","","","",""
"","","","","","single-stim-button","299","518701","0.0-2.0-65.1-0.1","5cf5134c8f8ff80019e76721","B2","batch2","","487","tol_tohand","","","","tol_peg_1","487","487","0","[[1,0,0],[0,0],[3]]","2","[[0,0,0],[1,2],[3]]","18","0","","","","","","7","","","","","","","","",""
"","","","","","single-stim-button","300","519228","0.0-2.0-65.1-1.1","5cf5134c8f8ff80019e76721","B2","batch2","","527","tol_toboard","","","","tol_peg_2","527","527","0","[[1,0,0],[2,0],[3]]","2","[[0,0,0],[1,2],[3]]","18","0","","","","","","7","","","","","","","","",""
"","","","","","single-stim-button","301","520055","0.0-2.0-65.2-0.2","5cf5134c8f8ff80019e76721","B2","batch2","","827","tol_tohand","","","","tol_peg_1","827","827","0","[[0,0,0],[2,0],[3]]","3","[[0,0,0],[1,2],[3]]","18","0","","","","","","7","","","","","","","","",""
"","","","","","single-stim-button","302","521336","0.0-2.0-65.2-1.2","5cf5134c8f8ff80019e76721","B2","batch2","","1281","tol_toboard","","","","tol_peg_2","1281","1281","0","[[0,0,0],[2,1],[3]]","3","[[0,0,0],[1,2],[3]]","18","0","","","","","","7","","","","","","","","",""
"","","","","","single-stim-button","303","521823","0.0-2.0-65.3-0.3","5cf5134c8f8ff80019e76721","B2","batch2","","486","tol_tohand","","","","tol_peg_3","486","486","0","[[0,0,0],[2,1],[0]]","4","[[0,0,0],[1,2],[3]]","18","0","","","","","","7","","","","","","","","",""
"","","","","","single-stim-button","304","522426","0.0-2.0-65.3-1.3","5cf5134c8f8ff80019e76721","B2","batch2","","602","tol_toboard","","","","tol_peg_1","602","602","0","[[3,0,0],[2,1],[0]]","4","[[0,0,0],[1,2],[3]]","18","0","","","","","","7","","","","","","","","",""
"","","","","","single-stim-button","305","522930","0.0-2.0-65.4-0.4","5cf5134c8f8ff80019e76721","B2","batch2","","503","tol_tohand","","","","tol_peg_2","503","503","0","[[3,0,0],[2,0],[0]]","5","[[0,0,0],[1,2],[3]]","18","0","","","","","","7","","","","","","","","",""
"","","","","","single-stim-button","306","523648","0.0-2.0-65.4-1.4","5cf5134c8f8ff80019e76721","B2","batch2","","718","tol_toboard","","","","tol_peg_3","718","718","0","[[3,0,0],[2,0],[1]]","5","[[0,0,0],[1,2],[3]]","18","0","","","","","","7","","","","","","","","",""
"","","","","","single-stim-button","307","524096","0.0-2.0-65.5-0.5","5cf5134c8f8ff80019e76721","B2","batch2","","446","tol_tohand","","","","tol_peg_2","446","446","0","[[3,0,0],[0,0],[1]]","6","[[0,0,0],[1,2],[3]]","18","0","","","","","","7","","","","","","","","",""
"","","","","","single-stim-button","308","524605","0.0-2.0-65.5-1.5","5cf5134c8f8ff80019e76721","B2","batch2","","509","tol_toboard","","","","tol_peg_1","509","509","0","[[3,2,0],[0,0],[1]]","6","[[0,0,0],[1,2],[3]]","18","0","","","","","","7","","","","","","","","",""
"","","","","","single-stim-button","309","525131","0.0-2.0-65.6-0.6","5cf5134c8f8ff80019e76721","B2","batch2","","525","tol_tohand","","","","tol_peg_3","525","525","0","[[3,2,0],[0,0],[0]]","7","[[0,0,0],[1,2],[3]]","18","0","","","","","","7","","","","","","","","",""
"","","","","","single-stim-button","310","525627","0.0-2.0-65.6-1.6","5cf5134c8f8ff80019e76721","B2","batch2","","496","tol_toboard","","","","tol_peg_2","496","496","0","[[3,2,0],[1,0],[0]]","7","[[0,0,0],[1,2],[3]]","18","0","","","","","","7","","","","","","","","",""
"","","","","","single-stim-button","311","526076","0.0-2.0-65.7-0.7","5cf5134c8f8ff80019e76721","B2","batch2","","448","tol_tohand","","","","tol_peg_1","448","448","0","[[3,0,0],[1,0],[0]]","8","[[0,0,0],[1,2],[3]]","18","0","","","","","","7","","","","","","","","",""
"","","","","","single-stim-button","312","526461","0.0-2.0-65.7-1.7","5cf5134c8f8ff80019e76721","B2","batch2","","384","tol_toboard","","","","tol_peg_2","384","384","0","[[3,0,0],[1,2],[0]]","8","[[0,0,0],[1,2],[3]]","18","0","","","","","","7","","","","","","","","",""
"","","","","","single-stim-button","313","526909","0.0-2.0-65.8-0.8","5cf5134c8f8ff80019e76721","B2","batch2","","448","tol_tohand","","","","tol_peg_1","448","448","0","[[0,0,0],[1,2],[0]]","9","[[0,0,0],[1,2],[3]]","18","0","","","","","","7","","","","","","","","",""
"","","","","","single-stim-button","314","527536","0.0-2.0-65.8-1.8","5cf5134c8f8ff80019e76721","B2","batch2","","626","tol_toboard","","","","tol_peg_3","626","626","0","[[0,0,0],[1,2],[3]]","9","[[0,0,0],[1,2],[3]]","18","0","","","","","","7","","","","","","","","",""
"","","","","","poldrack-single-stim","315","528545","0.0-2.0-66.0","5cf5134c8f8ff80019e76721","B2","batch2","","-1","tol_feedback","","","true","","1000","1000","500","","","","","","-1","none","true","29453","33623","","","","","","","","","",""
"","","","","","html-button-response","316","529305","0.0-2.0-67.0","5cf5134c8f8ff80019e76721","B2","batch2","","760","tol_trial_num","<div class = centerbox><p class = center-block-text>problem <strong>20</strong> out of 25 problems</p></div>","0","","","","","","","","","","","","","","","","","","","","","","","","",""
"","","","","","single-stim-button","317","534981","0.0-2.0-68.0-0.0","5cf5134c8f8ff80019e76721","B2","batch2","","5675","tol_tohand","","","","tol_peg_1","5675","5675","0","[[1,0,0],[3,0],[0]]","1","[[2,1,0],[0,0],[3]]","19","0","","","","","","5","","","","","","","","",""
"","","","","","single-stim-button","318","535443","0.0-2.0-68.0-1.0","5cf5134c8f8ff80019e76721","B2","batch2","","461","tol_toboard","","","","tol_peg_3","461","461","0","[[1,0,0],[3,0],[2]]","1","[[2,1,0],[0,0],[3]]","19","0","","","","","","5","","","","","","","","",""
"","","","","","single-stim-button","319","535931","0.0-2.0-68.1-0.1","5cf5134c8f8ff80019e76721","B2","batch2","","488","tol_tohand","","","","tol_peg_1","488","488","0","[[0,0,0],[3,0],[2]]","2","[[2,1,0],[0,0],[3]]","19","0","","","","","","5","","","","","","","","",""
"","","","","","single-stim-button","320","536425","0.0-2.0-68.1-1.1","5cf5134c8f8ff80019e76721","B2","batch2","","494","tol_toboard","","","","tol_peg_2","494","494","0","[[0,0,0],[3,1],[2]]","2","[[2,1,0],[0,0],[3]]","19","0","","","","","","5","","","","","","","","",""
"","","","","","single-stim-button","321","536851","0.0-2.0-68.2-0.2","5cf5134c8f8ff80019e76721","B2","batch2","","426","tol_tohand","","","","tol_peg_3","426","426","0","[[0,0,0],[3,1],[0]]","3","[[2,1,0],[0,0],[3]]","19","0","","","","","","5","","","","","","","","",""
"","","","","","single-stim-button","322","537408","0.0-2.0-68.2-1.2","5cf5134c8f8ff80019e76721","B2","batch2","","557","tol_toboard","","","","tol_peg_1","557","557","0","[[2,0,0],[3,1],[0]]","3","[[2,1,0],[0,0],[3]]","19","0","","","","","","5","","","","","","","","",""
"","","","","","single-stim-button","323","537817","0.0-2.0-68.3-0.3","5cf5134c8f8ff80019e76721","B2","batch2","","409","tol_tohand","","","","tol_peg_2","409","409","0","[[2,0,0],[3,0],[0]]","4","[[2,1,0],[0,0],[3]]","19","0","","","","","","5","","","","","","","","",""
"","","","","","single-stim-button","324","538303","0.0-2.0-68.3-1.3","5cf5134c8f8ff80019e76721","B2","batch2","","486","tol_toboard","","","","tol_peg_1","486","486","0","[[2,1,0],[3,0],[0]]","4","[[2,1,0],[0,0],[3]]","19","0","","","","","","5","","","","","","","","",""
"","","","","","single-stim-button","325","538784","0.0-2.0-68.4-0.4","5cf5134c8f8ff80019e76721","B2","batch2","","480","tol_tohand","","","","tol_peg_2","480","480","0","[[2,1,0],[0,0],[0]]","5","[[2,1,0],[0,0],[3]]","19","0","","","","","","5","","","","","","","","",""
"","","","","","single-stim-button","326","539278","0.0-2.0-68.4-1.4","5cf5134c8f8ff80019e76721","B2","batch2","","493","tol_toboard","","","","tol_peg_3","493","493","0","[[2,1,0],[0,0],[3]]","5","[[2,1,0],[0,0],[3]]","19","0","","","","","","5","","","","","","","","",""
"","","","","","poldrack-single-stim","327","540288","0.0-2.0-69.0","5cf5134c8f8ff80019e76721","B2","batch2","","-1","tol_feedback","","","true","","1000","1000","500","","","","","","-1","none","true","5675","7478","","","","","","","","","",""
"","","","","","html-button-response","328","540894","0.0-2.0-70.0","5cf5134c8f8ff80019e76721","B2","batch2","","604","tol_trial_num","<div class = centerbox><p class = center-block-text>problem <strong>21</strong> out of 25 problems</p></div>","0","","","","","","","","","","","","","","","","","","","","","","","","",""
"","","","","","single-stim-button","329","551306","0.0-2.0-71.0-0.0","5cf5134c8f8ff80019e76721","B2","batch2","","10411","tol_tohand","","","","tol_peg_2","10411","10411","0","[[1,2,0],[0,0],[0]]","1","[[3,2,0],[0,0],[1]]","20","0","","","","","","6","","","","","","","","",""
"","","","","","single-stim-button","330","551808","0.0-2.0-71.0-1.0","5cf5134c8f8ff80019e76721","B2","batch2","","501","tol_toboard","","","","tol_peg_3","501","501","0","[[1,2,0],[0,0],[3]]","1","[[3,2,0],[0,0],[1]]","20","0","","","","","","6","","","","","","","","",""
"","","","","","single-stim-button","331","553137","0.0-2.0-71.1-0.1","5cf5134c8f8ff80019e76721","B2","batch2","","1329","tol_tohand","","","","tol_peg_1","1329","1329","0","[[1,0,0],[0,0],[3]]","2","[[3,2,0],[0,0],[1]]","20","0","","","","","","6","","","","","","","","",""
"","","","","","single-stim-button","332","553685","0.0-2.0-71.1-1.1","5cf5134c8f8ff80019e76721","B2","batch2","","547","tol_toboard","","","","tol_peg_2","547","547","0","[[1,0,0],[2,0],[3]]","2","[[3,2,0],[0,0],[1]]","20","0","","","","","","6","","","","","","","","",""
"","","","","","single-stim-button","333","554096","0.0-2.0-71.2-0.2","5cf5134c8f8ff80019e76721","B2","batch2","","410","tol_tohand","","","","tol_peg_1","410","410","0","[[0,0,0],[2,0],[3]]","3","[[3,2,0],[0,0],[1]]","20","0","","","","","","6","","","","","","","","",""
"","","","","","single-stim-button","334","554575","0.0-2.0-71.2-1.2","5cf5134c8f8ff80019e76721","B2","batch2","","479","tol_toboard","","","","tol_peg_2","479","479","0","[[0,0,0],[2,1],[3]]","3","[[3,2,0],[0,0],[1]]","20","0","","","","","","6","","","","","","","","",""
"","","","","","single-stim-button","335","555029","0.0-2.0-71.3-0.3","5cf5134c8f8ff80019e76721","B2","batch2","","454","tol_tohand","","","","tol_peg_3","454","454","0","[[0,0,0],[2,1],[0]]","4","[[3,2,0],[0,0],[1]]","20","0","","","","","","6","","","","","","","","",""
"","","","","","single-stim-button","336","555826","0.0-2.0-71.3-1.3","5cf5134c8f8ff80019e76721","B2","batch2","","796","tol_toboard","","","","tol_peg_1","796","796","0","[[3,0,0],[2,1],[0]]","4","[[3,2,0],[0,0],[1]]","20","0","","","","","","6","","","","","","","","",""
"","","","","","single-stim-button","337","557364","0.0-2.0-71.4-0.4","5cf5134c8f8ff80019e76721","B2","batch2","","1538","tol_tohand","","","","tol_peg_2","1538","1538","0","[[3,0,0],[2,0],[0]]","5","[[3,2,0],[0,0],[1]]","20","0","","","","","","6","","","","","","","","",""
"","","","","","single-stim-button","338","557852","0.0-2.0-71.4-1.4","5cf5134c8f8ff80019e76721","B2","batch2","","488","tol_toboard","","","","tol_peg_3","488","488","0","[[3,0,0],[2,0],[1]]","5","[[3,2,0],[0,0],[1]]","20","0","","","","","","6","","","","","","","","",""
"","","","","","single-stim-button","339","558229","0.0-2.0-71.5-0.5","5cf5134c8f8ff80019e76721","B2","batch2","","377","tol_tohand","","","","tol_peg_2","377","377","0","[[3,0,0],[0,0],[1]]","6","[[3,2,0],[0,0],[1]]","20","0","","","","","","6","","","","","","","","",""
"","","","","","single-stim-button","340","558955","0.0-2.0-71.5-1.5","5cf5134c8f8ff80019e76721","B2","batch2","","726","tol_toboard","","","","tol_peg_1","726","726","0","[[3,2,0],[0,0],[1]]","6","[[3,2,0],[0,0],[1]]","20","0","","","","","","6","","","","","","","","",""
"","","","","","poldrack-single-stim","341","559970","0.0-2.0-72.0","5cf5134c8f8ff80019e76721","B2","batch2","","-1","tol_feedback","","","true","","1000","1000","500","","","","","","-1","none","true","10411","14519","","","","","","","","","",""
"","","","","","html-button-response","342","560749","0.0-2.0-73.0","5cf5134c8f8ff80019e76721","B2","batch2","","779","tol_trial_num","<div class = centerbox><p class = center-block-text>problem <strong>22</strong> out of 25 problems</p></div>","0","","","","","","","","","","","","","","","","","","","","","","","","",""
"","","","","","single-stim-button","343","568864","0.0-2.0-74.0-0.0","5cf5134c8f8ff80019e76721","B2","batch2","","8113","tol_tohand","","","","tol_peg_2","8113","8113","0","[[1,0,0],[2,0],[0]]","1","[[0,0,0],[1,2],[3]]","21","0","","","","","","6","","","","","","","","",""
"","","","","","single-stim-button","344","569451","0.0-2.0-74.0-1.0","5cf5134c8f8ff80019e76721","B2","batch2","","587","tol_toboard","","","","tol_peg_1","587","587","0","[[1,3,0],[2,0],[0]]","1","[[0,0,0],[1,2],[3]]","21","0","","","","","","6","","","","","","","","",""
"","","","","","single-stim-button","345","569924","0.0-2.0-74.1-0.1","5cf5134c8f8ff80019e76721","B2","batch2","","471","tol_tohand","","","","tol_peg_2","471","471","0","[[1,3,0],[0,0],[0]]","2","[[0,0,0],[1,2],[3]]","21","0","","","","","","6","","","","","","","","",""
"","","","","","single-stim-button","346","570487","0.0-2.0-74.1-1.1","5cf5134c8f8ff80019e76721","B2","batch2","","563","tol_toboard","","","","tol_peg_3","563","563","0","[[1,3,0],[0,0],[2]]","2","[[0,0,0],[1,2],[3]]","21","0","","","","","","6","","","","","","","","",""
"","","","","","single-stim-button","347","574754","0.0-2.0-74.2-0.2","5cf5134c8f8ff80019e76721","B2","batch2","","4267","tol_tohand","","","","tol_peg_1","4267","4267","0","[[1,0,0],[0,0],[2]]","3","[[0,0,0],[1,2],[3]]","21","0","","","","","","6","","","","","","","","",""
"","","","","","single-stim-button","348","576377","0.0-2.0-74.2-1.2","5cf5134c8f8ff80019e76721","B2","batch2","","1623","tol_toboard","","","","tol_peg_2","1623","1623","0","[[1,0,0],[3,0],[2]]","3","[[0,0,0],[1,2],[3]]","21","0","","","","","","6","","","","","","","","",""
"","","","","","single-stim-button","349","576863","0.0-2.0-74.3-0.3","5cf5134c8f8ff80019e76721","B2","batch2","","486","tol_tohand","","","","tol_peg_1","486","486","0","[[0,0,0],[3,0],[2]]","4","[[0,0,0],[1,2],[3]]","21","0","","","","","","6","","","","","","","","",""
"","","","","","single-stim-button","350","577203","0.0-2.0-74.3-1.3","5cf5134c8f8ff80019e76721","B2","batch2","","340","tol_toboard","","","","tol_peg_2","340","340","0","[[0,0,0],[3,1],[2]]","4","[[0,0,0],[1,2],[3]]","21","0","","","","","","6","","","","","","","","",""
"","","","","","single-stim-button","351","577676","0.0-2.0-74.4-0.4","5cf5134c8f8ff80019e76721","B2","batch2","","472","tol_tohand","","","","tol_peg_3","472","472","0","[[0,0,0],[3,1],[0]]","5","[[0,0,0],[1,2],[3]]","21","0","","","","","","6","","","","","","","","",""
"","","","","","single-stim-button","352","578525","0.0-2.0-74.4-1.4","5cf5134c8f8ff80019e76721","B2","batch2","","849","tol_toboard","","","","tol_peg_1","849","849","0","[[2,0,0],[3,1],[0]]","5","[[0,0,0],[1,2],[3]]","21","0","","","","","","6","","","","","","","","",""
"","","","","","single-stim-button","353","579746","0.0-2.0-74.5-0.5","5cf5134c8f8ff80019e76721","B2","batch2","","1221","tol_tohand","","","","tol_peg_2","1221","1221","0","[[2,0,0],[3,0],[0]]","6","[[0,0,0],[1,2],[3]]","21","0","","","","","","6","","","","","","","","",""
"","","","","","single-stim-button","354","580473","0.0-2.0-74.5-1.5","5cf5134c8f8ff80019e76721","B2","batch2","","727","tol_toboard","","","","tol_peg_1","727","727","0","[[2,1,0],[3,0],[0]]","6","[[0,0,0],[1,2],[3]]","21","0","","","","","","6","","","","","","","","",""
"","","","","","single-stim-button","355","580937","0.0-2.0-74.6-0.6","5cf5134c8f8ff80019e76721","B2","batch2","","462","tol_tohand","","","","tol_peg_2","462","462","0","[[2,1,0],[0,0],[0]]","7","[[0,0,0],[1,2],[3]]","21","0","","","","","","6","","","","","","","","",""
"","","","","","single-stim-button","356","581445","0.0-2.0-74.6-1.6","5cf5134c8f8ff80019e76721","B2","batch2","","507","tol_toboard","","","","tol_peg_3","507","507","0","[[2,1,0],[0,0],[3]]","7","[[0,0,0],[1,2],[3]]","21","0","","","","","","6","","","","","","","","",""
"","","","","","single-stim-button","357","581995","0.0-2.0-74.7-0.7","5cf5134c8f8ff80019e76721","B2","batch2","","550","tol_tohand","","","","tol_peg_1","550","550","0","[[2,0,0],[0,0],[3]]","8","[[0,0,0],[1,2],[3]]","21","0","","","","","","6","","","","","","","","",""
