"success","timeout","failed_images","failed_audio","failed_video","trial_type","trial_index","time_elapsed","internal_node_id","subject_id","study_id","session_id","task","rt","stimulus","response","item","answer","correct","spm_correct","spm_rt","view_history","fiar_detect_rt","fiar_detect_correct","total_correct_fiar_detect","post_trial_gap","choices","mouse_click","stim_duration","block_duration","timing_post_trial","current_position","tol_num_moves_made","tol_target","tol_problem_id","tol_rt","key_press","possible_responses","tol_correct","preplanning","tol_rt_per_trial","tol_min_moves"
"true","false","[]","[]","[]","preload","0","8706","0.0-0.0","5d083644613fce001b2a1001","B2","batch2","","","","","","","","","","","","","","","","","","","","","","","","","","","","","",""
"true","","","","","fullscreen","1","26314","0.0-1.0-0.0","5d083644613fce001b2a1001","B2","batch2","","","","","","","","","","","","","","","","","","","","","","","","","","","","","",""
"true","","","","","fullscreen","2","28191","0.0-2.0-0.0","5d083644613fce001b2a1001","B2","batch2","spm_fullscreen","","","","","","","","","","","","","","","","","","","","","","","","","","","","",""
"","","","","","html-button-response","3","29118","0.0-2.0-1.0","5d083644613fce001b2a1001","B2","batch2","","925.7999999523163","<p class = block-text><b>Instructions</b> <br>This is a widely used intelligence test in research. <br>In this test, a figure with a missing piece will be presented.<br>Below the figure are alternative pieces to complete the figure, only one of which is correct.<br> Different figures might involve different principles for obtaining the missing piece<br>Your job is to select the most logical piece to complete the figure.</p>","0","","","","","","","","","","","","","","","","","","","","","","","","","",""
"","","","","","html-keyboard-response","4","29920","0.0-2.0-2.0-0.0","5d083644613fce001b2a1001","B2","batch2","spm_show_trial_num","null","<p class=block-text>Trial 1 out of 60</p>","null","","","","","","","","","","","","","","","","","","","","","","","","","",""
"","","","","","image-button-response","5","35598","0.0-2.0-2.0-1.0","5d083644613fce001b2a1001","B2","batch2","spm_respsonse","5670.199999988079","img/question_1_1.jpeg","3","mat_01","4","1","1","5670.199999988079","","","","","","","","","","","","","","","","","","","","",""
"","","","","","html-keyboard-response","6","36650","0.0-2.0-2.0-0.1","5d083644613fce001b2a1001","B2","batch2","spm_show_trial_num","null","<p class=block-text>Trial 2 out of 60</p>","null","","","","","","","","","","","","","","","","","","","","","","","","","",""
"","","","","","image-button-response","7","39350","0.0-2.0-2.0-1.1","5d083644613fce001b2a1001","B2","batch2","spm_respsonse","2697.699999988079","img/question_1_2.jpeg","4","mat_02","5","1","1","2697.699999988079","","","","","","","","","","","","","","","","","","","","",""
"","","","","","html-keyboard-response","8","40403","0.0-2.0-2.0-0.2","5d083644613fce001b2a1001","B2","batch2","spm_show_trial_num","null","<p class=block-text>Trial 3 out of 60</p>","null","","","","","","","","","","","","","","","","","","","","","","","","","",""
"","","","","","image-button-response","9","41894","0.0-2.0-2.0-1.2","5d083644613fce001b2a1001","B2","batch2","spm_respsonse","1489.300000011921","img/question_1_3.jpeg","0","mat_03","1","1","1","1489.300000011921","","","","","","","","","","","","","","","","","","","","",""
"","","","","","html-keyboard-response","10","42946","0.0-2.0-2.0-0.3","5d083644613fce001b2a1001","B2","batch2","spm_show_trial_num","null","<p class=block-text>Trial 4 out of 60</p>","null","","","","","","","","","","","","","","","","","","","","","","","","","",""
"","","","","","image-button-response","11","45734","0.0-2.0-2.0-1.3","5d083644613fce001b2a1001","B2","batch2","spm_respsonse","2786.7999999523163","img/question_1_4.jpeg","1","mat_04","2","1","1","2786.7999999523163","","","","","","","","","","","","","","","","","","","","",""
"","","","","","html-keyboard-response","12","46787","0.0-2.0-2.0-0.4","5d083644613fce001b2a1001","B2","batch2","spm_show_trial_num","null","<p class=block-text>Trial 5 out of 60</p>","null","","","","","","","","","","","","","","","","","","","","","","","","","",""
"","","","","","image-button-response","13","49726","0.0-2.0-2.0-1.4","5d083644613fce001b2a1001","B2","batch2","spm_respsonse","2937.900000035763","img/question_1_5.jpeg","5","mat_05","6","1","1","2937.900000035763","","","","","","","","","","","","","","","","","","","","",""
"","","","","","html-keyboard-response","14","50780","0.0-2.0-2.0-0.5","5d083644613fce001b2a1001","B2","batch2","spm_show_trial_num","null","<p class=block-text>Trial 6 out of 60</p>","null","","","","","","","","","","","","","","","","","","","","","","","","","",""
"","","","","","image-button-response","15","61239","0.0-2.0-2.0-1.5","5d083644613fce001b2a1001","B2","batch2","spm_respsonse","10456.799999952316","img/question_1_6.jpeg","2","mat_06","3","1","1","10456.799999952316","","","","","","","","","","","","","","","","","","","","",""
"","","","","","html-keyboard-response","16","62292","0.0-2.0-2.0-0.6","5d083644613fce001b2a1001","B2","batch2","spm_show_trial_num","null","<p class=block-text>Trial 7 out of 60</p>","null","","","","","","","","","","","","","","","","","","","","","","","","","",""
"","","","","","image-button-response","17","66215","0.0-2.0-2.0-1.6","5d083644613fce001b2a1001","B2","batch2","spm_respsonse","3920.300000011921","img/question_1_7.jpeg","5","mat_07","6","1","1","3920.300000011921","","","","","","","","","","","","","","","","","","","","",""
"","","","","","html-keyboard-response","18","67267","0.0-2.0-2.0-0.7","5d083644613fce001b2a1001","B2","batch2","spm_show_trial_num","null","<p class=block-text>Trial 8 out of 60</p>","null","","","","","","","","","","","","","","","","","","","","","","","","","",""
"","","","","","image-button-response","19","70590","0.0-2.0-2.0-1.7","5d083644613fce001b2a1001","B2","batch2","spm_respsonse","3321.7000000476837","img/question_1_8.jpeg","1","mat_08","2","1","1","3321.7000000476837","","","","","","","","","","","","","","","","","","","","",""
"","","","","","html-keyboard-response","20","71651","0.0-2.0-2.0-0.8","5d083644613fce001b2a1001","B2","batch2","spm_show_trial_num","null","<p class=block-text>Trial 9 out of 60</p>","null","","","","","","","","","","","","","","","","","","","","","","","","","",""
"","","","","","image-button-response","21","77794","0.0-2.0-2.0-1.8","5d083644613fce001b2a1001","B2","batch2","spm_respsonse","6139.900000035763","img/question_1_9.jpeg","0","mat_09","1","1","1","6139.900000035763","","","","","","","","","","","","","","","","","","","","",""
"","","","","","html-keyboard-response","22","78847","0.0-2.0-2.0-0.9","5d083644613fce001b2a1001","B2","batch2","spm_show_trial_num","null","<p class=block-text>Trial 10 out of 60</p>","null","","","","","","","","","","","","","","","","","","","","","","","","","",""
"","","","","","image-button-response","23","81647","0.0-2.0-2.0-1.9","5d083644613fce001b2a1001","B2","batch2","spm_respsonse","2795","img/question_1_10.jpeg","2","mat_10","3","1","1","2795","","","","","","","","","","","","","","","","","","","","",""
"","","","","","html-keyboard-response","24","82700","0.0-2.0-2.0-0.10","5d083644613fce001b2a1001","B2","batch2","spm_show_trial_num","null","<p class=block-text>Trial 11 out of 60</p>","null","","","","","","","","","","","","","","","","","","","","","","","","","",""
"","","","","","image-button-response","25","89455","0.0-2.0-2.0-1.10","5d083644613fce001b2a1001","B2","batch2","spm_respsonse","6750.599999964237","img/question_1_11.jpeg","3","mat_11","4","1","1","6750.599999964237","","","","","","","","","","","","","","","","","","","","",""
"","","","","","html-keyboard-response","26","90507","0.0-2.0-2.0-0.11","5d083644613fce001b2a1001","B2","batch2","spm_show_trial_num","null","<p class=block-text>Trial 12 out of 60</p>","null","","","","","","","","","","","","","","","","","","","","","","","","","",""
"","","","","","image-button-response","27","96359","0.0-2.0-2.0-1.11","5d083644613fce001b2a1001","B2","batch2","spm_respsonse","5848.800000011921","img/question_1_12.jpeg","0","mat_12","5","0","0","5848.800000011921","","","","","","","","","","","","","","","","","","","","",""
"","","","","","html-keyboard-response","28","97417","0.0-2.0-2.0-0.12","5d083644613fce001b2a1001","B2","batch2","spm_show_trial_num","null","<p class=block-text>Trial 13 out of 60</p>","null","","","","","","","","","","","","","","","","","","","","","","","","","",""
"","","","","","image-button-response","29","99398","0.0-2.0-2.0-1.12","5d083644613fce001b2a1001","B2","batch2","spm_respsonse","1977.199999988079","img/question_2_1.jpeg","1","mat_13","2","1","1","1977.199999988079","","","","","","","","","","","","","","","","","","","","",""
"","","","","","html-keyboard-response","30","100452","0.0-2.0-2.0-0.13","5d083644613fce001b2a1001","B2","batch2","spm_show_trial_num","null","<p class=block-text>Trial 14 out of 60</p>","null","","","","","","","","","","","","","","","","","","","","","","","","","",""
"","","","","","image-button-response","31","104598","0.0-2.0-2.0-1.13","5d083644613fce001b2a1001","B2","batch2","spm_respsonse","4144.100000023842","img/question_2_2.jpeg","5","mat_14","6","1","1","4144.100000023842","","","","","","","","","","","","","","","","","","","","",""
"","","","","","html-keyboard-response","32","105651","0.0-2.0-2.0-0.14","5d083644613fce001b2a1001","B2","batch2","spm_show_trial_num","null","<p class=block-text>Trial 15 out of 60</p>","null","","","","","","","","","","","","","","","","","","","","","","","","","",""
"","","","","","image-button-response","33","108063","0.0-2.0-2.0-1.14","5d083644613fce001b2a1001","B2","batch2","spm_respsonse","2406.800000011921","img/question_2_3.jpeg","0","mat_15","1","1","1","2406.800000011921","","","","","","","","","","","","","","","","","","","","",""
"","","","","","html-keyboard-response","34","109116","0.0-2.0-2.0-0.15","5d083644613fce001b2a1001","B2","batch2","spm_show_trial_num","null","<p class=block-text>Trial 16 out of 60</p>","null","","","","","","","","","","","","","","","","","","","","","","","","","",""
"","","","","","image-button-response","35","113054","0.0-2.0-2.0-1.15","5d083644613fce001b2a1001","B2","batch2","spm_respsonse","3933.199999988079","img/question_2_4.jpeg","1","mat_16","2","1","1","3933.199999988079","","","","","","","","","","","","","","","","","","","","",""
"","","","","","html-keyboard-response","36","114108","0.0-2.0-2.0-0.16","5d083644613fce001b2a1001","B2","batch2","spm_show_trial_num","null","<p class=block-text>Trial 17 out of 60</p>","null","","","","","","","","","","","","","","","","","","","","","","","","","",""
"","","","","","image-button-response","37","117727","0.0-2.0-2.0-1.16","5d083644613fce001b2a1001","B2","batch2","spm_respsonse","3611.899999976158","img/question_2_5.jpeg","0","mat_17","1","1","1","3611.899999976158","","","","","","","","","","","","","","","","","","","","",""
"","","","","","html-keyboard-response","38","118778","0.0-2.0-2.0-0.17","5d083644613fce001b2a1001","B2","batch2","spm_show_trial_num","null","<p class=block-text>Trial 18 out of 60</p>","null","","","","","","","","","","","","","","","","","","","","","","","","","",""
"","","","","","image-button-response","39","124191","0.0-2.0-2.0-1.17","5d083644613fce001b2a1001","B2","batch2","spm_respsonse","5405.5","img/question_2_6.jpeg","2","mat_18","3","1","1","5405.5","","","","","","","","","","","","","","","","","","","","",""
"","","","","","html-keyboard-response","40","125244","0.0-2.0-2.0-0.18","5d083644613fce001b2a1001","B2","batch2","spm_show_trial_num","null","<p class=block-text>Trial 19 out of 60</p>","null","","","","","","","","","","","","","","","","","","","","","","","","","",""
"","","","","","image-button-response","41","131376","0.0-2.0-2.0-1.18","5d083644613fce001b2a1001","B2","batch2","spm_respsonse","6126","img/question_2_7.jpeg","4","mat_19","5","1","1","6126","","","","","","","","","","","","","","","","","","","","",""
"","","","","","html-keyboard-response","42","132429","0.0-2.0-2.0-0.19","5d083644613fce001b2a1001","B2","batch2","spm_show_trial_num","null","<p class=block-text>Trial 20 out of 60</p>","null","","","","","","","","","","","","","","","","","","","","","","","","","",""
"","","","","","image-button-response","43","142535","0.0-2.0-2.0-1.19","5d083644613fce001b2a1001","B2","batch2","spm_respsonse","10102.300000011921","img/question_2_8.jpeg","5","mat_20","6","1","1","10102.300000011921","","","","","","","","","","","","","","","","","","","","",""
"","","","","","html-keyboard-response","44","143587","0.0-2.0-2.0-0.20","5d083644613fce001b2a1001","B2","batch2","spm_show_trial_num","null","<p class=block-text>Trial 21 out of 60</p>","null","","","","","","","","","","","","","","","","","","","","","","","","","",""
"","","","","","image-button-response","45","147814","0.0-2.0-2.0-1.20","5d083644613fce001b2a1001","B2","batch2","spm_respsonse","4224.599999964237","img/question_2_9.jpeg","3","mat_21","4","1","1","4224.599999964237","","","","","","","","","","","","","","","","","","","","",""
"","","","","","html-keyboard-response","46","148869","0.0-2.0-2.0-0.21","5d083644613fce001b2a1001","B2","batch2","spm_show_trial_num","null","<p class=block-text>Trial 22 out of 60</p>","null","","","","","","","","","","","","","","","","","","","","","","","","","",""
"","","","","","image-button-response","47","155214","0.0-2.0-2.0-1.21","5d083644613fce001b2a1001","B2","batch2","spm_respsonse","6342","img/question_2_10.jpeg","2","mat_22","3","1","1","6342","","","","","","","","","","","","","","","","","","","","",""
"","","","","","html-keyboard-response","48","156267","0.0-2.0-2.0-0.22","5d083644613fce001b2a1001","B2","batch2","spm_show_trial_num","null","<p class=block-text>Trial 23 out of 60</p>","null","","","","","","","","","","","","","","","","","","","","","","","","","",""
"","","","","","image-button-response","49","160662","0.0-2.0-2.0-1.22","5d083644613fce001b2a1001","B2","batch2","spm_respsonse","4393.399999976158","img/question_2_11.jpeg","3","mat_23","4","1","1","4393.399999976158","","","","","","","","","","","","","","","","","","","","",""
"","","","","","html-keyboard-response","50","161714","0.0-2.0-2.0-0.23","5d083644613fce001b2a1001","B2","batch2","spm_show_trial_num","null","<p class=block-text>Trial 24 out of 60</p>","null","","","","","","","","","","","","","","","","","","","","","","","","","",""
"","","","","","image-button-response","51","171487","0.0-2.0-2.0-1.23","5d083644613fce001b2a1001","B2","batch2","spm_respsonse","9770.699999988079","img/question_2_12.jpeg","4","mat_24","5","1","1","9770.699999988079","","","","","","","","","","","","","","","","","","","","",""
"","","","","","html-button-response","52","173487","0.0-2.0-3.0","5d083644613fce001b2a1001","B2","batch2","attention_check","1746.7999999523163","<p class = block-text>Attention check: Please choose 1<br></p>","0","","","true","","","","","","","","","","","","","","","","","","","","","","",""
"","","","","","html-keyboard-response","53","174288","0.0-2.0-4.0-0.0","5d083644613fce001b2a1001","B2","batch2","spm_show_trial_num","null","<p class=block-text>Trial 25 out of 60</p>","null","","","","","","","","","","","","","","","","","","","","","","","","","",""
"","","","","","image-button-response","54","176846","0.0-2.0-4.0-1.0","5d083644613fce001b2a1001","B2","batch2","spm_respsonse","2554.099999964237","img/question_3_1.jpeg","7","mat_25","8","1","1","2554.099999964237","","","","","","","","","","","","","","","","","","","","",""
"","","","","","html-keyboard-response","55","177898","0.0-2.0-4.0-0.1","5d083644613fce001b2a1001","B2","batch2","spm_show_trial_num","null","<p class=block-text>Trial 26 out of 60</p>","null","","","","","","","","","","","","","","","","","","","","","","","","","",""
"","","","","","image-button-response","56","183439","0.0-2.0-4.0-1.1","5d083644613fce001b2a1001","B2","batch2","spm_respsonse","5536.100000023842","img/question_3_2.jpeg","1","mat_26","2","1","1","5536.100000023842","","","","","","","","","","","","","","","","","","","","",""
"","","","","","html-keyboard-response","57","184492","0.0-2.0-4.0-0.2","5d083644613fce001b2a1001","B2","batch2","spm_show_trial_num","null","<p class=block-text>Trial 27 out of 60</p>","null","","","","","","","","","","","","","","","","","","","","","","","","","",""
"","","","","","image-button-response","58","191455","0.0-2.0-4.0-1.2","5d083644613fce001b2a1001","B2","batch2","spm_respsonse","6961.400000035763","img/question_3_3.jpeg","2","mat_27","3","1","1","6961.400000035763","","","","","","","","","","","","","","","","","","","","",""
"","","","","","html-keyboard-response","59","192507","0.0-2.0-4.0-0.3","5d083644613fce001b2a1001","B2","batch2","spm_show_trial_num","null","<p class=block-text>Trial 28 out of 60</p>","null","","","","","","","","","","","","","","","","","","","","","","","","","",""
"","","","","","image-button-response","60","199863","0.0-2.0-4.0-1.3","5d083644613fce001b2a1001","B2","batch2","spm_respsonse","7353.699999988079","img/question_3_4.jpeg","7","mat_28","8","1","1","7353.699999988079","","","","","","","","","","","","","","","","","","","","",""
"","","","","","html-keyboard-response","61","200916","0.0-2.0-4.0-0.4","5d083644613fce001b2a1001","B2","batch2","spm_show_trial_num","null","<p class=block-text>Trial 29 out of 60</p>","null","","","","","","","","","","","","","","","","","","","","","","","","","",""
"","","","","","image-button-response","62","206502","0.0-2.0-4.0-1.4","5d083644613fce001b2a1001","B2","batch2","spm_respsonse","5583.599999964237","img/question_3_5.jpeg","6","mat_29","7","1","1","5583.599999964237","","","","","","","","","","","","","","","","","","","","",""
"","","","","","html-keyboard-response","63","207554","0.0-2.0-4.0-0.5","5d083644613fce001b2a1001","B2","batch2","spm_show_trial_num","null","<p class=block-text>Trial 30 out of 60</p>","null","","","","","","","","","","","","","","","","","","","","","","","","","",""
"","","","","","image-button-response","64","210694","0.0-2.0-4.0-1.5","5d083644613fce001b2a1001","B2","batch2","spm_respsonse","3138.5","img/question_3_6.jpeg","3","mat_30","4","1","1","3138.5","","","","","","","","","","","","","","","","","","","","",""
"","","","","","html-keyboard-response","65","211747","0.0-2.0-4.0-0.6","5d083644613fce001b2a1001","B2","batch2","spm_show_trial_num","null","<p class=block-text>Trial 31 out of 60</p>","null","","","","","","","","","","","","","","","","","","","","","","","","","",""
"","","","","","image-button-response","66","218238","0.0-2.0-4.0-1.6","5d083644613fce001b2a1001","B2","batch2","spm_respsonse","6487.699999988079","img/question_3_7.jpeg","4","mat_31","5","1","1","6487.699999988079","","","","","","","","","","","","","","","","","","","","",""
"","","","","","html-keyboard-response","67","219291","0.0-2.0-4.0-0.7","5d083644613fce001b2a1001","B2","batch2","spm_show_trial_num","null","<p class=block-text>Trial 32 out of 60</p>","null","","","","","","","","","","","","","","","","","","","","","","","","","",""
"","","","","","image-button-response","68","234118","0.0-2.0-4.0-1.7","5d083644613fce001b2a1001","B2","batch2","spm_respsonse","14824.300000011921","img/question_3_8.jpeg","0","mat_32","1","1","1","14824.300000011921","","","","","","","","","","","","","","","","","","","","",""
"","","","","","html-keyboard-response","69","235171","0.0-2.0-4.0-0.8","5d083644613fce001b2a1001","B2","batch2","spm_show_trial_num","null","<p class=block-text>Trial 33 out of 60</p>","null","","","","","","","","","","","","","","","","","","","","","","","","","",""
"","","","","","image-button-response","70","244646","0.0-2.0-4.0-1.8","5d083644613fce001b2a1001","B2","batch2","spm_respsonse","9472.300000011921","img/question_3_9.jpeg","6","mat_33","7","1","1","9472.300000011921","","","","","","","","","","","","","","","","","","","","",""
"","","","","","html-keyboard-response","71","245698","0.0-2.0-4.0-0.9","5d083644613fce001b2a1001","B2","batch2","spm_show_trial_num","null","<p class=block-text>Trial 34 out of 60</p>","null","","","","","","","","","","","","","","","","","","","","","","","","","",""
"","","","","","image-button-response","72","267782","0.0-2.0-4.0-1.9","5d083644613fce001b2a1001","B2","batch2","spm_respsonse","22078.30000001192","img/question_3_10.jpeg","7","mat_34","6","0","0","22078.30000001192","","","","","","","","","","","","","","","","","","","","",""
"","","","","","html-keyboard-response","73","268834","0.0-2.0-4.0-0.10","5d083644613fce001b2a1001","B2","batch2","spm_show_trial_num","null","<p class=block-text>Trial 35 out of 60</p>","null","","","","","","","","","","","","","","","","","","","","","","","","","",""
"","","","","","image-button-response","74","286133","0.0-2.0-4.0-1.10","5d083644613fce001b2a1001","B2","batch2","spm_respsonse","17296.19999998808","img/question_3_11.jpeg","4","mat_35","1","0","0","17296.19999998808","","","","","","","","","","","","","","","","","","","","",""
"","","","","","html-keyboard-response","75","287186","0.0-2.0-4.0-0.11","5d083644613fce001b2a1001","B2","batch2","spm_show_trial_num","null","<p class=block-text>Trial 36 out of 60</p>","null","","","","","","","","","","","","","","","","","","","","","","","","","",""
"","","","","","image-button-response","76","323303","0.0-2.0-4.0-1.11","5d083644613fce001b2a1001","B2","batch2","spm_respsonse","36114","img/question_3_12.jpeg","1","mat_36","2","1","1","36114","","","","","","","","","","","","","","","","","","","","",""
"","","","","","html-keyboard-response","77","324356","0.0-2.0-4.0-0.12","5d083644613fce001b2a1001","B2","batch2","spm_show_trial_num","null","<p class=block-text>Trial 37 out of 60</p>","null","","","","","","","","","","","","","","","","","","","","","","","","","",""
"","","","","","image-button-response","78","326742","0.0-2.0-4.0-1.12","5d083644613fce001b2a1001","B2","batch2","spm_respsonse","2384.699999988079","img/question_4_1.jpeg","2","mat_37","3","1","1","2384.699999988079","","","","","","","","","","","","","","","","","","","","",""
"","","","","","html-keyboard-response","79","327793","0.0-2.0-4.0-0.13","5d083644613fce001b2a1001","B2","batch2","spm_show_trial_num","null","<p class=block-text>Trial 38 out of 60</p>","null","","","","","","","","","","","","","","","","","","","","","","","","","",""
"","","","","","image-button-response","80","334880","0.0-2.0-4.0-1.13","5d083644613fce001b2a1001","B2","batch2","spm_respsonse","7084.199999988079","img/question_4_2.jpeg","3","mat_38","4","1","1","7084.199999988079","","","","","","","","","","","","","","","","","","","","",""
"","","","","","html-keyboard-response","81","335946","0.0-2.0-4.0-0.14","5d083644613fce001b2a1001","B2","batch2","spm_show_trial_num","null","<p class=block-text>Trial 39 out of 60</p>","null","","","","","","","","","","","","","","","","","","","","","","","","","",""
"","","","","","image-button-response","82","353822","0.0-2.0-4.0-1.14","5d083644613fce001b2a1001","B2","batch2","spm_respsonse","17873.899999976158","img/question_4_3.jpeg","2","mat_39","3","1","1","17873.899999976158","","","","","","","","","","","","","","","","","","","","",""
"","","","","","html-keyboard-response","83","354874","0.0-2.0-4.0-0.15","5d083644613fce001b2a1001","B2","batch2","spm_show_trial_num","null","<p class=block-text>Trial 40 out of 60</p>","null","","","","","","","","","","","","","","","","","","","","","","","","","",""
"","","","","","image-button-response","84","362862","0.0-2.0-4.0-1.15","5d083644613fce001b2a1001","B2","batch2","spm_respsonse","7986","img/question_4_4.jpeg","6","mat_40","7","1","1","7986","","","","","","","","","","","","","","","","","","","","",""
"","","","","","html-keyboard-response","85","363915","0.0-2.0-4.0-0.16","5d083644613fce001b2a1001","B2","batch2","spm_show_trial_num","null","<p class=block-text>Trial 41 out of 60</p>","null","","","","","","","","","","","","","","","","","","","","","","","","","",""
"","","","","","image-button-response","86","369413","0.0-2.0-4.0-1.16","5d083644613fce001b2a1001","B2","batch2","spm_respsonse","5497.200000047684","img/question_4_5.jpeg","7","mat_41","8","1","1","5497.200000047684","","","","","","","","","","","","","","","","","","","","",""
"","","","","","html-keyboard-response","87","370464","0.0-2.0-4.0-0.17","5d083644613fce001b2a1001","B2","batch2","spm_show_trial_num","null","<p class=block-text>Trial 42 out of 60</p>","null","","","","","","","","","","","","","","","","","","","","","","","","","",""
"","","","","","image-button-response","88","379941","0.0-2.0-4.0-1.17","5d083644613fce001b2a1001","B2","batch2","spm_respsonse","9475.299999952316","img/question_4_6.jpeg","5","mat_42","6","1","1","9475.299999952316","","","","","","","","","","","","","","","","","","","","",""
"","","","","","html-keyboard-response","89","380993","0.0-2.0-4.0-0.18","5d083644613fce001b2a1001","B2","batch2","spm_show_trial_num","null","<p class=block-text>Trial 43 out of 60</p>","null","","","","","","","","","","","","","","","","","","","","","","","","","",""
"","","","","","image-button-response","90","387069","0.0-2.0-4.0-1.18","5d083644613fce001b2a1001","B2","batch2","spm_respsonse","6074.599999964237","img/question_4_7.jpeg","4","mat_43","5","1","1","6074.599999964237","","","","","","","","","","","","","","","","","","","","",""
"","","","","","html-keyboard-response","91","388131","0.0-2.0-4.0-0.19","5d083644613fce001b2a1001","B2","batch2","spm_show_trial_num","null","<p class=block-text>Trial 44 out of 60</p>","null","","","","","","","","","","","","","","","","","","","","","","","","","",""
"","","","","","image-button-response","92","397173","0.0-2.0-4.0-1.19","5d083644613fce001b2a1001","B2","batch2","spm_respsonse","9039.899999976158","img/question_4_8.jpeg","3","mat_44","4","1","1","9039.899999976158","","","","","","","","","","","","","","","","","","","","",""
"","","","","","html-keyboard-response","93","398225","0.0-2.0-4.0-0.20","5d083644613fce001b2a1001","B2","batch2","spm_show_trial_num","null","<p class=block-text>Trial 45 out of 60</p>","null","","","","","","","","","","","","","","","","","","","","","","","","","",""
"","","","","","image-button-response","94","409238","0.0-2.0-4.0-1.20","5d083644613fce001b2a1001","B2","batch2","spm_respsonse","11010.300000011921","img/question_4_9.jpeg","0","mat_45","1","1","1","11010.300000011921","","","","","","","","","","","","","","","","","","","","",""
"","","","","","html-keyboard-response","95","410290","0.0-2.0-4.0-0.21","5d083644613fce001b2a1001","B2","batch2","spm_show_trial_num","null","<p class=block-text>Trial 46 out of 60</p>","null","","","","","","","","","","","","","","","","","","","","","","","","","",""
"","","","","","image-button-response","96","423463","0.0-2.0-4.0-1.21","5d083644613fce001b2a1001","B2","batch2","spm_respsonse","13167.5","img/question_4_10.jpeg","4","mat_46","2","0","0","13167.5","","","","","","","","","","","","","","","","","","","","",""
"","","","","","html-keyboard-response","97","424514","0.0-2.0-4.0-0.22","5d083644613fce001b2a1001","B2","batch2","spm_show_trial_num","null","<p class=block-text>Trial 47 out of 60</p>","null","","","","","","","","","","","","","","","","","","","","","","","","","",""
"","","","","","image-button-response","98","438689","0.0-2.0-4.0-1.22","5d083644613fce001b2a1001","B2","batch2","spm_respsonse","14172.400000035763","img/question_4_11.jpeg","5","mat_47","5","0","0","14172.400000035763","","","","","","","","","","","","","","","","","","","","",""
"","","","","","html-keyboard-response","99","439755","0.0-2.0-4.0-0.23","5d083644613fce001b2a1001","B2","batch2","spm_show_trial_num","null","<p class=block-text>Trial 48 out of 60</p>","null","","","","","","","","","","","","","","","","","","","","","","","","","",""
"","","","","","image-button-response","100","453006","0.0-2.0-4.0-1.23","5d083644613fce001b2a1001","B2","batch2","spm_respsonse","13249.300000011921","img/question_4_12.jpeg","0","mat_48","6","0","0","13249.300000011921","","","","","","","","","","","","","","","","","","","","",""
"","","","","","html-keyboard-response","101","454059","0.0-2.0-4.0-0.24","5d083644613fce001b2a1001","B2","batch2","spm_show_trial_num","null","<p class=block-text>Trial 49 out of 60</p>","null","","","","","","","","","","","","","","","","","","","","","","","","","",""
"","","","","","image-button-response","102","465086","0.0-2.0-4.0-1.24","5d083644613fce001b2a1001","B2","batch2","spm_respsonse","11022.899999976158","img/question_5_1.jpeg","6","mat_49","7","1","1","11022.899999976158","","","","","","","","","","","","","","","","","","","","",""
"","","","","","html-keyboard-response","103","466138","0.0-2.0-4.0-0.25","5d083644613fce001b2a1001","B2","batch2","spm_show_trial_num","null","<p class=block-text>Trial 50 out of 60</p>","null","","","","","","","","","","","","","","","","","","","","","","","","","",""
"","","","","","image-button-response","104","491230","0.0-2.0-4.0-1.25","5d083644613fce001b2a1001","B2","batch2","spm_respsonse","25090.600000023842","img/question_5_2.jpeg","5","mat_50","6","1","1","25090.600000023842","","","","","","","","","","","","","","","","","","","","",""
"","","","","","html-keyboard-response","105","492282","0.0-2.0-4.0-0.26","5d083644613fce001b2a1001","B2","batch2","spm_show_trial_num","null","<p class=block-text>Trial 51 out of 60</p>","null","","","","","","","","","","","","","","","","","","","","","","","","","",""
"","","","","","image-button-response","106","506504","0.0-2.0-4.0-1.26","5d083644613fce001b2a1001","B2","batch2","spm_respsonse","14217.600000023842","img/question_5_3.jpeg","7","mat_51","8","1","1","14217.600000023842","","","","","","","","","","","","","","","","","","","","",""
"","","","","","html-keyboard-response","107","507555","0.0-2.0-4.0-0.27","5d083644613fce001b2a1001","B2","batch2","spm_show_trial_num","null","<p class=block-text>Trial 52 out of 60</p>","null","","","","","","","","","","","","","","","","","","","","","","","","","",""
"","","","","","image-button-response","108","520278","0.0-2.0-4.0-1.27","5d083644613fce001b2a1001","B2","batch2","spm_respsonse","12720.600000023842","img/question_5_4.jpeg","1","mat_52","2","1","1","12720.600000023842","","","","","","","","","","","","","","","","","","","","",""
"","","","","","html-keyboard-response","109","521330","0.0-2.0-4.0-0.28","5d083644613fce001b2a1001","B2","batch2","spm_show_trial_num","null","<p class=block-text>Trial 53 out of 60</p>","null","","","","","","","","","","","","","","","","","","","","","","","","","",""
"","","","","","image-button-response","110","525494","0.0-2.0-4.0-1.28","5d083644613fce001b2a1001","B2","batch2","spm_respsonse","4159.400000035763","img/question_5_5.jpeg","6","mat_53","1","0","0","4159.400000035763","","","","","","","","","","","","","","","","","","","","",""
"","","","","","html-keyboard-response","111","526546","0.0-2.0-4.0-0.29","5d083644613fce001b2a1001","B2","batch2","spm_show_trial_num","null","<p class=block-text>Trial 54 out of 60</p>","null","","","","","","","","","","","","","","","","","","","","","","","","","",""
"","","","","","image-button-response","112","543958","0.0-2.0-4.0-1.29","5d083644613fce001b2a1001","B2","batch2","spm_respsonse","17410.69999998808","img/question_5_6.jpeg","1","mat_54","5","0","0","17410.69999998808","","","","","","","","","","","","","","","","","","","","",""
"","","","","","html-keyboard-response","113","545012","0.0-2.0-4.0-0.30","5d083644613fce001b2a1001","B2","batch2","spm_show_trial_num","null","<p class=block-text>Trial 55 out of 60</p>","null","","","","","","","","","","","","","","","","","","","","","","","","","",""
"","","","","","image-button-response","114","564741","0.0-2.0-4.0-1.30","5d083644613fce001b2a1001","B2","batch2","spm_respsonse","19727","img/question_5_7.jpeg","3","mat_55","1","0","0","19727","","","","","","","","","","","","","","","","","","","","",""
"","","","","","html-keyboard-response","115","565793","0.0-2.0-4.0-0.31","5d083644613fce001b2a1001","B2","batch2","spm_show_trial_num","null","<p class=block-text>Trial 56 out of 60</p>","null","","","","","","","","","","","","","","","","","","","","","","","","","",""
"","","","","","image-button-response","116","613688","0.0-2.0-4.0-1.31","5d083644613fce001b2a1001","B2","batch2","spm_respsonse","47891.200000047684","img/question_5_8.jpeg","5","mat_56","6","1","1","47891.200000047684","","","","","","","","","","","","","","","","","","","","",""
"","","","","","html-keyboard-response","117","614745","0.0-2.0-4.0-0.32","5d083644613fce001b2a1001","B2","batch2","spm_show_trial_num","null","<p class=block-text>Trial 57 out of 60</p>","null","","","","","","","","","","","","","","","","","","","","","","","","","",""
"","","","","","image-button-response","118","623613","0.0-2.0-4.0-1.32","5d083644613fce001b2a1001","B2","batch2","spm_respsonse","8864.099999964237","img/question_5_9.jpeg","0","mat_57","3","0","0","8864.099999964237","","","","","","","","","","","","","","","","","","","","",""
"","","","","","html-keyboard-response","119","624665","0.0-2.0-4.0-0.33","5d083644613fce001b2a1001","B2","batch2","spm_show_trial_num","null","<p class=block-text>Trial 58 out of 60</p>","null","","","","","","","","","","","","","","","","","","","","","","","","","",""
"","","","","","image-button-response","120","639934","0.0-2.0-4.0-1.33","5d083644613fce001b2a1001","B2","batch2","spm_respsonse","15266.400000035763","img/question_5_10.jpeg","5","mat_58","2","0","0","15266.400000035763","","","","","","","","","","","","","","","","","","","","",""
"","","","","","html-keyboard-response","121","640988","0.0-2.0-4.0-0.34","5d083644613fce001b2a1001","B2","batch2","spm_show_trial_num","null","<p class=block-text>Trial 59 out of 60</p>","null","","","","","","","","","","","","","","","","","","","","","","","","","",""
"","","","","","image-button-response","122","657845","0.0-2.0-4.0-1.34","5d083644613fce001b2a1001","B2","batch2","spm_respsonse","16854.80000001192","img/question_5_11.jpeg","6","mat_59","4","0","0","16854.80000001192","","","","","","","","","","","","","","","","","","","","",""
"","","","","","html-keyboard-response","123","658902","0.0-2.0-4.0-0.35","5d083644613fce001b2a1001","B2","batch2","spm_show_trial_num","null","<p class=block-text>Trial 60 out of 60</p>","null","","","","","","","","","","","","","","","","","","","","","","","","","",""
"","","","","","image-button-response","124","671925","0.0-2.0-4.0-1.35","5d083644613fce001b2a1001","B2","batch2","spm_respsonse","13021.300000011921","img/question_5_12.jpeg","7","mat_60","5","0","0","13021.300000011921","","","","","","","","","","","","","","","","","","","","",""
"","","","","","html-button-response","125","673605","0.0-2.0-5.0","5d083644613fce001b2a1001","B2","batch2","spm_goodbye","1425.199999988079","<p class= block-text>This concludes the Standard Progressive Matrix game. Thank you for your responses!<br> When you are ready, click the button continue</p>","0","","","","","","","","","","","","","","","","","","","","","","","","","",""
"true","","","","","fullscreen","126","675481","0.0-3.0-0.0","5d083644613fce001b2a1001","B2","batch2","","","","","","","","","","","","","","","","","","","","","","","","","","","","","",""
"","","","","","instructions","127","689997","0.0-3.0-1.0-0.0","5d083644613fce001b2a1001","B2","batch2","","14515.5","","","","","","","","[{""page_index"":0,""viewing_time"":10515},{""page_index"":1,""viewing_time"":4000.300000011921}]","","","","","","","","","","","","","","","","","","","",""
"","","","","","html-button-response","128","691301","0.0-3.0-1.0-1.0-0.0","5d083644613fce001b2a1001","B2","batch2","pattern_enter_quiz","1302.699999988079","<p class=block-text> Let's answer a few questions <br>","0","","","","","","","","","","","","","","","","","","","","","","","","","",""
"","","","","","html-button-response","129","694469","0.0-3.0-1.0-1.0-1.0","5d083644613fce001b2a1001","B2","batch2","pattern_quiz","3167.300000011921","<p class = block-text>True or False: You will have as much time as you want to make each choice. <br></p>","0","","","false","","","","","","","","","","","","","","","","","","","","","","",""
"","","","","","html-button-response","130","695733","0.0-3.0-1.0-1.0-2.0","5d083644613fce001b2a1001","B2","batch2","pattern_quiz_feedback","1261.8999999761581","<p class = block-text>Incorrect. Remember, You should make your choice as fast as you can.</p>","0","","","","","","","","","","","","","","","","","","","","","","","","","",""
"","","","","","html-button-response","131","698717","0.0-3.0-1.0-1.0-3.0","5d083644613fce001b2a1001","B2","batch2","pattern_quiz","2983.399999976158","<p class = block-text>True or False: You will look for 4 pieces in black or white color connected in a row either horizontally, vertically or diagonally. <br></p>","0","","","true","","","","","","","","","","","","","","","","","","","","","","",""
"","","","","","html-button-response","132","699413","0.0-3.0-1.0-1.0-4.0","5d083644613fce001b2a1001","B2","batch2","pattern_quiz_feedback","694.5","<p class = block-text>Correct! </p>","0","","","","","","","","","","","","","","","","","","","","","","","","","",""
"","","","","","html-button-response","133","702190","0.0-3.0-1.0-2.0-0.0","5d083644613fce001b2a1001","B2","batch2","","2775.300000011921","<p class = block-text>You made too many incorrect choices.</p><p class = block-text>You will now repeat the instruction and quiz</p>","0","","","","","","","","","","","","","","","","","","","","","","","","","",""
"","","","","","instructions","134","704117","0.0-3.0-1.1-0.1","5d083644613fce001b2a1001","B2","batch2","","1926.5999999642372","","","","","","","","[{""page_index"":0,""viewing_time"":1078},{""page_index"":1,""viewing_time"":848}]","","","","","","","","","","","","","","","","","","","",""
"","","","","","html-button-response","135","704805","0.0-3.0-1.1-1.1-0.1","5d083644613fce001b2a1001","B2","batch2","pattern_enter_quiz","686.6000000238419","<p class=block-text> Let's answer a few questions <br>","0","","","","","","","","","","","","","","","","","","","","","","","","","",""
"","","","","","html-button-response","136","706181","0.0-3.0-1.1-1.1-1.1","5d083644613fce001b2a1001","B2","batch2","pattern_quiz","1374.800000011921","<p class = block-text>True or False: You will have as much time as you want to make each choice. <br></p>","1","","","true","","","","","","","","","","","","","","","","","","","","","","",""
"","","","","","html-button-response","137","706797","0.0-3.0-1.1-1.1-2.1","5d083644613fce001b2a1001","B2","batch2","pattern_quiz_feedback","615.1000000238419","<p class = block-text>Correct! You should make your choice <strong> as fast as you can</strong>.</p>","0","","","","","","","","","","","","","","","","","","","","","","","","","",""
"","","","","","html-button-response","138","707671","0.0-3.0-1.1-1.1-3.1","5d083644613fce001b2a1001","B2","batch2","pattern_quiz","871.3999999761581","<p class = block-text>True or False: You will look for 4 pieces in black or white color connected in a row either horizontally, vertically or diagonally. <br></p>","0","","","true","","","","","","","","","","","","","","","","","","","","","","",""
"","","","","","html-button-response","139","708277","0.0-3.0-1.1-1.1-4.1","5d083644613fce001b2a1001","B2","batch2","pattern_quiz_feedback","604.5","<p class = block-text>Correct! </p>","0","","","","","","","","","","","","","","","","","","","","","","","","","",""
"","","","","","html-button-response","140","709045","0.0-3.0-2.0","5d083644613fce001b2a1001","B2","batch2","pattern_enter_practice","766.5","<p class=block-text> Now that you've understood the game, let's do a few practice trials before we start!<br> <br>","0","","","","","","","","","","","","","","","","","","","","","","","","","",""
"","","","","","image-keyboard-response","141","710710","0.0-3.0-3.0-0.0","5d083644613fce001b2a1001","B2","batch2","pattern_practice","1663.300000011921","stim/prac_yes_18_hor_w1.png","f","","f","true","","","","","","","","","","","","","","","","","","","","","","",""
"","","","","","html-keyboard-response","142","711711","0.0-3.0-3.0-1.0","5d083644613fce001b2a1001","B2","batch2","pattern_feedback","null","<p style=""font-size:30px;color:green;"">Correct!</p>","null","","","","","","","","","","","","","","","","","","","","","","","","","",""
"","","","","","image-keyboard-response","143","713333","0.0-3.0-3.0-0.1","5d083644613fce001b2a1001","B2","batch2","pattern_practice","1621","stim/prac_no_18_1.png","j","","j","true","","","","","","","","","","","","","","","","","","","","","","",""
"","","","","","html-keyboard-response","144","714340","0.0-3.0-3.0-1.1","5d083644613fce001b2a1001","B2","batch2","pattern_feedback","null","<p style=""font-size:30px;color:green;"">Correct!</p>","null","","","","","","","","","","","","","","","","","","","","","","","","","",""
"","","","","","image-keyboard-response","145","716022","0.0-3.0-3.0-0.2","5d083644613fce001b2a1001","B2","batch2","pattern_practice","1681.0999999642372","stim/prac_no_16_1.png","j","","j","true","","","","","","","","","","","","","","","","","","","","","","",""
"","","","","","html-keyboard-response","146","717050","0.0-3.0-3.0-1.2","5d083644613fce001b2a1001","B2","batch2","pattern_feedback","null","<p style=""font-size:30px;color:green;"">Correct!</p>","null","","","","","","","","","","","","","","","","","","","","","","","","","",""
"","","","","","image-keyboard-response","147","717829","0.0-3.0-3.0-0.3","5d083644613fce001b2a1001","B2","batch2","pattern_practice","777.1999999880791","stim/prac_yes_16_ver_w1.png","f","","f","true","","","","","","","","","","","","","","","","","","","","","","",""
"","","","","","html-keyboard-response","148","718843","0.0-3.0-3.0-1.3","5d083644613fce001b2a1001","B2","batch2","pattern_feedback","null","<p style=""font-size:30px;color:green;"">Correct!</p>","null","","","","","","","","","","","","","","","","","","","","","","","","","",""
"","","","","","image-keyboard-response","149","719691","0.0-3.0-3.0-0.4","5d083644613fce001b2a1001","B2","batch2","pattern_practice","847.0999999642372","stim/prac_yes_20_dia_b1.png","f","","f","true","","","","","","","","","","","","","","","","","","","","","","",""
"","","","","","html-keyboard-response","150","720697","0.0-3.0-3.0-1.4","5d083644613fce001b2a1001","B2","batch2","pattern_feedback","null","<p style=""font-size:30px;color:green;"">Correct!</p>","null","","","","","","","","","","","","","","","","","","","","","","","","","",""
"","","","","","html-button-response","151","722069","0.0-3.0-4.0","5d083644613fce001b2a1001","B2","batch2","pattern_enter_official_trials","1370.699999988079","<p class=block-text> Good job! You are done with practice trials!<br>
        You responded correctly on 100% of the trials.<br>
        Press the button below to start official trials. Now you won't see any feedback about your response</p>","0","","","","","","","","","","","","","","","","","","","","","","","","","",""
"","","","","","html-keyboard-response","152","722871","0.0-3.0-5.0-0.0","5d083644613fce001b2a1001","B2","batch2","pattern_show_trial_num","null","<p class=block-text>Trial 1 out of 78</p>","null","","","","","","","","","","","","","","","","","","","","","","","","","",""
"","","","","","image-keyboard-response","153","727069","0.0-3.0-5.0-1.0","5d083644613fce001b2a1001","B2","batch2","pattern_response","4197.300000011921","stim/yes_44_ver_w1_w.png","f","pattern_66","f","true","","","","4197.300000011921","true","1","","","","","","","","","","","","","","","","",""
"","","","","","html-keyboard-response","154","728384","0.0-3.0-5.0-0.1","5d083644613fce001b2a1001","B2","batch2","pattern_show_trial_num","null","<p class=block-text>Trial 2 out of 78</p>","null","","","","","","","","","","","","","","","","","","","","","","","","","",""
"","","","","","image-keyboard-response","155","729293","0.0-3.0-5.0-1.1","5d083644613fce001b2a1001","B2","batch2","pattern_response","907.9000000357628","stim/yes_53_ver_b1_b.png","f","pattern_74","f","true","","","","907.9000000357628","true","2","","","","","","","","","","","","","","","","",""
"","","","","","html-keyboard-response","156","730621","0.0-3.0-5.0-0.2","5d083644613fce001b2a1001","B2","batch2","pattern_show_trial_num","null","<p class=block-text>Trial 3 out of 78</p>","null","","","","","","","","","","","","","","","","","","","","","","","","","",""
"","","","","","image-keyboard-response","157","731789","0.0-3.0-5.0-1.2","5d083644613fce001b2a1001","B2","batch2","pattern_response","1166.800000011921","stim/yes_30_ver_b1_b.png","f","pattern_54","f","true","","","","1166.800000011921","true","3","","","","","","","","","","","","","","","","",""
"","","","","","html-keyboard-response","158","733098","0.0-3.0-5.0-0.3","5d083644613fce001b2a1001","B2","batch2","pattern_show_trial_num","null","<p class=block-text>Trial 4 out of 78</p>","null","","","","","","","","","","","","","","","","","","","","","","","","","",""
"","","","","","image-keyboard-response","159","735581","0.0-3.0-5.0-1.3","5d083644613fce001b2a1001","B2","batch2","pattern_response","2481.900000035763","stim/no_49_2_b.png","f","pattern_29","j","false","","","","2481.900000035763","false","3","","","","","","","","","","","","","","","","",""
"","","","","","html-keyboard-response","160","736886","0.0-3.0-5.0-0.4","5d083644613fce001b2a1001","B2","batch2","pattern_show_trial_num","null","<p class=block-text>Trial 5 out of 78</p>","null","","","","","","","","","","","","","","","","","","","","","","","","","",""
"","","","","","image-keyboard-response","161","738653","0.0-3.0-5.0-1.4","5d083644613fce001b2a1001","B2","batch2","pattern_response","1765.7000000476837","stim/yes_42_dia_w1_w.png","j","pattern_64","f","false","","","","1765.7000000476837","false","3","","","","","","","","","","","","","","","","",""
"","","","","","html-keyboard-response","162","739968","0.0-3.0-5.0-0.5","5d083644613fce001b2a1001","B2","batch2","pattern_show_trial_num","null","<p class=block-text>Trial 6 out of 78</p>","null","","","","","","","","","","","","","","","","","","","","","","","","","",""
"","","","","","image-keyboard-response","163","741920","0.0-3.0-5.0-1.5","5d083644613fce001b2a1001","B2","batch2","pattern_response","1950.5","stim/no_45_1_w.png","j","pattern_25","j","true","","","","1950.5","true","4","","","","","","","","","","","","","","","","",""
"","","","","","html-keyboard-response","164","743225","0.0-3.0-5.0-0.6","5d083644613fce001b2a1001","B2","batch2","pattern_show_trial_num","null","<p class=block-text>Trial 7 out of 78</p>","null","","","","","","","","","","","","","","","","","","","","","","","","","",""
"","","","","","image-keyboard-response","165","744901","0.0-3.0-5.0-1.6","5d083644613fce001b2a1001","B2","batch2","pattern_response","1675.5999999642372","stim/no_47_1_b.png","j","pattern_27","j","true","","","","1675.5999999642372","true","5","","","","","","","","","","","","","","","","",""
"","","","","","html-keyboard-response","166","746213","0.0-3.0-5.0-0.7","5d083644613fce001b2a1001","B2","batch2","pattern_show_trial_num","null","<p class=block-text>Trial 8 out of 78</p>","null","","","","","","","","","","","","","","","","","","","","","","","","","",""
"","","","","","image-keyboard-response","167","747053","0.0-3.0-5.0-1.7","5d083644613fce001b2a1001","B2","batch2","pattern_response","838.3000000119209","stim/yes_17_ver_b1_b.png","f","pattern_46","f","true","","","","838.3000000119209","true","6","","","","","","","","","","","","","","","","",""
"","","","","","html-keyboard-response","168","748379","0.0-3.0-5.0-0.8","5d083644613fce001b2a1001","B2","batch2","pattern_show_trial_num","null","<p class=block-text>Trial 9 out of 78</p>","null","","","","","","","","","","","","","","","","","","","","","","","","","",""
"","","","","","image-keyboard-response","169","749294","0.0-3.0-5.0-1.8","5d083644613fce001b2a1001","B2","batch2","pattern_response","913.8000000119209","stim/yes_36_ver_w1_w.png","f","pattern_58","f","true","","","","913.8000000119209","true","7","","","","","","","","","","","","","","","","",""
"","","","","","html-keyboard-response","170","750610","0.0-3.0-5.0-0.9","5d083644613fce001b2a1001","B2","batch2","pattern_show_trial_num","null","<p class=block-text>Trial 10 out of 78</p>","null","","","","","","","","","","","","","","","","","","","","","","","","","",""
"","","","","","image-keyboard-response","171","751629","0.0-3.0-5.0-1.9","5d083644613fce001b2a1001","B2","batch2","pattern_response","1017.5","stim/yes_33_dia_w1_w.png","j","pattern_56","f","false","","","","1017.5","false","7","","","","","","","","","","","","","","","","",""
"","","","","","html-keyboard-response","172","752948","0.0-3.0-5.0-0.10","5d083644613fce001b2a1001","B2","batch2","pattern_show_trial_num","null","<p class=block-text>Trial 11 out of 78</p>","null","","","","","","","","","","","","","","","","","","","","","","","","","",""
"","","","","","image-keyboard-response","173","753801","0.0-3.0-5.0-1.10","5d083644613fce001b2a1001","B2","batch2","pattern_response","851.5","stim/yes_23_ver_b1.png","f","pattern_48","f","true","","","","851.5","true","8","","","","","","","","","","","","","","","","",""
"","","","","","html-keyboard-response","174","755118","0.0-3.0-5.0-0.11","5d083644613fce001b2a1001","B2","batch2","pattern_show_trial_num","null","<p class=block-text>Trial 12 out of 78</p>","null","","","","","","","","","","","","","","","","","","","","","","","","","",""
"","","","","","image-keyboard-response","175","756461","0.0-3.0-5.0-1.11","5d083644613fce001b2a1001","B2","batch2","pattern_response","1342.3999999761581","stim/no_36_1_b.png","j","pattern_17","j","true","","","","1342.3999999761581","true","9","","","","","","","","","","","","","","","","",""
"","","","","","html-keyboard-response","176","757767","0.0-3.0-5.0-0.12","5d083644613fce001b2a1001","B2","batch2","pattern_show_trial_num","null","<p class=block-text>Trial 13 out of 78</p>","null","","","","","","","","","","","","","","","","","","","","","","","","","",""
"","","","","","image-keyboard-response","177","761285","0.0-3.0-5.0-1.12","5d083644613fce001b2a1001","B2","batch2","pattern_response","3516.699999988079","stim/no_67_1.png","j","pattern_39","j","true","","","","3516.699999988079","true","10","","","","","","","","","","","","","","","","",""
"","","","","","html-keyboard-response","178","762607","0.0-3.0-5.0-0.13","5d083644613fce001b2a1001","B2","batch2","pattern_show_trial_num","null","<p class=block-text>Trial 14 out of 78</p>","null","","","","","","","","","","","","","","","","","","","","","","","","","",""
"","","","","","image-keyboard-response","179","764763","0.0-3.0-5.0-1.13","5d083644613fce001b2a1001","B2","batch2","pattern_response","2154.300000011921","stim/no_43_2_b.png","j","pattern_23","j","true","","","","2154.300000011921","true","11","","","","","","","","","","","","","","","","",""
"","","","","","html-keyboard-response","180","766088","0.0-3.0-5.0-0.14","5d083644613fce001b2a1001","B2","batch2","pattern_show_trial_num","null","<p class=block-text>Trial 15 out of 78</p>","null","","","","","","","","","","","","","","","","","","","","","","","","","",""
"","","","","","image-keyboard-response","181","766845","0.0-3.0-5.0-1.14","5d083644613fce001b2a1001","B2","batch2","pattern_response","753.6999999880791","stim/yes_15_dia_b1u_b.png","f","pattern_44","f","true","","","","753.6999999880791","true","12","","","","","","","","","","","","","","","","",""
"","","","","","html-keyboard-response","182","768162","0.0-3.0-5.0-0.15","5d083644613fce001b2a1001","B2","batch2","pattern_show_trial_num","null","<p class=block-text>Trial 16 out of 78</p>","null","","","","","","","","","","","","","","","","","","","","","","","","","",""
"","","","","","image-keyboard-response","183","769261","0.0-3.0-5.0-1.15","5d083644613fce001b2a1001","B2","batch2","pattern_response","1098.5","stim/no_30_1_b.png","j","pattern_13","j","true","","","","1098.5","true","13","","","","","","","","","","","","","","","","",""
"","","","","","html-keyboard-response","184","770573","0.0-3.0-5.0-0.16","5d083644613fce001b2a1001","B2","batch2","pattern_show_trial_num","null","<p class=block-text>Trial 17 out of 78</p>","null","","","","","","","","","","","","","","","","","","","","","","","","","",""
"","","","","","image-keyboard-response","185","772525","0.0-3.0-5.0-1.16","5d083644613fce001b2a1001","B2","batch2","pattern_response","1951.6000000238419","stim/no_53_1_b.png","j","pattern_33","j","true","","","","1951.6000000238419","true","14","","","","","","","","","","","","","","","","",""
"","","","","","html-keyboard-response","186","773847","0.0-3.0-5.0-0.17","5d083644613fce001b2a1001","B2","batch2","pattern_show_trial_num","null","<p class=block-text>Trial 18 out of 78</p>","null","","","","","","","","","","","","","","","","","","","","","","","","","",""
"","","","","","image-keyboard-response","187","775217","0.0-3.0-5.0-1.17","5d083644613fce001b2a1001","B2","batch2","pattern_response","1367.7000000476837","stim/no_39_1_w.png","j","pattern_21","j","true","","","","1367.7000000476837","true","15","","","","","","","","","","","","","","","","",""
"","","","","","html-keyboard-response","188","776540","0.0-3.0-5.0-0.18","5d083644613fce001b2a1001","B2","batch2","pattern_show_trial_num","null","<p class=block-text>Trial 19 out of 78</p>","null","","","","","","","","","","","","","","","","","","","","","","","","","",""
"","","","","","image-keyboard-response","189","778173","0.0-3.0-5.0-1.18","5d083644613fce001b2a1001","B2","batch2","pattern_response","1632.0999999642372","stim/no_58_1_w.png","j","pattern_35","j","true","","","","1632.0999999642372","true","16","","","","","","","","","","","","","","","","",""
"","","","","","html-keyboard-response","190","779494","0.0-3.0-5.0-0.19","5d083644613fce001b2a1001","B2","batch2","pattern_show_trial_num","null","<p class=block-text>Trial 20 out of 78</p>","null","","","","","","","","","","","","","","","","","","","","","","","","","",""
"","","","","","image-keyboard-response","191","780518","0.0-3.0-5.0-1.19","5d083644613fce001b2a1001","B2","batch2","pattern_response","1022.0999999642372","stim/yes_26_dia_w2_w.png","f","pattern_50","f","true","","","","1022.0999999642372","true","17","","","","","","","","","","","","","","","","",""
"","","","","","html-keyboard-response","192","781835","0.0-3.0-5.0-0.20","5d083644613fce001b2a1001","B2","batch2","pattern_show_trial_num","null","<p class=block-text>Trial 21 out of 78</p>","null","","","","","","","","","","","","","","","","","","","","","","","","","",""
"","","","","","image-keyboard-response","193","783045","0.0-3.0-5.0-1.20","5d083644613fce001b2a1001","B2","batch2","pattern_response","1208","stim/yes_51_dia_b1.png","f","pattern_72","f","true","","","","1208","true","18","","","","","","","","","","","","","","","","",""
"","","","","","html-keyboard-response","194","784360","0.0-3.0-5.0-0.21","5d083644613fce001b2a1001","B2","batch2","pattern_show_trial_num","null","<p class=block-text>Trial 22 out of 78</p>","null","","","","","","","","","","","","","","","","","","","","","","","","","",""
"","","","","","image-keyboard-response","195","785157","0.0-3.0-5.0-1.21","5d083644613fce001b2a1001","B2","batch2","pattern_response","796.3999999761581","stim/no_18_1_b.png","j","pattern_05","j","true","","","","796.3999999761581","true","19","","","","","","","","","","","","","","","","",""
"","","","","","html-keyboard-response","196","786472","0.0-3.0-5.0-0.22","5d083644613fce001b2a1001","B2","batch2","pattern_show_trial_num","null","<p class=block-text>Trial 23 out of 78</p>","null","","","","","","","","","","","","","","","","","","","","","","","","","",""
"","","","","","image-keyboard-response","197","787273","0.0-3.0-5.0-1.22","5d083644613fce001b2a1001","B2","batch2","pattern_response","800","stim/yes_39_hor_w1_w.png","f","pattern_62","f","true","","","","800","true","20","","","","","","","","","","","","","","","","",""
"","","","","","html-keyboard-response","198","788580","0.0-3.0-5.0-0.23","5d083644613fce001b2a1001","B2","batch2","pattern_show_trial_num","null","<p class=block-text>Trial 24 out of 78</p>","null","","","","","","","","","","","","","","","","","","","","","","","","","",""
"","","","","","image-keyboard-response","199","789421","0.0-3.0-5.0-1.23","5d083644613fce001b2a1001","B2","batch2","pattern_response","840.3999999761581","stim/yes_70_ver_b1.png","f","pattern_80","f","true","","","","840.3999999761581","true","21","","","","","","","","","","","","","","","","",""
"","","","","","html-keyboard-response","200","790723","0.0-3.0-5.0-0.24","5d083644613fce001b2a1001","B2","batch2","pattern_show_trial_num","null","<p class=block-text>Trial 25 out of 78</p>","null","","","","","","","","","","","","","","","","","","","","","","","","","",""
"","","","","","image-keyboard-response","201","791566","0.0-3.0-5.0-1.24","5d083644613fce001b2a1001","B2","batch2","pattern_response","841.8000000119209","stim/yes_37_hor_w1_w.png","f","pattern_60","f","true","","","","841.8000000119209","true","22","","","","","","","","","","","","","","","","",""
"","","","","","html-keyboard-response","202","792885","0.0-3.0-5.0-0.25","5d083644613fce001b2a1001","B2","batch2","pattern_show_trial_num","null","<p class=block-text>Trial 26 out of 78</p>","null","","","","","","","","","","","","","","","","","","","","","","","","","",""
"","","","","","image-keyboard-response","203","794173","0.0-3.0-5.0-1.25","5d083644613fce001b2a1001","B2","batch2","pattern_response","1286.5","stim/no_25_1_b.png","j","pattern_09","j","true","","","","1286.5","true","23","","","","","","","","","","","","","","","","",""
"","","","","","html-keyboard-response","204","795481","0.0-3.0-5.0-0.26","5d083644613fce001b2a1001","B2","batch2","pattern_show_trial_num","null","<p class=block-text>Trial 27 out of 78</p>","null","","","","","","","","","","","","","","","","","","","","","","","","","",""
"","","","","","image-keyboard-response","205","796613","0.0-3.0-5.0-1.26","5d083644613fce001b2a1001","B2","batch2","pattern_response","1130","stim/no_15_1_w.png","j","pattern_03","j","true","","","","1130","true","24","","","","","","","","","","","","","","","","",""
"","","","","","html-keyboard-response","206","797923","0.0-3.0-5.0-0.27","5d083644613fce001b2a1001","B2","batch2","pattern_show_trial_num","null","<p class=block-text>Trial 28 out of 78</p>","null","","","","","","","","","","","","","","","","","","","","","","","","","",""
"","","","","","image-keyboard-response","207","798891","0.0-3.0-5.0-1.27","5d083644613fce001b2a1001","B2","batch2","pattern_response","966.5","stim/no_33_1_b.png","j","pattern_15","j","true","","","","966.5","true","25","","","","","","","","","","","","","","","","",""
"","","","","","html-keyboard-response","208","800213","0.0-3.0-5.0-0.28","5d083644613fce001b2a1001","B2","batch2","pattern_show_trial_num","null","<p class=block-text>Trial 29 out of 78</p>","null","","","","","","","","","","","","","","","","","","","","","","","","","",""
"","","","","","image-keyboard-response","209","801430","0.0-3.0-5.0-1.28","5d083644613fce001b2a1001","B2","batch2","pattern_response","1214","stim/no_28_2.png","j","pattern_11","j","true","","","","1214","true","26","","","","","","","","","","","","","","","","",""
"","","","","","html-keyboard-response","210","802732","0.0-3.0-5.0-0.29","5d083644613fce001b2a1001","B2","batch2","pattern_show_trial_num","null","<p class=block-text>Trial 30 out of 78</p>","null","","","","","","","","","","","","","","","","","","","","","","","","","",""
"","","","","","image-keyboard-response","211","804453","0.0-3.0-5.0-1.29","5d083644613fce001b2a1001","B2","batch2","pattern_response","1720.3999999761581","stim/no_51_1.png","j","pattern_31","j","true","","","","1720.3999999761581","true","27","","","","","","","","","","","","","","","","",""
"","","","","","html-keyboard-response","212","805766","0.0-3.0-5.0-0.30","5d083644613fce001b2a1001","B2","batch2","pattern_show_trial_num","null","<p class=block-text>Trial 31 out of 78</p>","null","","","","","","","","","","","","","","","","","","","","","","","","","",""
"","","","","","image-keyboard-response","213","808653","0.0-3.0-5.0-1.30","5d083644613fce001b2a1001","B2","batch2","pattern_response","2886.099999964237","stim/yes_58_dia_w1_w.png","j","pattern_76","f","false","","","","2886.099999964237","false","27","","","","","","","","","","","","","","","","",""
"","","","","","html-keyboard-response","214","809980","0.0-3.0-5.0-0.31","5d083644613fce001b2a1001","B2","batch2","pattern_show_trial_num","null","<p class=block-text>Trial 32 out of 78</p>","null","","","","","","","","","","","","","","","","","","","","","","","","","",""
"","","","","","image-keyboard-response","215","813393","0.0-3.0-5.0-1.31","5d083644613fce001b2a1001","B2","batch2","pattern_response","3411.300000011921","stim/yes_63_dia_b1.png","f","pattern_78","f","true","","","","3411.300000011921","true","28","","","","","","","","","","","","","","","","",""
"","","","","","html-keyboard-response","216","814698","0.0-3.0-5.0-0.32","5d083644613fce001b2a1001","B2","batch2","pattern_show_trial_num","null","<p class=block-text>Trial 33 out of 78</p>","null","","","","","","","","","","","","","","","","","","","","","","","","","",""
"","","","","","image-keyboard-response","217","815741","0.0-3.0-5.0-1.32","5d083644613fce001b2a1001","B2","batch2","pattern_response","1042.0999999642372","stim/yes_46_ver_b1_b.png","f","pattern_68","f","true","","","","1042.0999999642372","true","29","","","","","","","","","","","","","","","","",""
"","","","","","html-keyboard-response","218","817052","0.0-3.0-5.0-0.33","5d083644613fce001b2a1001","B2","batch2","pattern_show_trial_num","null","<p class=block-text>Trial 34 out of 78</p>","null","","","","","","","","","","","","","","","","","","","","","","","","","",""
"","","","","","image-keyboard-response","219","819445","0.0-3.0-5.0-1.33","5d083644613fce001b2a1001","B2","batch2","pattern_response","2392.399999976158","stim/no_37_2_w.png","j","pattern_19","j","true","","","","2392.399999976158","true","30","","","","","","","","","","","","","","","","",""
"","","","","","html-keyboard-response","220","820747","0.0-3.0-5.0-0.34","5d083644613fce001b2a1001","B2","batch2","pattern_show_trial_num","null","<p class=block-text>Trial 35 out of 78</p>","null","","","","","","","","","","","","","","","","","","","","","","","","","",""
"","","","","","image-keyboard-response","221","821797","0.0-3.0-5.0-1.34","5d083644613fce001b2a1001","B2","batch2","pattern_response","1048.3999999761581","stim/yes_49_hor_w1_b.png","f","pattern_70","f","true","","","","1048.3999999761581","true","31","","","","","","","","","","","","","","","","",""
"","","","","","html-keyboard-response","222","823102","0.0-3.0-5.0-0.35","5d083644613fce001b2a1001","B2","batch2","pattern_show_trial_num","null","<p class=block-text>Trial 36 out of 78</p>","null","","","","","","","","","","","","","","","","","","","","","","","","","",""
"","","","","","image-keyboard-response","223","823904","0.0-3.0-5.0-1.35","5d083644613fce001b2a1001","B2","batch2","pattern_response","802.0999999642372","stim/yes_29_hor_b1_b.png","f","pattern_52","f","true","","","","802.0999999642372","true","32","","","","","","","","","","","","","","","","",""
"","","","","","html-keyboard-response","224","825218","0.0-3.0-5.0-0.36","5d083644613fce001b2a1001","B2","batch2","pattern_show_trial_num","null","<p class=block-text>Trial 37 out of 78</p>","null","","","","","","","","","","","","","","","","","","","","","","","","","",""
"","","","","","image-keyboard-response","225","826077","0.0-3.0-5.0-1.36","5d083644613fce001b2a1001","B2","batch2","pattern_response","857.6999999880791","stim/no_12_1.png","j","pattern_01","j","true","","","","857.6999999880791","true","33","","","","","","","","","","","","","","","","",""
"","","","","","html-keyboard-response","226","827383","0.0-3.0-5.0-0.37","5d083644613fce001b2a1001","B2","batch2","pattern_show_trial_num","null","<p class=block-text>Trial 38 out of 78</p>","null","","","","","","","","","","","","","","","","","","","","","","","","","",""
"","","","","","image-keyboard-response","227","828413","0.0-3.0-5.0-1.37","5d083644613fce001b2a1001","B2","batch2","pattern_response","1028.4000000357628","stim/no_22_1_b.png","j","pattern_07","j","true","","","","1028.4000000357628","true","34","","","","","","","","","","","","","","","","",""
"","","","","","html-keyboard-response","228","829727","0.0-3.0-5.0-0.38","5d083644613fce001b2a1001","B2","batch2","pattern_show_trial_num","null","<p class=block-text>Trial 39 out of 78</p>","null","","","","","","","","","","","","","","","","","","","","","","","","","",""
"","","","","","image-keyboard-response","229","830461","0.0-3.0-5.0-1.38","5d083644613fce001b2a1001","B2","batch2","pattern_response","733","stim/yes_12_hor_w1_w.png","f","pattern_42","f","true","","","","733","true","35","","","","","","","","","","","","","","","","",""
"","","","","","image-keyboard-response","230","832061","0.0-3.0-6.0","5d083644613fce001b2a1001","B2","batch2","attention_check","1091.0999999642372","stim/empty_board.png","j","","j","true","","","","","","","500","[""f"",""j""]","","","","","","","","","","","","","","",""
"","","","","","html-keyboard-response","231","832875","0.0-3.0-7.0-0.0","5d083644613fce001b2a1001","B2","batch2","pattern_show_trial_num","null","<p class=block-text>Trial 40 out of 78</p>","null","","","","","","","","","","","","","","","","","","","","","","","","","",""
"","","","","","image-keyboard-response","232","835097","0.0-3.0-7.0-1.0","5d083644613fce001b2a1001","B2","batch2","pattern_response","2219.899999976158","stim/no_23_1.png","j","pattern_08","j","true","","","","2219.899999976158","true","36","","","","","","","","","","","","","","","","",""
"","","","","","html-keyboard-response","233","836418","0.0-3.0-7.0-0.1","5d083644613fce001b2a1001","B2","batch2","pattern_show_trial_num","null","<p class=block-text>Trial 41 out of 78</p>","null","","","","","","","","","","","","","","","","","","","","","","","","","",""
"","","","","","image-keyboard-response","234","837141","0.0-3.0-7.0-1.1","5d083644613fce001b2a1001","B2","batch2","pattern_response","721.4000000357628","stim/yes_55_hor_w1_w.png","f","pattern_75","f","true","","","","721.4000000357628","true","37","","","","","","","","","","","","","","","","",""
"","","","","","html-keyboard-response","235","838458","0.0-3.0-7.0-0.2","5d083644613fce001b2a1001","B2","batch2","pattern_show_trial_num","null","<p class=block-text>Trial 42 out of 78</p>","null","","","","","","","","","","","","","","","","","","","","","","","","","",""
"","","","","","image-keyboard-response","236","841117","0.0-3.0-7.0-1.2","5d083644613fce001b2a1001","B2","batch2","pattern_response","2657.5","stim/yes_60_ver_b1_b.png","j","pattern_77","f","false","","","","2657.5","false","37","","","","","","","","","","","","","","","","",""
"","","","","","html-keyboard-response","237","842438","0.0-3.0-7.0-0.3","5d083644613fce001b2a1001","B2","batch2","pattern_show_trial_num","null","<p class=block-text>Trial 43 out of 78</p>","null","","","","","","","","","","","","","","","","","","","","","","","","","",""
"","","","","","image-keyboard-response","238","844238","0.0-3.0-7.0-1.3","5d083644613fce001b2a1001","B2","batch2","pattern_response","1796.6000000238419","stim/no_46_1_b.png","j","pattern_26","j","true","","","","1796.6000000238419","true","38","","","","","","","","","","","","","","","","",""
"","","","","","html-keyboard-response","239","845550","0.0-3.0-7.0-0.4","5d083644613fce001b2a1001","B2","batch2","pattern_show_trial_num","null","<p class=block-text>Trial 44 out of 78</p>","null","","","","","","","","","","","","","","","","","","","","","","","","","",""
"","","","","","image-keyboard-response","240","847016","0.0-3.0-7.0-1.4","5d083644613fce001b2a1001","B2","batch2","pattern_response","1464.800000011921","stim/no_52_1.png","j","pattern_32","j","true","","","","1464.800000011921","true","39","","","","","","","","","","","","","","","","",""
"","","","","","html-keyboard-response","241","848336","0.0-3.0-7.0-0.5","5d083644613fce001b2a1001","B2","batch2","pattern_show_trial_num","null","<p class=block-text>Trial 45 out of 78</p>","null","","","","","","","","","","","","","","","","","","","","","","","","","",""
"","","","","","image-keyboard-response","242","850397","0.0-3.0-7.0-1.5","5d083644613fce001b2a1001","B2","batch2","pattern_response","2059.300000011921","stim/no_42_1_w.png","j","pattern_22","j","true","","","","2059.300000011921","true","40","","","","","","","","","","","","","","","","",""
"","","","","","html-keyboard-response","243","851711","0.0-3.0-7.0-0.6","5d083644613fce001b2a1001","B2","batch2","pattern_show_trial_num","null","<p class=block-text>Trial 46 out of 78</p>","null","","","","","","","","","","","","","","","","","","","","","","","","","",""
"","","","","","image-keyboard-response","244","852710","0.0-3.0-7.0-1.6","5d083644613fce001b2a1001","B2","batch2","pattern_response","998.0999999642372","stim/no_26_1_w.png","j","pattern_10","j","true","","","","998.0999999642372","true","41","","","","","","","","","","","","","","","","",""
"","","","","","html-keyboard-response","245","854034","0.0-3.0-7.0-0.7","5d083644613fce001b2a1001","B2","batch2","pattern_show_trial_num","null","<p class=block-text>Trial 47 out of 78</p>","null","","","","","","","","","","","","","","","","","","","","","","","","","",""
"","","","","","image-keyboard-response","246","854750","0.0-3.0-7.0-1.7","5d083644613fce001b2a1001","B2","batch2","pattern_response","712.8999999761581","stim/yes_29_ver_w1.png","f","pattern_53","f","true","","","","712.8999999761581","true","42","","","","","","","","","","","","","","","","",""
"","","","","","html-keyboard-response","247","856076","0.0-3.0-7.0-0.8","5d083644613fce001b2a1001","B2","batch2","pattern_show_trial_num","null","<p class=block-text>Trial 48 out of 78</p>","null","","","","","","","","","","","","","","","","","","","","","","","","","",""
"","","","","","image-keyboard-response","248","856797","0.0-3.0-7.0-1.8","5d083644613fce001b2a1001","B2","batch2","pattern_response","719.9000000357628","stim/yes_28_ver_b1.png","j","pattern_51","f","false","","","","719.9000000357628","false","42","","","","","","","","","","","","","","","","",""
"","","","","","html-keyboard-response","249","858121","0.0-3.0-7.0-0.9","5d083644613fce001b2a1001","B2","batch2","pattern_show_trial_num","null","<p class=block-text>Trial 49 out of 78</p>","null","","","","","","","","","","","","","","","","","","","","","","","","","",""
"","","","","","image-keyboard-response","250","861657","0.0-3.0-7.0-1.9","5d083644613fce001b2a1001","B2","batch2","pattern_response","3534.699999988079","stim/no_44_1.png","j","pattern_24","j","true","","","","3534.699999988079","true","43","","","","","","","","","","","","","","","","",""
"","","","","","html-keyboard-response","251","862970","0.0-3.0-7.0-0.10","5d083644613fce001b2a1001","B2","batch2","pattern_show_trial_num","null","<p class=block-text>Trial 50 out of 78</p>","null","","","","","","","","","","","","","","","","","","","","","","","","","",""
"","","","","","image-keyboard-response","252","865029","0.0-3.0-7.0-1.10","5d083644613fce001b2a1001","B2","batch2","pattern_response","2057.199999988079","stim/no_34_1_b.png","j","pattern_16","j","true","","","","2057.199999988079","true","44","","","","","","","","","","","","","","","","",""
"","","","","","html-keyboard-response","253","866353","0.0-3.0-7.0-0.11","5d083644613fce001b2a1001","B2","batch2","pattern_show_trial_num","null","<p class=block-text>Trial 51 out of 78</p>","null","","","","","","","","","","","","","","","","","","","","","","","","","",""
"","","","","","image-keyboard-response","254","867084","0.0-3.0-7.0-1.11","5d083644613fce001b2a1001","B2","batch2","pattern_response","730.3000000119209","stim/no_13_2_b.png","j","pattern_02","j","true","","","","730.3000000119209","true","45","","","","","","","","","","","","","","","","",""
"","","","","","html-keyboard-response","255","868409","0.0-3.0-7.0-0.12","5d083644613fce001b2a1001","B2","batch2","pattern_show_trial_num","null","<p class=block-text>Trial 52 out of 78</p>","null","","","","","","","","","","","","","","","","","","","","","","","","","",""
"","","","","","image-keyboard-response","256","870853","0.0-3.0-7.0-1.12","5d083644613fce001b2a1001","B2","batch2","pattern_response","2442.199999988079","stim/no_50_1.png","j","pattern_30","j","true","","","","2442.199999988079","true","46","","","","","","","","","","","","","","","","",""
"","","","","","html-keyboard-response","257","872180","0.0-3.0-7.0-0.13","5d083644613fce001b2a1001","B2","batch2","pattern_show_trial_num","null","<p class=block-text>Trial 53 out of 78</p>","null","","","","","","","","","","","","","","","","","","","","","","","","","",""
"","","","","","image-keyboard-response","258","873144","0.0-3.0-7.0-1.13","5d083644613fce001b2a1001","B2","batch2","pattern_response","961.6000000238419","stim/yes_38_hor_b1_b.png","f","pattern_61","f","true","","","","961.6000000238419","true","47","","","","","","","","","","","","","","","","",""
"","","","","","html-keyboard-response","259","874457","0.0-3.0-7.0-0.14","5d083644613fce001b2a1001","B2","batch2","pattern_show_trial_num","null","<p class=block-text>Trial 54 out of 78</p>","null","","","","","","","","","","","","","","","","","","","","","","","","","",""
"","","","","","image-keyboard-response","260","876540","0.0-3.0-7.0-1.14","5d083644613fce001b2a1001","B2","batch2","pattern_response","2082.5","stim/no_55_1_w.png","j","pattern_34","j","true","","","","2082.5","true","48","","","","","","","","","","","","","","","","",""
"","","","","","html-keyboard-response","261","877849","0.0-3.0-7.0-0.15","5d083644613fce001b2a1001","B2","batch2","pattern_show_trial_num","null","<p class=block-text>Trial 55 out of 78</p>","null","","","","","","","","","","","","","","","","","","","","","","","","","",""
"","","","","","image-keyboard-response","262","879245","0.0-3.0-7.0-1.15","5d083644613fce001b2a1001","B2","batch2","pattern_response","1395.300000011921","stim/yes_37_dia_w1.png","f","pattern_59","f","true","","","","1395.300000011921","true","49","","","","","","","","","","","","","","","","",""
"","","","","","html-keyboard-response","263","880571","0.0-3.0-7.0-0.16","5d083644613fce001b2a1001","B2","batch2","pattern_show_trial_num","null","<p class=block-text>Trial 56 out of 78</p>","null","","","","","","","","","","","","","","","","","","","","","","","","","",""
"","","","","","image-keyboard-response","264","881716","0.0-3.0-7.0-1.16","5d083644613fce001b2a1001","B2","batch2","pattern_response","1144","stim/yes_17_dia_w1.png","f","pattern_45","f","true","","","","1144","true","50","","","","","","","","","","","","","","","","",""
"","","","","","html-keyboard-response","265","883028","0.0-3.0-7.0-0.17","5d083644613fce001b2a1001","B2","batch2","pattern_show_trial_num","null","<p class=block-text>Trial 57 out of 78</p>","null","","","","","","","","","","","","","","","","","","","","","","","","","",""
"","","","","","image-keyboard-response","266","885899","0.0-3.0-7.0-1.17","5d083644613fce001b2a1001","B2","batch2","pattern_response","2869.099999964237","stim/yes_52_ver_w1.png","f","pattern_73","f","true","","","","2869.099999964237","true","51","","","","","","","","","","","","","","","","",""
"","","","","","html-keyboard-response","267","887210","0.0-3.0-7.0-0.18","5d083644613fce001b2a1001","B2","batch2","pattern_show_trial_num","null","<p class=block-text>Trial 58 out of 78</p>","null","","","","","","","","","","","","","","","","","","","","","","","","","",""
"","","","","","image-keyboard-response","268","890964","0.0-3.0-7.0-1.18","5d083644613fce001b2a1001","B2","batch2","pattern_response","3752.899999976158","stim/no_65_1_b.png","j","pattern_38","j","true","","","","3752.899999976158","true","52","","","","","","","","","","","","","","","","",""
"","","","","","html-keyboard-response","269","892280","0.0-3.0-7.0-0.19","5d083644613fce001b2a1001","B2","batch2","pattern_show_trial_num","null","<p class=block-text>Trial 59 out of 78</p>","null","","","","","","","","","","","","","","","","","","","","","","","","","",""
"","","","","","image-keyboard-response","270","893164","0.0-3.0-7.0-1.19","5d083644613fce001b2a1001","B2","batch2","pattern_response","882.6000000238419","stim/yes_22_ver_w1.png","f","pattern_47","f","true","","","","882.6000000238419","true","53","","","","","","","","","","","","","","","","",""
"","","","","","html-keyboard-response","271","894479","0.0-3.0-7.0-0.20","5d083644613fce001b2a1001","B2","batch2","pattern_show_trial_num","null","<p class=block-text>Trial 60 out of 78</p>","null","","","","","","","","","","","","","","","","","","","","","","","","","",""
"","","","","","image-keyboard-response","272","895343","0.0-3.0-7.0-1.20","5d083644613fce001b2a1001","B2","batch2","pattern_response","863.5","stim/no_20_1_w.png","j","pattern_06","j","true","","","","863.5","true","54","","","","","","","","","","","","","","","","",""
"","","","","","html-keyboard-response","273","896669","0.0-3.0-7.0-0.21","5d083644613fce001b2a1001","B2","batch2","pattern_show_trial_num","null","<p class=block-text>Trial 61 out of 78</p>","null","","","","","","","","","","","","","","","","","","","","","","","","","",""
"","","","","","image-keyboard-response","274","897642","0.0-3.0-7.0-1.21","5d083644613fce001b2a1001","B2","batch2","pattern_response","971.5","stim/yes_43_ver_w1_w.png","f","pattern_65","f","true","","","","971.5","true","55","","","","","","","","","","","","","","","","",""
"","","","","","html-keyboard-response","275","898959","0.0-3.0-7.0-0.22","5d083644613fce001b2a1001","B2","batch2","pattern_show_trial_num","null","<p class=block-text>Trial 62 out of 78</p>","null","","","","","","","","","","","","","","","","","","","","","","","","","",""
"","","","","","image-keyboard-response","276","900922","0.0-3.0-7.0-1.22","5d083644613fce001b2a1001","B2","batch2","pattern_response","1961","stim/yes_31_hor_b1.png","j","pattern_55","f","false","","","","1961","false","55","","","","","","","","","","","","","","","","",""
"","","","","","html-keyboard-response","277","902238","0.0-3.0-7.0-0.23","5d083644613fce001b2a1001","B2","batch2","pattern_show_trial_num","null","<p class=block-text>Trial 63 out of 78</p>","null","","","","","","","","","","","","","","","","","","","","","","","","","",""
"","","","","","image-keyboard-response","278","904596","0.0-3.0-7.0-1.23","5d083644613fce001b2a1001","B2","batch2","pattern_response","2355.100000023842","stim/no_48_1_w.png","j","pattern_28","j","true","","","","2355.100000023842","true","56","","","","","","","","","","","","","","","","",""
"","","","","","html-keyboard-response","279","905912","0.0-3.0-7.0-0.24","5d083644613fce001b2a1001","B2","batch2","pattern_show_trial_num","null","<p class=block-text>Trial 64 out of 78</p>","null","","","","","","","","","","","","","","","","","","","","","","","","","",""
"","","","","","image-keyboard-response","280","907596","0.0-3.0-7.0-1.24","5d083644613fce001b2a1001","B2","batch2","pattern_response","1682.8999999761581","stim/yes_40_dia_b1_b.png","f","pattern_63","f","true","","","","1682.8999999761581","true","57","","","","","","","","","","","","","","","","",""
"","","","","","html-keyboard-response","281","908900","0.0-3.0-7.0-0.25","5d083644613fce001b2a1001","B2","batch2","pattern_show_trial_num","null","<p class=block-text>Trial 65 out of 78</p>","null","","","","","","","","","","","","","","","","","","","","","","","","","",""
"","","","","","image-keyboard-response","282","910194","0.0-3.0-7.0-1.25","5d083644613fce001b2a1001","B2","batch2","pattern_response","1293.5","stim/no_32_1_w.png","j","pattern_14","j","true","","","","1293.5","true","58","","","","","","","","","","","","","","","","",""
"","","","","","html-keyboard-response","283","911503","0.0-3.0-7.0-0.26","5d083644613fce001b2a1001","B2","batch2","pattern_show_trial_num","null","<p class=block-text>Trial 66 out of 78</p>","null","","","","","","","","","","","","","","","","","","","","","","","","","",""
"","","","","","image-keyboard-response","284","912212","0.0-3.0-7.0-1.26","5d083644613fce001b2a1001","B2","batch2","pattern_response","707.1999999880791","stim/yes_14_hor_b1_w.png","f","pattern_43","f","true","","","","707.1999999880791","true","59","","","","","","","","","","","","","","","","",""
"","","","","","html-keyboard-response","285","913532","0.0-3.0-7.0-0.27","5d083644613fce001b2a1001","B2","batch2","pattern_show_trial_num","null","<p class=block-text>Trial 67 out of 78</p>","null","","","","","","","","","","","","","","","","","","","","","","","","","",""
"","","","","","image-keyboard-response","286","914365","0.0-3.0-7.0-1.27","5d083644613fce001b2a1001","B2","batch2","pattern_response","831.5999999642372","stim/yes_25_hor_b1_b.png","f","pattern_49","f","true","","","","831.5999999642372","true","60","","","","","","","","","","","","","","","","",""
"","","","","","html-keyboard-response","287","915676","0.0-3.0-7.0-0.28","5d083644613fce001b2a1001","B2","batch2","pattern_show_trial_num","null","<p class=block-text>Trial 68 out of 78</p>","null","","","","","","","","","","","","","","","","","","","","","","","","","",""
"","","","","","image-keyboard-response","288","918021","0.0-3.0-7.0-1.28","5d083644613fce001b2a1001","B2","batch2","pattern_response","2344.300000011921","stim/no_38_1_b.png","j","pattern_20","j","true","","","","2344.300000011921","true","61","","","","","","","","","","","","","","","","",""
"","","","","","html-keyboard-response","289","919337","0.0-3.0-7.0-0.29","5d083644613fce001b2a1001","B2","batch2","pattern_show_trial_num","null","<p class=block-text>Trial 69 out of 78</p>","null","","","","","","","","","","","","","","","","","","","","","","","","","",""
"","","","","","image-keyboard-response","290","923170","0.0-3.0-7.0-1.29","5d083644613fce001b2a1001","B2","batch2","pattern_response","3831.400000035763","stim/no_62_1_w.png","j","pattern_36","j","true","","","","3831.400000035763","true","62","","","","","","","","","","","","","","","","",""
"","","","","","html-keyboard-response","291","924487","0.0-3.0-7.0-0.30","5d083644613fce001b2a1001","B2","batch2","pattern_show_trial_num","null","<p class=block-text>Trial 70 out of 78</p>","null","","","","","","","","","","","","","","","","","","","","","","","","","",""
"","","","","","image-keyboard-response","292","927636","0.0-3.0-7.0-1.30","5d083644613fce001b2a1001","B2","batch2","pattern_response","3147.099999964237","stim/no_70_2.png","j","pattern_40","j","true","","","","3147.099999964237","true","63","","","","","","","","","","","","","","","","",""
"","","","","","html-keyboard-response","293","928940","0.0-3.0-7.0-0.31","5d083644613fce001b2a1001","B2","batch2","pattern_show_trial_num","null","<p class=block-text>Trial 71 out of 78</p>","null","","","","","","","","","","","","","","","","","","","","","","","","","",""
"","","","","","image-keyboard-response","294","930069","0.0-3.0-7.0-1.31","5d083644613fce001b2a1001","B2","batch2","pattern_response","1127.300000011921","stim/no_17_1_w.png","j","pattern_04","j","true","","","","1127.300000011921","true","64","","","","","","","","","","","","","","","","",""
"","","","","","html-keyboard-response","295","931399","0.0-3.0-7.0-0.32","5d083644613fce001b2a1001","B2","batch2","pattern_show_trial_num","null","<p class=block-text>Trial 72 out of 78</p>","null","","","","","","","","","","","","","","","","","","","","","","","","","",""
"","","","","","image-keyboard-response","296","933242","0.0-3.0-7.0-1.32","5d083644613fce001b2a1001","B2","batch2","pattern_response","1842","stim/yes_45_hor_b2_b.png","f","pattern_67","f","true","","","","1842","true","65","","","","","","","","","","","","","","","","",""
"","","","","","html-keyboard-response","297","934568","0.0-3.0-7.0-0.33","5d083644613fce001b2a1001","B2","batch2","pattern_show_trial_num","null","<p class=block-text>Trial 73 out of 78</p>","null","","","","","","","","","","","","","","","","","","","","","","","","","",""
"","","","","","image-keyboard-response","298","937277","0.0-3.0-7.0-1.33","5d083644613fce001b2a1001","B2","batch2","pattern_response","2707.400000035763","stim/yes_50_dia_w1.png","j","pattern_71","f","false","","","","2707.400000035763","false","65","","","","","","","","","","","","","","","","",""
"","","","","","html-keyboard-response","299","938603","0.0-3.0-7.0-0.34","5d083644613fce001b2a1001","B2","batch2","pattern_show_trial_num","null","<p class=block-text>Trial 74 out of 78</p>","null","","","","","","","","","","","","","","","","","","","","","","","","","",""
"","","","","","image-keyboard-response","300","940397","0.0-3.0-7.0-1.34","5d083644613fce001b2a1001","B2","batch2","pattern_response","1792.5","stim/yes_48_dia_w1_w.png","f","pattern_69","f","true","","","","1792.5","true","66","","","","","","","","","","","","","","","","",""
"","","","","","html-keyboard-response","301","941703","0.0-3.0-7.0-0.35","5d083644613fce001b2a1001","B2","batch2","pattern_show_trial_num","null","<p class=block-text>Trial 75 out of 78</p>","null","","","","","","","","","","","","","","","","","","","","","","","","","",""
"","","","","","image-keyboard-response","302","942645","0.0-3.0-7.0-1.35","5d083644613fce001b2a1001","B2","batch2","pattern_response","940.8999999761581","stim/yes_67_hor_b1.png","f","pattern_79","f","true","","","","940.8999999761581","true","67","","","","","","","","","","","","","","","","",""
"","","","","","html-keyboard-response","303","943963","0.0-3.0-7.0-0.36","5d083644613fce001b2a1001","B2","batch2","pattern_show_trial_num","null","<p class=block-text>Trial 76 out of 78</p>","null","","","","","","","","","","","","","","","","","","","","","","","","","",""
"","","","","","image-keyboard-response","304","945500","0.0-3.0-7.0-1.36","5d083644613fce001b2a1001","B2","batch2","pattern_response","1535.5999999642372","stim/no_29_1_b.png","j","pattern_12","j","true","","","","1535.5999999642372","true","68","","","","","","","","","","","","","","","","",""
"","","","","","html-keyboard-response","305","946815","0.0-3.0-7.0-0.37","5d083644613fce001b2a1001","B2","batch2","pattern_show_trial_num","null","<p class=block-text>Trial 77 out of 78</p>","null","","","","","","","","","","","","","","","","","","","","","","","","","",""
"","","","","","image-keyboard-response","306","949557","0.0-3.0-7.0-1.37","5d083644613fce001b2a1001","B2","batch2","pattern_response","2739.7999999523163","stim/no_36_2_w.png","j","pattern_18","j","true","","","","2739.7999999523163","true","69","","","","","","","","","","","","","","","","",""
"","","","","","html-keyboard-response","307","950871","0.0-3.0-7.0-0.38","5d083644613fce001b2a1001","B2","batch2","pattern_show_trial_num","null","<p class=block-text>Trial 78 out of 78</p>","null","","","","","","","","","","","","","","","","","","","","","","","","","",""
"","","","","","image-keyboard-response","308","952279","0.0-3.0-7.0-1.38","5d083644613fce001b2a1001","B2","batch2","pattern_response","1407.199999988079","stim/yes_35_dia_b1.png","f","pattern_57","f","true","","","","1407.199999988079","true","70","","","","","","","","","","","","","","","","",""
"","","","","","html-button-response","309","955405","0.0-3.0-8.0","5d083644613fce001b2a1001","B2","batch2","","2614.300000011921","<p class = block-text>This concludes the 4-in-a-row detection game.Thank you for your responses!<br>
            You responded correctly on 90% of the trials.<br>
            When you are ready, press ""Continue"" button to continue </p>","0","","","","","","","","","","","","","","","","","","","","","","","","","",""
"true","","","","","fullscreen","310","957191","0.0-4.0-0.0","5d083644613fce001b2a1001","B2","batch2","","","","","","","","","","","","","","","","","","","","","","","","","","","","","",""
"","","","","","instructions","311","982812","0.0-4.0-1.0-0.0-0.0","5d083644613fce001b2a1001","B2","batch2","tol-instructions","25620.100000023842","","","","","","","","[{""page_index"":0,""viewing_time"":8707.699999988079},{""page_index"":1,""viewing_time"":4089.699999988079},{""page_index"":2,""viewing_time"":2862.5},{""page_index"":3,""viewing_time"":4120},{""page_index"":4,""viewing_time"":1511.7000000476837},{""page_index"":5,""viewing_time"":2976},{""page_index"":6,""viewing_time"":1352.199999988079}]","","","","","","","","","","","","","","","","","","","",""
"","","","","","html-button-response","312","983772","0.0-4.0-1.0-1.0-0.0","5d083644613fce001b2a1001","B2","batch2","tol_enter_quiz","959","<p class=block-text> Let's answer a few questions <br>","0","","","","","","","","","","","","","","","","","","","","","","","","","",""
"","","","","","html-button-response","313","988492","0.0-4.0-1.0-1.0-1.0","5d083644613fce001b2a1001","B2","batch2","tol_quiz","4717.100000023842","<p class = block-text>True or False: You can only move the ball on top of a peg. <br></p>","1","","","false","","","","","","","","","","","","","","","","","","","","","","",""
"","","","","","html-button-response","314","989797","0.0-4.0-1.0-1.0-2.0","5d083644613fce001b2a1001","B2","batch2","tol_quiz_feedback","1303.300000011921","<p class = block-text>Incorrect. Remember, you can only move the ball on top of a peg.</p>","0","","","","","","","","","","","","","","","","","","","","","","","","","",""
"","","","","","html-button-response","315","992844","0.0-4.0-1.0-1.0-3.0","5d083644613fce001b2a1001","B2","batch2","tol_quiz","3046.600000023842","<p class = block-text>True or False: You should try to match your board with the target board with fewest moves possible. <br></p>","0","","","true","","","","","","","","","","","","","","","","","","","","","","",""
"","","","","","html-button-response","316","993380","0.0-4.0-1.0-1.0-4.0","5d083644613fce001b2a1001","B2","batch2","tol_quiz_feedback","535","<p class = block-text>Correct! </p>","0","","","","","","","","","","","","","","","","","","","","","","","","","",""
"","","","","","html-button-response","317","993919","0.0-4.0-1.0-2.0-0.0","5d083644613fce001b2a1001","B2","batch2","","536.8000000119209","<p class = block-text>You made too many incorrect choices.</p><p class = block-text>You will now repeat the instructions and quiz</p>","0","","","","","","","","","","","","","","","","","","","","","","","","","",""
"","","","","","instructions","318","998966","0.0-4.0-1.1-0.1-0.1","5d083644613fce001b2a1001","B2","batch2","tol-instructions","5045.399999976158","","","","","","","","[{""page_index"":0,""viewing_time"":891.5},{""page_index"":1,""viewing_time"":824.3000000119209},{""page_index"":2,""viewing_time"":807.6999999880791},{""page_index"":3,""viewing_time"":432.10000002384186},{""page_index"":4,""viewing_time"":473.5999999642372},{""page_index"":5,""viewing_time"":799.9000000357628},{""page_index"":6,""viewing_time"":815.5}]","","","","","","","","","","","","","","","","","","","",""
"","","","","","html-button-response","319","999572","0.0-4.0-1.1-1.1-0.1","5d083644613fce001b2a1001","B2","batch2","tol_enter_quiz","604.8999999761581","<p class=block-text> Let's answer a few questions <br>","0","","","","","","","","","","","","","","","","","","","","","","","","","",""
"","","","","","html-button-response","320","1000566","0.0-4.0-1.1-1.1-1.1","5d083644613fce001b2a1001","B2","batch2","tol_quiz","992.2999999523163","<p class = block-text>True or False: You can only move the ball on top of a peg. <br></p>","0","","","true","","","","","","","","","","","","","","","","","","","","","","",""
"","","","","","html-button-response","321","1001084","0.0-4.0-1.1-1.1-2.1","5d083644613fce001b2a1001","B2","batch2","tol_quiz_feedback","517.4000000357628","<p class = block-text>Correct! You can only move the ball on top of a peg.</p>","0","","","","","","","","","","","","","","","","","","","","","","","","","",""
"","","","","","html-button-response","322","1001949","0.0-4.0-1.1-1.1-3.1","5d083644613fce001b2a1001","B2","batch2","tol_quiz","863.4000000357628","<p class = block-text>True or False: You should try to match your board with the target board with fewest moves possible. <br></p>","0","","","true","","","","","","","","","","","","","","","","","","","","","","",""
"","","","","","html-button-response","323","1002485","0.0-4.0-1.1-1.1-4.1","5d083644613fce001b2a1001","B2","batch2","tol_quiz_feedback","533.9000000357628","<p class = block-text>Correct! </p>","0","","","","","","","","","","","","","","","","","","","","","","","","","",""
"","","","","","html-button-response","324","1003100","0.0-4.0-2.0","5d083644613fce001b2a1001","B2","batch2","","614.5999999642372","<p class=block-text> Now that you've understood the game, let's practice a few easier examples before we start!<br> <br>","0","","","","","","","","","","","","","","","","","","","","","","","","","",""
"","","","","","single-stim-button","325","1011648","0.0-4.0-3.0-0.0","5d083644613fce001b2a1001","B2","batch2","tol_practice","8545","","","","","","","","","","","","","","tol_peg_2","8545","8545","0","[[1,2,0],[0,0],[0]]","1","[[1,2,0],[0,0],[3]]","practice","8545","","","","","",""
"","","","","","single-stim-button","326","1012813","0.0-4.0-3.0-1.0","5d083644613fce001b2a1001","B2","batch2","tol_practice","1165","","","","","","","","","","","","","","tol_peg_3","1165","1165","0","[[1,2,0],[0,0],[3]]","1","[[1,2,0],[0,0],[3]]","practice","1165","","","","","",""
"","","","","","poldrack-single-stim","327","1013830","0.0-4.0-4.0","5d083644613fce001b2a1001","B2","batch2","tol_feedback","-1","","","","","true","","","","","","","","","","1000","1000","500","","","","","","-1","none","true","","0",""
"","","","","","single-stim-button","328","1019157","0.0-4.0-5.0-0.0","5d083644613fce001b2a1001","B2","batch2","tol_practice","5325","","","","","","","","","","","","","","tol_peg_1","5325","5325","0","[[1,0,0],[3,0],[0]]","2","[[0,0,0],[3,1],[2]]","practice","5325","","","","","",""
"","","","","","single-stim-button","329","1020085","0.0-4.0-5.0-1.0","5d083644613fce001b2a1001","B2","batch2","tol_practice","927","","","","","","","","","","","","","","tol_peg_3","927","927","0","[[1,0,0],[3,0],[2]]","2","[[0,0,0],[3,1],[2]]","practice","927","","","","","",""
"","","","","","single-stim-button","330","1022469","0.0-4.0-5.1-0.1","5d083644613fce001b2a1001","B2","batch2","tol_practice","2383","","","","","","","","","","","","","","tol_peg_1","2383","2383","0","[[0,0,0],[3,0],[2]]","3","[[0,0,0],[3,1],[2]]","practice","2383","","","","","",""
"","","","","","single-stim-button","331","1024132","0.0-4.0-5.1-1.1","5d083644613fce001b2a1001","B2","batch2","tol_practice","1663","","","","","","","","","","","","","","tol_peg_2","1663","1663","0","[[0,0,0],[3,1],[2]]","3","[[0,0,0],[3,1],[2]]","practice","1663","","","","","",""
"","","","","","poldrack-single-stim","332","1025133","0.0-4.0-6.0","5d083644613fce001b2a1001","B2","batch2","tol_feedback","-1","","","","","true","","","","","","","","","","1000","1000","500","","","","","","-1","none","true","","0",""
"","","","","","single-stim-button","333","1026989","0.0-4.0-7.0-0.0","5d083644613fce001b2a1001","B2","batch2","tol_practice","1854","","","","","","","","","","","","","","tol_peg_2","1854","1854","0","[[1,2,0],[0,0],[0]]","4","[[1,0,0],[2,0],[3]]","practice","1854","","","","","",""
"","","","","","single-stim-button","334","1027942","0.0-4.0-7.0-1.0","5d083644613fce001b2a1001","B2","batch2","tol_practice","952","","","","","","","","","","","","","","tol_peg_3","952","952","0","[[1,2,0],[0,0],[3]]","4","[[1,0,0],[2,0],[3]]","practice","952","","","","","",""
"","","","","","single-stim-button","335","1029549","0.0-4.0-7.1-0.1","5d083644613fce001b2a1001","B2","batch2","tol_practice","1605","","","","","","","","","","","","","","tol_peg_1","1605","1605","0","[[1,0,0],[0,0],[3]]","5","[[1,0,0],[2,0],[3]]","practice","1605","","","","","",""
"","","","","","single-stim-button","336","1030358","0.0-4.0-7.1-1.1","5d083644613fce001b2a1001","B2","batch2","tol_practice","808","","","","","","","","","","","","","","tol_peg_2","808","808","0","[[1,0,0],[2,0],[3]]","5","[[1,0,0],[2,0],[3]]","practice","808","","","","","",""
"","","","","","poldrack-single-stim","337","1031360","0.0-4.0-8.0","5d083644613fce001b2a1001","B2","batch2","tol_feedback","-1","","","","","true","","","","","","","","","","1000","1000","500","","","","","","-1","none","true","","0",""
"","","","","","html-button-response","338","1032236","0.0-4.0-9.0","5d083644613fce001b2a1001","B2","batch2","tol_instruction","875.1999999880791","<div class = centerbox><p class = center-block-text>Great job! You are done with practice trials<br>You are about to start official trials.<br> <br> Problem <strong>1</strong> out of 25 problems</p></div>","0","","","","","","","","","","","","","","","","","","","","","","","","","",""
"","","","","","single-stim-button","339","1036732","0.0-4.0-10.0-0.0","5d083644613fce001b2a1001","B2","batch2","tol_tohand","3493","","","","","","","","","","","","","","tol_peg_2","3493","3493","0","[[1,2,0],[0,0],[0]]","1","[[1,3,0],[2,0],[0]]","0","0","","","","","","3"
"","","","","","single-stim-button","340","1039837","0.0-4.0-10.0-1.0","5d083644613fce001b2a1001","B2","batch2","tol_toboard","3103","","","","","","","","","","","","","","tol_peg_3","3103","3103","0","[[1,2,0],[0,0],[3]]","1","[[1,3,0],[2,0],[0]]","0","0","","","","","","3"
"","","","","","single-stim-button","341","1040605","0.0-4.0-10.1-0.1","5d083644613fce001b2a1001","B2","batch2","tol_tohand","767","","","","","","","","","","","","","","tol_peg_1","767","767","0","[[1,0,0],[0,0],[3]]","2","[[1,3,0],[2,0],[0]]","0","0","","","","","","3"
"","","","","","single-stim-button","342","1041740","0.0-4.0-10.1-1.1","5d083644613fce001b2a1001","B2","batch2","tol_toboard","1135","","","","","","","","","","","","","","tol_peg_2","1135","1135","0","[[1,0,0],[2,0],[3]]","2","[[1,3,0],[2,0],[0]]","0","0","","","","","","3"
"","","","","","single-stim-button","343","1042717","0.0-4.0-10.2-0.2","5d083644613fce001b2a1001","B2","batch2","tol_tohand","975","","","","","","","","","","","","","","tol_peg_3","975","975","0","[[1,0,0],[2,0],[0]]","3","[[1,3,0],[2,0],[0]]","0","0","","","","","","3"
"","","","","","single-stim-button","344","1043516","0.0-4.0-10.2-1.2","5d083644613fce001b2a1001","B2","batch2","tol_toboard","799","","","","","","","","","","","","","","tol_peg_1","799","799","0","[[1,3,0],[2,0],[0]]","3","[[1,3,0],[2,0],[0]]","0","0","","","","","","3"
