"success","timeout","failed_images","failed_audio","failed_video","trial_type","trial_index","time_elapsed","internal_node_id","subject_id","study_id","session_id","task","rt","stimulus","response","item","answer","correct","spm_correct","spm_rt","view_history","fiar_detect_rt","fiar_detect_correct","total_correct_fiar_detect","post_trial_gap","choices","mouse_click","stim_duration","block_duration","timing_post_trial","current_position","tol_num_moves_made","tol_target","tol_problem_id","tol_rt","key_press","possible_responses","tol_correct","preplanning","tol_rt_per_trial","tol_min_moves"
"true","false","[]","[]","[]","preload","0","1110","0.0-0.0","5d0a7c784cf0d90018b049c6","F1","batch6","","","","","","","","","","","","","","","","","","","","","","","","","","","","","",""
"true","","","","","fullscreen","1","47633","0.0-1.0-0.0","5d0a7c784cf0d90018b049c6","F1","batch6","","","","","","","","","","","","","","","","","","","","","","","","","","","","","",""
"true","","","","","fullscreen","2","51504","0.0-2.0-0.0","5d0a7c784cf0d90018b049c6","F1","batch6","spm_fullscreen","","","","","","","","","","","","","","","","","","","","","","","","","","","","",""
"","","","","","html-button-response","3","60511","0.0-2.0-1.0","5d0a7c784cf0d90018b049c6","F1","batch6","","9014.09999999404","<p class = block-text><b>Instructions</b> <br>This is a widely used intelligence test in research. <br>In this test, a figure with a missing piece will be presented.<br>Below the figure are alternative pieces to complete the figure, only one of which is correct.<br> Different figures might involve different principles for obtaining the missing piece<br>Your job is to select the most logical piece to complete the figure.</p>","0","","","","","","","","","","","","","","","","","","","","","","","","","",""
"","","","","","html-keyboard-response","4","61319","0.0-2.0-2.0-0.0","5d0a7c784cf0d90018b049c6","F1","batch6","spm_show_trial_num","null","<p class=block-text>Trial 1 out of 60</p>","null","","","","","","","","","","","","","","","","","","","","","","","","","",""
"","","","","","image-button-response","5","87888","0.0-2.0-2.0-1.0","5d0a7c784cf0d90018b049c6","F1","batch6","spm_respsonse","26571.90000000596","img/question_1_1.jpeg","3","mat_01","4","1","1","26571.90000000596","","","","","","","","","","","","","","","","","","","","",""
"","","","","","html-keyboard-response","6","88950","0.0-2.0-2.0-0.1","5d0a7c784cf0d90018b049c6","F1","batch6","spm_show_trial_num","null","<p class=block-text>Trial 2 out of 60</p>","null","","","","","","","","","","","","","","","","","","","","","","","","","",""
"","","","","","image-button-response","7","93320","0.0-2.0-2.0-1.1","5d0a7c784cf0d90018b049c6","F1","batch6","spm_respsonse","4369.4000000059605","img/question_1_2.jpeg","4","mat_02","5","1","1","4369.4000000059605","","","","","","","","","","","","","","","","","","","","",""
"","","","","","html-keyboard-response","8","94388","0.0-2.0-2.0-0.2","5d0a7c784cf0d90018b049c6","F1","batch6","spm_show_trial_num","null","<p class=block-text>Trial 3 out of 60</p>","null","","","","","","","","","","","","","","","","","","","","","","","","","",""
"","","","","","image-button-response","9","100221","0.0-2.0-2.0-1.2","5d0a7c784cf0d90018b049c6","F1","batch6","spm_respsonse","5831.200000017881","img/question_1_3.jpeg","0","mat_03","1","1","1","5831.200000017881","","","","","","","","","","","","","","","","","","","","",""
"","","","","","html-keyboard-response","10","101286","0.0-2.0-2.0-0.3","5d0a7c784cf0d90018b049c6","F1","batch6","spm_show_trial_num","null","<p class=block-text>Trial 4 out of 60</p>","null","","","","","","","","","","","","","","","","","","","","","","","","","",""
"","","","","","image-button-response","11","104238","0.0-2.0-2.0-1.3","5d0a7c784cf0d90018b049c6","F1","batch6","spm_respsonse","2949.899999976158","img/question_1_4.jpeg","1","mat_04","2","1","1","2949.899999976158","","","","","","","","","","","","","","","","","","","","",""
"","","","","","html-keyboard-response","12","105303","0.0-2.0-2.0-0.4","5d0a7c784cf0d90018b049c6","F1","batch6","spm_show_trial_num","null","<p class=block-text>Trial 5 out of 60</p>","null","","","","","","","","","","","","","","","","","","","","","","","","","",""
"","","","","","image-button-response","13","111054","0.0-2.0-2.0-1.4","5d0a7c784cf0d90018b049c6","F1","batch6","spm_respsonse","5749.699999988079","img/question_1_5.jpeg","5","mat_05","6","1","1","5749.699999988079","","","","","","","","","","","","","","","","","","","","",""
"","","","","","html-keyboard-response","14","112113","0.0-2.0-2.0-0.5","5d0a7c784cf0d90018b049c6","F1","batch6","spm_show_trial_num","null","<p class=block-text>Trial 6 out of 60</p>","null","","","","","","","","","","","","","","","","","","","","","","","","","",""
"","","","","","image-button-response","15","115805","0.0-2.0-2.0-1.5","5d0a7c784cf0d90018b049c6","F1","batch6","spm_respsonse","3689.600000023842","img/question_1_6.jpeg","2","mat_06","3","1","1","3689.600000023842","","","","","","","","","","","","","","","","","","","","",""
"","","","","","html-keyboard-response","16","116868","0.0-2.0-2.0-0.6","5d0a7c784cf0d90018b049c6","F1","batch6","spm_show_trial_num","null","<p class=block-text>Trial 7 out of 60</p>","null","","","","","","","","","","","","","","","","","","","","","","","","","",""
"","","","","","image-button-response","17","123389","0.0-2.0-2.0-1.6","5d0a7c784cf0d90018b049c6","F1","batch6","spm_respsonse","6519.5999999940395","img/question_1_7.jpeg","5","mat_07","6","1","1","6519.5999999940395","","","","","","","","","","","","","","","","","","","","",""
"","","","","","html-keyboard-response","18","124450","0.0-2.0-2.0-0.7","5d0a7c784cf0d90018b049c6","F1","batch6","spm_show_trial_num","null","<p class=block-text>Trial 8 out of 60</p>","null","","","","","","","","","","","","","","","","","","","","","","","","","",""
"","","","","","image-button-response","19","137657","0.0-2.0-2.0-1.7","5d0a7c784cf0d90018b049c6","F1","batch6","spm_respsonse","13205.5","img/question_1_8.jpeg","1","mat_08","2","1","1","13205.5","","","","","","","","","","","","","","","","","","","","",""
"","","","","","html-keyboard-response","20","138721","0.0-2.0-2.0-0.8","5d0a7c784cf0d90018b049c6","F1","batch6","spm_show_trial_num","null","<p class=block-text>Trial 9 out of 60</p>","null","","","","","","","","","","","","","","","","","","","","","","","","","",""
"","","","","","image-button-response","21","152457","0.0-2.0-2.0-1.8","5d0a7c784cf0d90018b049c6","F1","batch6","spm_respsonse","13735.100000023842","img/question_1_9.jpeg","0","mat_09","1","1","1","13735.100000023842","","","","","","","","","","","","","","","","","","","","",""
"","","","","","html-keyboard-response","22","153524","0.0-2.0-2.0-0.9","5d0a7c784cf0d90018b049c6","F1","batch6","spm_show_trial_num","null","<p class=block-text>Trial 10 out of 60</p>","null","","","","","","","","","","","","","","","","","","","","","","","","","",""
"","","","","","image-button-response","23","160425","0.0-2.0-2.0-1.9","5d0a7c784cf0d90018b049c6","F1","batch6","spm_respsonse","6898.5","img/question_1_10.jpeg","2","mat_10","3","1","1","6898.5","","","","","","","","","","","","","","","","","","","","",""
"","","","","","html-keyboard-response","24","161489","0.0-2.0-2.0-0.10","5d0a7c784cf0d90018b049c6","F1","batch6","spm_show_trial_num","null","<p class=block-text>Trial 11 out of 60</p>","null","","","","","","","","","","","","","","","","","","","","","","","","","",""
"","","","","","image-button-response","25","173642","0.0-2.0-2.0-1.10","5d0a7c784cf0d90018b049c6","F1","batch6","spm_respsonse","12151.800000011921","img/question_1_11.jpeg","4","mat_11","4","0","0","12151.800000011921","","","","","","","","","","","","","","","","","","","","",""
"","","","","","html-keyboard-response","26","174703","0.0-2.0-2.0-0.11","5d0a7c784cf0d90018b049c6","F1","batch6","spm_show_trial_num","null","<p class=block-text>Trial 12 out of 60</p>","null","","","","","","","","","","","","","","","","","","","","","","","","","",""
"","","","","","image-button-response","27","187644","0.0-2.0-2.0-1.11","5d0a7c784cf0d90018b049c6","F1","batch6","spm_respsonse","12939.800000011921","img/question_1_12.jpeg","4","mat_12","5","1","1","12939.800000011921","","","","","","","","","","","","","","","","","","","","",""
"","","","","","html-keyboard-response","28","188712","0.0-2.0-2.0-0.12","5d0a7c784cf0d90018b049c6","F1","batch6","spm_show_trial_num","null","<p class=block-text>Trial 13 out of 60</p>","null","","","","","","","","","","","","","","","","","","","","","","","","","",""
"","","","","","image-button-response","29","191160","0.0-2.0-2.0-1.12","5d0a7c784cf0d90018b049c6","F1","batch6","spm_respsonse","2446.5","img/question_2_1.jpeg","1","mat_13","2","1","1","2446.5","","","","","","","","","","","","","","","","","","","","",""
"","","","","","html-keyboard-response","30","192223","0.0-2.0-2.0-0.13","5d0a7c784cf0d90018b049c6","F1","batch6","spm_show_trial_num","null","<p class=block-text>Trial 14 out of 60</p>","null","","","","","","","","","","","","","","","","","","","","","","","","","",""
"","","","","","image-button-response","31","195811","0.0-2.0-2.0-1.13","5d0a7c784cf0d90018b049c6","F1","batch6","spm_respsonse","3586.4000000059605","img/question_2_2.jpeg","5","mat_14","6","1","1","3586.4000000059605","","","","","","","","","","","","","","","","","","","","",""
"","","","","","html-keyboard-response","32","196865","0.0-2.0-2.0-0.14","5d0a7c784cf0d90018b049c6","F1","batch6","spm_show_trial_num","null","<p class=block-text>Trial 15 out of 60</p>","null","","","","","","","","","","","","","","","","","","","","","","","","","",""
"","","","","","image-button-response","33","200762","0.0-2.0-2.0-1.14","5d0a7c784cf0d90018b049c6","F1","batch6","spm_respsonse","3894.5","img/question_2_3.jpeg","0","mat_15","1","1","1","3894.5","","","","","","","","","","","","","","","","","","","","",""
"","","","","","html-keyboard-response","34","201821","0.0-2.0-2.0-0.15","5d0a7c784cf0d90018b049c6","F1","batch6","spm_show_trial_num","null","<p class=block-text>Trial 16 out of 60</p>","null","","","","","","","","","","","","","","","","","","","","","","","","","",""
"","","","","","image-button-response","35","206596","0.0-2.0-2.0-1.15","5d0a7c784cf0d90018b049c6","F1","batch6","spm_respsonse","4773.200000017881","img/question_2_4.jpeg","1","mat_16","2","1","1","4773.200000017881","","","","","","","","","","","","","","","","","","","","",""
"","","","","","html-keyboard-response","36","207662","0.0-2.0-2.0-0.16","5d0a7c784cf0d90018b049c6","F1","batch6","spm_show_trial_num","null","<p class=block-text>Trial 17 out of 60</p>","null","","","","","","","","","","","","","","","","","","","","","","","","","",""
"","","","","","image-button-response","37","212130","0.0-2.0-2.0-1.16","5d0a7c784cf0d90018b049c6","F1","batch6","spm_respsonse","4466.200000017881","img/question_2_5.jpeg","0","mat_17","1","1","1","4466.200000017881","","","","","","","","","","","","","","","","","","","","",""
"","","","","","html-keyboard-response","38","213189","0.0-2.0-2.0-0.17","5d0a7c784cf0d90018b049c6","F1","batch6","spm_show_trial_num","null","<p class=block-text>Trial 18 out of 60</p>","null","","","","","","","","","","","","","","","","","","","","","","","","","",""
"","","","","","image-button-response","39","218480","0.0-2.0-2.0-1.17","5d0a7c784cf0d90018b049c6","F1","batch6","spm_respsonse","5289.300000011921","img/question_2_6.jpeg","2","mat_18","3","1","1","5289.300000011921","","","","","","","","","","","","","","","","","","","","",""
"","","","","","html-keyboard-response","40","219544","0.0-2.0-2.0-0.18","5d0a7c784cf0d90018b049c6","F1","batch6","spm_show_trial_num","null","<p class=block-text>Trial 19 out of 60</p>","null","","","","","","","","","","","","","","","","","","","","","","","","","",""
"","","","","","image-button-response","41","223163","0.0-2.0-2.0-1.18","5d0a7c784cf0d90018b049c6","F1","batch6","spm_respsonse","3617.300000011921","img/question_2_7.jpeg","5","mat_19","5","0","0","3617.300000011921","","","","","","","","","","","","","","","","","","","","",""
"","","","","","html-keyboard-response","42","224230","0.0-2.0-2.0-0.19","5d0a7c784cf0d90018b049c6","F1","batch6","spm_show_trial_num","null","<p class=block-text>Trial 20 out of 60</p>","null","","","","","","","","","","","","","","","","","","","","","","","","","",""
"","","","","","image-button-response","43","229881","0.0-2.0-2.0-1.19","5d0a7c784cf0d90018b049c6","F1","batch6","spm_respsonse","5649.799999982119","img/question_2_8.jpeg","5","mat_20","6","1","1","5649.799999982119","","","","","","","","","","","","","","","","","","","","",""
"","","","","","html-keyboard-response","44","230943","0.0-2.0-2.0-0.20","5d0a7c784cf0d90018b049c6","F1","batch6","spm_show_trial_num","null","<p class=block-text>Trial 21 out of 60</p>","null","","","","","","","","","","","","","","","","","","","","","","","","","",""
"","","","","","image-button-response","45","236082","0.0-2.0-2.0-1.20","5d0a7c784cf0d90018b049c6","F1","batch6","spm_respsonse","5136.5","img/question_2_9.jpeg","3","mat_21","4","1","1","5136.5","","","","","","","","","","","","","","","","","","","","",""
"","","","","","html-keyboard-response","46","237142","0.0-2.0-2.0-0.21","5d0a7c784cf0d90018b049c6","F1","batch6","spm_show_trial_num","null","<p class=block-text>Trial 22 out of 60</p>","null","","","","","","","","","","","","","","","","","","","","","","","","","",""
"","","","","","image-button-response","47","242366","0.0-2.0-2.0-1.21","5d0a7c784cf0d90018b049c6","F1","batch6","spm_respsonse","5221.5","img/question_2_10.jpeg","2","mat_22","3","1","1","5221.5","","","","","","","","","","","","","","","","","","","","",""
"","","","","","html-keyboard-response","48","243429","0.0-2.0-2.0-0.22","5d0a7c784cf0d90018b049c6","F1","batch6","spm_show_trial_num","null","<p class=block-text>Trial 23 out of 60</p>","null","","","","","","","","","","","","","","","","","","","","","","","","","",""
"","","","","","image-button-response","49","249867","0.0-2.0-2.0-1.22","5d0a7c784cf0d90018b049c6","F1","batch6","spm_respsonse","6436.0999999940395","img/question_2_11.jpeg","3","mat_23","4","1","1","6436.0999999940395","","","","","","","","","","","","","","","","","","","","",""
"","","","","","html-keyboard-response","50","250925","0.0-2.0-2.0-0.23","5d0a7c784cf0d90018b049c6","F1","batch6","spm_show_trial_num","null","<p class=block-text>Trial 24 out of 60</p>","null","","","","","","","","","","","","","","","","","","","","","","","","","",""
"","","","","","image-button-response","51","261950","0.0-2.0-2.0-1.23","5d0a7c784cf0d90018b049c6","F1","batch6","spm_respsonse","11023.200000017881","img/question_2_12.jpeg","5","mat_24","5","0","0","11023.200000017881","","","","","","","","","","","","","","","","","","","","",""
"","","","","","html-button-response","52","264800","0.0-2.0-3.0","5d0a7c784cf0d90018b049c6","F1","batch6","attention_check","2593","<p class = block-text>Attention check: Please choose 1<br></p>","0","","","true","","","","","","","","","","","","","","","","","","","","","","",""
"","","","","","html-keyboard-response","53","265607","0.0-2.0-4.0-0.0","5d0a7c784cf0d90018b049c6","F1","batch6","spm_show_trial_num","null","<p class=block-text>Trial 25 out of 60</p>","null","","","","","","","","","","","","","","","","","","","","","","","","","",""
"","","","","","image-button-response","54","274452","0.0-2.0-4.0-1.0","5d0a7c784cf0d90018b049c6","F1","batch6","spm_respsonse","8843.59999999404","img/question_3_1.jpeg","7","mat_25","8","1","1","8843.59999999404","","","","","","","","","","","","","","","","","","","","",""
"","","","","","html-keyboard-response","55","275517","0.0-2.0-4.0-0.1","5d0a7c784cf0d90018b049c6","F1","batch6","spm_show_trial_num","null","<p class=block-text>Trial 26 out of 60</p>","null","","","","","","","","","","","","","","","","","","","","","","","","","",""
"","","","","","image-button-response","56","287170","0.0-2.0-4.0-1.1","5d0a7c784cf0d90018b049c6","F1","batch6","spm_respsonse","11651","img/question_3_2.jpeg","1","mat_26","2","1","1","11651","","","","","","","","","","","","","","","","","","","","",""
"","","","","","html-keyboard-response","57","288239","0.0-2.0-4.0-0.2","5d0a7c784cf0d90018b049c6","F1","batch6","spm_show_trial_num","null","<p class=block-text>Trial 27 out of 60</p>","null","","","","","","","","","","","","","","","","","","","","","","","","","",""
"","","","","","image-button-response","58","296221","0.0-2.0-4.0-1.2","5d0a7c784cf0d90018b049c6","F1","batch6","spm_respsonse","7979.5999999940395","img/question_3_3.jpeg","2","mat_27","3","1","1","7979.5999999940395","","","","","","","","","","","","","","","","","","","","",""
"","","","","","html-keyboard-response","59","297283","0.0-2.0-4.0-0.3","5d0a7c784cf0d90018b049c6","F1","batch6","spm_show_trial_num","null","<p class=block-text>Trial 28 out of 60</p>","null","","","","","","","","","","","","","","","","","","","","","","","","","",""
"","","","","","image-button-response","60","302488","0.0-2.0-4.0-1.3","5d0a7c784cf0d90018b049c6","F1","batch6","spm_respsonse","5203.5999999940395","img/question_3_4.jpeg","7","mat_28","8","1","1","5203.5999999940395","","","","","","","","","","","","","","","","","","","","",""
"","","","","","html-keyboard-response","61","303555","0.0-2.0-4.0-0.4","5d0a7c784cf0d90018b049c6","F1","batch6","spm_show_trial_num","null","<p class=block-text>Trial 29 out of 60</p>","null","","","","","","","","","","","","","","","","","","","","","","","","","",""
"","","","","","image-button-response","62","307755","0.0-2.0-4.0-1.4","5d0a7c784cf0d90018b049c6","F1","batch6","spm_respsonse","4198.300000011921","img/question_3_5.jpeg","6","mat_29","7","1","1","4198.300000011921","","","","","","","","","","","","","","","","","","","","",""
"","","","","","html-keyboard-response","63","308821","0.0-2.0-4.0-0.5","5d0a7c784cf0d90018b049c6","F1","batch6","spm_show_trial_num","null","<p class=block-text>Trial 30 out of 60</p>","null","","","","","","","","","","","","","","","","","","","","","","","","","",""
"","","","","","image-button-response","64","315539","0.0-2.0-4.0-1.5","5d0a7c784cf0d90018b049c6","F1","batch6","spm_respsonse","6716.199999988079","img/question_3_6.jpeg","3","mat_30","4","1","1","6716.199999988079","","","","","","","","","","","","","","","","","","","","",""
"","","","","","html-keyboard-response","65","316604","0.0-2.0-4.0-0.6","5d0a7c784cf0d90018b049c6","F1","batch6","spm_show_trial_num","null","<p class=block-text>Trial 31 out of 60</p>","null","","","","","","","","","","","","","","","","","","","","","","","","","",""
"","","","","","image-button-response","66","329757","0.0-2.0-4.0-1.6","5d0a7c784cf0d90018b049c6","F1","batch6","spm_respsonse","13151.800000011921","img/question_3_7.jpeg","4","mat_31","5","1","1","13151.800000011921","","","","","","","","","","","","","","","","","","","","",""
"","","","","","html-keyboard-response","67","330819","0.0-2.0-4.0-0.7","5d0a7c784cf0d90018b049c6","F1","batch6","spm_show_trial_num","null","<p class=block-text>Trial 32 out of 60</p>","null","","","","","","","","","","","","","","","","","","","","","","","","","",""
"","","","","","image-button-response","68","347525","0.0-2.0-4.0-1.7","5d0a7c784cf0d90018b049c6","F1","batch6","spm_respsonse","16704.30000001192","img/question_3_8.jpeg","3","mat_32","1","0","0","16704.30000001192","","","","","","","","","","","","","","","","","","","","",""
"","","","","","html-keyboard-response","69","348586","0.0-2.0-4.0-0.8","5d0a7c784cf0d90018b049c6","F1","batch6","spm_show_trial_num","null","<p class=block-text>Trial 33 out of 60</p>","null","","","","","","","","","","","","","","","","","","","","","","","","","",""
"","","","","","image-button-response","70","373328","0.0-2.0-4.0-1.8","5d0a7c784cf0d90018b049c6","F1","batch6","spm_respsonse","24740.80000001192","img/question_3_9.jpeg","6","mat_33","7","1","1","24740.80000001192","","","","","","","","","","","","","","","","","","","","",""
"","","","","","html-keyboard-response","71","374393","0.0-2.0-4.0-0.9","5d0a7c784cf0d90018b049c6","F1","batch6","spm_show_trial_num","null","<p class=block-text>Trial 34 out of 60</p>","null","","","","","","","","","","","","","","","","","","","","","","","","","",""
"","","","","","image-button-response","72","398031","0.0-2.0-4.0-1.9","5d0a7c784cf0d90018b049c6","F1","batch6","spm_respsonse","23636.19999998808","img/question_3_10.jpeg","7","mat_34","6","0","0","23636.19999998808","","","","","","","","","","","","","","","","","","","","",""
"","","","","","html-keyboard-response","73","399091","0.0-2.0-4.0-0.10","5d0a7c784cf0d90018b049c6","F1","batch6","spm_show_trial_num","null","<p class=block-text>Trial 35 out of 60</p>","null","","","","","","","","","","","","","","","","","","","","","","","","","",""
"","","","","","image-button-response","74","408881","0.0-2.0-4.0-1.10","5d0a7c784cf0d90018b049c6","F1","batch6","spm_respsonse","9788.800000011921","img/question_3_11.jpeg","3","mat_35","1","0","0","9788.800000011921","","","","","","","","","","","","","","","","","","","","",""
"","","","","","html-keyboard-response","75","409947","0.0-2.0-4.0-0.11","5d0a7c784cf0d90018b049c6","F1","batch6","spm_show_trial_num","null","<p class=block-text>Trial 36 out of 60</p>","null","","","","","","","","","","","","","","","","","","","","","","","","","",""
"","","","","","image-button-response","76","426166","0.0-2.0-4.0-1.11","5d0a7c784cf0d90018b049c6","F1","batch6","spm_respsonse","16217.5","img/question_3_12.jpeg","6","mat_36","2","0","0","16217.5","","","","","","","","","","","","","","","","","","","","",""
"","","","","","html-keyboard-response","77","427234","0.0-2.0-4.0-0.12","5d0a7c784cf0d90018b049c6","F1","batch6","spm_show_trial_num","null","<p class=block-text>Trial 37 out of 60</p>","null","","","","","","","","","","","","","","","","","","","","","","","","","",""
"","","","","","image-button-response","78","431984","0.0-2.0-4.0-1.12","5d0a7c784cf0d90018b049c6","F1","batch6","spm_respsonse","4747.4000000059605","img/question_4_1.jpeg","2","mat_37","3","1","1","4747.4000000059605","","","","","","","","","","","","","","","","","","","","",""
"","","","","","html-keyboard-response","79","433051","0.0-2.0-4.0-0.13","5d0a7c784cf0d90018b049c6","F1","batch6","spm_show_trial_num","null","<p class=block-text>Trial 38 out of 60</p>","null","","","","","","","","","","","","","","","","","","","","","","","","","",""
"","","","","","image-button-response","80","438051","0.0-2.0-4.0-1.13","5d0a7c784cf0d90018b049c6","F1","batch6","spm_respsonse","4997.5999999940395","img/question_4_2.jpeg","3","mat_38","4","1","1","4997.5999999940395","","","","","","","","","","","","","","","","","","","","",""
"","","","","","html-keyboard-response","81","439111","0.0-2.0-4.0-0.14","5d0a7c784cf0d90018b049c6","F1","batch6","spm_show_trial_num","null","<p class=block-text>Trial 39 out of 60</p>","null","","","","","","","","","","","","","","","","","","","","","","","","","",""
"","","","","","image-button-response","82","444251","0.0-2.0-4.0-1.14","5d0a7c784cf0d90018b049c6","F1","batch6","spm_respsonse","5138.4000000059605","img/question_4_3.jpeg","2","mat_39","3","1","1","5138.4000000059605","","","","","","","","","","","","","","","","","","","","",""
"","","","","","html-keyboard-response","83","445320","0.0-2.0-4.0-0.15","5d0a7c784cf0d90018b049c6","F1","batch6","spm_show_trial_num","null","<p class=block-text>Trial 40 out of 60</p>","null","","","","","","","","","","","","","","","","","","","","","","","","","",""
"","","","","","image-button-response","84","451935","0.0-2.0-4.0-1.15","5d0a7c784cf0d90018b049c6","F1","batch6","spm_respsonse","6613.700000017881","img/question_4_4.jpeg","6","mat_40","7","1","1","6613.700000017881","","","","","","","","","","","","","","","","","","","","",""
"","","","","","html-keyboard-response","85","453000","0.0-2.0-4.0-0.16","5d0a7c784cf0d90018b049c6","F1","batch6","spm_show_trial_num","null","<p class=block-text>Trial 41 out of 60</p>","null","","","","","","","","","","","","","","","","","","","","","","","","","",""
"","","","","","image-button-response","86","461220","0.0-2.0-4.0-1.16","5d0a7c784cf0d90018b049c6","F1","batch6","spm_respsonse","8217.800000011921","img/question_4_5.jpeg","7","mat_41","8","1","1","8217.800000011921","","","","","","","","","","","","","","","","","","","","",""
"","","","","","html-keyboard-response","87","462287","0.0-2.0-4.0-0.17","5d0a7c784cf0d90018b049c6","F1","batch6","spm_show_trial_num","null","<p class=block-text>Trial 42 out of 60</p>","null","","","","","","","","","","","","","","","","","","","","","","","","","",""
"","","","","","image-button-response","88","476138","0.0-2.0-4.0-1.17","5d0a7c784cf0d90018b049c6","F1","batch6","spm_respsonse","13848.700000017881","img/question_4_6.jpeg","5","mat_42","6","1","1","13848.700000017881","","","","","","","","","","","","","","","","","","","","",""
"","","","","","html-keyboard-response","89","477198","0.0-2.0-4.0-0.18","5d0a7c784cf0d90018b049c6","F1","batch6","spm_show_trial_num","null","<p class=block-text>Trial 43 out of 60</p>","null","","","","","","","","","","","","","","","","","","","","","","","","","",""
"","","","","","image-button-response","90","509725","0.0-2.0-4.0-1.18","5d0a7c784cf0d90018b049c6","F1","batch6","spm_respsonse","32525.399999976158","img/question_4_7.jpeg","4","mat_43","5","1","1","32525.399999976158","","","","","","","","","","","","","","","","","","","","",""
"","","","","","html-keyboard-response","91","510790","0.0-2.0-4.0-0.19","5d0a7c784cf0d90018b049c6","F1","batch6","spm_show_trial_num","null","<p class=block-text>Trial 44 out of 60</p>","null","","","","","","","","","","","","","","","","","","","","","","","","","",""
"","","","","","image-button-response","92","523359","0.0-2.0-4.0-1.19","5d0a7c784cf0d90018b049c6","F1","batch6","spm_respsonse","12567.5","img/question_4_8.jpeg","3","mat_44","4","1","1","12567.5","","","","","","","","","","","","","","","","","","","","",""
"","","","","","html-keyboard-response","93","524422","0.0-2.0-4.0-0.20","5d0a7c784cf0d90018b049c6","F1","batch6","spm_show_trial_num","null","<p class=block-text>Trial 45 out of 60</p>","null","","","","","","","","","","","","","","","","","","","","","","","","","",""
"","","","","","image-button-response","94","540793","0.0-2.0-4.0-1.20","5d0a7c784cf0d90018b049c6","F1","batch6","spm_respsonse","16369.799999982119","img/question_4_9.jpeg","2","mat_45","1","0","0","16369.799999982119","","","","","","","","","","","","","","","","","","","","",""
"","","","","","html-keyboard-response","95","541864","0.0-2.0-4.0-0.21","5d0a7c784cf0d90018b049c6","F1","batch6","spm_show_trial_num","null","<p class=block-text>Trial 46 out of 60</p>","null","","","","","","","","","","","","","","","","","","","","","","","","","",""
"","","","","","image-button-response","96","570980","0.0-2.0-4.0-1.21","5d0a7c784cf0d90018b049c6","F1","batch6","spm_respsonse","29115.20000001788","img/question_4_10.jpeg","1","mat_46","2","1","1","29115.20000001788","","","","","","","","","","","","","","","","","","","","",""
"","","","","","html-keyboard-response","97","572046","0.0-2.0-4.0-0.22","5d0a7c784cf0d90018b049c6","F1","batch6","spm_show_trial_num","null","<p class=block-text>Trial 47 out of 60</p>","null","","","","","","","","","","","","","","","","","","","","","","","","","",""
"","","","","","image-button-response","98","593015","0.0-2.0-4.0-1.22","5d0a7c784cf0d90018b049c6","F1","batch6","spm_respsonse","20967.79999998212","img/question_4_11.jpeg","7","mat_47","5","0","0","20967.79999998212","","","","","","","","","","","","","","","","","","","","",""
"","","","","","html-keyboard-response","99","594077","0.0-2.0-4.0-0.23","5d0a7c784cf0d90018b049c6","F1","batch6","spm_show_trial_num","null","<p class=block-text>Trial 48 out of 60</p>","null","","","","","","","","","","","","","","","","","","","","","","","","","",""
"","","","","","image-button-response","100","599883","0.0-2.0-4.0-1.23","5d0a7c784cf0d90018b049c6","F1","batch6","spm_respsonse","5803.4000000059605","img/question_4_12.jpeg","3","mat_48","6","0","0","5803.4000000059605","","","","","","","","","","","","","","","","","","","","",""
"","","","","","html-keyboard-response","101","600946","0.0-2.0-4.0-0.24","5d0a7c784cf0d90018b049c6","F1","batch6","spm_show_trial_num","null","<p class=block-text>Trial 49 out of 60</p>","null","","","","","","","","","","","","","","","","","","","","","","","","","",""
"","","","","","image-button-response","102","614233","0.0-2.0-4.0-1.24","5d0a7c784cf0d90018b049c6","F1","batch6","spm_respsonse","13284.59999999404","img/question_5_1.jpeg","6","mat_49","7","1","1","13284.59999999404","","","","","","","","","","","","","","","","","","","","",""
"","","","","","html-keyboard-response","103","615292","0.0-2.0-4.0-0.25","5d0a7c784cf0d90018b049c6","F1","batch6","spm_show_trial_num","null","<p class=block-text>Trial 50 out of 60</p>","null","","","","","","","","","","","","","","","","","","","","","","","","","",""
"","","","","","image-button-response","104","657771","0.0-2.0-4.0-1.25","5d0a7c784cf0d90018b049c6","F1","batch6","spm_respsonse","42477.80000001192","img/question_5_2.jpeg","5","mat_50","6","1","1","42477.80000001192","","","","","","","","","","","","","","","","","","","","",""
"","","","","","html-keyboard-response","105","658835","0.0-2.0-4.0-0.26","5d0a7c784cf0d90018b049c6","F1","batch6","spm_show_trial_num","null","<p class=block-text>Trial 51 out of 60</p>","null","","","","","","","","","","","","","","","","","","","","","","","","","",""
"","","","","","image-button-response","106","672173","0.0-2.0-4.0-1.26","5d0a7c784cf0d90018b049c6","F1","batch6","spm_respsonse","13335.40000000596","img/question_5_3.jpeg","7","mat_51","8","1","1","13335.40000000596","","","","","","","","","","","","","","","","","","","","",""
"","","","","","html-keyboard-response","107","673238","0.0-2.0-4.0-0.27","5d0a7c784cf0d90018b049c6","F1","batch6","spm_show_trial_num","null","<p class=block-text>Trial 52 out of 60</p>","null","","","","","","","","","","","","","","","","","","","","","","","","","",""
"","","","","","image-button-response","108","684490","0.0-2.0-4.0-1.27","5d0a7c784cf0d90018b049c6","F1","batch6","spm_respsonse","11250","img/question_5_4.jpeg","1","mat_52","2","1","1","11250","","","","","","","","","","","","","","","","","","","","",""
"","","","","","html-keyboard-response","109","685554","0.0-2.0-4.0-0.28","5d0a7c784cf0d90018b049c6","F1","batch6","spm_show_trial_num","null","<p class=block-text>Trial 53 out of 60</p>","null","","","","","","","","","","","","","","","","","","","","","","","","","",""
"","","","","","image-button-response","110","694508","0.0-2.0-4.0-1.28","5d0a7c784cf0d90018b049c6","F1","batch6","spm_respsonse","8952.300000011921","img/question_5_5.jpeg","0","mat_53","1","1","1","8952.300000011921","","","","","","","","","","","","","","","","","","","","",""
"","","","","","html-keyboard-response","111","695576","0.0-2.0-4.0-0.29","5d0a7c784cf0d90018b049c6","F1","batch6","spm_show_trial_num","null","<p class=block-text>Trial 54 out of 60</p>","null","","","","","","","","","","","","","","","","","","","","","","","","","",""
"","","","","","image-button-response","112","716260","0.0-2.0-4.0-1.29","5d0a7c784cf0d90018b049c6","F1","batch6","spm_respsonse","20681.90000000596","img/question_5_6.jpeg","4","mat_54","5","1","1","20681.90000000596","","","","","","","","","","","","","","","","","","","","",""
"","","","","","html-keyboard-response","113","717325","0.0-2.0-4.0-0.30","5d0a7c784cf0d90018b049c6","F1","batch6","spm_show_trial_num","null","<p class=block-text>Trial 55 out of 60</p>","null","","","","","","","","","","","","","","","","","","","","","","","","","",""
"","","","","","image-button-response","114","733978","0.0-2.0-4.0-1.30","5d0a7c784cf0d90018b049c6","F1","batch6","spm_respsonse","16651.20000001788","img/question_5_7.jpeg","3","mat_55","1","0","0","16651.20000001788","","","","","","","","","","","","","","","","","","","","",""
"","","","","","html-keyboard-response","115","735045","0.0-2.0-4.0-0.31","5d0a7c784cf0d90018b049c6","F1","batch6","spm_show_trial_num","null","<p class=block-text>Trial 56 out of 60</p>","null","","","","","","","","","","","","","","","","","","","","","","","","","",""
"","","","","","image-button-response","116","758330","0.0-2.0-4.0-1.31","5d0a7c784cf0d90018b049c6","F1","batch6","spm_respsonse","23283.70000001788","img/question_5_8.jpeg","1","mat_56","6","0","0","23283.70000001788","","","","","","","","","","","","","","","","","","","","",""
"","","","","","html-keyboard-response","117","759399","0.0-2.0-4.0-0.32","5d0a7c784cf0d90018b049c6","F1","batch6","spm_show_trial_num","null","<p class=block-text>Trial 57 out of 60</p>","null","","","","","","","","","","","","","","","","","","","","","","","","","",""
"","","","","","image-button-response","118","774432","0.0-2.0-4.0-1.32","5d0a7c784cf0d90018b049c6","F1","batch6","spm_respsonse","15031.699999988079","img/question_5_9.jpeg","2","mat_57","3","1","1","15031.699999988079","","","","","","","","","","","","","","","","","","","","",""
"","","","","","html-keyboard-response","119","775492","0.0-2.0-4.0-0.33","5d0a7c784cf0d90018b049c6","F1","batch6","spm_show_trial_num","null","<p class=block-text>Trial 58 out of 60</p>","null","","","","","","","","","","","","","","","","","","","","","","","","","",""
"","","","","","image-button-response","120","795317","0.0-2.0-4.0-1.33","5d0a7c784cf0d90018b049c6","F1","batch6","spm_respsonse","19823.5","img/question_5_10.jpeg","2","mat_58","2","0","0","19823.5","","","","","","","","","","","","","","","","","","","","",""
"","","","","","html-keyboard-response","121","796379","0.0-2.0-4.0-0.34","5d0a7c784cf0d90018b049c6","F1","batch6","spm_show_trial_num","null","<p class=block-text>Trial 59 out of 60</p>","null","","","","","","","","","","","","","","","","","","","","","","","","","",""
"","","","","","image-button-response","122","807501","0.0-2.0-4.0-1.34","5d0a7c784cf0d90018b049c6","F1","batch6","spm_respsonse","11120.199999988079","img/question_5_11.jpeg","0","mat_59","4","0","0","11120.199999988079","","","","","","","","","","","","","","","","","","","","",""
"","","","","","html-keyboard-response","123","808562","0.0-2.0-4.0-0.35","5d0a7c784cf0d90018b049c6","F1","batch6","spm_show_trial_num","null","<p class=block-text>Trial 60 out of 60</p>","null","","","","","","","","","","","","","","","","","","","","","","","","","",""
"","","","","","image-button-response","124","858123","0.0-2.0-4.0-1.35","5d0a7c784cf0d90018b049c6","F1","batch6","spm_respsonse","49560.5","img/question_5_12.jpeg","0","mat_60","5","0","0","49560.5","","","","","","","","","","","","","","","","","","","","",""
"","","","","","html-button-response","125","860707","0.0-2.0-5.0","5d0a7c784cf0d90018b049c6","F1","batch6","spm_goodbye","2324.7999999821186","<p class= block-text>This concludes the Standard Progressive Matrix game. Thank you for your responses!<br> When you are ready, click the button continue</p>","0","","","","","","","","","","","","","","","","","","","","","","","","","",""
"true","","","","","fullscreen","126","863946","0.0-3.0-0.0","5d0a7c784cf0d90018b049c6","F1","batch6","","","","","","","","","","","","","","","","","","","","","","","","","","","","","",""
"","","","","","instructions","127","883858","0.0-3.0-1.0-0.0","5d0a7c784cf0d90018b049c6","F1","batch6","","19911.90000000596","","","","","","","","[{""page_index"":0,""viewing_time"":14478.300000011921},{""page_index"":1,""viewing_time"":5433.300000011921}]","","","","","","","","","","","","","","","","","","","",""
"","","","","","html-button-response","128","885776","0.0-3.0-1.0-1.0-0.0","5d0a7c784cf0d90018b049c6","F1","batch6","pattern_enter_quiz","1916.7000000178814","<p class=block-text> Let's answer a few questions <br>","0","","","","","","","","","","","","","","","","","","","","","","","","","",""
"","","","","","html-button-response","129","887859","0.0-3.0-1.0-1.0-1.0","5d0a7c784cf0d90018b049c6","F1","batch6","pattern_quiz","2082","<p class = block-text>True or False: You will have as much time as you want to make each choice. <br></p>","1","","","true","","","","","","","","","","","","","","","","","","","","","","",""
"","","","","","html-button-response","130","889009","0.0-3.0-1.0-1.0-2.0","5d0a7c784cf0d90018b049c6","F1","batch6","pattern_quiz_feedback","1148.4000000059605","<p class = block-text>Correct! You should make your choice <strong> as fast as you can</strong>.</p>","0","","","","","","","","","","","","","","","","","","","","","","","","","",""
"","","","","","html-button-response","131","891442","0.0-3.0-1.0-1.0-3.0","5d0a7c784cf0d90018b049c6","F1","batch6","pattern_quiz","2432.5999999940395","<p class = block-text>True or False: You will look for 4 pieces in black or white color connected in a row either horizontally, vertically or diagonally. <br></p>","0","","","true","","","","","","","","","","","","","","","","","","","","","","",""
"","","","","","html-button-response","132","892176","0.0-3.0-1.0-1.0-4.0","5d0a7c784cf0d90018b049c6","F1","batch6","pattern_quiz_feedback","731.9000000059605","<p class = block-text>Correct! </p>","0","","","","","","","","","","","","","","","","","","","","","","","","","",""
"","","","","","html-button-response","133","893276","0.0-3.0-2.0","5d0a7c784cf0d90018b049c6","F1","batch6","pattern_enter_practice","1098.5","<p class=block-text> Now that you've understood the game, let's do a few practice trials before we start!<br> <br>","0","","","","","","","","","","","","","","","","","","","","","","","","","",""
"","","","","","image-keyboard-response","134","895040","0.0-3.0-3.0-0.0","5d0a7c784cf0d90018b049c6","F1","batch6","pattern_practice","1762","stim/prac_yes_20_dia_b1.png","j","","f","false","","","","","","","","","","","","","","","","","","","","","","",""
"","","","","","html-keyboard-response","135","896052","0.0-3.0-3.0-1.0","5d0a7c784cf0d90018b049c6","F1","batch6","pattern_feedback","null","<p style=""font-size:30px;color:red;"">Wrong.</p>","null","","","","","","","","","","","","","","","","","","","","","","","","","",""
"","","","","","image-keyboard-response","136","897989","0.0-3.0-3.0-0.1","5d0a7c784cf0d90018b049c6","F1","batch6","pattern_practice","1935.5","stim/prac_no_16_1.png","j","","j","true","","","","","","","","","","","","","","","","","","","","","","",""
"","","","","","html-keyboard-response","137","899000","0.0-3.0-3.0-1.1","5d0a7c784cf0d90018b049c6","F1","batch6","pattern_feedback","null","<p style=""font-size:30px;color:green;"">Correct!</p>","null","","","","","","","","","","","","","","","","","","","","","","","","","",""
"","","","","","image-keyboard-response","138","899717","0.0-3.0-3.0-0.2","5d0a7c784cf0d90018b049c6","F1","batch6","pattern_practice","715.7000000178814","stim/prac_yes_16_ver_w1.png","f","","f","true","","","","","","","","","","","","","","","","","","","","","","",""
"","","","","","html-keyboard-response","139","900738","0.0-3.0-3.0-1.2","5d0a7c784cf0d90018b049c6","F1","batch6","pattern_feedback","null","<p style=""font-size:30px;color:green;"">Correct!</p>","null","","","","","","","","","","","","","","","","","","","","","","","","","",""
"","","","","","image-keyboard-response","140","901669","0.0-3.0-3.0-0.3","5d0a7c784cf0d90018b049c6","F1","batch6","pattern_practice","929","stim/prac_yes_18_hor_w1.png","f","","f","true","","","","","","","","","","","","","","","","","","","","","","",""
"","","","","","html-keyboard-response","141","902684","0.0-3.0-3.0-1.3","5d0a7c784cf0d90018b049c6","F1","batch6","pattern_feedback","null","<p style=""font-size:30px;color:green;"">Correct!</p>","null","","","","","","","","","","","","","","","","","","","","","","","","","",""
"","","","","","image-keyboard-response","142","904284","0.0-3.0-3.0-0.4","5d0a7c784cf0d90018b049c6","F1","batch6","pattern_practice","1599.4000000059605","stim/prac_no_18_1.png","j","","j","true","","","","","","","","","","","","","","","","","","","","","","",""
"","","","","","html-keyboard-response","143","905305","0.0-3.0-3.0-1.4","5d0a7c784cf0d90018b049c6","F1","batch6","pattern_feedback","null","<p style=""font-size:30px;color:green;"">Correct!</p>","null","","","","","","","","","","","","","","","","","","","","","","","","","",""
"","","","","","html-button-response","144","908277","0.0-3.0-4.0","5d0a7c784cf0d90018b049c6","F1","batch6","pattern_enter_official_trials","2971.5","<p class=block-text> Good job! You are done with practice trials!<br>
        You responded correctly on 80% of the trials.<br>
        Press the button below to start official trials. Now you won't see any feedback about your response</p>","0","","","","","","","","","","","","","","","","","","","","","","","","","",""
"","","","","","html-keyboard-response","145","909087","0.0-3.0-5.0-0.0","5d0a7c784cf0d90018b049c6","F1","batch6","pattern_show_trial_num","null","<p class=block-text>Trial 1 out of 78</p>","null","","","","","","","","","","","","","","","","","","","","","","","","","",""
"","","","","","image-keyboard-response","146","911341","0.0-3.0-5.0-1.0","5d0a7c784cf0d90018b049c6","F1","batch6","pattern_response","2251.699999988079","stim/no_53_1_b.png","f","pattern_33","j","false","","","","2251.699999988079","false","0","","","","","","","","","","","","","","","","",""
"","","","","","html-keyboard-response","147","912654","0.0-3.0-5.0-0.1","5d0a7c784cf0d90018b049c6","F1","batch6","pattern_show_trial_num","null","<p class=block-text>Trial 2 out of 78</p>","null","","","","","","","","","","","","","","","","","","","","","","","","","",""
"","","","","","image-keyboard-response","148","914300","0.0-3.0-5.0-1.1","5d0a7c784cf0d90018b049c6","F1","batch6","pattern_response","1644","stim/yes_53_ver_b1_b.png","f","pattern_74","f","true","","","","1644","true","1","","","","","","","","","","","","","","","","",""
"","","","","","html-keyboard-response","149","915614","0.0-3.0-5.0-0.2","5d0a7c784cf0d90018b049c6","F1","batch6","pattern_show_trial_num","null","<p class=block-text>Trial 3 out of 78</p>","null","","","","","","","","","","","","","","","","","","","","","","","","","",""
"","","","","","image-keyboard-response","150","916716","0.0-3.0-5.0-1.2","5d0a7c784cf0d90018b049c6","F1","batch6","pattern_response","1100.5999999940395","stim/yes_37_hor_w1_w.png","f","pattern_60","f","true","","","","1100.5999999940395","true","2","","","","","","","","","","","","","","","","",""
"","","","","","html-keyboard-response","151","918035","0.0-3.0-5.0-0.3","5d0a7c784cf0d90018b049c6","F1","batch6","pattern_show_trial_num","null","<p class=block-text>Trial 4 out of 78</p>","null","","","","","","","","","","","","","","","","","","","","","","","","","",""
"","","","","","image-keyboard-response","152","920044","0.0-3.0-5.0-1.3","5d0a7c784cf0d90018b049c6","F1","batch6","pattern_response","2006.9000000059605","stim/no_43_2_b.png","j","pattern_23","j","true","","","","2006.9000000059605","true","3","","","","","","","","","","","","","","","","",""
"","","","","","html-keyboard-response","153","921360","0.0-3.0-5.0-0.4","5d0a7c784cf0d90018b049c6","F1","batch6","pattern_show_trial_num","null","<p class=block-text>Trial 5 out of 78</p>","null","","","","","","","","","","","","","","","","","","","","","","","","","",""
"","","","","","image-keyboard-response","154","922332","0.0-3.0-5.0-1.4","5d0a7c784cf0d90018b049c6","F1","batch6","pattern_response","971.1000000238419","stim/yes_29_hor_b1_b.png","f","pattern_52","f","true","","","","971.1000000238419","true","4","","","","","","","","","","","","","","","","",""
"","","","","","html-keyboard-response","155","923651","0.0-3.0-5.0-0.5","5d0a7c784cf0d90018b049c6","F1","batch6","pattern_show_trial_num","null","<p class=block-text>Trial 6 out of 78</p>","null","","","","","","","","","","","","","","","","","","","","","","","","","",""
"","","","","","image-keyboard-response","156","924931","0.0-3.0-5.0-1.5","5d0a7c784cf0d90018b049c6","F1","batch6","pattern_response","1279","stim/no_12_1.png","j","pattern_01","j","true","","","","1279","true","5","","","","","","","","","","","","","","","","",""
"","","","","","html-keyboard-response","157","926251","0.0-3.0-5.0-0.6","5d0a7c784cf0d90018b049c6","F1","batch6","pattern_show_trial_num","null","<p class=block-text>Trial 7 out of 78</p>","null","","","","","","","","","","","","","","","","","","","","","","","","","",""
"","","","","","image-keyboard-response","158","930868","0.0-3.0-5.0-1.6","5d0a7c784cf0d90018b049c6","F1","batch6","pattern_response","4615.0999999940395","stim/no_51_1.png","j","pattern_31","j","true","","","","4615.0999999940395","true","6","","","","","","","","","","","","","","","","",""
"","","","","","html-keyboard-response","159","932186","0.0-3.0-5.0-0.7","5d0a7c784cf0d90018b049c6","F1","batch6","pattern_show_trial_num","null","<p class=block-text>Trial 8 out of 78</p>","null","","","","","","","","","","","","","","","","","","","","","","","","","",""
"","","","","","image-keyboard-response","160","933284","0.0-3.0-5.0-1.7","5d0a7c784cf0d90018b049c6","F1","batch6","pattern_response","1096.5999999940395","stim/yes_17_ver_b1_b.png","f","pattern_46","f","true","","","","1096.5999999940395","true","7","","","","","","","","","","","","","","","","",""
"","","","","","html-keyboard-response","161","934602","0.0-3.0-5.0-0.8","5d0a7c784cf0d90018b049c6","F1","batch6","pattern_show_trial_num","null","<p class=block-text>Trial 9 out of 78</p>","null","","","","","","","","","","","","","","","","","","","","","","","","","",""
"","","","","","image-keyboard-response","162","939443","0.0-3.0-5.0-1.8","5d0a7c784cf0d90018b049c6","F1","batch6","pattern_response","4839.799999982119","stim/no_37_2_w.png","j","pattern_19","j","true","","","","4839.799999982119","true","8","","","","","","","","","","","","","","","","",""
"","","","","","html-keyboard-response","163","940760","0.0-3.0-5.0-0.9","5d0a7c784cf0d90018b049c6","F1","batch6","pattern_show_trial_num","null","<p class=block-text>Trial 10 out of 78</p>","null","","","","","","","","","","","","","","","","","","","","","","","","","",""
"","","","","","image-keyboard-response","164","944996","0.0-3.0-5.0-1.9","5d0a7c784cf0d90018b049c6","F1","batch6","pattern_response","4234.9000000059605","stim/no_30_1_b.png","j","pattern_13","j","true","","","","4234.9000000059605","true","9","","","","","","","","","","","","","","","","",""
"","","","","","html-keyboard-response","165","946313","0.0-3.0-5.0-0.10","5d0a7c784cf0d90018b049c6","F1","batch6","pattern_show_trial_num","null","<p class=block-text>Trial 11 out of 78</p>","null","","","","","","","","","","","","","","","","","","","","","","","","","",""
"","","","","","image-keyboard-response","166","951187","0.0-3.0-5.0-1.10","5d0a7c784cf0d90018b049c6","F1","batch6","pattern_response","4872.5999999940395","stim/no_39_1_w.png","j","pattern_21","j","true","","","","4872.5999999940395","true","10","","","","","","","","","","","","","","","","",""
"","","","","","html-keyboard-response","167","952505","0.0-3.0-5.0-0.11","5d0a7c784cf0d90018b049c6","F1","batch6","pattern_show_trial_num","null","<p class=block-text>Trial 12 out of 78</p>","null","","","","","","","","","","","","","","","","","","","","","","","","","",""
"","","","","","image-keyboard-response","168","953907","0.0-3.0-5.0-1.11","5d0a7c784cf0d90018b049c6","F1","batch6","pattern_response","1400.0999999940395","stim/yes_70_ver_b1.png","f","pattern_80","f","true","","","","1400.0999999940395","true","11","","","","","","","","","","","","","","","","",""
"","","","","","html-keyboard-response","169","955224","0.0-3.0-5.0-0.12","5d0a7c784cf0d90018b049c6","F1","batch6","pattern_show_trial_num","null","<p class=block-text>Trial 13 out of 78</p>","null","","","","","","","","","","","","","","","","","","","","","","","","","",""
"","","","","","image-keyboard-response","170","956914","0.0-3.0-5.0-1.12","5d0a7c784cf0d90018b049c6","F1","batch6","pattern_response","1688.5999999940395","stim/yes_23_ver_b1.png","f","pattern_48","f","true","","","","1688.5999999940395","true","12","","","","","","","","","","","","","","","","",""
"","","","","","html-keyboard-response","171","958233","0.0-3.0-5.0-0.13","5d0a7c784cf0d90018b049c6","F1","batch6","pattern_show_trial_num","null","<p class=block-text>Trial 14 out of 78</p>","null","","","","","","","","","","","","","","","","","","","","","","","","","",""
"","","","","","image-keyboard-response","172","959058","0.0-3.0-5.0-1.13","5d0a7c784cf0d90018b049c6","F1","batch6","pattern_response","823.3000000119209","stim/yes_36_ver_w1_w.png","f","pattern_58","f","true","","","","823.3000000119209","true","13","","","","","","","","","","","","","","","","",""
"","","","","","html-keyboard-response","173","960374","0.0-3.0-5.0-0.14","5d0a7c784cf0d90018b049c6","F1","batch6","pattern_show_trial_num","null","<p class=block-text>Trial 15 out of 78</p>","null","","","","","","","","","","","","","","","","","","","","","","","","","",""
"","","","","","image-keyboard-response","174","962842","0.0-3.0-5.0-1.14","5d0a7c784cf0d90018b049c6","F1","batch6","pattern_response","2468.0999999940395","stim/yes_46_ver_b1_b.png","j","pattern_68","f","false","","","","2468.0999999940395","false","13","","","","","","","","","","","","","","","","",""
"","","","","","html-keyboard-response","175","964156","0.0-3.0-5.0-0.15","5d0a7c784cf0d90018b049c6","F1","batch6","pattern_show_trial_num","null","<p class=block-text>Trial 16 out of 78</p>","null","","","","","","","","","","","","","","","","","","","","","","","","","",""
"","","","","","image-keyboard-response","176","968251","0.0-3.0-5.0-1.15","5d0a7c784cf0d90018b049c6","F1","batch6","pattern_response","4093.0999999940395","stim/no_33_1_b.png","j","pattern_15","j","true","","","","4093.0999999940395","true","14","","","","","","","","","","","","","","","","",""
"","","","","","html-keyboard-response","177","969567","0.0-3.0-5.0-0.16","5d0a7c784cf0d90018b049c6","F1","batch6","pattern_show_trial_num","null","<p class=block-text>Trial 17 out of 78</p>","null","","","","","","","","","","","","","","","","","","","","","","","","","",""
"","","","","","image-keyboard-response","178","971058","0.0-3.0-5.0-1.16","5d0a7c784cf0d90018b049c6","F1","batch6","pattern_response","1489.7000000178814","stim/yes_30_ver_b1_b.png","f","pattern_54","f","true","","","","1489.7000000178814","true","15","","","","","","","","","","","","","","","","",""
"","","","","","html-keyboard-response","179","972374","0.0-3.0-5.0-0.17","5d0a7c784cf0d90018b049c6","F1","batch6","pattern_show_trial_num","null","<p class=block-text>Trial 18 out of 78</p>","null","","","","","","","","","","","","","","","","","","","","","","","","","",""
"","","","","","image-keyboard-response","180","975602","0.0-3.0-5.0-1.17","5d0a7c784cf0d90018b049c6","F1","batch6","pattern_response","3226.2999999821186","stim/no_36_1_b.png","j","pattern_17","j","true","","","","3226.2999999821186","true","16","","","","","","","","","","","","","","","","",""
"","","","","","html-keyboard-response","181","976916","0.0-3.0-5.0-0.18","5d0a7c784cf0d90018b049c6","F1","batch6","pattern_show_trial_num","null","<p class=block-text>Trial 19 out of 78</p>","null","","","","","","","","","","","","","","","","","","","","","","","","","",""
"","","","","","image-keyboard-response","182","979898","0.0-3.0-5.0-1.18","5d0a7c784cf0d90018b049c6","F1","batch6","pattern_response","2980.4000000059605","stim/no_28_2.png","j","pattern_11","j","true","","","","2980.4000000059605","true","17","","","","","","","","","","","","","","","","",""
"","","","","","html-keyboard-response","183","981216","0.0-3.0-5.0-0.19","5d0a7c784cf0d90018b049c6","F1","batch6","pattern_show_trial_num","null","<p class=block-text>Trial 20 out of 78</p>","null","","","","","","","","","","","","","","","","","","","","","","","","","",""
"","","","","","image-keyboard-response","184","981921","0.0-3.0-5.0-1.19","5d0a7c784cf0d90018b049c6","F1","batch6","pattern_response","703.3000000119209","stim/yes_12_hor_w1_w.png","f","pattern_42","f","true","","","","703.3000000119209","true","18","","","","","","","","","","","","","","","","",""
"","","","","","html-keyboard-response","185","983231","0.0-3.0-5.0-0.20","5d0a7c784cf0d90018b049c6","F1","batch6","pattern_show_trial_num","null","<p class=block-text>Trial 21 out of 78</p>","null","","","","","","","","","","","","","","","","","","","","","","","","","",""
"","","","","","image-keyboard-response","186","984162","0.0-3.0-5.0-1.20","5d0a7c784cf0d90018b049c6","F1","batch6","pattern_response","929.3000000119209","stim/yes_26_dia_w2_w.png","f","pattern_50","f","true","","","","929.3000000119209","true","19","","","","","","","","","","","","","","","","",""
"","","","","","html-keyboard-response","187","985481","0.0-3.0-5.0-0.21","5d0a7c784cf0d90018b049c6","F1","batch6","pattern_show_trial_num","null","<p class=block-text>Trial 22 out of 78</p>","null","","","","","","","","","","","","","","","","","","","","","","","","","",""
"","","","","","image-keyboard-response","188","989346","0.0-3.0-5.0-1.21","5d0a7c784cf0d90018b049c6","F1","batch6","pattern_response","3863.800000011921","stim/no_58_1_w.png","j","pattern_35","j","true","","","","3863.800000011921","true","20","","","","","","","","","","","","","","","","",""
"","","","","","html-keyboard-response","189","990661","0.0-3.0-5.0-0.22","5d0a7c784cf0d90018b049c6","F1","batch6","pattern_show_trial_num","null","<p class=block-text>Trial 23 out of 78</p>","null","","","","","","","","","","","","","","","","","","","","","","","","","",""
"","","","","","image-keyboard-response","190","997418","0.0-3.0-5.0-1.22","5d0a7c784cf0d90018b049c6","F1","batch6","pattern_response","6755.9000000059605","stim/no_67_1.png","j","pattern_39","j","true","","","","6755.9000000059605","true","21","","","","","","","","","","","","","","","","",""
"","","","","","html-keyboard-response","191","998733","0.0-3.0-5.0-0.23","5d0a7c784cf0d90018b049c6","F1","batch6","pattern_show_trial_num","null","<p class=block-text>Trial 24 out of 78</p>","null","","","","","","","","","","","","","","","","","","","","","","","","","",""
"","","","","","image-keyboard-response","192","1002545","0.0-3.0-5.0-1.23","5d0a7c784cf0d90018b049c6","F1","batch6","pattern_response","3804.600000023842","stim/no_49_2_b.png","j","pattern_29","j","true","","","","3804.600000023842","true","22","","","","","","","","","","","","","","","","",""
"","","","","","html-keyboard-response","193","1003864","0.0-3.0-5.0-0.24","5d0a7c784cf0d90018b049c6","F1","batch6","pattern_show_trial_num","null","<p class=block-text>Trial 25 out of 78</p>","null","","","","","","","","","","","","","","","","","","","","","","","","","",""
"","","","","","image-keyboard-response","194","1009474","0.0-3.0-5.0-1.24","5d0a7c784cf0d90018b049c6","F1","batch6","pattern_response","5608.300000011921","stim/yes_44_ver_w1_w.png","j","pattern_66","f","false","","","","5608.300000011921","false","22","","","","","","","","","","","","","","","","",""
"","","","","","html-keyboard-response","195","1010787","0.0-3.0-5.0-0.25","5d0a7c784cf0d90018b049c6","F1","batch6","pattern_show_trial_num","null","<p class=block-text>Trial 26 out of 78</p>","null","","","","","","","","","","","","","","","","","","","","","","","","","",""
"","","","","","image-keyboard-response","196","1013281","0.0-3.0-5.0-1.25","5d0a7c784cf0d90018b049c6","F1","batch6","pattern_response","2492.399999976158","stim/no_22_1_b.png","j","pattern_07","j","true","","","","2492.399999976158","true","23","","","","","","","","","","","","","","","","",""
"","","","","","html-keyboard-response","197","1014597","0.0-3.0-5.0-0.26","5d0a7c784cf0d90018b049c6","F1","batch6","pattern_show_trial_num","null","<p class=block-text>Trial 27 out of 78</p>","null","","","","","","","","","","","","","","","","","","","","","","","","","",""
"","","","","","image-keyboard-response","198","1015808","0.0-3.0-5.0-1.26","5d0a7c784cf0d90018b049c6","F1","batch6","pattern_response","1210","stim/no_15_1_w.png","j","pattern_03","j","true","","","","1210","true","24","","","","","","","","","","","","","","","","",""
"","","","","","html-keyboard-response","199","1017128","0.0-3.0-5.0-0.27","5d0a7c784cf0d90018b049c6","F1","batch6","pattern_show_trial_num","null","<p class=block-text>Trial 28 out of 78</p>","null","","","","","","","","","","","","","","","","","","","","","","","","","",""
"","","","","","image-keyboard-response","200","1018272","0.0-3.0-5.0-1.27","5d0a7c784cf0d90018b049c6","F1","batch6","pattern_response","1143.199999988079","stim/yes_33_dia_w1_w.png","f","pattern_56","f","true","","","","1143.199999988079","true","25","","","","","","","","","","","","","","","","",""
"","","","","","html-keyboard-response","201","1019591","0.0-3.0-5.0-0.28","5d0a7c784cf0d90018b049c6","F1","batch6","pattern_show_trial_num","null","<p class=block-text>Trial 29 out of 78</p>","null","","","","","","","","","","","","","","","","","","","","","","","","","",""
"","","","","","image-keyboard-response","202","1022465","0.0-3.0-5.0-1.28","5d0a7c784cf0d90018b049c6","F1","batch6","pattern_response","2872.699999988079","stim/no_47_1_b.png","j","pattern_27","j","true","","","","2872.699999988079","true","26","","","","","","","","","","","","","","","","",""
"","","","","","html-keyboard-response","203","1023779","0.0-3.0-5.0-0.29","5d0a7c784cf0d90018b049c6","F1","batch6","pattern_show_trial_num","null","<p class=block-text>Trial 30 out of 78</p>","null","","","","","","","","","","","","","","","","","","","","","","","","","",""
"","","","","","image-keyboard-response","204","1026016","0.0-3.0-5.0-1.29","5d0a7c784cf0d90018b049c6","F1","batch6","pattern_response","2235.4000000059605","stim/no_18_1_b.png","j","pattern_05","j","true","","","","2235.4000000059605","true","27","","","","","","","","","","","","","","","","",""
"","","","","","html-keyboard-response","205","1027335","0.0-3.0-5.0-0.30","5d0a7c784cf0d90018b049c6","F1","batch6","pattern_show_trial_num","null","<p class=block-text>Trial 31 out of 78</p>","null","","","","","","","","","","","","","","","","","","","","","","","","","",""
"","","","","","image-keyboard-response","206","1031320","0.0-3.0-5.0-1.30","5d0a7c784cf0d90018b049c6","F1","batch6","pattern_response","3983.199999988079","stim/yes_42_dia_w1_w.png","f","pattern_64","f","true","","","","3983.199999988079","true","28","","","","","","","","","","","","","","","","",""
"","","","","","html-keyboard-response","207","1032635","0.0-3.0-5.0-0.31","5d0a7c784cf0d90018b049c6","F1","batch6","pattern_show_trial_num","null","<p class=block-text>Trial 32 out of 78</p>","null","","","","","","","","","","","","","","","","","","","","","","","","","",""
"","","","","","image-keyboard-response","208","1035704","0.0-3.0-5.0-1.31","5d0a7c784cf0d90018b049c6","F1","batch6","pattern_response","3067.800000011921","stim/no_45_1_w.png","j","pattern_25","j","true","","","","3067.800000011921","true","29","","","","","","","","","","","","","","","","",""
"","","","","","html-keyboard-response","209","1037018","0.0-3.0-5.0-0.32","5d0a7c784cf0d90018b049c6","F1","batch6","pattern_show_trial_num","null","<p class=block-text>Trial 33 out of 78</p>","null","","","","","","","","","","","","","","","","","","","","","","","","","",""
"","","","","","image-keyboard-response","210","1041824","0.0-3.0-5.0-1.32","5d0a7c784cf0d90018b049c6","F1","batch6","pattern_response","4804.200000017881","stim/yes_58_dia_w1_w.png","j","pattern_76","f","false","","","","4804.200000017881","false","29","","","","","","","","","","","","","","","","",""
"","","","","","html-keyboard-response","211","1043141","0.0-3.0-5.0-0.33","5d0a7c784cf0d90018b049c6","F1","batch6","pattern_show_trial_num","null","<p class=block-text>Trial 34 out of 78</p>","null","","","","","","","","","","","","","","","","","","","","","","","","","",""
"","","","","","image-keyboard-response","212","1047800","0.0-3.0-5.0-1.33","5d0a7c784cf0d90018b049c6","F1","batch6","pattern_response","4658.100000023842","stim/yes_51_dia_b1.png","f","pattern_72","f","true","","","","4658.100000023842","true","30","","","","","","","","","","","","","","","","",""
"","","","","","html-keyboard-response","213","1049117","0.0-3.0-5.0-0.34","5d0a7c784cf0d90018b049c6","F1","batch6","pattern_show_trial_num","null","<p class=block-text>Trial 35 out of 78</p>","null","","","","","","","","","","","","","","","","","","","","","","","","","",""
"","","","","","image-keyboard-response","214","1053415","0.0-3.0-5.0-1.34","5d0a7c784cf0d90018b049c6","F1","batch6","pattern_response","4296.800000011921","stim/yes_63_dia_b1.png","f","pattern_78","f","true","","","","4296.800000011921","true","31","","","","","","","","","","","","","","","","",""
"","","","","","html-keyboard-response","215","1054733","0.0-3.0-5.0-0.35","5d0a7c784cf0d90018b049c6","F1","batch6","pattern_show_trial_num","null","<p class=block-text>Trial 36 out of 78</p>","null","","","","","","","","","","","","","","","","","","","","","","","","","",""
"","","","","","image-keyboard-response","216","1059216","0.0-3.0-5.0-1.35","5d0a7c784cf0d90018b049c6","F1","batch6","pattern_response","4481.4000000059605","stim/no_25_1_b.png","j","pattern_09","j","true","","","","4481.4000000059605","true","32","","","","","","","","","","","","","","","","",""
"","","","","","html-keyboard-response","217","1060533","0.0-3.0-5.0-0.36","5d0a7c784cf0d90018b049c6","F1","batch6","pattern_show_trial_num","null","<p class=block-text>Trial 37 out of 78</p>","null","","","","","","","","","","","","","","","","","","","","","","","","","",""
"","","","","","image-keyboard-response","218","1061470","0.0-3.0-5.0-1.36","5d0a7c784cf0d90018b049c6","F1","batch6","pattern_response","936.1000000238419","stim/yes_15_dia_b1u_b.png","f","pattern_44","f","true","","","","936.1000000238419","true","33","","","","","","","","","","","","","","","","",""
"","","","","","html-keyboard-response","219","1062790","0.0-3.0-5.0-0.37","5d0a7c784cf0d90018b049c6","F1","batch6","pattern_show_trial_num","null","<p class=block-text>Trial 38 out of 78</p>","null","","","","","","","","","","","","","","","","","","","","","","","","","",""
"","","","","","image-keyboard-response","220","1063911","0.0-3.0-5.0-1.37","5d0a7c784cf0d90018b049c6","F1","batch6","pattern_response","1119.5999999940395","stim/yes_49_hor_w1_b.png","f","pattern_70","f","true","","","","1119.5999999940395","true","34","","","","","","","","","","","","","","","","",""
"","","","","","html-keyboard-response","221","1065225","0.0-3.0-5.0-0.38","5d0a7c784cf0d90018b049c6","F1","batch6","pattern_show_trial_num","null","<p class=block-text>Trial 39 out of 78</p>","null","","","","","","","","","","","","","","","","","","","","","","","","","",""
"","","","","","image-keyboard-response","222","1066183","0.0-3.0-5.0-1.38","5d0a7c784cf0d90018b049c6","F1","batch6","pattern_response","956.6999999880791","stim/yes_39_hor_w1_w.png","f","pattern_62","f","true","","","","956.6999999880791","true","35","","","","","","","","","","","","","","","","",""
"","","","","","image-keyboard-response","223","1068463","0.0-3.0-6.0","5d0a7c784cf0d90018b049c6","F1","batch6","attention_check","1769.2999999821186","stim/empty_board.png","j","","j","true","","","","","","","500","[""f"",""j""]","","","","","","","","","","","","","","",""
"","","","","","html-keyboard-response","224","1069266","0.0-3.0-7.0-0.0","5d0a7c784cf0d90018b049c6","F1","batch6","pattern_show_trial_num","null","<p class=block-text>Trial 40 out of 78</p>","null","","","","","","","","","","","","","","","","","","","","","","","","","",""
"","","","","","image-keyboard-response","225","1070711","0.0-3.0-7.0-1.0","5d0a7c784cf0d90018b049c6","F1","batch6","pattern_response","1444","stim/no_13_2_b.png","j","pattern_02","j","true","","","","1444","true","36","","","","","","","","","","","","","","","","",""
"","","","","","html-keyboard-response","226","1072026","0.0-3.0-7.0-0.1","5d0a7c784cf0d90018b049c6","F1","batch6","pattern_show_trial_num","null","<p class=block-text>Trial 41 out of 78</p>","null","","","","","","","","","","","","","","","","","","","","","","","","","",""
"","","","","","image-keyboard-response","227","1073039","0.0-3.0-7.0-1.1","5d0a7c784cf0d90018b049c6","F1","batch6","pattern_response","1011.6999999880791","stim/yes_55_hor_w1_w.png","f","pattern_75","f","true","","","","1011.6999999880791","true","37","","","","","","","","","","","","","","","","",""
"","","","","","html-keyboard-response","228","1074353","0.0-3.0-7.0-0.2","5d0a7c784cf0d90018b049c6","F1","batch6","pattern_show_trial_num","null","<p class=block-text>Trial 42 out of 78</p>","null","","","","","","","","","","","","","","","","","","","","","","","","","",""
"","","","","","image-keyboard-response","229","1075463","0.0-3.0-7.0-1.2","5d0a7c784cf0d90018b049c6","F1","batch6","pattern_response","1109.2999999821186","stim/no_20_1_w.png","j","pattern_06","j","true","","","","1109.2999999821186","true","38","","","","","","","","","","","","","","","","",""
"","","","","","html-keyboard-response","230","1076782","0.0-3.0-7.0-0.3","5d0a7c784cf0d90018b049c6","F1","batch6","pattern_show_trial_num","null","<p class=block-text>Trial 43 out of 78</p>","null","","","","","","","","","","","","","","","","","","","","","","","","","",""
"","","","","","image-keyboard-response","231","1078095","0.0-3.0-7.0-1.3","5d0a7c784cf0d90018b049c6","F1","batch6","pattern_response","1311.300000011921","stim/yes_48_dia_w1_w.png","f","pattern_69","f","true","","","","1311.300000011921","true","39","","","","","","","","","","","","","","","","",""
"","","","","","html-keyboard-response","232","1079414","0.0-3.0-7.0-0.4","5d0a7c784cf0d90018b049c6","F1","batch6","pattern_show_trial_num","null","<p class=block-text>Trial 44 out of 78</p>","null","","","","","","","","","","","","","","","","","","","","","","","","","",""
"","","","","","image-keyboard-response","233","1080839","0.0-3.0-7.0-1.4","5d0a7c784cf0d90018b049c6","F1","batch6","pattern_response","1423.9000000059605","stim/yes_38_hor_b1_b.png","f","pattern_61","f","true","","","","1423.9000000059605","true","40","","","","","","","","","","","","","","","","",""
"","","","","","html-keyboard-response","234","1082158","0.0-3.0-7.0-0.5","5d0a7c784cf0d90018b049c6","F1","batch6","pattern_show_trial_num","null","<p class=block-text>Trial 45 out of 78</p>","null","","","","","","","","","","","","","","","","","","","","","","","","","",""
"","","","","","image-keyboard-response","235","1083518","0.0-3.0-7.0-1.5","5d0a7c784cf0d90018b049c6","F1","batch6","pattern_response","1359.5999999940395","stim/yes_45_hor_b2_b.png","f","pattern_67","f","true","","","","1359.5999999940395","true","41","","","","","","","","","","","","","","","","",""
"","","","","","html-keyboard-response","236","1084833","0.0-3.0-7.0-0.6","5d0a7c784cf0d90018b049c6","F1","batch6","pattern_show_trial_num","null","<p class=block-text>Trial 46 out of 78</p>","null","","","","","","","","","","","","","","","","","","","","","","","","","",""
"","","","","","image-keyboard-response","237","1088126","0.0-3.0-7.0-1.6","5d0a7c784cf0d90018b049c6","F1","batch6","pattern_response","3291.2999999821186","stim/no_34_1_b.png","j","pattern_16","j","true","","","","3291.2999999821186","true","42","","","","","","","","","","","","","","","","",""
"","","","","","html-keyboard-response","238","1089441","0.0-3.0-7.0-0.7","5d0a7c784cf0d90018b049c6","F1","batch6","pattern_show_trial_num","null","<p class=block-text>Trial 47 out of 78</p>","null","","","","","","","","","","","","","","","","","","","","","","","","","",""
"","","","","","image-keyboard-response","239","1090214","0.0-3.0-7.0-1.7","5d0a7c784cf0d90018b049c6","F1","batch6","pattern_response","772.3000000119209","stim/yes_14_hor_b1_w.png","f","pattern_43","f","true","","","","772.3000000119209","true","43","","","","","","","","","","","","","","","","",""
"","","","","","html-keyboard-response","240","1091531","0.0-3.0-7.0-0.8","5d0a7c784cf0d90018b049c6","F1","batch6","pattern_show_trial_num","null","<p class=block-text>Trial 48 out of 78</p>","null","","","","","","","","","","","","","","","","","","","","","","","","","",""
"","","","","","image-keyboard-response","241","1095094","0.0-3.0-7.0-1.8","5d0a7c784cf0d90018b049c6","F1","batch6","pattern_response","3562.800000011921","stim/no_29_1_b.png","j","pattern_12","j","true","","","","3562.800000011921","true","44","","","","","","","","","","","","","","","","",""
"","","","","","html-keyboard-response","242","1096413","0.0-3.0-7.0-0.9","5d0a7c784cf0d90018b049c6","F1","batch6","pattern_show_trial_num","null","<p class=block-text>Trial 49 out of 78</p>","null","","","","","","","","","","","","","","","","","","","","","","","","","",""
"","","","","","image-keyboard-response","243","1100101","0.0-3.0-7.0-1.9","5d0a7c784cf0d90018b049c6","F1","batch6","pattern_response","3685.800000011921","stim/no_36_2_w.png","j","pattern_18","j","true","","","","3685.800000011921","true","45","","","","","","","","","","","","","","","","",""
"","","","","","html-keyboard-response","244","1101419","0.0-3.0-7.0-0.10","5d0a7c784cf0d90018b049c6","F1","batch6","pattern_show_trial_num","null","<p class=block-text>Trial 50 out of 78</p>","null","","","","","","","","","","","","","","","","","","","","","","","","","",""
"","","","","","image-keyboard-response","245","1103590","0.0-3.0-7.0-1.10","5d0a7c784cf0d90018b049c6","F1","batch6","pattern_response","2168.699999988079","stim/no_26_1_w.png","j","pattern_10","j","true","","","","2168.699999988079","true","46","","","","","","","","","","","","","","","","",""
"","","","","","html-keyboard-response","246","1104907","0.0-3.0-7.0-0.11","5d0a7c784cf0d90018b049c6","F1","batch6","pattern_show_trial_num","null","<p class=block-text>Trial 51 out of 78</p>","null","","","","","","","","","","","","","","","","","","","","","","","","","",""
"","","","","","image-keyboard-response","247","1106894","0.0-3.0-7.0-1.11","5d0a7c784cf0d90018b049c6","F1","batch6","pattern_response","1985.7999999821186","stim/yes_40_dia_b1_b.png","f","pattern_63","f","true","","","","1985.7999999821186","true","47","","","","","","","","","","","","","","","","",""
"","","","","","html-keyboard-response","248","1108213","0.0-3.0-7.0-0.12","5d0a7c784cf0d90018b049c6","F1","batch6","pattern_show_trial_num","null","<p class=block-text>Trial 52 out of 78</p>","null","","","","","","","","","","","","","","","","","","","","","","","","","",""
"","","","","","image-keyboard-response","249","1109374","0.0-3.0-7.0-1.12","5d0a7c784cf0d90018b049c6","F1","batch6","pattern_response","1159.800000011921","stim/yes_52_ver_w1.png","f","pattern_73","f","true","","","","1159.800000011921","true","48","","","","","","","","","","","","","","","","",""
"","","","","","html-keyboard-response","250","1110689","0.0-3.0-7.0-0.13","5d0a7c784cf0d90018b049c6","F1","batch6","pattern_show_trial_num","null","<p class=block-text>Trial 53 out of 78</p>","null","","","","","","","","","","","","","","","","","","","","","","","","","",""
"","","","","","image-keyboard-response","251","1113901","0.0-3.0-7.0-1.13","5d0a7c784cf0d90018b049c6","F1","batch6","pattern_response","3211","stim/no_50_1.png","j","pattern_30","j","true","","","","3211","true","49","","","","","","","","","","","","","","","","",""
"","","","","","html-keyboard-response","252","1115215","0.0-3.0-7.0-0.14","5d0a7c784cf0d90018b049c6","F1","batch6","pattern_show_trial_num","null","<p class=block-text>Trial 54 out of 78</p>","null","","","","","","","","","","","","","","","","","","","","","","","","","",""
"","","","","","image-keyboard-response","253","1116141","0.0-3.0-7.0-1.14","5d0a7c784cf0d90018b049c6","F1","batch6","pattern_response","924.5","stim/yes_28_ver_b1.png","f","pattern_51","f","true","","","","924.5","true","50","","","","","","","","","","","","","","","","",""
"","","","","","html-keyboard-response","254","1117456","0.0-3.0-7.0-0.15","5d0a7c784cf0d90018b049c6","F1","batch6","pattern_show_trial_num","null","<p class=block-text>Trial 55 out of 78</p>","null","","","","","","","","","","","","","","","","","","","","","","","","","",""
"","","","","","image-keyboard-response","255","1121894","0.0-3.0-7.0-1.15","5d0a7c784cf0d90018b049c6","F1","batch6","pattern_response","4437.300000011921","stim/no_62_1_w.png","j","pattern_36","j","true","","","","4437.300000011921","true","51","","","","","","","","","","","","","","","","",""
"","","","","","html-keyboard-response","256","1123212","0.0-3.0-7.0-0.16","5d0a7c784cf0d90018b049c6","F1","batch6","pattern_show_trial_num","null","<p class=block-text>Trial 56 out of 78</p>","null","","","","","","","","","","","","","","","","","","","","","","","","","",""
"","","","","","image-keyboard-response","257","1128501","0.0-3.0-7.0-1.16","5d0a7c784cf0d90018b049c6","F1","batch6","pattern_response","5287.699999988079","stim/no_44_1.png","j","pattern_24","j","true","","","","5287.699999988079","true","52","","","","","","","","","","","","","","","","",""
"","","","","","html-keyboard-response","258","1129820","0.0-3.0-7.0-0.17","5d0a7c784cf0d90018b049c6","F1","batch6","pattern_show_trial_num","null","<p class=block-text>Trial 57 out of 78</p>","null","","","","","","","","","","","","","","","","","","","","","","","","","",""
"","","","","","image-keyboard-response","259","1130750","0.0-3.0-7.0-1.17","5d0a7c784cf0d90018b049c6","F1","batch6","pattern_response","928","stim/yes_43_ver_w1_w.png","f","pattern_65","f","true","","","","928","true","53","","","","","","","","","","","","","","","","",""
"","","","","","html-keyboard-response","260","1132067","0.0-3.0-7.0-0.18","5d0a7c784cf0d90018b049c6","F1","batch6","pattern_show_trial_num","null","<p class=block-text>Trial 58 out of 78</p>","null","","","","","","","","","","","","","","","","","","","","","","","","","",""
"","","","","","image-keyboard-response","261","1132774","0.0-3.0-7.0-1.18","5d0a7c784cf0d90018b049c6","F1","batch6","pattern_response","705.5","stim/yes_25_hor_b1_b.png","f","pattern_49","f","true","","","","705.5","true","54","","","","","","","","","","","","","","","","",""
"","","","","","html-keyboard-response","262","1134092","0.0-3.0-7.0-0.19","5d0a7c784cf0d90018b049c6","F1","batch6","pattern_show_trial_num","null","<p class=block-text>Trial 59 out of 78</p>","null","","","","","","","","","","","","","","","","","","","","","","","","","",""
"","","","","","image-keyboard-response","263","1135799","0.0-3.0-7.0-1.19","5d0a7c784cf0d90018b049c6","F1","batch6","pattern_response","1705.300000011921","stim/no_32_1_w.png","j","pattern_14","j","true","","","","1705.300000011921","true","55","","","","","","","","","","","","","","","","",""
"","","","","","html-keyboard-response","264","1137113","0.0-3.0-7.0-0.20","5d0a7c784cf0d90018b049c6","F1","batch6","pattern_show_trial_num","null","<p class=block-text>Trial 60 out of 78</p>","null","","","","","","","","","","","","","","","","","","","","","","","","","",""
"","","","","","image-keyboard-response","265","1137966","0.0-3.0-7.0-1.20","5d0a7c784cf0d90018b049c6","F1","batch6","pattern_response","851.5","stim/yes_29_ver_w1.png","f","pattern_53","f","true","","","","851.5","true","56","","","","","","","","","","","","","","","","",""
"","","","","","html-keyboard-response","266","1139285","0.0-3.0-7.0-0.21","5d0a7c784cf0d90018b049c6","F1","batch6","pattern_show_trial_num","null","<p class=block-text>Trial 61 out of 78</p>","null","","","","","","","","","","","","","","","","","","","","","","","","","",""
"","","","","","image-keyboard-response","267","1141657","0.0-3.0-7.0-1.21","5d0a7c784cf0d90018b049c6","F1","batch6","pattern_response","2370.199999988079","stim/yes_50_dia_w1.png","f","pattern_71","f","true","","","","2370.199999988079","true","57","","","","","","","","","","","","","","","","",""
"","","","","","html-keyboard-response","268","1142973","0.0-3.0-7.0-0.22","5d0a7c784cf0d90018b049c6","F1","batch6","pattern_show_trial_num","null","<p class=block-text>Trial 62 out of 78</p>","null","","","","","","","","","","","","","","","","","","","","","","","","","",""
"","","","","","image-keyboard-response","269","1144264","0.0-3.0-7.0-1.22","5d0a7c784cf0d90018b049c6","F1","batch6","pattern_response","1289.300000011921","stim/yes_60_ver_b1_b.png","f","pattern_77","f","true","","","","1289.300000011921","true","58","","","","","","","","","","","","","","","","",""
"","","","","","html-keyboard-response","270","1145580","0.0-3.0-7.0-0.23","5d0a7c784cf0d90018b049c6","F1","batch6","pattern_show_trial_num","null","<p class=block-text>Trial 63 out of 78</p>","null","","","","","","","","","","","","","","","","","","","","","","","","","",""
"","","","","","image-keyboard-response","271","1146792","0.0-3.0-7.0-1.23","5d0a7c784cf0d90018b049c6","F1","batch6","pattern_response","1210.7999999821186","stim/yes_35_dia_b1.png","f","pattern_57","f","true","","","","1210.7999999821186","true","59","","","","","","","","","","","","","","","","",""
"","","","","","html-keyboard-response","272","1148110","0.0-3.0-7.0-0.24","5d0a7c784cf0d90018b049c6","F1","batch6","pattern_show_trial_num","null","<p class=block-text>Trial 64 out of 78</p>","null","","","","","","","","","","","","","","","","","","","","","","","","","",""
"","","","","","image-keyboard-response","273","1149447","0.0-3.0-7.0-1.24","5d0a7c784cf0d90018b049c6","F1","batch6","pattern_response","1336.3999999761581","stim/yes_17_dia_w1.png","f","pattern_45","f","true","","","","1336.3999999761581","true","60","","","","","","","","","","","","","","","","",""
"","","","","","html-keyboard-response","274","1150764","0.0-3.0-7.0-0.25","5d0a7c784cf0d90018b049c6","F1","batch6","pattern_show_trial_num","null","<p class=block-text>Trial 65 out of 78</p>","null","","","","","","","","","","","","","","","","","","","","","","","","","",""
"","","","","","image-keyboard-response","275","1152792","0.0-3.0-7.0-1.25","5d0a7c784cf0d90018b049c6","F1","batch6","pattern_response","2027.5","stim/yes_37_dia_w1.png","j","pattern_59","f","false","","","","2027.5","false","60","","","","","","","","","","","","","","","","",""
"","","","","","html-keyboard-response","276","1154110","0.0-3.0-7.0-0.26","5d0a7c784cf0d90018b049c6","F1","batch6","pattern_show_trial_num","null","<p class=block-text>Trial 66 out of 78</p>","null","","","","","","","","","","","","","","","","","","","","","","","","","",""
"","","","","","image-keyboard-response","277","1158145","0.0-3.0-7.0-1.26","5d0a7c784cf0d90018b049c6","F1","batch6","pattern_response","4033.300000011921","stim/no_52_1.png","j","pattern_32","j","true","","","","4033.300000011921","true","61","","","","","","","","","","","","","","","","",""
"","","","","","html-keyboard-response","278","1159464","0.0-3.0-7.0-0.27","5d0a7c784cf0d90018b049c6","F1","batch6","pattern_show_trial_num","null","<p class=block-text>Trial 67 out of 78</p>","null","","","","","","","","","","","","","","","","","","","","","","","","","",""
"","","","","","image-keyboard-response","279","1163777","0.0-3.0-7.0-1.27","5d0a7c784cf0d90018b049c6","F1","batch6","pattern_response","4311.5","stim/no_65_1_b.png","j","pattern_38","j","true","","","","4311.5","true","62","","","","","","","","","","","","","","","","",""
"","","","","","html-keyboard-response","280","1165091","0.0-3.0-7.0-0.28","5d0a7c784cf0d90018b049c6","F1","batch6","pattern_show_trial_num","null","<p class=block-text>Trial 68 out of 78</p>","null","","","","","","","","","","","","","","","","","","","","","","","","","",""
"","","","","","image-keyboard-response","281","1169458","0.0-3.0-7.0-1.28","5d0a7c784cf0d90018b049c6","F1","batch6","pattern_response","4365.299999982119","stim/no_48_1_w.png","j","pattern_28","j","true","","","","4365.299999982119","true","63","","","","","","","","","","","","","","","","",""
"","","","","","html-keyboard-response","282","1170774","0.0-3.0-7.0-0.29","5d0a7c784cf0d90018b049c6","F1","batch6","pattern_show_trial_num","null","<p class=block-text>Trial 69 out of 78</p>","null","","","","","","","","","","","","","","","","","","","","","","","","","",""
"","","","","","image-keyboard-response","283","1173848","0.0-3.0-7.0-1.29","5d0a7c784cf0d90018b049c6","F1","batch6","pattern_response","3073.0999999940395","stim/no_42_1_w.png","j","pattern_22","j","true","","","","3073.0999999940395","true","64","","","","","","","","","","","","","","","","",""
"","","","","","html-keyboard-response","284","1175163","0.0-3.0-7.0-0.30","5d0a7c784cf0d90018b049c6","F1","batch6","pattern_show_trial_num","null","<p class=block-text>Trial 70 out of 78</p>","null","","","","","","","","","","","","","","","","","","","","","","","","","",""
"","","","","","image-keyboard-response","285","1176816","0.0-3.0-7.0-1.30","5d0a7c784cf0d90018b049c6","F1","batch6","pattern_response","1651.2000000178814","stim/no_17_1_w.png","j","pattern_04","j","true","","","","1651.2000000178814","true","65","","","","","","","","","","","","","","","","",""
"","","","","","html-keyboard-response","286","1178134","0.0-3.0-7.0-0.31","5d0a7c784cf0d90018b049c6","F1","batch6","pattern_show_trial_num","null","<p class=block-text>Trial 71 out of 78</p>","null","","","","","","","","","","","","","","","","","","","","","","","","","",""
"","","","","","image-keyboard-response","287","1181385","0.0-3.0-7.0-1.31","5d0a7c784cf0d90018b049c6","F1","batch6","pattern_response","3249.7000000178814","stim/no_46_1_b.png","j","pattern_26","j","true","","","","3249.7000000178814","true","66","","","","","","","","","","","","","","","","",""
"","","","","","html-keyboard-response","288","1182701","0.0-3.0-7.0-0.32","5d0a7c784cf0d90018b049c6","F1","batch6","pattern_show_trial_num","null","<p class=block-text>Trial 72 out of 78</p>","null","","","","","","","","","","","","","","","","","","","","","","","","","",""
"","","","","","image-keyboard-response","289","1187688","0.0-3.0-7.0-1.32","5d0a7c784cf0d90018b049c6","F1","batch6","pattern_response","4986","stim/no_38_1_b.png","j","pattern_20","j","true","","","","4986","true","67","","","","","","","","","","","","","","","","",""
"","","","","","html-keyboard-response","290","1189006","0.0-3.0-7.0-0.33","5d0a7c784cf0d90018b049c6","F1","batch6","pattern_show_trial_num","null","<p class=block-text>Trial 73 out of 78</p>","null","","","","","","","","","","","","","","","","","","","","","","","","","",""
"","","","","","image-keyboard-response","291","1192048","0.0-3.0-7.0-1.33","5d0a7c784cf0d90018b049c6","F1","batch6","pattern_response","3040.5999999940395","stim/no_55_1_w.png","j","pattern_34","j","true","","","","3040.5999999940395","true","68","","","","","","","","","","","","","","","","",""
"","","","","","html-keyboard-response","292","1193364","0.0-3.0-7.0-0.34","5d0a7c784cf0d90018b049c6","F1","batch6","pattern_show_trial_num","null","<p class=block-text>Trial 74 out of 78</p>","null","","","","","","","","","","","","","","","","","","","","","","","","","",""
"","","","","","image-keyboard-response","293","1198680","0.0-3.0-7.0-1.34","5d0a7c784cf0d90018b049c6","F1","batch6","pattern_response","5314.699999988079","stim/no_70_2.png","j","pattern_40","j","true","","","","5314.699999988079","true","69","","","","","","","","","","","","","","","","",""
"","","","","","html-keyboard-response","294","1199995","0.0-3.0-7.0-0.35","5d0a7c784cf0d90018b049c6","F1","batch6","pattern_show_trial_num","null","<p class=block-text>Trial 75 out of 78</p>","null","","","","","","","","","","","","","","","","","","","","","","","","","",""
"","","","","","image-keyboard-response","295","1201000","0.0-3.0-7.0-1.35","5d0a7c784cf0d90018b049c6","F1","batch6","pattern_response","1003.3000000119209","stim/yes_22_ver_w1.png","f","pattern_47","f","true","","","","1003.3000000119209","true","70","","","","","","","","","","","","","","","","",""
"","","","","","html-keyboard-response","296","1202319","0.0-3.0-7.0-0.36","5d0a7c784cf0d90018b049c6","F1","batch6","pattern_show_trial_num","null","<p class=block-text>Trial 76 out of 78</p>","null","","","","","","","","","","","","","","","","","","","","","","","","","",""
"","","","","","image-keyboard-response","297","1204384","0.0-3.0-7.0-1.36","5d0a7c784cf0d90018b049c6","F1","batch6","pattern_response","2063.7000000178814","stim/no_23_1.png","j","pattern_08","j","true","","","","2063.7000000178814","true","71","","","","","","","","","","","","","","","","",""
"","","","","","html-keyboard-response","298","1205703","0.0-3.0-7.0-0.37","5d0a7c784cf0d90018b049c6","F1","batch6","pattern_show_trial_num","null","<p class=block-text>Trial 77 out of 78</p>","null","","","","","","","","","","","","","","","","","","","","","","","","","",""
"","","","","","image-keyboard-response","299","1208936","0.0-3.0-7.0-1.37","5d0a7c784cf0d90018b049c6","F1","batch6","pattern_response","3231","stim/yes_67_hor_b1.png","f","pattern_79","f","true","","","","3231","true","72","","","","","","","","","","","","","","","","",""
"","","","","","html-keyboard-response","300","1210254","0.0-3.0-7.0-0.38","5d0a7c784cf0d90018b049c6","F1","batch6","pattern_show_trial_num","null","<p class=block-text>Trial 78 out of 78</p>","null","","","","","","","","","","","","","","","","","","","","","","","","","",""
"","","","","","image-keyboard-response","301","1211152","0.0-3.0-7.0-1.38","5d0a7c784cf0d90018b049c6","F1","batch6","pattern_response","896.0999999940395","stim/yes_31_hor_b1.png","f","pattern_55","f","true","","","","896.0999999940395","true","73","","","","","","","","","","","","","","","","",""
"","","","","","html-button-response","302","1216394","0.0-3.0-8.0","5d0a7c784cf0d90018b049c6","F1","batch6","","4733.200000017881","<p class = block-text>This concludes the 4-in-a-row detection game.Thank you for your responses!<br>
            You responded correctly on 94% of the trials.<br>
            When you are ready, press ""Continue"" button to continue </p>","0","","","","","","","","","","","","","","","","","","","","","","","","","",""
"true","","","","","fullscreen","303","1242052","0.0-4.0-0.0","5d0a7c784cf0d90018b049c6","F1","batch6","","","","","","","","","","","","","","","","","","","","","","","","","","","","","",""
"","","","","","instructions","304","1270016","0.0-4.0-1.0-0.0-0.0","5d0a7c784cf0d90018b049c6","F1","batch6","tol-instructions","27964.29999998212","","","","","","","","[{""page_index"":0,""viewing_time"":7844.5999999940395},{""page_index"":1,""viewing_time"":4184.199999988079},{""page_index"":2,""viewing_time"":2416.5999999940395},{""page_index"":3,""viewing_time"":2383.600000023842},{""page_index"":4,""viewing_time"":3083.699999988079},{""page_index"":5,""viewing_time"":5951.0999999940395},{""page_index"":6,""viewing_time"":2100.2000000178814}]","","","","","","","","","","","","","","","","","","","",""
"","","","","","html-button-response","305","1270867","0.0-4.0-1.0-1.0-0.0","5d0a7c784cf0d90018b049c6","F1","batch6","tol_enter_quiz","849.2999999821186","<p class=block-text> Let's answer a few questions <br>","0","","","","","","","","","","","","","","","","","","","","","","","","","",""
"","","","","","html-button-response","306","1274883","0.0-4.0-1.0-1.0-1.0","5d0a7c784cf0d90018b049c6","F1","batch6","tol_quiz","4015.5","<p class = block-text>True or False: You can only move the ball on top of a peg. <br></p>","0","","","true","","","","","","","","","","","","","","","","","","","","","","",""
"","","","","","html-button-response","307","1276067","0.0-4.0-1.0-1.0-2.0","5d0a7c784cf0d90018b049c6","F1","batch6","tol_quiz_feedback","1182.2000000178814","<p class = block-text>Correct! You can only move the ball on top of a peg.</p>","0","","","","","","","","","","","","","","","","","","","","","","","","","",""
"","","","","","html-button-response","308","1278584","0.0-4.0-1.0-1.0-3.0","5d0a7c784cf0d90018b049c6","F1","batch6","tol_quiz","2516.199999988079","<p class = block-text>True or False: You should try to match your board with the target board with fewest moves possible. <br></p>","0","","","true","","","","","","","","","","","","","","","","","","","","","","",""
"","","","","","html-button-response","309","1279150","0.0-4.0-1.0-1.0-4.0","5d0a7c784cf0d90018b049c6","F1","batch6","tol_quiz_feedback","565","<p class = block-text>Correct! </p>","0","","","","","","","","","","","","","","","","","","","","","","","","","",""
"","","","","","html-button-response","310","1280050","0.0-4.0-2.0","5d0a7c784cf0d90018b049c6","F1","batch6","","899.3000000119209","<p class=block-text> Now that you've understood the game, let's practice a few easier examples before we start!<br> <br>","0","","","","","","","","","","","","","","","","","","","","","","","","","",""
"","","","","","single-stim-button","311","1287003","0.0-4.0-3.0-0.0","5d0a7c784cf0d90018b049c6","F1","batch6","tol_practice","6950","","","","","","","","","","","","","","tol_peg_2","6950","6950","0","[[1,2,0],[0,0],[0]]","1","[[1,2,0],[0,0],[3]]","practice","6950","","","","","",""
"","","","","","single-stim-button","312","1287951","0.0-4.0-3.0-1.0","5d0a7c784cf0d90018b049c6","F1","batch6","tol_practice","947","","","","","","","","","","","","","","tol_peg_3","947","947","0","[[1,2,0],[0,0],[3]]","1","[[1,2,0],[0,0],[3]]","practice","947","","","","","",""
"","","","","","poldrack-single-stim","313","1288961","0.0-4.0-4.0","5d0a7c784cf0d90018b049c6","F1","batch6","tol_feedback","-1","","","","","true","","","","","","","","","","1000","1000","500","","","","","","-1","none","true","","0",""
"","","","","","single-stim-button","314","1292802","0.0-4.0-5.0-0.0","5d0a7c784cf0d90018b049c6","F1","batch6","tol_practice","3840","","","","","","","","","","","","","","tol_peg_1","3840","3840","0","[[1,0,0],[3,0],[0]]","2","[[0,0,0],[3,1],[2]]","practice","3840","","","","","",""
"","","","","","single-stim-button","315","1294585","0.0-4.0-5.0-1.0","5d0a7c784cf0d90018b049c6","F1","batch6","tol_practice","1783","","","","","","","","","","","","","","tol_peg_3","1783","1783","0","[[1,0,0],[3,0],[2]]","2","[[0,0,0],[3,1],[2]]","practice","1783","","","","","",""
"","","","","","single-stim-button","316","1295785","0.0-4.0-5.1-0.1","5d0a7c784cf0d90018b049c6","F1","batch6","tol_practice","1199","","","","","","","","","","","","","","tol_peg_1","1199","1199","0","[[0,0,0],[3,0],[2]]","3","[[0,0,0],[3,1],[2]]","practice","1199","","","","","",""
"","","","","","single-stim-button","317","1296419","0.0-4.0-5.1-1.1","5d0a7c784cf0d90018b049c6","F1","batch6","tol_practice","632","","","","","","","","","","","","","","tol_peg_2","632","632","0","[[0,0,0],[3,1],[2]]","3","[[0,0,0],[3,1],[2]]","practice","632","","","","","",""
"","","","","","poldrack-single-stim","318","1297423","0.0-4.0-6.0","5d0a7c784cf0d90018b049c6","F1","batch6","tol_feedback","-1","","","","","true","","","","","","","","","","1000","1000","500","","","","","","-1","none","true","","0",""
"","","","","","single-stim-button","319","1300269","0.0-4.0-7.0-0.0","5d0a7c784cf0d90018b049c6","F1","batch6","tol_practice","2845","","","","","","","","","","","","","","tol_peg_2","2845","2845","0","[[1,2,0],[0,0],[0]]","4","[[1,0,0],[2,0],[3]]","practice","2845","","","","","",""
"","","","","","single-stim-button","320","1301386","0.0-4.0-7.0-1.0","5d0a7c784cf0d90018b049c6","F1","batch6","tol_practice","1116","","","","","","","","","","","","","","tol_peg_3","1116","1116","0","[[1,2,0],[0,0],[3]]","4","[[1,0,0],[2,0],[3]]","practice","1116","","","","","",""
"","","","","","single-stim-button","321","1301969","0.0-4.0-7.1-0.1","5d0a7c784cf0d90018b049c6","F1","batch6","tol_practice","582","","","","","","","","","","","","","","tol_peg_1","582","582","0","[[1,0,0],[0,0],[3]]","5","[[1,0,0],[2,0],[3]]","practice","582","","","","","",""
"","","","","","single-stim-button","322","1302786","0.0-4.0-7.1-1.1","5d0a7c784cf0d90018b049c6","F1","batch6","tol_practice","817","","","","","","","","","","","","","","tol_peg_2","817","817","0","[[1,0,0],[2,0],[3]]","5","[[1,0,0],[2,0],[3]]","practice","817","","","","","",""
"","","","","","poldrack-single-stim","323","1303796","0.0-4.0-8.0","5d0a7c784cf0d90018b049c6","F1","batch6","tol_feedback","-1","","","","","true","","","","","","","","","","1000","1000","500","","","","","","-1","none","true","","0",""
"","","","","","html-button-response","324","1304986","0.0-4.0-9.0","5d0a7c784cf0d90018b049c6","F1","batch6","tol_instruction","1188.9000000059605","<div class = centerbox><p class = center-block-text>Great job! You are done with practice trials<br>You are about to start official trials.<br> <br> Problem <strong>1</strong> out of 25 problems</p></div>","0","","","","","","","","","","","","","","","","","","","","","","","","","",""
"","","","","","single-stim-button","325","1310987","0.0-4.0-10.0-0.0","5d0a7c784cf0d90018b049c6","F1","batch6","tol_tohand","4996","","","","","","","","","","","","","","tol_peg_2","4996","4996","0","[[1,2,0],[0,0],[0]]","1","[[1,3,0],[2,0],[0]]","0","0","","","","","","3"
"","","","","","single-stim-button","326","1312737","0.0-4.0-10.0-1.0","5d0a7c784cf0d90018b049c6","F1","batch6","tol_toboard","1749","","","","","","","","","","","","","","tol_peg_3","1749","1749","0","[[1,2,0],[0,0],[3]]","1","[[1,3,0],[2,0],[0]]","0","0","","","","","","3"
"","","","","","single-stim-button","327","1314087","0.0-4.0-10.1-0.1","5d0a7c784cf0d90018b049c6","F1","batch6","tol_tohand","1349","","","","","","","","","","","","","","tol_peg_1","1349","1349","0","[[1,0,0],[0,0],[3]]","2","[[1,3,0],[2,0],[0]]","0","0","","","","","","3"
"","","","","","single-stim-button","328","1314887","0.0-4.0-10.1-1.1","5d0a7c784cf0d90018b049c6","F1","batch6","tol_toboard","799","","","","","","","","","","","","","","tol_peg_2","799","799","0","[[1,0,0],[2,0],[3]]","2","[[1,3,0],[2,0],[0]]","0","0","","","","","","3"
"","","","","","single-stim-button","329","1315787","0.0-4.0-10.2-0.2","5d0a7c784cf0d90018b049c6","F1","batch6","tol_tohand","899","","","","","","","","","","","","","","tol_peg_3","899","899","0","[[1,0,0],[2,0],[0]]","3","[[1,3,0],[2,0],[0]]","0","0","","","","","","3"
"","","","","","single-stim-button","330","1316621","0.0-4.0-10.2-1.2","5d0a7c784cf0d90018b049c6","F1","batch6","tol_toboard","832","","","","","","","","","","","","","","tol_peg_1","832","832","0","[[1,3,0],[2,0],[0]]","3","[[1,3,0],[2,0],[0]]","0","0","","","","","","3"
"","","","","","poldrack-single-stim","331","1317626","0.0-4.0-11.0","5d0a7c784cf0d90018b049c6","F1","batch6","tol_feedback","-1","","","","","true","","","","","","","","","","1000","1000","500","","","","","","-1","none","true","4996","7244",""
"","","","","","html-button-response","332","1318571","0.0-4.0-12.0","5d0a7c784cf0d90018b049c6","F1","batch6","tol_trial_num","943.7000000178814","<div class = centerbox><p class = center-block-text>problem <strong>2</strong> out of 25 problems</p></div>","0","","","","","","","","","","","","","","","","","","","","","","","","","",""
"","","","","","single-stim-button","333","1322321","0.0-4.0-13.0-0.0","5d0a7c784cf0d90018b049c6","F1","batch6","tol_tohand","3750","","","","","","","","","","","","","","tol_peg_1","3750","3750","0","[[1,0,0],[3,0],[0]]","1","[[2,1,3],[0,0],[0]]","1","0","","","","","","5"
"","","","","","single-stim-button","334","1323422","0.0-4.0-13.0-1.0","5d0a7c784cf0d90018b049c6","F1","batch6","tol_toboard","1099","","","","","","","","","","","","","","tol_peg_3","1099","1099","0","[[1,0,0],[3,0],[2]]","1","[[2,1,3],[0,0],[0]]","1","0","","","","","","5"
"","","","","","single-stim-button","335","1324205","0.0-4.0-13.1-0.1","5d0a7c784cf0d90018b049c6","F1","batch6","tol_tohand","782","","","","","","","","","","","","","","tol_peg_1","782","782","0","[[0,0,0],[3,0],[2]]","2","[[2,1,3],[0,0],[0]]","1","0","","","","","","5"
"","","","","","single-stim-button","336","1325971","0.0-4.0-13.1-1.1","5d0a7c784cf0d90018b049c6","F1","batch6","tol_toboard","1766","","","","","","","","","","","","","","tol_peg_2","1766","1766","0","[[0,0,0],[3,1],[2]]","2","[[2,1,3],[0,0],[0]]","1","0","","","","","","5"
"","","","","","single-stim-button","337","1326771","0.0-4.0-13.2-0.2","5d0a7c784cf0d90018b049c6","F1","batch6","tol_tohand","799","","","","","","","","","","","","","","tol_peg_3","799","799","0","[[0,0,0],[3,1],[0]]","3","[[2,1,3],[0,0],[0]]","1","0","","","","","","5"
"","","","","","single-stim-button","338","1327821","0.0-4.0-13.2-1.2","5d0a7c784cf0d90018b049c6","F1","batch6","tol_toboard","1049","","","","","","","","","","","","","","tol_peg_1","1049","1049","0","[[2,0,0],[3,1],[0]]","3","[[2,1,3],[0,0],[0]]","1","0","","","","","","5"
"","","","","","single-stim-button","339","1328505","0.0-4.0-13.3-0.3","5d0a7c784cf0d90018b049c6","F1","batch6","tol_tohand","683","","","","","","","","","","","","","","tol_peg_2","683","683","0","[[2,0,0],[3,0],[0]]","4","[[2,1,3],[0,0],[0]]","1","0","","","","","","5"
"","","","","","single-stim-button","340","1329087","0.0-4.0-13.3-1.3","5d0a7c784cf0d90018b049c6","F1","batch6","tol_toboard","581","","","","","","","","","","","","","","tol_peg_1","581","581","0","[[2,1,0],[3,0],[0]]","4","[[2,1,3],[0,0],[0]]","1","0","","","","","","5"
"","","","","","single-stim-button","341","1329872","0.0-4.0-13.4-0.4","5d0a7c784cf0d90018b049c6","F1","batch6","tol_tohand","784","","","","","","","","","","","","","","tol_peg_2","784","784","0","[[2,1,0],[0,0],[0]]","5","[[2,1,3],[0,0],[0]]","1","0","","","","","","5"
"","","","","","single-stim-button","342","1330472","0.0-4.0-13.4-1.4","5d0a7c784cf0d90018b049c6","F1","batch6","tol_toboard","600","","","","","","","","","","","","","","tol_peg_1","600","600","0","[[2,1,3],[0,0],[0]]","5","[[2,1,3],[0,0],[0]]","1","0","","","","","","5"
"","","","","","poldrack-single-stim","343","1331477","0.0-4.0-14.0","5d0a7c784cf0d90018b049c6","F1","batch6","tol_feedback","-1","","","","","true","","","","","","","","","","1000","1000","500","","","","","","-1","none","true","3750","6798",""
"","","","","","html-button-response","344","1332388","0.0-4.0-15.0","5d0a7c784cf0d90018b049c6","F1","batch6","tol_trial_num","910.8000000119209","<div class = centerbox><p class = center-block-text>problem <strong>3</strong> out of 25 problems</p></div>","0","","","","","","","","","","","","","","","","","","","","","","","","","",""
"","","","","","single-stim-button","345","1337239","0.0-4.0-16.0-0.0","5d0a7c784cf0d90018b049c6","F1","batch6","tol_tohand","4850","","","","","","","","","","","","","","tol_peg_1","4850","4850","0","[[2,0,0],[0,0],[1]]","1","[[1,2,0],[3,0],[0]]","2","0","","","","","","4"
"","","","","","single-stim-button","346","1338073","0.0-4.0-16.0-1.0","5d0a7c784cf0d90018b049c6","F1","batch6","tol_toboard","833","","","","","","","","","","","","","","tol_peg_2","833","833","0","[[2,0,0],[3,0],[1]]","1","[[1,2,0],[3,0],[0]]","2","0","","","","","","4"
"","","","","","single-stim-button","347","1338706","0.0-4.0-16.1-0.1","5d0a7c784cf0d90018b049c6","F1","batch6","tol_tohand","631","","","","","","","","","","","","","","tol_peg_3","631","631","0","[[2,0,0],[3,0],[0]]","2","[[1,2,0],[3,0],[0]]","2","0","","","","","","4"
