"success","timeout","failed_images","failed_audio","failed_video","trial_type","trial_index","time_elapsed","internal_node_id","subject_id","study_id","session_id","task","rt","stimulus","response","item","answer","correct","spm_correct","spm_rt","view_history","mouse_click","stim_duration","block_duration","timing_post_trial","current_position","tol_num_moves_made","tol_target","tol_problem_id","tol_rt","key_press","possible_responses","tol_correct","preplanning","tol_rt_per_trial","tol_min_moves","fiar_detect_rt","fiar_detect_correct","total_correct_fiar_detect","post_trial_gap","choices"
"true","false","[]","[]","[]","preload","0","1608","0.0-0.0","5d0ac7504d57690017a355ef","D2","batch4","","","","","","","","","","","","","","","","","","","","","","","","","","","","","",""
"true","","","","","fullscreen","1","9160","0.0-1.0-0.0","5d0ac7504d57690017a355ef","D2","batch4","","","","","","","","","","","","","","","","","","","","","","","","","","","","","",""
"true","","","","","fullscreen","2","13065","0.0-2.0-0.0","5d0ac7504d57690017a355ef","D2","batch4","spm_fullscreen","","","","","","","","","","","","","","","","","","","","","","","","","","","","",""
"","","","","","html-button-response","3","23447","0.0-2.0-1.0","5d0ac7504d57690017a355ef","D2","batch4","","10380.199999988079","<p class = block-text><b>Instructions</b> <br>This is a widely used intelligence test in research. <br>In this test, a figure with a missing piece will be presented.<br>Below the figure are alternative pieces to complete the figure, only one of which is correct.<br> Different figures might involve different principles for obtaining the missing piece<br>Your job is to select the most logical piece to complete the figure.</p>","0","","","","","","","","","","","","","","","","","","","","","","","","","",""
"","","","","","html-keyboard-response","4","24248","0.0-2.0-2.0-0.0","5d0ac7504d57690017a355ef","D2","batch4","spm_show_trial_num","null","<p class=block-text>Trial 1 out of 60</p>","null","","","","","","","","","","","","","","","","","","","","","","","","","",""
"","","","","","image-button-response","5","33282","0.0-2.0-2.0-1.0","5d0ac7504d57690017a355ef","D2","batch4","spm_respsonse","9031.199999988079","img/question_1_1.jpeg","3","mat_01","4","1","1","9031.199999988079","","","","","","","","","","","","","","","","","","","","",""
"","","","","","html-keyboard-response","6","34340","0.0-2.0-2.0-0.1","5d0ac7504d57690017a355ef","D2","batch4","spm_show_trial_num","null","<p class=block-text>Trial 2 out of 60</p>","null","","","","","","","","","","","","","","","","","","","","","","","","","",""
"","","","","","image-button-response","7","38489","0.0-2.0-2.0-1.1","5d0ac7504d57690017a355ef","D2","batch4","spm_respsonse","4147.699999988079","img/question_1_2.jpeg","4","mat_02","5","1","1","4147.699999988079","","","","","","","","","","","","","","","","","","","","",""
"","","","","","html-keyboard-response","8","39556","0.0-2.0-2.0-0.2","5d0ac7504d57690017a355ef","D2","batch4","spm_show_trial_num","null","<p class=block-text>Trial 3 out of 60</p>","null","","","","","","","","","","","","","","","","","","","","","","","","","",""
"","","","","","image-button-response","9","44094","0.0-2.0-2.0-1.2","5d0ac7504d57690017a355ef","D2","batch4","spm_respsonse","4536.799999952316","img/question_1_3.jpeg","0","mat_03","1","1","1","4536.799999952316","","","","","","","","","","","","","","","","","","","","",""
"","","","","","html-keyboard-response","10","45159","0.0-2.0-2.0-0.3","5d0ac7504d57690017a355ef","D2","batch4","spm_show_trial_num","null","<p class=block-text>Trial 4 out of 60</p>","null","","","","","","","","","","","","","","","","","","","","","","","","","",""
"","","","","","image-button-response","11","49160","0.0-2.0-2.0-1.3","5d0ac7504d57690017a355ef","D2","batch4","spm_respsonse","3999.899999976158","img/question_1_4.jpeg","1","mat_04","2","1","1","3999.899999976158","","","","","","","","","","","","","","","","","","","","",""
"","","","","","html-keyboard-response","12","50217","0.0-2.0-2.0-0.4","5d0ac7504d57690017a355ef","D2","batch4","spm_show_trial_num","null","<p class=block-text>Trial 5 out of 60</p>","null","","","","","","","","","","","","","","","","","","","","","","","","","",""
"","","","","","image-button-response","13","54329","0.0-2.0-2.0-1.4","5d0ac7504d57690017a355ef","D2","batch4","spm_respsonse","4110.5","img/question_1_5.jpeg","5","mat_05","6","1","1","4110.5","","","","","","","","","","","","","","","","","","","","",""
"","","","","","html-keyboard-response","14","55381","0.0-2.0-2.0-0.5","5d0ac7504d57690017a355ef","D2","batch4","spm_show_trial_num","null","<p class=block-text>Trial 6 out of 60</p>","null","","","","","","","","","","","","","","","","","","","","","","","","","",""
"","","","","","image-button-response","15","57480","0.0-2.0-2.0-1.5","5d0ac7504d57690017a355ef","D2","batch4","spm_respsonse","2098.100000023842","img/question_1_6.jpeg","2","mat_06","3","1","1","2098.100000023842","","","","","","","","","","","","","","","","","","","","",""
"","","","","","html-keyboard-response","16","58536","0.0-2.0-2.0-0.6","5d0ac7504d57690017a355ef","D2","batch4","spm_show_trial_num","null","<p class=block-text>Trial 7 out of 60</p>","null","","","","","","","","","","","","","","","","","","","","","","","","","",""
"","","","","","image-button-response","17","61727","0.0-2.0-2.0-1.6","5d0ac7504d57690017a355ef","D2","batch4","spm_respsonse","3188.899999976158","img/question_1_7.jpeg","5","mat_07","6","1","1","3188.899999976158","","","","","","","","","","","","","","","","","","","","",""
"","","","","","html-keyboard-response","18","62783","0.0-2.0-2.0-0.7","5d0ac7504d57690017a355ef","D2","batch4","spm_show_trial_num","null","<p class=block-text>Trial 8 out of 60</p>","null","","","","","","","","","","","","","","","","","","","","","","","","","",""
"","","","","","image-button-response","19","70476","0.0-2.0-2.0-1.7","5d0ac7504d57690017a355ef","D2","batch4","spm_respsonse","7690.5","img/question_1_8.jpeg","1","mat_08","2","1","1","7690.5","","","","","","","","","","","","","","","","","","","","",""
"","","","","","html-keyboard-response","20","71528","0.0-2.0-2.0-0.8","5d0ac7504d57690017a355ef","D2","batch4","spm_show_trial_num","null","<p class=block-text>Trial 9 out of 60</p>","null","","","","","","","","","","","","","","","","","","","","","","","","","",""
"","","","","","image-button-response","21","75179","0.0-2.0-2.0-1.8","5d0ac7504d57690017a355ef","D2","batch4","spm_respsonse","3649.399999976158","img/question_1_9.jpeg","0","mat_09","1","1","1","3649.399999976158","","","","","","","","","","","","","","","","","","","","",""
"","","","","","html-keyboard-response","22","76230","0.0-2.0-2.0-0.9","5d0ac7504d57690017a355ef","D2","batch4","spm_show_trial_num","null","<p class=block-text>Trial 10 out of 60</p>","null","","","","","","","","","","","","","","","","","","","","","","","","","",""
"","","","","","image-button-response","23","83128","0.0-2.0-2.0-1.9","5d0ac7504d57690017a355ef","D2","batch4","spm_respsonse","6896","img/question_1_10.jpeg","2","mat_10","3","1","1","6896","","","","","","","","","","","","","","","","","","","","",""
"","","","","","html-keyboard-response","24","84189","0.0-2.0-2.0-0.10","5d0ac7504d57690017a355ef","D2","batch4","spm_show_trial_num","null","<p class=block-text>Trial 11 out of 60</p>","null","","","","","","","","","","","","","","","","","","","","","","","","","",""
"","","","","","image-button-response","25","95442","0.0-2.0-2.0-1.10","5d0ac7504d57690017a355ef","D2","batch4","spm_respsonse","11251.700000047684","img/question_1_11.jpeg","3","mat_11","4","1","1","11251.700000047684","","","","","","","","","","","","","","","","","","","","",""
"","","","","","html-keyboard-response","26","96493","0.0-2.0-2.0-0.11","5d0ac7504d57690017a355ef","D2","batch4","spm_show_trial_num","null","<p class=block-text>Trial 12 out of 60</p>","null","","","","","","","","","","","","","","","","","","","","","","","","","",""
"","","","","","image-button-response","27","117580","0.0-2.0-2.0-1.11","5d0ac7504d57690017a355ef","D2","batch4","spm_respsonse","21085.899999976158","img/question_1_12.jpeg","4","mat_12","5","1","1","21085.899999976158","","","","","","","","","","","","","","","","","","","","",""
"","","","","","html-keyboard-response","28","118645","0.0-2.0-2.0-0.12","5d0ac7504d57690017a355ef","D2","batch4","spm_show_trial_num","null","<p class=block-text>Trial 13 out of 60</p>","null","","","","","","","","","","","","","","","","","","","","","","","","","",""
"","","","","","image-button-response","29","121284","0.0-2.0-2.0-1.12","5d0ac7504d57690017a355ef","D2","batch4","spm_respsonse","2637.099999964237","img/question_2_1.jpeg","1","mat_13","2","1","1","2637.099999964237","","","","","","","","","","","","","","","","","","","","",""
"","","","","","html-keyboard-response","30","122349","0.0-2.0-2.0-0.13","5d0ac7504d57690017a355ef","D2","batch4","spm_show_trial_num","null","<p class=block-text>Trial 14 out of 60</p>","null","","","","","","","","","","","","","","","","","","","","","","","","","",""
"","","","","","image-button-response","31","128755","0.0-2.0-2.0-1.13","5d0ac7504d57690017a355ef","D2","batch4","spm_respsonse","6404.600000023842","img/question_2_2.jpeg","5","mat_14","6","1","1","6404.600000023842","","","","","","","","","","","","","","","","","","","","",""
"","","","","","html-keyboard-response","32","129810","0.0-2.0-2.0-0.14","5d0ac7504d57690017a355ef","D2","batch4","spm_show_trial_num","null","<p class=block-text>Trial 15 out of 60</p>","null","","","","","","","","","","","","","","","","","","","","","","","","","",""
"","","","","","image-button-response","33","132611","0.0-2.0-2.0-1.14","5d0ac7504d57690017a355ef","D2","batch4","spm_respsonse","2799.800000011921","img/question_2_3.jpeg","0","mat_15","1","1","1","2799.800000011921","","","","","","","","","","","","","","","","","","","","",""
"","","","","","html-keyboard-response","34","133674","0.0-2.0-2.0-0.15","5d0ac7504d57690017a355ef","D2","batch4","spm_show_trial_num","null","<p class=block-text>Trial 16 out of 60</p>","null","","","","","","","","","","","","","","","","","","","","","","","","","",""
"","","","","","image-button-response","35","137778","0.0-2.0-2.0-1.15","5d0ac7504d57690017a355ef","D2","batch4","spm_respsonse","4102.100000023842","img/question_2_4.jpeg","1","mat_16","2","1","1","4102.100000023842","","","","","","","","","","","","","","","","","","","","",""
"","","","","","html-keyboard-response","36","138846","0.0-2.0-2.0-0.16","5d0ac7504d57690017a355ef","D2","batch4","spm_show_trial_num","null","<p class=block-text>Trial 17 out of 60</p>","null","","","","","","","","","","","","","","","","","","","","","","","","","",""
"","","","","","image-button-response","37","143864","0.0-2.0-2.0-1.16","5d0ac7504d57690017a355ef","D2","batch4","spm_respsonse","5016.5","img/question_2_5.jpeg","0","mat_17","1","1","1","5016.5","","","","","","","","","","","","","","","","","","","","",""
"","","","","","html-keyboard-response","38","144920","0.0-2.0-2.0-0.17","5d0ac7504d57690017a355ef","D2","batch4","spm_show_trial_num","null","<p class=block-text>Trial 18 out of 60</p>","null","","","","","","","","","","","","","","","","","","","","","","","","","",""
"","","","","","image-button-response","39","149058","0.0-2.0-2.0-1.17","5d0ac7504d57690017a355ef","D2","batch4","spm_respsonse","4136.800000011921","img/question_2_6.jpeg","2","mat_18","3","1","1","4136.800000011921","","","","","","","","","","","","","","","","","","","","",""
"","","","","","html-keyboard-response","40","150116","0.0-2.0-2.0-0.18","5d0ac7504d57690017a355ef","D2","batch4","spm_show_trial_num","null","<p class=block-text>Trial 19 out of 60</p>","null","","","","","","","","","","","","","","","","","","","","","","","","","",""
"","","","","","image-button-response","41","155817","0.0-2.0-2.0-1.18","5d0ac7504d57690017a355ef","D2","batch4","spm_respsonse","5698.899999976158","img/question_2_7.jpeg","4","mat_19","5","1","1","5698.899999976158","","","","","","","","","","","","","","","","","","","","",""
"","","","","","html-keyboard-response","42","156882","0.0-2.0-2.0-0.19","5d0ac7504d57690017a355ef","D2","batch4","spm_show_trial_num","null","<p class=block-text>Trial 20 out of 60</p>","null","","","","","","","","","","","","","","","","","","","","","","","","","",""
"","","","","","image-button-response","43","164502","0.0-2.0-2.0-1.19","5d0ac7504d57690017a355ef","D2","batch4","spm_respsonse","7618.800000011921","img/question_2_8.jpeg","5","mat_20","6","1","1","7618.800000011921","","","","","","","","","","","","","","","","","","","","",""
"","","","","","html-keyboard-response","44","165569","0.0-2.0-2.0-0.20","5d0ac7504d57690017a355ef","D2","batch4","spm_show_trial_num","null","<p class=block-text>Trial 21 out of 60</p>","null","","","","","","","","","","","","","","","","","","","","","","","","","",""
"","","","","","image-button-response","45","169163","0.0-2.0-2.0-1.20","5d0ac7504d57690017a355ef","D2","batch4","spm_respsonse","3592.099999964237","img/question_2_9.jpeg","3","mat_21","4","1","1","3592.099999964237","","","","","","","","","","","","","","","","","","","","",""
"","","","","","html-keyboard-response","46","170241","0.0-2.0-2.0-0.21","5d0ac7504d57690017a355ef","D2","batch4","spm_show_trial_num","null","<p class=block-text>Trial 22 out of 60</p>","null","","","","","","","","","","","","","","","","","","","","","","","","","",""
"","","","","","image-button-response","47","173424","0.0-2.0-2.0-1.21","5d0ac7504d57690017a355ef","D2","batch4","spm_respsonse","3181.5","img/question_2_10.jpeg","2","mat_22","3","1","1","3181.5","","","","","","","","","","","","","","","","","","","","",""
"","","","","","html-keyboard-response","48","174475","0.0-2.0-2.0-0.22","5d0ac7504d57690017a355ef","D2","batch4","spm_show_trial_num","null","<p class=block-text>Trial 23 out of 60</p>","null","","","","","","","","","","","","","","","","","","","","","","","","","",""
"","","","","","image-button-response","49","188987","0.0-2.0-2.0-1.22","5d0ac7504d57690017a355ef","D2","batch4","spm_respsonse","14510.899999976158","img/question_2_11.jpeg","3","mat_23","4","1","1","14510.899999976158","","","","","","","","","","","","","","","","","","","","",""
"","","","","","html-keyboard-response","50","190039","0.0-2.0-2.0-0.23","5d0ac7504d57690017a355ef","D2","batch4","spm_show_trial_num","null","<p class=block-text>Trial 24 out of 60</p>","null","","","","","","","","","","","","","","","","","","","","","","","","","",""
"","","","","","image-button-response","51","196031","0.0-2.0-2.0-1.23","5d0ac7504d57690017a355ef","D2","batch4","spm_respsonse","5990.699999988079","img/question_2_12.jpeg","4","mat_24","5","1","1","5990.699999988079","","","","","","","","","","","","","","","","","","","","",""
"","","","","","html-button-response","52","198035","0.0-2.0-3.0","5d0ac7504d57690017a355ef","D2","batch4","attention_check","1753.0999999642372","<p class = block-text>Attention check: Please choose 1<br></p>","0","","","true","","","","","","","","","","","","","","","","","","","","","","",""
"","","","","","html-keyboard-response","53","198836","0.0-2.0-4.0-0.0","5d0ac7504d57690017a355ef","D2","batch4","spm_show_trial_num","null","<p class=block-text>Trial 25 out of 60</p>","null","","","","","","","","","","","","","","","","","","","","","","","","","",""
"","","","","","image-button-response","54","205327","0.0-2.0-4.0-1.0","5d0ac7504d57690017a355ef","D2","batch4","spm_respsonse","6489.5","img/question_3_1.jpeg","7","mat_25","8","1","1","6489.5","","","","","","","","","","","","","","","","","","","","",""
"","","","","","html-keyboard-response","55","206382","0.0-2.0-4.0-0.1","5d0ac7504d57690017a355ef","D2","batch4","spm_show_trial_num","null","<p class=block-text>Trial 26 out of 60</p>","null","","","","","","","","","","","","","","","","","","","","","","","","","",""
"","","","","","image-button-response","56","214366","0.0-2.0-4.0-1.1","5d0ac7504d57690017a355ef","D2","batch4","spm_respsonse","7982.199999988079","img/question_3_2.jpeg","1","mat_26","2","1","1","7982.199999988079","","","","","","","","","","","","","","","","","","","","",""
"","","","","","html-keyboard-response","57","215428","0.0-2.0-4.0-0.2","5d0ac7504d57690017a355ef","D2","batch4","spm_show_trial_num","null","<p class=block-text>Trial 27 out of 60</p>","null","","","","","","","","","","","","","","","","","","","","","","","","","",""
"","","","","","image-button-response","58","225595","0.0-2.0-4.0-1.2","5d0ac7504d57690017a355ef","D2","batch4","spm_respsonse","10165.099999964237","img/question_3_3.jpeg","2","mat_27","3","1","1","10165.099999964237","","","","","","","","","","","","","","","","","","","","",""
"","","","","","html-keyboard-response","59","226647","0.0-2.0-4.0-0.3","5d0ac7504d57690017a355ef","D2","batch4","spm_show_trial_num","null","<p class=block-text>Trial 28 out of 60</p>","null","","","","","","","","","","","","","","","","","","","","","","","","","",""
"","","","","","image-button-response","60","239418","0.0-2.0-4.0-1.3","5d0ac7504d57690017a355ef","D2","batch4","spm_respsonse","12769","img/question_3_4.jpeg","7","mat_28","8","1","1","12769","","","","","","","","","","","","","","","","","","","","",""
"","","","","","html-keyboard-response","61","240475","0.0-2.0-4.0-0.4","5d0ac7504d57690017a355ef","D2","batch4","spm_show_trial_num","null","<p class=block-text>Trial 29 out of 60</p>","null","","","","","","","","","","","","","","","","","","","","","","","","","",""
"","","","","","image-button-response","62","247690","0.0-2.0-4.0-1.4","5d0ac7504d57690017a355ef","D2","batch4","spm_respsonse","7212.800000011921","img/question_3_5.jpeg","6","mat_29","7","1","1","7212.800000011921","","","","","","","","","","","","","","","","","","","","",""
"","","","","","html-keyboard-response","63","248751","0.0-2.0-4.0-0.5","5d0ac7504d57690017a355ef","D2","batch4","spm_show_trial_num","null","<p class=block-text>Trial 30 out of 60</p>","null","","","","","","","","","","","","","","","","","","","","","","","","","",""
"","","","","","image-button-response","64","254254","0.0-2.0-4.0-1.5","5d0ac7504d57690017a355ef","D2","batch4","spm_respsonse","5500.300000011921","img/question_3_6.jpeg","3","mat_30","4","1","1","5500.300000011921","","","","","","","","","","","","","","","","","","","","",""
"","","","","","html-keyboard-response","65","255306","0.0-2.0-4.0-0.6","5d0ac7504d57690017a355ef","D2","batch4","spm_show_trial_num","null","<p class=block-text>Trial 31 out of 60</p>","null","","","","","","","","","","","","","","","","","","","","","","","","","",""
"","","","","","image-button-response","66","261666","0.0-2.0-4.0-1.6","5d0ac7504d57690017a355ef","D2","batch4","spm_respsonse","6358.800000011921","img/question_3_7.jpeg","4","mat_31","5","1","1","6358.800000011921","","","","","","","","","","","","","","","","","","","","",""
"","","","","","html-keyboard-response","67","262748","0.0-2.0-4.0-0.7","5d0ac7504d57690017a355ef","D2","batch4","spm_show_trial_num","null","<p class=block-text>Trial 32 out of 60</p>","null","","","","","","","","","","","","","","","","","","","","","","","","","",""
"","","","","","image-button-response","68","266780","0.0-2.0-4.0-1.7","5d0ac7504d57690017a355ef","D2","batch4","spm_respsonse","4030.100000023842","img/question_3_8.jpeg","0","mat_32","1","1","1","4030.100000023842","","","","","","","","","","","","","","","","","","","","",""
"","","","","","html-keyboard-response","69","267841","0.0-2.0-4.0-0.8","5d0ac7504d57690017a355ef","D2","batch4","spm_show_trial_num","null","<p class=block-text>Trial 33 out of 60</p>","null","","","","","","","","","","","","","","","","","","","","","","","","","",""
"","","","","","image-button-response","70","275692","0.0-2.0-4.0-1.8","5d0ac7504d57690017a355ef","D2","batch4","spm_respsonse","7848.400000035763","img/question_3_9.jpeg","6","mat_33","7","1","1","7848.400000035763","","","","","","","","","","","","","","","","","","","","",""
"","","","","","html-keyboard-response","71","276750","0.0-2.0-4.0-0.9","5d0ac7504d57690017a355ef","D2","batch4","spm_show_trial_num","null","<p class=block-text>Trial 34 out of 60</p>","null","","","","","","","","","","","","","","","","","","","","","","","","","",""
"","","","","","image-button-response","72","286200","0.0-2.0-4.0-1.9","5d0ac7504d57690017a355ef","D2","batch4","spm_respsonse","9448.299999952316","img/question_3_10.jpeg","5","mat_34","6","1","1","9448.299999952316","","","","","","","","","","","","","","","","","","","","",""
"","","","","","html-keyboard-response","73","287280","0.0-2.0-4.0-0.10","5d0ac7504d57690017a355ef","D2","batch4","spm_show_trial_num","null","<p class=block-text>Trial 35 out of 60</p>","null","","","","","","","","","","","","","","","","","","","","","","","","","",""
"","","","","","image-button-response","74","311789","0.0-2.0-4.0-1.10","5d0ac7504d57690017a355ef","D2","batch4","spm_respsonse","24507.19999998808","img/question_3_11.jpeg","0","mat_35","1","1","1","24507.19999998808","","","","","","","","","","","","","","","","","","","","",""
"","","","","","html-keyboard-response","75","312855","0.0-2.0-4.0-0.11","5d0ac7504d57690017a355ef","D2","batch4","spm_show_trial_num","null","<p class=block-text>Trial 36 out of 60</p>","null","","","","","","","","","","","","","","","","","","","","","","","","","",""
"","","","","","image-button-response","76","320767","0.0-2.0-4.0-1.11","5d0ac7504d57690017a355ef","D2","batch4","spm_respsonse","7910.699999988079","img/question_3_12.jpeg","2","mat_36","2","0","0","7910.699999988079","","","","","","","","","","","","","","","","","","","","",""
"","","","","","html-keyboard-response","77","321833","0.0-2.0-4.0-0.12","5d0ac7504d57690017a355ef","D2","batch4","spm_show_trial_num","null","<p class=block-text>Trial 37 out of 60</p>","null","","","","","","","","","","","","","","","","","","","","","","","","","",""
"","","","","","image-button-response","78","324386","0.0-2.0-4.0-1.12","5d0ac7504d57690017a355ef","D2","batch4","spm_respsonse","2551.800000011921","img/question_4_1.jpeg","2","mat_37","3","1","1","2551.800000011921","","","","","","","","","","","","","","","","","","","","",""
"","","","","","html-keyboard-response","79","325438","0.0-2.0-4.0-0.13","5d0ac7504d57690017a355ef","D2","batch4","spm_show_trial_num","null","<p class=block-text>Trial 38 out of 60</p>","null","","","","","","","","","","","","","","","","","","","","","","","","","",""
"","","","","","image-button-response","80","330796","0.0-2.0-4.0-1.13","5d0ac7504d57690017a355ef","D2","batch4","spm_respsonse","5356.5","img/question_4_2.jpeg","3","mat_38","4","1","1","5356.5","","","","","","","","","","","","","","","","","","","","",""
"","","","","","html-keyboard-response","81","331858","0.0-2.0-4.0-0.14","5d0ac7504d57690017a355ef","D2","batch4","spm_show_trial_num","null","<p class=block-text>Trial 39 out of 60</p>","null","","","","","","","","","","","","","","","","","","","","","","","","","",""
"","","","","","image-button-response","82","337413","0.0-2.0-4.0-1.14","5d0ac7504d57690017a355ef","D2","batch4","spm_respsonse","5554.099999964237","img/question_4_3.jpeg","2","mat_39","3","1","1","5554.099999964237","","","","","","","","","","","","","","","","","","","","",""
"","","","","","html-keyboard-response","83","338475","0.0-2.0-4.0-0.15","5d0ac7504d57690017a355ef","D2","batch4","spm_show_trial_num","null","<p class=block-text>Trial 40 out of 60</p>","null","","","","","","","","","","","","","","","","","","","","","","","","","",""
"","","","","","image-button-response","84","350308","0.0-2.0-4.0-1.15","5d0ac7504d57690017a355ef","D2","batch4","spm_respsonse","11831.300000011921","img/question_4_4.jpeg","6","mat_40","7","1","1","11831.300000011921","","","","","","","","","","","","","","","","","","","","",""
"","","","","","html-keyboard-response","85","351364","0.0-2.0-4.0-0.16","5d0ac7504d57690017a355ef","D2","batch4","spm_show_trial_num","null","<p class=block-text>Trial 41 out of 60</p>","null","","","","","","","","","","","","","","","","","","","","","","","","","",""
"","","","","","image-button-response","86","358994","0.0-2.0-4.0-1.16","5d0ac7504d57690017a355ef","D2","batch4","spm_respsonse","7627.700000047684","img/question_4_5.jpeg","7","mat_41","8","1","1","7627.700000047684","","","","","","","","","","","","","","","","","","","","",""
"","","","","","html-keyboard-response","87","360047","0.0-2.0-4.0-0.17","5d0ac7504d57690017a355ef","D2","batch4","spm_show_trial_num","null","<p class=block-text>Trial 42 out of 60</p>","null","","","","","","","","","","","","","","","","","","","","","","","","","",""
"","","","","","image-button-response","88","371081","0.0-2.0-4.0-1.17","5d0ac7504d57690017a355ef","D2","batch4","spm_respsonse","11033.199999988079","img/question_4_6.jpeg","5","mat_42","6","1","1","11033.199999988079","","","","","","","","","","","","","","","","","","","","",""
"","","","","","html-keyboard-response","89","372135","0.0-2.0-4.0-0.18","5d0ac7504d57690017a355ef","D2","batch4","spm_show_trial_num","null","<p class=block-text>Trial 43 out of 60</p>","null","","","","","","","","","","","","","","","","","","","","","","","","","",""
"","","","","","image-button-response","90","384002","0.0-2.0-4.0-1.18","5d0ac7504d57690017a355ef","D2","batch4","spm_respsonse","11864.699999988079","img/question_4_7.jpeg","4","mat_43","5","1","1","11864.699999988079","","","","","","","","","","","","","","","","","","","","",""
"","","","","","html-keyboard-response","91","385055","0.0-2.0-4.0-0.19","5d0ac7504d57690017a355ef","D2","batch4","spm_show_trial_num","null","<p class=block-text>Trial 44 out of 60</p>","null","","","","","","","","","","","","","","","","","","","","","","","","","",""
"","","","","","image-button-response","92","401742","0.0-2.0-4.0-1.19","5d0ac7504d57690017a355ef","D2","batch4","spm_respsonse","16685","img/question_4_8.jpeg","3","mat_44","4","1","1","16685","","","","","","","","","","","","","","","","","","","","",""
"","","","","","html-keyboard-response","93","402804","0.0-2.0-4.0-0.20","5d0ac7504d57690017a355ef","D2","batch4","spm_show_trial_num","null","<p class=block-text>Trial 45 out of 60</p>","null","","","","","","","","","","","","","","","","","","","","","","","","","",""
"","","","","","image-button-response","94","417837","0.0-2.0-4.0-1.20","5d0ac7504d57690017a355ef","D2","batch4","spm_respsonse","15031.5","img/question_4_9.jpeg","0","mat_45","1","1","1","15031.5","","","","","","","","","","","","","","","","","","","","",""
"","","","","","html-keyboard-response","95","418902","0.0-2.0-4.0-0.21","5d0ac7504d57690017a355ef","D2","batch4","spm_show_trial_num","null","<p class=block-text>Trial 46 out of 60</p>","null","","","","","","","","","","","","","","","","","","","","","","","","","",""
"","","","","","image-button-response","96","441349","0.0-2.0-4.0-1.21","5d0ac7504d57690017a355ef","D2","batch4","spm_respsonse","22444.80000001192","img/question_4_10.jpeg","1","mat_46","2","1","1","22444.80000001192","","","","","","","","","","","","","","","","","","","","",""
"","","","","","html-keyboard-response","97","442414","0.0-2.0-4.0-0.22","5d0ac7504d57690017a355ef","D2","batch4","spm_show_trial_num","null","<p class=block-text>Trial 47 out of 60</p>","null","","","","","","","","","","","","","","","","","","","","","","","","","",""
"","","","","","image-button-response","98","460518","0.0-2.0-4.0-1.22","5d0ac7504d57690017a355ef","D2","batch4","spm_respsonse","18101.099999964237","img/question_4_11.jpeg","2","mat_47","5","0","0","18101.099999964237","","","","","","","","","","","","","","","","","","","","",""
"","","","","","html-keyboard-response","99","461569","0.0-2.0-4.0-0.23","5d0ac7504d57690017a355ef","D2","batch4","spm_show_trial_num","null","<p class=block-text>Trial 48 out of 60</p>","null","","","","","","","","","","","","","","","","","","","","","","","","","",""
"","","","","","image-button-response","100","482446","0.0-2.0-4.0-1.23","5d0ac7504d57690017a355ef","D2","batch4","spm_respsonse","20875.099999964237","img/question_4_12.jpeg","5","mat_48","6","1","1","20875.099999964237","","","","","","","","","","","","","","","","","","","","",""
"","","","","","html-keyboard-response","101","483504","0.0-2.0-4.0-0.24","5d0ac7504d57690017a355ef","D2","batch4","spm_show_trial_num","null","<p class=block-text>Trial 49 out of 60</p>","null","","","","","","","","","","","","","","","","","","","","","","","","","",""
"","","","","","image-button-response","102","490672","0.0-2.0-4.0-1.24","5d0ac7504d57690017a355ef","D2","batch4","spm_respsonse","7167.199999988079","img/question_5_1.jpeg","6","mat_49","7","1","1","7167.199999988079","","","","","","","","","","","","","","","","","","","","",""
"","","","","","html-keyboard-response","103","491725","0.0-2.0-4.0-0.25","5d0ac7504d57690017a355ef","D2","batch4","spm_show_trial_num","null","<p class=block-text>Trial 50 out of 60</p>","null","","","","","","","","","","","","","","","","","","","","","","","","","",""
"","","","","","image-button-response","104","501287","0.0-2.0-4.0-1.25","5d0ac7504d57690017a355ef","D2","batch4","spm_respsonse","9560.700000047684","img/question_5_2.jpeg","5","mat_50","6","1","1","9560.700000047684","","","","","","","","","","","","","","","","","","","","",""
"","","","","","html-keyboard-response","105","502352","0.0-2.0-4.0-0.26","5d0ac7504d57690017a355ef","D2","batch4","spm_show_trial_num","null","<p class=block-text>Trial 51 out of 60</p>","null","","","","","","","","","","","","","","","","","","","","","","","","","",""
"","","","","","image-button-response","106","519704","0.0-2.0-4.0-1.26","5d0ac7504d57690017a355ef","D2","batch4","spm_respsonse","17350.600000023842","img/question_5_3.jpeg","7","mat_51","8","1","1","17350.600000023842","","","","","","","","","","","","","","","","","","","","",""
"","","","","","html-keyboard-response","107","520767","0.0-2.0-4.0-0.27","5d0ac7504d57690017a355ef","D2","batch4","spm_show_trial_num","null","<p class=block-text>Trial 52 out of 60</p>","null","","","","","","","","","","","","","","","","","","","","","","","","","",""
"","","","","","image-button-response","108","536903","0.0-2.0-4.0-1.27","5d0ac7504d57690017a355ef","D2","batch4","spm_respsonse","16134.399999976158","img/question_5_4.jpeg","1","mat_52","2","1","1","16134.399999976158","","","","","","","","","","","","","","","","","","","","",""
"","","","","","html-keyboard-response","109","537958","0.0-2.0-4.0-0.28","5d0ac7504d57690017a355ef","D2","batch4","spm_show_trial_num","null","<p class=block-text>Trial 53 out of 60</p>","null","","","","","","","","","","","","","","","","","","","","","","","","","",""
"","","","","","image-button-response","110","548058","0.0-2.0-4.0-1.28","5d0ac7504d57690017a355ef","D2","batch4","spm_respsonse","10098.100000023842","img/question_5_5.jpeg","0","mat_53","1","1","1","10098.100000023842","","","","","","","","","","","","","","","","","","","","",""
"","","","","","html-keyboard-response","111","549112","0.0-2.0-4.0-0.29","5d0ac7504d57690017a355ef","D2","batch4","spm_show_trial_num","null","<p class=block-text>Trial 54 out of 60</p>","null","","","","","","","","","","","","","","","","","","","","","","","","","",""
"","","","","","image-button-response","112","562843","0.0-2.0-4.0-1.29","5d0ac7504d57690017a355ef","D2","batch4","spm_respsonse","13728.800000011921","img/question_5_6.jpeg","5","mat_54","5","0","0","13728.800000011921","","","","","","","","","","","","","","","","","","","","",""
"","","","","","html-keyboard-response","113","563902","0.0-2.0-4.0-0.30","5d0ac7504d57690017a355ef","D2","batch4","spm_show_trial_num","null","<p class=block-text>Trial 55 out of 60</p>","null","","","","","","","","","","","","","","","","","","","","","","","","","",""
"","","","","","image-button-response","114","579379","0.0-2.0-4.0-1.30","5d0ac7504d57690017a355ef","D2","batch4","spm_respsonse","15475.300000011921","img/question_5_7.jpeg","0","mat_55","1","1","1","15475.300000011921","","","","","","","","","","","","","","","","","","","","",""
"","","","","","html-keyboard-response","115","580433","0.0-2.0-4.0-0.31","5d0ac7504d57690017a355ef","D2","batch4","spm_show_trial_num","null","<p class=block-text>Trial 56 out of 60</p>","null","","","","","","","","","","","","","","","","","","","","","","","","","",""
"","","","","","image-button-response","116","595910","0.0-2.0-4.0-1.31","5d0ac7504d57690017a355ef","D2","batch4","spm_respsonse","15475.600000023842","img/question_5_8.jpeg","5","mat_56","6","1","1","15475.600000023842","","","","","","","","","","","","","","","","","","","","",""
"","","","","","html-keyboard-response","117","596963","0.0-2.0-4.0-0.32","5d0ac7504d57690017a355ef","D2","batch4","spm_show_trial_num","null","<p class=block-text>Trial 57 out of 60</p>","null","","","","","","","","","","","","","","","","","","","","","","","","","",""
"","","","","","image-button-response","118","626179","0.0-2.0-4.0-1.32","5d0ac7504d57690017a355ef","D2","batch4","spm_respsonse","29214.80000001192","img/question_5_9.jpeg","3","mat_57","3","0","0","29214.80000001192","","","","","","","","","","","","","","","","","","","","",""
"","","","","","html-keyboard-response","119","627230","0.0-2.0-4.0-0.33","5d0ac7504d57690017a355ef","D2","batch4","spm_show_trial_num","null","<p class=block-text>Trial 58 out of 60</p>","null","","","","","","","","","","","","","","","","","","","","","","","","","",""
"","","","","","image-button-response","120","655835","0.0-2.0-4.0-1.33","5d0ac7504d57690017a355ef","D2","batch4","spm_respsonse","28603.80000001192","img/question_5_10.jpeg","3","mat_58","2","0","0","28603.80000001192","","","","","","","","","","","","","","","","","","","","",""
"","","","","","html-keyboard-response","121","656900","0.0-2.0-4.0-0.34","5d0ac7504d57690017a355ef","D2","batch4","spm_show_trial_num","null","<p class=block-text>Trial 59 out of 60</p>","null","","","","","","","","","","","","","","","","","","","","","","","","","",""
"","","","","","image-button-response","122","677017","0.0-2.0-4.0-1.34","5d0ac7504d57690017a355ef","D2","batch4","spm_respsonse","20114.80000001192","img/question_5_11.jpeg","5","mat_59","4","0","0","20114.80000001192","","","","","","","","","","","","","","","","","","","","",""
"","","","","","html-keyboard-response","123","678069","0.0-2.0-4.0-0.35","5d0ac7504d57690017a355ef","D2","batch4","spm_show_trial_num","null","<p class=block-text>Trial 60 out of 60</p>","null","","","","","","","","","","","","","","","","","","","","","","","","","",""
"","","","","","image-button-response","124","697580","0.0-2.0-4.0-1.35","5d0ac7504d57690017a355ef","D2","batch4","spm_respsonse","19509.599999964237","img/question_5_12.jpeg","1","mat_60","5","0","0","19509.599999964237","","","","","","","","","","","","","","","","","","","","",""
"","","","","","html-button-response","125","699598","0.0-2.0-5.0","5d0ac7504d57690017a355ef","D2","batch4","spm_goodbye","1767.300000011921","<p class= block-text>This concludes the Standard Progressive Matrix game. Thank you for your responses!<br> When you are ready, click the button continue</p>","0","","","","","","","","","","","","","","","","","","","","","","","","","",""
"true","","","","","fullscreen","126","702254","0.0-3.0-0.0","5d0ac7504d57690017a355ef","D2","batch4","","","","","","","","","","","","","","","","","","","","","","","","","","","","","",""
"","","","","","instructions","127","753101","0.0-3.0-1.0-0.0-0.0","5d0ac7504d57690017a355ef","D2","batch4","tol-instructions","50846.10000002384","","","","","","","","[{""page_index"":0,""viewing_time"":11183.300000011921},{""page_index"":1,""viewing_time"":3612.900000035763},{""page_index"":2,""viewing_time"":5459.899999976158},{""page_index"":3,""viewing_time"":12788.600000023842},{""page_index"":4,""viewing_time"":8412.5},{""page_index"":5,""viewing_time"":6744.899999976158},{""page_index"":6,""viewing_time"":2643.699999988079}]","","","","","","","","","","","","","","","","","","","",""
"","","","","","html-button-response","128","753862","0.0-3.0-1.0-1.0-0.0","5d0ac7504d57690017a355ef","D2","batch4","tol_enter_quiz","760.5","<p class=block-text> Let's answer a few questions <br>","0","","","","","","","","","","","","","","","","","","","","","","","","","",""
"","","","","","html-button-response","129","756246","0.0-3.0-1.0-1.0-1.0","5d0ac7504d57690017a355ef","D2","batch4","tol_quiz","2382.7000000476837","<p class = block-text>True or False: You can only move the ball on top of a peg. <br></p>","0","","","true","","","","","","","","","","","","","","","","","","","","","","",""
"","","","","","html-button-response","130","757725","0.0-3.0-1.0-1.0-2.0","5d0ac7504d57690017a355ef","D2","batch4","tol_quiz_feedback","1478.5999999642372","<p class = block-text>Correct! You can only move the ball on top of a peg.</p>","0","","","","","","","","","","","","","","","","","","","","","","","","","",""
"","","","","","html-button-response","131","760260","0.0-3.0-1.0-1.0-3.0","5d0ac7504d57690017a355ef","D2","batch4","tol_quiz","2534.100000023842","<p class = block-text>True or False: You should try to match your board with the target board with fewest moves possible. <br></p>","0","","","true","","","","","","","","","","","","","","","","","","","","","","",""
"","","","","","html-button-response","132","760819","0.0-3.0-1.0-1.0-4.0","5d0ac7504d57690017a355ef","D2","batch4","tol_quiz_feedback","557.6999999880791","<p class = block-text>Correct! </p>","0","","","","","","","","","","","","","","","","","","","","","","","","","",""
"","","","","","html-button-response","133","762486","0.0-3.0-2.0","5d0ac7504d57690017a355ef","D2","batch4","","1665.699999988079","<p class=block-text> Now that you've understood the game, let's practice a few easier examples before we start!<br> <br>","0","","","","","","","","","","","","","","","","","","","","","","","","","",""
"","","","","","single-stim-button","134","770263","0.0-3.0-3.0-0.0","5d0ac7504d57690017a355ef","D2","batch4","tol_practice","7776","","","","","","","","","tol_peg_2","7776","7776","0","[[1,2,0],[0,0],[0]]","1","[[1,2,0],[0,0],[3]]","practice","7776","","","","","","","","","","",""
"","","","","","single-stim-button","135","771201","0.0-3.0-3.0-1.0","5d0ac7504d57690017a355ef","D2","batch4","tol_practice","938","","","","","","","","","tol_peg_3","938","938","0","[[1,2,0],[0,0],[3]]","1","[[1,2,0],[0,0],[3]]","practice","938","","","","","","","","","","",""
"","","","","","poldrack-single-stim","136","772204","0.0-3.0-4.0","5d0ac7504d57690017a355ef","D2","batch4","tol_feedback","-1","","","","","true","","","","","1000","1000","500","","","","","","-1","none","true","","0","","","","","",""
"","","","","","single-stim-button","137","776573","0.0-3.0-5.0-0.0","5d0ac7504d57690017a355ef","D2","batch4","tol_practice","4369","","","","","","","","","tol_peg_1","4369","4369","0","[[1,0,0],[3,0],[0]]","2","[[0,0,0],[3,1],[2]]","practice","4369","","","","","","","","","","",""
"","","","","","single-stim-button","138","777304","0.0-3.0-5.0-1.0","5d0ac7504d57690017a355ef","D2","batch4","tol_practice","731","","","","","","","","","tol_peg_3","731","731","0","[[1,0,0],[3,0],[2]]","2","[[0,0,0],[3,1],[2]]","practice","731","","","","","","","","","","",""
"","","","","","single-stim-button","139","778598","0.0-3.0-5.1-0.1","5d0ac7504d57690017a355ef","D2","batch4","tol_practice","1294","","","","","","","","","tol_peg_1","1294","1294","0","[[0,0,0],[3,0],[2]]","3","[[0,0,0],[3,1],[2]]","practice","1294","","","","","","","","","","",""
"","","","","","single-stim-button","140","779202","0.0-3.0-5.1-1.1","5d0ac7504d57690017a355ef","D2","batch4","tol_practice","603","","","","","","","","","tol_peg_2","603","603","0","[[0,0,0],[3,1],[2]]","3","[[0,0,0],[3,1],[2]]","practice","603","","","","","","","","","","",""
"","","","","","poldrack-single-stim","141","780215","0.0-3.0-6.0","5d0ac7504d57690017a355ef","D2","batch4","tol_feedback","-1","","","","","true","","","","","1000","1000","500","","","","","","-1","none","true","","0","","","","","",""
"","","","","","single-stim-button","142","785524","0.0-3.0-7.0-0.0","5d0ac7504d57690017a355ef","D2","batch4","tol_practice","5308","","","","","","","","","tol_peg_2","5308","5308","0","[[1,2,0],[0,0],[0]]","4","[[1,0,0],[2,0],[3]]","practice","5308","","","","","","","","","","",""
"","","","","","single-stim-button","143","786461","0.0-3.0-7.0-1.0","5d0ac7504d57690017a355ef","D2","batch4","tol_practice","936","","","","","","","","","tol_peg_3","936","936","0","[[1,2,0],[0,0],[3]]","4","[[1,0,0],[2,0],[3]]","practice","936","","","","","","","","","","",""
"","","","","","single-stim-button","144","787347","0.0-3.0-7.1-0.1","5d0ac7504d57690017a355ef","D2","batch4","tol_practice","886","","","","","","","","","tol_peg_1","886","886","0","[[1,0,0],[0,0],[3]]","5","[[1,0,0],[2,0],[3]]","practice","886","","","","","","","","","","",""
"","","","","","single-stim-button","145","787892","0.0-3.0-7.1-1.1","5d0ac7504d57690017a355ef","D2","batch4","tol_practice","545","","","","","","","","","tol_peg_2","545","545","0","[[1,0,0],[2,0],[3]]","5","[[1,0,0],[2,0],[3]]","practice","545","","","","","","","","","","",""
"","","","","","poldrack-single-stim","146","788897","0.0-3.0-8.0","5d0ac7504d57690017a355ef","D2","batch4","tol_feedback","-1","","","","","true","","","","","1000","1000","500","","","","","","-1","none","true","","0","","","","","",""
"","","","","","html-button-response","147","790912","0.0-3.0-9.0","5d0ac7504d57690017a355ef","D2","batch4","tol_instruction","2014.199999988079","<div class = centerbox><p class = center-block-text>Great job! You are done with practice trials<br>You are about to start official trials.<br> <br> Problem <strong>1</strong> out of 25 problems</p></div>","0","","","","","","","","","","","","","","","","","","","","","","","","","",""
"","","","","","single-stim-button","148","802425","0.0-3.0-10.0-0.0","5d0ac7504d57690017a355ef","D2","batch4","tol_tohand","10498","","","","","","","","","tol_peg_1","10498","10498","0","[[1,0,0],[3,0],[0]]","1","[[1,3,0],[2,0],[0]]","0","0","","","","","","3","","","","",""
"","","","","","single-stim-button","149","803315","0.0-3.0-10.0-1.0","5d0ac7504d57690017a355ef","D2","batch4","tol_toboard","889","","","","","","","","","tol_peg_3","889","889","0","[[1,0,0],[3,0],[2]]","1","[[1,3,0],[2,0],[0]]","0","0","","","","","","3","","","","",""
"","","","","","single-stim-button","150","804444","0.0-3.0-10.1-0.1","5d0ac7504d57690017a355ef","D2","batch4","tol_tohand","1128","","","","","","","","","tol_peg_2","1128","1128","0","[[1,0,0],[0,0],[2]]","2","[[1,3,0],[2,0],[0]]","0","0","","","","","","3","","","","",""
"","","","","","single-stim-button","151","805056","0.0-3.0-10.1-1.1","5d0ac7504d57690017a355ef","D2","batch4","tol_toboard","612","","","","","","","","","tol_peg_1","612","612","0","[[1,3,0],[0,0],[2]]","2","[[1,3,0],[2,0],[0]]","0","0","","","","","","3","","","","",""
"","","","","","single-stim-button","152","805676","0.0-3.0-10.2-0.2","5d0ac7504d57690017a355ef","D2","batch4","tol_tohand","619","","","","","","","","","tol_peg_3","619","619","0","[[1,3,0],[0,0],[0]]","3","[[1,3,0],[2,0],[0]]","0","0","","","","","","3","","","","",""
"","","","","","single-stim-button","153","806110","0.0-3.0-10.2-1.2","5d0ac7504d57690017a355ef","D2","batch4","tol_toboard","434","","","","","","","","","tol_peg_2","434","434","0","[[1,3,0],[2,0],[0]]","3","[[1,3,0],[2,0],[0]]","0","0","","","","","","3","","","","",""
"","","","","","poldrack-single-stim","154","807118","0.0-3.0-11.0","5d0ac7504d57690017a355ef","D2","batch4","tol_feedback","-1","","","","","true","","","","","1000","1000","500","","","","","","-1","none","true","10498","12245","","","","","",""
"","","","","","html-button-response","155","808276","0.0-3.0-12.0","5d0ac7504d57690017a355ef","D2","batch4","tol_trial_num","1157.199999988079","<div class = centerbox><p class = center-block-text>problem <strong>2</strong> out of 25 problems</p></div>","0","","","","","","","","","","","","","","","","","","","","","","","","","",""
"","","","","","single-stim-button","156","818754","0.0-3.0-13.0-0.0","5d0ac7504d57690017a355ef","D2","batch4","tol_tohand","10477","","","","","","","","","tol_peg_1","10477","10477","0","[[1,0,0],[3,0],[0]]","1","[[2,1,3],[0,0],[0]]","1","0","","","","","","5","","","","",""
"","","","","","single-stim-button","157","819510","0.0-3.0-13.0-1.0","5d0ac7504d57690017a355ef","D2","batch4","tol_toboard","755","","","","","","","","","tol_peg_3","755","755","0","[[1,0,0],[3,0],[2]]","1","[[2,1,3],[0,0],[0]]","1","0","","","","","","5","","","","",""
"","","","","","single-stim-button","158","821943","0.0-3.0-13.1-0.1","5d0ac7504d57690017a355ef","D2","batch4","tol_tohand","2431","","","","","","","","","tol_peg_1","2431","2431","0","[[0,0,0],[3,0],[2]]","2","[[2,1,3],[0,0],[0]]","1","0","","","","","","5","","","","",""
"","","","","","single-stim-button","159","823069","0.0-3.0-13.1-1.1","5d0ac7504d57690017a355ef","D2","batch4","tol_toboard","1126","","","","","","","","","tol_peg_2","1126","1126","0","[[0,0,0],[3,1],[2]]","2","[[2,1,3],[0,0],[0]]","1","0","","","","","","5","","","","",""
"","","","","","single-stim-button","160","823629","0.0-3.0-13.2-0.2","5d0ac7504d57690017a355ef","D2","batch4","tol_tohand","560","","","","","","","","","tol_peg_3","560","560","0","[[0,0,0],[3,1],[0]]","3","[[2,1,3],[0,0],[0]]","1","0","","","","","","5","","","","",""
"","","","","","single-stim-button","161","824254","0.0-3.0-13.2-1.2","5d0ac7504d57690017a355ef","D2","batch4","tol_toboard","625","","","","","","","","","tol_peg_1","625","625","0","[[2,0,0],[3,1],[0]]","3","[[2,1,3],[0,0],[0]]","1","0","","","","","","5","","","","",""
"","","","","","single-stim-button","162","825821","0.0-3.0-13.3-0.3","5d0ac7504d57690017a355ef","D2","batch4","tol_tohand","1566","","","","","","","","","tol_peg_2","1566","1566","0","[[2,0,0],[3,0],[0]]","4","[[2,1,3],[0,0],[0]]","1","0","","","","","","5","","","","",""
"","","","","","single-stim-button","163","826272","0.0-3.0-13.3-1.3","5d0ac7504d57690017a355ef","D2","batch4","tol_toboard","450","","","","","","","","","tol_peg_1","450","450","0","[[2,1,0],[3,0],[0]]","4","[[2,1,3],[0,0],[0]]","1","0","","","","","","5","","","","",""
"","","","","","single-stim-button","164","826754","0.0-3.0-13.4-0.4","5d0ac7504d57690017a355ef","D2","batch4","tol_tohand","481","","","","","","","","","tol_peg_2","481","481","0","[[2,1,0],[0,0],[0]]","5","[[2,1,3],[0,0],[0]]","1","0","","","","","","5","","","","",""
"","","","","","single-stim-button","165","827311","0.0-3.0-13.4-1.4","5d0ac7504d57690017a355ef","D2","batch4","tol_toboard","557","","","","","","","","","tol_peg_1","557","557","0","[[2,1,3],[0,0],[0]]","5","[[2,1,3],[0,0],[0]]","1","0","","","","","","5","","","","",""
"","","","","","poldrack-single-stim","166","828322","0.0-3.0-14.0","5d0ac7504d57690017a355ef","D2","batch4","tol_feedback","-1","","","","","true","","","","","1000","1000","500","","","","","","-1","none","true","10477","15515","","","","","",""
"","","","","","html-button-response","167","829222","0.0-3.0-15.0","5d0ac7504d57690017a355ef","D2","batch4","tol_trial_num","898.4000000357628","<div class = centerbox><p class = center-block-text>problem <strong>3</strong> out of 25 problems</p></div>","0","","","","","","","","","","","","","","","","","","","","","","","","","",""
"","","","","","single-stim-button","168","832469","0.0-3.0-16.0-0.0","5d0ac7504d57690017a355ef","D2","batch4","tol_tohand","3246","","","","","","","","","tol_peg_1","3246","3246","0","[[2,0,0],[0,0],[1]]","1","[[1,2,0],[3,0],[0]]","2","0","","","","","","4","","","","",""
"","","","","","single-stim-button","169","833072","0.0-3.0-16.0-1.0","5d0ac7504d57690017a355ef","D2","batch4","tol_toboard","602","","","","","","","","","tol_peg_2","602","602","0","[[2,0,0],[3,0],[1]]","1","[[1,2,0],[3,0],[0]]","2","0","","","","","","4","","","","",""
"","","","","","single-stim-button","170","838007","0.0-3.0-16.1-0.1","5d0ac7504d57690017a355ef","D2","batch4","tol_tohand","4935","","","","","","","","","tol_peg_1","4935","4935","0","[[0,0,0],[3,0],[1]]","2","[[1,2,0],[3,0],[0]]","2","0","","","","","","4","","","","",""
"","","","","","single-stim-button","171","838668","0.0-3.0-16.1-1.1","5d0ac7504d57690017a355ef","D2","batch4","tol_toboard","660","","","","","","","","","tol_peg_2","660","660","0","[[0,0,0],[3,2],[1]]","2","[[1,2,0],[3,0],[0]]","2","0","","","","","","4","","","","",""
"","","","","","single-stim-button","172","839133","0.0-3.0-16.2-0.2","5d0ac7504d57690017a355ef","D2","batch4","tol_tohand","464","","","","","","","","","tol_peg_3","464","464","0","[[0,0,0],[3,2],[0]]","3","[[1,2,0],[3,0],[0]]","2","0","","","","","","4","","","","",""
"","","","","","single-stim-button","173","839780","0.0-3.0-16.2-1.2","5d0ac7504d57690017a355ef","D2","batch4","tol_toboard","647","","","","","","","","","tol_peg_1","647","647","0","[[1,0,0],[3,2],[0]]","3","[[1,2,0],[3,0],[0]]","2","0","","","","","","4","","","","",""
"","","","","","single-stim-button","174","840308","0.0-3.0-16.3-0.3","5d0ac7504d57690017a355ef","D2","batch4","tol_tohand","527","","","","","","","","","tol_peg_2","527","527","0","[[1,0,0],[3,0],[0]]","4","[[1,2,0],[3,0],[0]]","2","0","","","","","","4","","","","",""
"","","","","","single-stim-button","175","840662","0.0-3.0-16.3-1.3","5d0ac7504d57690017a355ef","D2","batch4","tol_toboard","354","","","","","","","","","tol_peg_1","354","354","0","[[1,2,0],[3,0],[0]]","4","[[1,2,0],[3,0],[0]]","2","0","","","","","","4","","","","",""
"","","","","","poldrack-single-stim","176","841675","0.0-3.0-17.0","5d0ac7504d57690017a355ef","D2","batch4","tol_feedback","-1","","","","","true","","","","","1000","1000","500","","","","","","-1","none","true","3246","9172","","","","","",""
"","","","","","html-button-response","177","842805","0.0-3.0-18.0","5d0ac7504d57690017a355ef","D2","batch4","tol_trial_num","1129.5999999642372","<div class = centerbox><p class = center-block-text>problem <strong>4</strong> out of 25 problems</p></div>","0","","","","","","","","","","","","","","","","","","","","","","","","","",""
"","","","","","single-stim-button","178","847582","0.0-3.0-19.0-0.0","5d0ac7504d57690017a355ef","D2","batch4","tol_tohand","4775","","","","","","","","","tol_peg_2","4775","4775","0","[[3,0,0],[2,0],[0]]","1","[[3,0,0],[1,0],[2]]","3","0","","","","","","3","","","","",""
"","","","","","single-stim-button","179","851653","0.0-3.0-19.0-1.0","5d0ac7504d57690017a355ef","D2","batch4","tol_toboard","4071","","","","","","","","","tol_peg_1","4071","4071","0","[[3,1,0],[2,0],[0]]","1","[[3,0,0],[1,0],[2]]","3","0","","","","","","3","","","","",""
"","","","","","single-stim-button","180","853141","0.0-3.0-19.1-0.1","5d0ac7504d57690017a355ef","D2","batch4","tol_tohand","1486","","","","","","","","","tol_peg_2","1486","1486","0","[[3,1,0],[0,0],[0]]","2","[[3,0,0],[1,0],[2]]","3","0","","","","","","3","","","","",""
"","","","","","single-stim-button","181","853571","0.0-3.0-19.1-1.1","5d0ac7504d57690017a355ef","D2","batch4","tol_toboard","430","","","","","","","","","tol_peg_3","430","430","0","[[3,1,0],[0,0],[2]]","2","[[3,0,0],[1,0],[2]]","3","0","","","","","","3","","","","",""
"","","","","","single-stim-button","182","855051","0.0-3.0-19.2-0.2","5d0ac7504d57690017a355ef","D2","batch4","tol_tohand","1479","","","","","","","","","tol_peg_1","1479","1479","0","[[3,0,0],[0,0],[2]]","3","[[3,0,0],[1,0],[2]]","3","0","","","","","","3","","","","",""
"","","","","","single-stim-button","183","855424","0.0-3.0-19.2-1.2","5d0ac7504d57690017a355ef","D2","batch4","tol_toboard","372","","","","","","","","","tol_peg_2","372","372","0","[[3,0,0],[1,0],[2]]","3","[[3,0,0],[1,0],[2]]","3","0","","","","","","3","","","","",""
"","","","","","poldrack-single-stim","184","856425","0.0-3.0-20.0","5d0ac7504d57690017a355ef","D2","batch4","tol_feedback","-1","","","","","true","","","","","1000","1000","500","","","","","","-1","none","true","4775","7740","","","","","",""
"","","","","","html-button-response","185","857108","0.0-3.0-21.0","5d0ac7504d57690017a355ef","D2","batch4","tol_trial_num","682","<div class = centerbox><p class = center-block-text>problem <strong>5</strong> out of 25 problems</p></div>","0","","","","","","","","","","","","","","","","","","","","","","","","","",""
"","","","","","single-stim-button","186","862256","0.0-3.0-22.0-0.0","5d0ac7504d57690017a355ef","D2","batch4","tol_tohand","5148","","","","","","","","","tol_peg_2","5148","5148","0","[[1,0,0],[0,0],[3]]","1","[[0,0,0],[1,2],[3]]","4","0","","","","","","7","","","","",""
"","","","","","single-stim-button","187","875490","0.0-3.0-22.0-1.0","5d0ac7504d57690017a355ef","D2","batch4","tol_toboard","13234","","","","","","","","","tol_peg_2","13234","13234","0","[[1,0,0],[2,0],[3]]","1","[[0,0,0],[1,2],[3]]","4","0","","","","","","7","","","","",""
"","","","","","single-stim-button","188","882492","0.0-3.0-22.1-0.1","5d0ac7504d57690017a355ef","D2","batch4","tol_tohand","7001","","","","","","","","","tol_peg_1","7001","7001","0","[[0,0,0],[2,0],[3]]","2","[[0,0,0],[1,2],[3]]","4","0","","","","","","7","","","","",""
"","","","","","single-stim-button","189","888175","0.0-3.0-22.1-1.1","5d0ac7504d57690017a355ef","D2","batch4","tol_toboard","5683","","","","","","","","","tol_peg_1","5683","5683","0","[[1,0,0],[2,0],[3]]","2","[[0,0,0],[1,2],[3]]","4","0","","","","","","7","","","","",""
"","","","","","single-stim-button","190","890529","0.0-3.0-22.2-0.2","5d0ac7504d57690017a355ef","D2","batch4","tol_tohand","2354","","","","","","","","","tol_peg_3","2354","2354","0","[[1,0,0],[2,0],[0]]","3","[[0,0,0],[1,2],[3]]","4","0","","","","","","7","","","","",""
"","","","","","single-stim-button","191","893710","0.0-3.0-22.2-1.2","5d0ac7504d57690017a355ef","D2","batch4","tol_toboard","3180","","","","","","","","","tol_peg_2","3180","3180","0","[[1,0,0],[2,3],[0]]","3","[[0,0,0],[1,2],[3]]","4","0","","","","","","7","","","","",""
"","","","","","single-stim-button","192","894477","0.0-3.0-22.3-0.3","5d0ac7504d57690017a355ef","D2","batch4","tol_tohand","766","","","","","","","","","tol_peg_1","766","766","0","[[0,0,0],[2,3],[0]]","4","[[0,0,0],[1,2],[3]]","4","0","","","","","","7","","","","",""
"","","","","","single-stim-button","193","895260","0.0-3.0-22.3-1.3","5d0ac7504d57690017a355ef","D2","batch4","tol_toboard","782","","","","","","","","","tol_peg_3","782","782","0","[[0,0,0],[2,3],[1]]","4","[[0,0,0],[1,2],[3]]","4","0","","","","","","7","","","","",""
"","","","","","single-stim-button","194","897441","0.0-3.0-22.4-0.4","5d0ac7504d57690017a355ef","D2","batch4","tol_tohand","2180","","","","","","","","","tol_peg_2","2180","2180","0","[[0,0,0],[2,0],[1]]","5","[[0,0,0],[1,2],[3]]","4","0","","","","","","7","","","","",""
"","","","","","single-stim-button","195","897999","0.0-3.0-22.4-1.4","5d0ac7504d57690017a355ef","D2","batch4","tol_toboard","558","","","","","","","","","tol_peg_1","558","558","0","[[3,0,0],[2,0],[1]]","5","[[0,0,0],[1,2],[3]]","4","0","","","","","","7","","","","",""
"","","","","","single-stim-button","196","900629","0.0-3.0-22.5-0.5","5d0ac7504d57690017a355ef","D2","batch4","tol_tohand","2629","","","","","","","","","tol_peg_2","2629","2629","0","[[3,0,0],[0,0],[1]]","6","[[0,0,0],[1,2],[3]]","4","0","","","","","","7","","","","",""
"","","","","","single-stim-button","197","901319","0.0-3.0-22.5-1.5","5d0ac7504d57690017a355ef","D2","batch4","tol_toboard","690","","","","","","","","","tol_peg_1","690","690","0","[[3,2,0],[0,0],[1]]","6","[[0,0,0],[1,2],[3]]","4","0","","","","","","7","","","","",""
"","","","","","single-stim-button","198","904609","0.0-3.0-22.6-0.6","5d0ac7504d57690017a355ef","D2","batch4","tol_tohand","3289","","","","","","","","","tol_peg_3","3289","3289","0","[[3,2,0],[0,0],[0]]","7","[[0,0,0],[1,2],[3]]","4","0","","","","","","7","","","","",""
"","","","","","single-stim-button","199","905173","0.0-3.0-22.6-1.6","5d0ac7504d57690017a355ef","D2","batch4","tol_toboard","564","","","","","","","","","tol_peg_2","564","564","0","[[3,2,0],[1,0],[0]]","7","[[0,0,0],[1,2],[3]]","4","0","","","","","","7","","","","",""
"","","","","","single-stim-button","200","909380","0.0-3.0-22.7-0.7","5d0ac7504d57690017a355ef","D2","batch4","tol_tohand","4206","","","","","","","","","tol_peg_1","4206","4206","0","[[3,0,0],[1,0],[0]]","8","[[0,0,0],[1,2],[3]]","4","0","","","","","","7","","","","",""
"","","","","","single-stim-button","201","909886","0.0-3.0-22.7-1.7","5d0ac7504d57690017a355ef","D2","batch4","tol_toboard","505","","","","","","","","","tol_peg_2","505","505","0","[[3,0,0],[1,2],[0]]","8","[[0,0,0],[1,2],[3]]","4","0","","","","","","7","","","","",""
"","","","","","single-stim-button","202","911201","0.0-3.0-22.8-0.8","5d0ac7504d57690017a355ef","D2","batch4","tol_tohand","1315","","","","","","","","","tol_peg_1","1315","1315","0","[[0,0,0],[1,2],[0]]","9","[[0,0,0],[1,2],[3]]","4","0","","","","","","7","","","","",""
"","","","","","single-stim-button","203","911748","0.0-3.0-22.8-1.8","5d0ac7504d57690017a355ef","D2","batch4","tol_toboard","546","","","","","","","","","tol_peg_3","546","546","0","[[0,0,0],[1,2],[3]]","9","[[0,0,0],[1,2],[3]]","4","0","","","","","","7","","","","",""
"","","","","","poldrack-single-stim","204","912760","0.0-3.0-23.0","5d0ac7504d57690017a355ef","D2","batch4","tol_feedback","-1","","","","","true","","","","","1000","1000","500","","","","","","-1","none","true","5148","28888","","","","","",""
"","","","","","html-button-response","205","913883","0.0-3.0-24.0","5d0ac7504d57690017a355ef","D2","batch4","tol_trial_num","1121.8999999761581","<div class = centerbox><p class = center-block-text>problem <strong>6</strong> out of 25 problems</p></div>","0","","","","","","","","","","","","","","","","","","","","","","","","","",""
"","","","","","single-stim-button","206","924559","0.0-3.0-25.0-0.0","5d0ac7504d57690017a355ef","D2","batch4","tol_tohand","10676","","","","","","","","","tol_peg_2","10676","10676","0","[[0,0,0],[1,0],[3]]","1","[[1,0,0],[2,3],[0]]","5","0","","","","","","6","","","","",""
"","","","","","single-stim-button","207","925504","0.0-3.0-25.0-1.0","5d0ac7504d57690017a355ef","D2","batch4","tol_toboard","945","","","","","","","","","tol_peg_1","945","945","0","[[2,0,0],[1,0],[3]]","1","[[1,0,0],[2,3],[0]]","5","0","","","","","","6","","","","",""
"","","","","","single-stim-button","208","927957","0.0-3.0-25.1-0.1","5d0ac7504d57690017a355ef","D2","batch4","tol_tohand","2451","","","","","","","","","tol_peg_3","2451","2451","0","[[2,0,0],[1,0],[0]]","2","[[1,0,0],[2,3],[0]]","5","0","","","","","","6","","","","",""
"","","","","","single-stim-button","209","928558","0.0-3.0-25.1-1.1","5d0ac7504d57690017a355ef","D2","batch4","tol_toboard","601","","","","","","","","","tol_peg_1","601","601","0","[[2,3,0],[1,0],[0]]","2","[[1,0,0],[2,3],[0]]","5","0","","","","","","6","","","","",""
"","","","","","single-stim-button","210","929292","0.0-3.0-25.2-0.2","5d0ac7504d57690017a355ef","D2","batch4","tol_tohand","733","","","","","","","","","tol_peg_2","733","733","0","[[2,3,0],[0,0],[0]]","3","[[1,0,0],[2,3],[0]]","5","0","","","","","","6","","","","",""
"","","","","","single-stim-button","211","930397","0.0-3.0-25.2-1.2","5d0ac7504d57690017a355ef","D2","batch4","tol_toboard","1105","","","","","","","","","tol_peg_3","1105","1105","0","[[2,3,0],[0,0],[1]]","3","[[1,0,0],[2,3],[0]]","5","0","","","","","","6","","","","",""
"","","","","","single-stim-button","212","931071","0.0-3.0-25.3-0.3","5d0ac7504d57690017a355ef","D2","batch4","tol_tohand","674","","","","","","","","","tol_peg_1","674","674","0","[[2,0,0],[0,0],[1]]","4","[[1,0,0],[2,3],[0]]","5","0","","","","","","6","","","","",""
"","","","","","single-stim-button","213","935045","0.0-3.0-25.3-1.3","5d0ac7504d57690017a355ef","D2","batch4","tol_toboard","3972","","","","","","","","","tol_peg_2","3972","3972","0","[[2,0,0],[3,0],[1]]","4","[[1,0,0],[2,3],[0]]","5","0","","","","","","6","","","","",""
"","","","","","single-stim-button","214","935736","0.0-3.0-25.4-0.4","5d0ac7504d57690017a355ef","D2","batch4","tol_tohand","691","","","","","","","","","tol_peg_1","691","691","0","[[0,0,0],[3,0],[1]]","5","[[1,0,0],[2,3],[0]]","5","0","","","","","","6","","","","",""
"","","","","","single-stim-button","215","936576","0.0-3.0-25.4-1.4","5d0ac7504d57690017a355ef","D2","batch4","tol_toboard","840","","","","","","","","","tol_peg_2","840","840","0","[[0,0,0],[3,2],[1]]","5","[[1,0,0],[2,3],[0]]","5","0","","","","","","6","","","","",""
"","","","","","single-stim-button","216","936993","0.0-3.0-25.5-0.5","5d0ac7504d57690017a355ef","D2","batch4","tol_tohand","416","","","","","","","","","tol_peg_3","416","416","0","[[0,0,0],[3,2],[0]]","6","[[1,0,0],[2,3],[0]]","5","0","","","","","","6","","","","",""
"","","","","","single-stim-button","217","937866","0.0-3.0-25.5-1.5","5d0ac7504d57690017a355ef","D2","batch4","tol_toboard","873","","","","","","","","","tol_peg_1","873","873","0","[[1,0,0],[3,2],[0]]","6","[[1,0,0],[2,3],[0]]","5","0","","","","","","6","","","","",""
"","","","","","single-stim-button","218","940872","0.0-3.0-25.6-0.6","5d0ac7504d57690017a355ef","D2","batch4","tol_tohand","3005","","","","","","","","","tol_peg_2","3005","3005","0","[[1,0,0],[3,0],[0]]","7","[[1,0,0],[2,3],[0]]","5","0","","","","","","6","","","","",""
"","","","","","single-stim-button","219","941457","0.0-3.0-25.6-1.6","5d0ac7504d57690017a355ef","D2","batch4","tol_toboard","584","","","","","","","","","tol_peg_3","584","584","0","[[1,0,0],[3,0],[2]]","7","[[1,0,0],[2,3],[0]]","5","0","","","","","","6","","","","",""
"","","","","","single-stim-button","220","942499","0.0-3.0-25.7-0.7","5d0ac7504d57690017a355ef","D2","batch4","tol_tohand","1042","","","","","","","","","tol_peg_2","1042","1042","0","[[1,0,0],[0,0],[2]]","8","[[1,0,0],[2,3],[0]]","5","0","","","","","","6","","","","",""
"","","","","","single-stim-button","221","942944","0.0-3.0-25.7-1.7","5d0ac7504d57690017a355ef","D2","batch4","tol_toboard","443","","","","","","","","","tol_peg_1","443","443","0","[[1,3,0],[0,0],[2]]","8","[[1,0,0],[2,3],[0]]","5","0","","","","","","6","","","","",""
"","","","","","single-stim-button","222","943504","0.0-3.0-25.8-0.8","5d0ac7504d57690017a355ef","D2","batch4","tol_tohand","560","","","","","","","","","tol_peg_3","560","560","0","[[1,3,0],[0,0],[0]]","9","[[1,0,0],[2,3],[0]]","5","0","","","","","","6","","","","",""
"","","","","","single-stim-button","223","943966","0.0-3.0-25.8-1.8","5d0ac7504d57690017a355ef","D2","batch4","tol_toboard","461","","","","","","","","","tol_peg_2","461","461","0","[[1,3,0],[2,0],[0]]","9","[[1,0,0],[2,3],[0]]","5","0","","","","","","6","","","","",""
"","","","","","single-stim-button","224","945356","0.0-3.0-25.9-0.9","5d0ac7504d57690017a355ef","D2","batch4","tol_tohand","1390","","","","","","","","","tol_peg_1","1390","1390","0","[[1,0,0],[2,0],[0]]","10","[[1,0,0],[2,3],[0]]","5","0","","","","","","6","","","","",""
"","","","","","single-stim-button","225","945790","0.0-3.0-25.9-1.9","5d0ac7504d57690017a355ef","D2","batch4","tol_toboard","432","","","","","","","","","tol_peg_2","432","432","0","[[1,0,0],[2,3],[0]]","10","[[1,0,0],[2,3],[0]]","5","0","","","","","","6","","","","",""
"","","","","","poldrack-single-stim","226","946800","0.0-3.0-26.0","5d0ac7504d57690017a355ef","D2","batch4","tol_feedback","-1","","","","","true","","","","","1000","1000","500","","","","","","-1","none","true","10676","21638","","","","","",""
"","","","","","html-button-response","227","948115","0.0-3.0-27.0","5d0ac7504d57690017a355ef","D2","batch4","tol_trial_num","1314.3999999761581","<div class = centerbox><p class = center-block-text>problem <strong>7</strong> out of 25 problems</p></div>","0","","","","","","","","","","","","","","","","","","","","","","","","","",""
"","","","","","single-stim-button","228","954379","0.0-3.0-28.0-0.0","5d0ac7504d57690017a355ef","D2","batch4","tol_tohand","6264","","","","","","","","","tol_peg_3","6264","6264","0","[[2,1,0],[0,0],[0]]","1","[[1,2,0],[3,0],[0]]","6","0","","","","","","5","","","","",""
"","","","","","single-stim-button","229","954962","0.0-3.0-28.0-1.0","5d0ac7504d57690017a355ef","D2","batch4","tol_toboard","582","","","","","","","","","tol_peg_2","582","582","0","[[2,1,0],[3,0],[0]]","1","[[1,2,0],[3,0],[0]]","6","0","","","","","","5","","","","",""
"","","","","","single-stim-button","230","956801","0.0-3.0-28.1-0.1","5d0ac7504d57690017a355ef","D2","batch4","tol_tohand","1839","","","","","","","","","tol_peg_1","1839","1839","0","[[2,0,0],[3,0],[0]]","2","[[1,2,0],[3,0],[0]]","6","0","","","","","","5","","","","",""
"","","","","","single-stim-button","231","957822","0.0-3.0-28.1-1.1","5d0ac7504d57690017a355ef","D2","batch4","tol_toboard","1021","","","","","","","","","tol_peg_3","1021","1021","0","[[2,0,0],[3,0],[1]]","2","[[1,2,0],[3,0],[0]]","6","0","","","","","","5","","","","",""
"","","","","","single-stim-button","232","958636","0.0-3.0-28.2-0.2","5d0ac7504d57690017a355ef","D2","batch4","tol_tohand","813","","","","","","","","","tol_peg_1","813","813","0","[[0,0,0],[3,0],[1]]","3","[[1,2,0],[3,0],[0]]","6","0","","","","","","5","","","","",""
"","","","","","single-stim-button","233","959064","0.0-3.0-28.2-1.2","5d0ac7504d57690017a355ef","D2","batch4","tol_toboard","427","","","","","","","","","tol_peg_2","427","427","0","[[0,0,0],[3,2],[1]]","3","[[1,2,0],[3,0],[0]]","6","0","","","","","","5","","","","",""
"","","","","","single-stim-button","234","959610","0.0-3.0-28.3-0.3","5d0ac7504d57690017a355ef","D2","batch4","tol_tohand","546","","","","","","","","","tol_peg_3","546","546","0","[[0,0,0],[3,2],[0]]","4","[[1,2,0],[3,0],[0]]","6","0","","","","","","5","","","","",""
"","","","","","single-stim-button","235","960175","0.0-3.0-28.3-1.3","5d0ac7504d57690017a355ef","D2","batch4","tol_toboard","564","","","","","","","","","tol_peg_1","564","564","0","[[1,0,0],[3,2],[0]]","4","[[1,2,0],[3,0],[0]]","6","0","","","","","","5","","","","",""
"","","","","","single-stim-button","236","960597","0.0-3.0-28.4-0.4","5d0ac7504d57690017a355ef","D2","batch4","tol_tohand","422","","","","","","","","","tol_peg_2","422","422","0","[[1,0,0],[3,0],[0]]","5","[[1,2,0],[3,0],[0]]","6","0","","","","","","5","","","","",""
"","","","","","single-stim-button","237","961021","0.0-3.0-28.4-1.4","5d0ac7504d57690017a355ef","D2","batch4","tol_toboard","424","","","","","","","","","tol_peg_1","424","424","0","[[1,2,0],[3,0],[0]]","5","[[1,2,0],[3,0],[0]]","6","0","","","","","","5","","","","",""
"","","","","","poldrack-single-stim","238","962024","0.0-3.0-29.0","5d0ac7504d57690017a355ef","D2","batch4","tol_feedback","-1","","","","","true","","","","","1000","1000","500","","","","","","-1","none","true","6264","9884","","","","","",""
"","","","","","html-button-response","239","962908","0.0-3.0-30.0","5d0ac7504d57690017a355ef","D2","batch4","tol_trial_num","883.1999999880791","<div class = centerbox><p class = center-block-text>problem <strong>8</strong> out of 25 problems</p></div>","0","","","","","","","","","","","","","","","","","","","","","","","","","",""
"","","","","","single-stim-button","240","971933","0.0-3.0-31.0-0.0","5d0ac7504d57690017a355ef","D2","batch4","tol_tohand","9025","","","","","","","","","tol_peg_3","9025","9025","0","[[0,0,0],[2,3],[0]]","1","[[1,2,0],[3,0],[0]]","7","0","","","","","","4","","","","",""
"","","","","","single-stim-button","241","972908","0.0-3.0-31.0-1.0","5d0ac7504d57690017a355ef","D2","batch4","tol_toboard","974","","","","","","","","","tol_peg_1","974","974","0","[[1,0,0],[2,3],[0]]","1","[[1,2,0],[3,0],[0]]","7","0","","","","","","4","","","","",""
"","","","","","single-stim-button","242","973448","0.0-3.0-31.1-0.1","5d0ac7504d57690017a355ef","D2","batch4","tol_tohand","539","","","","","","","","","tol_peg_2","539","539","0","[[1,0,0],[2,0],[0]]","2","[[1,2,0],[3,0],[0]]","7","0","","","","","","4","","","","",""
"","","","","","single-stim-button","243","974031","0.0-3.0-31.1-1.1","5d0ac7504d57690017a355ef","D2","batch4","tol_toboard","583","","","","","","","","","tol_peg_3","583","583","0","[[1,0,0],[2,0],[3]]","2","[[1,2,0],[3,0],[0]]","7","0","","","","","","4","","","","",""
"","","","","","single-stim-button","244","974543","0.0-3.0-31.2-0.2","5d0ac7504d57690017a355ef","D2","batch4","tol_tohand","510","","","","","","","","","tol_peg_2","510","510","0","[[1,0,0],[0,0],[3]]","3","[[1,2,0],[3,0],[0]]","7","0","","","","","","4","","","","",""
"","","","","","single-stim-button","245","975206","0.0-3.0-31.2-1.2","5d0ac7504d57690017a355ef","D2","batch4","tol_toboard","663","","","","","","","","","tol_peg_1","663","663","0","[[1,2,0],[0,0],[3]]","3","[[1,2,0],[3,0],[0]]","7","0","","","","","","4","","","","",""
"","","","","","single-stim-button","246","976364","0.0-3.0-31.3-0.3","5d0ac7504d57690017a355ef","D2","batch4","tol_tohand","1157","","","","","","","","","tol_peg_3","1157","1157","0","[[1,2,0],[0,0],[0]]","4","[[1,2,0],[3,0],[0]]","7","0","","","","","","4","","","","",""
"","","","","","single-stim-button","247","976857","0.0-3.0-31.3-1.3","5d0ac7504d57690017a355ef","D2","batch4","tol_toboard","492","","","","","","","","","tol_peg_2","492","492","0","[[1,2,0],[3,0],[0]]","4","[[1,2,0],[3,0],[0]]","7","0","","","","","","4","","","","",""
"","","","","","poldrack-single-stim","248","977866","0.0-3.0-32.0","5d0ac7504d57690017a355ef","D2","batch4","tol_feedback","-1","","","","","true","","","","","1000","1000","500","","","","","","-1","none","true","9025","11231","","","","","",""
"","","","","","html-button-response","249","978860","0.0-3.0-33.0","5d0ac7504d57690017a355ef","D2","batch4","tol_trial_num","992.4000000357628","<div class = centerbox><p class = center-block-text>problem <strong>9</strong> out of 25 problems</p></div>","0","","","","","","","","","","","","","","","","","","","","","","","","","",""
"","","","","","single-stim-button","250","984774","0.0-3.0-34.0-0.0","5d0ac7504d57690017a355ef","D2","batch4","tol_tohand","5914","","","","","","","","","tol_peg_3","5914","5914","0","[[3,2,0],[0,0],[0]]","1","[[2,1,0],[3,0],[0]]","8","0","","","","","","6","","","","",""
"","","","","","single-stim-button","251","985306","0.0-3.0-34.0-1.0","5d0ac7504d57690017a355ef","D2","batch4","tol_toboard","531","","","","","","","","","tol_peg_2","531","531","0","[[3,2,0],[1,0],[0]]","1","[[2,1,0],[3,0],[0]]","8","0","","","","","","6","","","","",""
"","","","","","single-stim-button","252","989022","0.0-3.0-34.1-0.1","5d0ac7504d57690017a355ef","D2","batch4","tol_tohand","3716","","","","","","","","","tol_peg_1","3716","3716","0","[[3,0,0],[1,0],[0]]","2","[[2,1,0],[3,0],[0]]","8","0","","","","","","6","","","","",""
"","","","","","single-stim-button","253","995702","0.0-3.0-34.1-1.1","5d0ac7504d57690017a355ef","D2","batch4","tol_toboard","6679","","","","","","","","","tol_peg_3","6679","6679","0","[[3,0,0],[1,0],[2]]","2","[[2,1,0],[3,0],[0]]","8","0","","","","","","6","","","","",""
"","","","","","single-stim-button","254","996480","0.0-3.0-34.2-0.2","5d0ac7504d57690017a355ef","D2","batch4","tol_tohand","778","","","","","","","","","tol_peg_1","778","778","0","[[0,0,0],[1,0],[2]]","3","[[2,1,0],[3,0],[0]]","8","0","","","","","","6","","","","",""
"","","","","","single-stim-button","255","997080","0.0-3.0-34.2-1.2","5d0ac7504d57690017a355ef","D2","batch4","tol_toboard","599","","","","","","","","","tol_peg_2","599","599","0","[[0,0,0],[1,3],[2]]","3","[[2,1,0],[3,0],[0]]","8","0","","","","","","6","","","","",""
"","","","","","single-stim-button","256","997679","0.0-3.0-34.3-0.3","5d0ac7504d57690017a355ef","D2","batch4","tol_tohand","599","","","","","","","","","tol_peg_3","599","599","0","[[0,0,0],[1,3],[0]]","4","[[2,1,0],[3,0],[0]]","8","0","","","","","","6","","","","",""
"","","","","","single-stim-button","257","998281","0.0-3.0-34.3-1.3","5d0ac7504d57690017a355ef","D2","batch4","tol_toboard","601","","","","","","","","","tol_peg_1","601","601","0","[[2,0,0],[1,3],[0]]","4","[[2,1,0],[3,0],[0]]","8","0","","","","","","6","","","","",""
"","","","","","single-stim-button","258","998794","0.0-3.0-34.4-0.4","5d0ac7504d57690017a355ef","D2","batch4","tol_tohand","512","","","","","","","","","tol_peg_2","512","512","0","[[2,0,0],[1,0],[0]]","5","[[2,1,0],[3,0],[0]]","8","0","","","","","","6","","","","",""
"","","","","","single-stim-button","259","999716","0.0-3.0-34.4-1.4","5d0ac7504d57690017a355ef","D2","batch4","tol_toboard","922","","","","","","","","","tol_peg_3","922","922","0","[[2,0,0],[1,0],[3]]","5","[[2,1,0],[3,0],[0]]","8","0","","","","","","6","","","","",""
"","","","","","single-stim-button","260","1000169","0.0-3.0-34.5-0.5","5d0ac7504d57690017a355ef","D2","batch4","tol_tohand","453","","","","","","","","","tol_peg_2","453","453","0","[[2,0,0],[0,0],[3]]","6","[[2,1,0],[3,0],[0]]","8","0","","","","","","6","","","","",""
"","","","","","single-stim-button","261","1000662","0.0-3.0-34.5-1.5","5d0ac7504d57690017a355ef","D2","batch4","tol_toboard","493","","","","","","","","","tol_peg_1","493","493","0","[[2,1,0],[0,0],[3]]","6","[[2,1,0],[3,0],[0]]","8","0","","","","","","6","","","","",""
"","","","","","single-stim-button","262","1001315","0.0-3.0-34.6-0.6","5d0ac7504d57690017a355ef","D2","batch4","tol_tohand","652","","","","","","","","","tol_peg_3","652","652","0","[[2,1,0],[0,0],[0]]","7","[[2,1,0],[3,0],[0]]","8","0","","","","","","6","","","","",""
"","","","","","single-stim-button","263","1001792","0.0-3.0-34.6-1.6","5d0ac7504d57690017a355ef","D2","batch4","tol_toboard","477","","","","","","","","","tol_peg_2","477","477","0","[[2,1,0],[3,0],[0]]","7","[[2,1,0],[3,0],[0]]","8","0","","","","","","6","","","","",""
"","","","","","poldrack-single-stim","264","1002794","0.0-3.0-35.0","5d0ac7504d57690017a355ef","D2","batch4","tol_feedback","-1","","","","","true","","","","","1000","1000","500","","","","","","-1","none","true","5914","12624","","","","","",""
"","","","","","html-button-response","265","1003735","0.0-3.0-36.0","5d0ac7504d57690017a355ef","D2","batch4","tol_trial_num","939.7999999523163","<div class = centerbox><p class = center-block-text>problem <strong>10</strong> out of 25 problems</p></div>","0","","","","","","","","","","","","","","","","","","","","","","","","","",""
"","","","","","single-stim-button","266","1007991","0.0-3.0-37.0-0.0","5d0ac7504d57690017a355ef","D2","batch4","tol_tohand","4256","","","","","","","","","tol_peg_2","4256","4256","0","[[3,0,0],[0,0],[2]]","1","[[3,0,0],[2,1],[0]]","9","0","","","","","","3","","","","",""
"","","","","","single-stim-button","267","1008984","0.0-3.0-37.0-1.0","5d0ac7504d57690017a355ef","D2","batch4","tol_toboard","992","","","","","","","","","tol_peg_1","992","992","0","[[3,1,0],[0,0],[2]]","1","[[3,0,0],[2,1],[0]]","9","0","","","","","","3","","","","",""
"","","","","","single-stim-button","268","1009570","0.0-3.0-37.1-0.1","5d0ac7504d57690017a355ef","D2","batch4","tol_tohand","585","","","","","","","","","tol_peg_3","585","585","0","[[3,1,0],[0,0],[0]]","2","[[3,0,0],[2,1],[0]]","9","0","","","","","","3","","","","",""
"","","","","","single-stim-button","269","1010084","0.0-3.0-37.1-1.1","5d0ac7504d57690017a355ef","D2","batch4","tol_toboard","514","","","","","","","","","tol_peg_2","514","514","0","[[3,1,0],[2,0],[0]]","2","[[3,0,0],[2,1],[0]]","9","0","","","","","","3","","","","",""
"","","","","","single-stim-button","270","1010665","0.0-3.0-37.2-0.2","5d0ac7504d57690017a355ef","D2","batch4","tol_tohand","580","","","","","","","","","tol_peg_1","580","580","0","[[3,0,0],[2,0],[0]]","3","[[3,0,0],[2,1],[0]]","9","0","","","","","","3","","","","",""
"","","","","","single-stim-button","271","1011063","0.0-3.0-37.2-1.2","5d0ac7504d57690017a355ef","D2","batch4","tol_toboard","398","","","","","","","","","tol_peg_2","398","398","0","[[3,0,0],[2,1],[0]]","3","[[3,0,0],[2,1],[0]]","9","0","","","","","","3","","","","",""
"","","","","","poldrack-single-stim","272","1012064","0.0-3.0-38.0","5d0ac7504d57690017a355ef","D2","batch4","tol_feedback","-1","","","","","true","","","","","1000","1000","500","","","","","","-1","none","true","4256","5421","","","","","",""
"","","","","","html-button-response","273","1012672","0.0-3.0-39.0","5d0ac7504d57690017a355ef","D2","batch4","tol_trial_num","607.5","<div class = centerbox><p class = center-block-text>problem <strong>11</strong> out of 25 problems</p></div>","0","","","","","","","","","","","","","","","","","","","","","","","","","",""
"","","","","","single-stim-button","274","1016974","0.0-3.0-40.0-0.0","5d0ac7504d57690017a355ef","D2","batch4","tol_tohand","4302","","","","","","","","","tol_peg_1","4302","4302","0","[[1,0,0],[3,0],[0]]","1","[[2,0,0],[1,3],[0]]","10","0","","","","","","6","","","","",""
"","","","","","single-stim-button","275","1017627","0.0-3.0-40.0-1.0","5d0ac7504d57690017a355ef","D2","batch4","tol_toboard","652","","","","","","","","","tol_peg_2","652","652","0","[[1,0,0],[3,2],[0]]","1","[[2,0,0],[1,3],[0]]","10","0","","","","","","6","","","","",""
"","","","","","single-stim-button","276","1018070","0.0-3.0-40.1-0.1","5d0ac7504d57690017a355ef","D2","batch4","tol_tohand","442","","","","","","","","","tol_peg_1","442","442","0","[[0,0,0],[3,2],[0]]","2","[[2,0,0],[1,3],[0]]","10","0","","","","","","6","","","","",""
"","","","","","single-stim-button","277","1018537","0.0-3.0-40.1-1.1","5d0ac7504d57690017a355ef","D2","batch4","tol_toboard","467","","","","","","","","","tol_peg_3","467","467","0","[[0,0,0],[3,2],[1]]","2","[[2,0,0],[1,3],[0]]","10","0","","","","","","6","","","","",""
"","","","","","single-stim-button","278","1019300","0.0-3.0-40.2-0.2","5d0ac7504d57690017a355ef","D2","batch4","tol_tohand","762","","","","","","","","","tol_peg_2","762","762","0","[[0,0,0],[3,0],[1]]","3","[[2,0,0],[1,3],[0]]","10","0","","","","","","6","","","","",""
"","","","","","single-stim-button","279","1019922","0.0-3.0-40.2-1.2","5d0ac7504d57690017a355ef","D2","batch4","tol_toboard","622","","","","","","","","","tol_peg_1","622","622","0","[[2,0,0],[3,0],[1]]","3","[[2,0,0],[1,3],[0]]","10","0","","","","","","6","","","","",""
"","","","","","single-stim-button","280","1022270","0.0-3.0-40.3-0.3","5d0ac7504d57690017a355ef","D2","batch4","tol_tohand","2346","","","","","","","","","tol_peg_2","2346","2346","0","[[2,0,0],[0,0],[1]]","4","[[2,0,0],[1,3],[0]]","10","0","","","","","","6","","","","",""
"","","","","","single-stim-button","281","1022653","0.0-3.0-40.3-1.3","5d0ac7504d57690017a355ef","D2","batch4","tol_toboard","383","","","","","","","","","tol_peg_1","383","383","0","[[2,3,0],[0,0],[1]]","4","[[2,0,0],[1,3],[0]]","10","0","","","","","","6","","","","",""
"","","","","","single-stim-button","282","1023195","0.0-3.0-40.4-0.4","5d0ac7504d57690017a355ef","D2","batch4","tol_tohand","542","","","","","","","","","tol_peg_3","542","542","0","[[2,3,0],[0,0],[0]]","5","[[2,0,0],[1,3],[0]]","10","0","","","","","","6","","","","",""
"","","","","","single-stim-button","283","1023650","0.0-3.0-40.4-1.4","5d0ac7504d57690017a355ef","D2","batch4","tol_toboard","454","","","","","","","","","tol_peg_2","454","454","0","[[2,3,0],[1,0],[0]]","5","[[2,0,0],[1,3],[0]]","10","0","","","","","","6","","","","",""
"","","","","","single-stim-button","284","1024193","0.0-3.0-40.5-0.5","5d0ac7504d57690017a355ef","D2","batch4","tol_tohand","543","","","","","","","","","tol_peg_1","543","543","0","[[2,0,0],[1,0],[0]]","6","[[2,0,0],[1,3],[0]]","10","0","","","","","","6","","","","",""
"","","","","","single-stim-button","285","1024548","0.0-3.0-40.5-1.5","5d0ac7504d57690017a355ef","D2","batch4","tol_toboard","354","","","","","","","","","tol_peg_2","354","354","0","[[2,0,0],[1,3],[0]]","6","[[2,0,0],[1,3],[0]]","10","0","","","","","","6","","","","",""
"","","","","","poldrack-single-stim","286","1025549","0.0-3.0-41.0","5d0ac7504d57690017a355ef","D2","batch4","tol_feedback","-1","","","","","true","","","","","1000","1000","500","","","","","","-1","none","true","4302","8937","","","","","",""
"","","","","","html-button-response","287","1026143","0.0-3.0-42.0","5d0ac7504d57690017a355ef","D2","batch4","tol_trial_num","593.9000000357628","<div class = centerbox><p class = center-block-text>problem <strong>12</strong> out of 25 problems</p></div>","0","","","","","","","","","","","","","","","","","","","","","","","","","",""
"","","","","","single-stim-button","288","1028842","0.0-3.0-43.0-0.0","5d0ac7504d57690017a355ef","D2","batch4","tol_tohand","2698","","","","","","","","","tol_peg_1","2698","2698","0","[[1,0,0],[3,0],[0]]","1","[[2,3,0],[0,0],[1]]","11","0","","","","","","4","","","","",""
"","","","","","single-stim-button","289","1029216","0.0-3.0-43.0-1.0","5d0ac7504d57690017a355ef","D2","batch4","tol_toboard","373","","","","","","","","","tol_peg_2","373","373","0","[[1,0,0],[3,2],[0]]","1","[[2,3,0],[0,0],[1]]","11","0","","","","","","4","","","","",""
"","","","","","single-stim-button","290","1029725","0.0-3.0-43.1-0.1","5d0ac7504d57690017a355ef","D2","batch4","tol_tohand","509","","","","","","","","","tol_peg_1","509","509","0","[[0,0,0],[3,2],[0]]","2","[[2,3,0],[0,0],[1]]","11","0","","","","","","4","","","","",""
"","","","","","single-stim-button","291","1030399","0.0-3.0-43.1-1.1","5d0ac7504d57690017a355ef","D2","batch4","tol_toboard","673","","","","","","","","","tol_peg_3","673","673","0","[[0,0,0],[3,2],[1]]","2","[[2,3,0],[0,0],[1]]","11","0","","","","","","4","","","","",""
"","","","","","single-stim-button","292","1031032","0.0-3.0-43.2-0.2","5d0ac7504d57690017a355ef","D2","batch4","tol_tohand","633","","","","","","","","","tol_peg_2","633","633","0","[[0,0,0],[3,0],[1]]","3","[[2,3,0],[0,0],[1]]","11","0","","","","","","4","","","","",""
"","","","","","single-stim-button","293","1031494","0.0-3.0-43.2-1.2","5d0ac7504d57690017a355ef","D2","batch4","tol_toboard","462","","","","","","","","","tol_peg_1","462","462","0","[[2,0,0],[3,0],[1]]","3","[[2,3,0],[0,0],[1]]","11","0","","","","","","4","","","","",""
"","","","","","single-stim-button","294","1031973","0.0-3.0-43.3-0.3","5d0ac7504d57690017a355ef","D2","batch4","tol_tohand","478","","","","","","","","","tol_peg_2","478","478","0","[[2,0,0],[0,0],[1]]","4","[[2,3,0],[0,0],[1]]","11","0","","","","","","4","","","","",""
"","","","","","single-stim-button","295","1032375","0.0-3.0-43.3-1.3","5d0ac7504d57690017a355ef","D2","batch4","tol_toboard","401","","","","","","","","","tol_peg_1","401","401","0","[[2,3,0],[0,0],[1]]","4","[[2,3,0],[0,0],[1]]","11","0","","","","","","4","","","","",""
"","","","","","poldrack-single-stim","296","1033376","0.0-3.0-44.0","5d0ac7504d57690017a355ef","D2","batch4","tol_feedback","-1","","","","","true","","","","","1000","1000","500","","","","","","-1","none","true","2698","4318","","","","","",""
"","","","","","html-button-response","297","1034025","0.0-3.0-45.0","5d0ac7504d57690017a355ef","D2","batch4","tol_trial_num","648.8000000119209","<div class = centerbox><p class = center-block-text>problem <strong>13</strong> out of 25 problems</p></div>","0","","","","","","","","","","","","","","","","","","","","","","","","","",""
"","","","","","single-stim-button","298","1036706","0.0-3.0-46.0-0.0","5d0ac7504d57690017a355ef","D2","batch4","tol_tohand","2680","","","","","","","","","tol_peg_1","2680","2680","0","[[1,0,0],[3,0],[0]]","1","[[0,0,0],[2,3],[1]]","12","0","","","","","","4","","","","",""
"","","","","","single-stim-button","299","1037085","0.0-3.0-46.0-1.0","5d0ac7504d57690017a355ef","D2","batch4","tol_toboard","378","","","","","","","","","tol_peg_2","378","378","0","[[1,0,0],[3,2],[0]]","1","[[0,0,0],[2,3],[1]]","12","0","","","","","","4","","","","",""
"","","","","","single-stim-button","300","1037552","0.0-3.0-46.1-0.1","5d0ac7504d57690017a355ef","D2","batch4","tol_tohand","466","","","","","","","","","tol_peg_1","466","466","0","[[0,0,0],[3,2],[0]]","2","[[0,0,0],[2,3],[1]]","12","0","","","","","","4","","","","",""
"","","","","","single-stim-button","301","1038225","0.0-3.0-46.1-1.1","5d0ac7504d57690017a355ef","D2","batch4","tol_toboard","672","","","","","","","","","tol_peg_3","672","672","0","[[0,0,0],[3,2],[1]]","2","[[0,0,0],[2,3],[1]]","12","0","","","","","","4","","","","",""
"","","","","","single-stim-button","302","1039137","0.0-3.0-46.2-0.2","5d0ac7504d57690017a355ef","D2","batch4","tol_tohand","911","","","","","","","","","tol_peg_2","911","911","0","[[0,0,0],[3,0],[1]]","3","[[0,0,0],[2,3],[1]]","12","0","","","","","","4","","","","",""
"","","","","","single-stim-button","303","1039610","0.0-3.0-46.2-1.2","5d0ac7504d57690017a355ef","D2","batch4","tol_toboard","473","","","","","","","","","tol_peg_1","473","473","0","[[2,0,0],[3,0],[1]]","3","[[0,0,0],[2,3],[1]]","12","0","","","","","","4","","","","",""
"","","","","","single-stim-button","304","1040038","0.0-3.0-46.3-0.3","5d0ac7504d57690017a355ef","D2","batch4","tol_tohand","428","","","","","","","","","tol_peg_2","428","428","0","[[2,0,0],[0,0],[1]]","4","[[0,0,0],[2,3],[1]]","12","0","","","","","","4","","","","",""
"","","","","","single-stim-button","305","1040460","0.0-3.0-46.3-1.3","5d0ac7504d57690017a355ef","D2","batch4","tol_toboard","421","","","","","","","","","tol_peg_1","421","421","0","[[2,3,0],[0,0],[1]]","4","[[0,0,0],[2,3],[1]]","12","0","","","","","","4","","","","",""
"","","","","","single-stim-button","306","1046917","0.0-3.0-46.4-0.4","5d0ac7504d57690017a355ef","D2","batch4","tol_tohand","6457","","","","","","","","","tol_peg_1","6457","6457","0","[[2,0,0],[0,0],[1]]","5","[[0,0,0],[2,3],[1]]","12","0","","","","","","4","","","","",""
"","","","","","single-stim-button","307","1047430","0.0-3.0-46.4-1.4","5d0ac7504d57690017a355ef","D2","batch4","tol_toboard","513","","","","","","","","","tol_peg_2","513","513","0","[[2,0,0],[3,0],[1]]","5","[[0,0,0],[2,3],[1]]","12","0","","","","","","4","","","","",""
"","","","","","single-stim-button","308","1048610","0.0-3.0-46.5-0.5","5d0ac7504d57690017a355ef","D2","batch4","tol_tohand","1179","","","","","","","","","tol_peg_3","1179","1179","0","[[2,0,0],[3,0],[0]]","6","[[0,0,0],[2,3],[1]]","12","0","","","","","","4","","","","",""
"","","","","","single-stim-button","309","1052179","0.0-3.0-46.5-1.5","5d0ac7504d57690017a355ef","D2","batch4","tol_toboard","3569","","","","","","","","","tol_peg_2","3569","3569","0","[[2,0,0],[3,1],[0]]","6","[[0,0,0],[2,3],[1]]","12","0","","","","","","4","","","","",""
"","","","","","single-stim-button","310","1052692","0.0-3.0-46.6-0.6","5d0ac7504d57690017a355ef","D2","batch4","tol_tohand","512","","","","","","","","","tol_peg_1","512","512","0","[[0,0,0],[3,1],[0]]","7","[[0,0,0],[2,3],[1]]","12","0","","","","","","4","","","","",""
"","","","","","single-stim-button","311","1053204","0.0-3.0-46.6-1.6","5d0ac7504d57690017a355ef","D2","batch4","tol_toboard","511","","","","","","","","","tol_peg_3","511","511","0","[[0,0,0],[3,1],[2]]","7","[[0,0,0],[2,3],[1]]","12","0","","","","","","4","","","","",""
"","","","","","single-stim-button","312","1061323","0.0-3.0-46.7-0.7","5d0ac7504d57690017a355ef","D2","batch4","tol_tohand","8119","","","","","","","","","tol_peg_2","8119","8119","0","[[0,0,0],[3,0],[2]]","8","[[0,0,0],[2,3],[1]]","12","0","","","","","","4","","","","",""
"","","","","","single-stim-button","313","1061889","0.0-3.0-46.7-1.7","5d0ac7504d57690017a355ef","D2","batch4","tol_toboard","566","","","","","","","","","tol_peg_1","566","566","0","[[1,0,0],[3,0],[2]]","8","[[0,0,0],[2,3],[1]]","12","0","","","","","","4","","","","",""
"","","","","","single-stim-button","314","1062370","0.0-3.0-46.8-0.8","5d0ac7504d57690017a355ef","D2","batch4","tol_tohand","481","","","","","","","","","tol_peg_2","481","481","0","[[1,0,0],[0,0],[2]]","9","[[0,0,0],[2,3],[1]]","12","0","","","","","","4","","","","",""
"","","","","","single-stim-button","315","1062827","0.0-3.0-46.8-1.8","5d0ac7504d57690017a355ef","D2","batch4","tol_toboard","456","","","","","","","","","tol_peg_1","456","456","0","[[1,3,0],[0,0],[2]]","9","[[0,0,0],[2,3],[1]]","12","0","","","","","","4","","","","",""
"","","","","","single-stim-button","316","1063375","0.0-3.0-46.9-0.9","5d0ac7504d57690017a355ef","D2","batch4","tol_tohand","547","","","","","","","","","tol_peg_3","547","547","0","[[1,3,0],[0,0],[0]]","10","[[0,0,0],[2,3],[1]]","12","0","","","","","","4","","","","",""
"","","","","","single-stim-button","317","1063786","0.0-3.0-46.9-1.9","5d0ac7504d57690017a355ef","D2","batch4","tol_toboard","411","","","","","","","","","tol_peg_2","411","411","0","[[1,3,0],[2,0],[0]]","10","[[0,0,0],[2,3],[1]]","12","0","","","","","","4","","","","",""
"","","","","","single-stim-button","318","1066376","0.0-3.0-46.10-0.10","5d0ac7504d57690017a355ef","D2","batch4","tol_tohand","2589","","","","","","","","","tol_peg_1","2589","2589","0","[[1,0,0],[2,0],[0]]","11","[[0,0,0],[2,3],[1]]","12","0","","","","","","4","","","","",""
"","","","","","single-stim-button","319","1066889","0.0-3.0-46.10-1.10","5d0ac7504d57690017a355ef","D2","batch4","tol_toboard","513","","","","","","","","","tol_peg_2","513","513","0","[[1,0,0],[2,3],[0]]","11","[[0,0,0],[2,3],[1]]","12","0","","","","","","4","","","","",""
"","","","","","single-stim-button","320","1067382","0.0-3.0-46.11-0.11","5d0ac7504d57690017a355ef","D2","batch4","tol_tohand","493","","","","","","","","","tol_peg_1","493","493","0","[[0,0,0],[2,3],[0]]","12","[[0,0,0],[2,3],[1]]","12","0","","","","","","4","","","","",""
"","","","","","single-stim-button","321","1067833","0.0-3.0-46.11-1.11","5d0ac7504d57690017a355ef","D2","batch4","tol_toboard","451","","","","","","","","","tol_peg_3","451","451","0","[[0,0,0],[2,3],[1]]","12","[[0,0,0],[2,3],[1]]","12","0","","","","","","4","","","","",""
"","","","","","poldrack-single-stim","322","1068841","0.0-3.0-47.0","5d0ac7504d57690017a355ef","D2","batch4","tol_feedback","-1","","","","","true","","","","","1000","1000","500","","","","","","-1","none","true","2680","24862","","","","","",""
"","","","","","html-button-response","323","1081169","0.0-3.0-48.0","5d0ac7504d57690017a355ef","D2","batch4","attention_check","12326.800000011921","<p class = block-text>How many balls are in your board<br></p>","1","","","true","","","","","","","","","","","","","","","","","","","","","","",""
"","","","","","html-button-response","324","1082270","0.0-3.0-49.0","5d0ac7504d57690017a355ef","D2","batch4","tol_trial_num","1100.4000000357628","<div class = centerbox><p class = center-block-text>problem <strong>14</strong> out of 25 problems</p></div>","0","","","","","","","","","","","","","","","","","","","","","","","","","",""
"","","","","","single-stim-button","325","1088152","0.0-3.0-50.0-0.0","5d0ac7504d57690017a355ef","D2","batch4","tol_tohand","5881","","","","","","","","","tol_peg_1","5881","5881","0","[[2,0,0],[3,0],[0]]","1","[[1,2,0],[3,0],[0]]","13","0","","","","","","4","","","","",""
"","","","","","single-stim-button","326","1090370","0.0-3.0-50.0-1.0","5d0ac7504d57690017a355ef","D2","batch4","tol_toboard","2218","","","","","","","","","tol_peg_3","2218","2218","0","[[2,0,0],[3,0],[1]]","1","[[1,2,0],[3,0],[0]]","13","0","","","","","","4","","","","",""
"","","","","","single-stim-button","327","1090881","0.0-3.0-50.1-0.1","5d0ac7504d57690017a355ef","D2","batch4","tol_tohand","511","","","","","","","","","tol_peg_1","511","511","0","[[0,0,0],[3,0],[1]]","2","[[1,2,0],[3,0],[0]]","13","0","","","","","","4","","","","",""
"","","","","","single-stim-button","328","1091239","0.0-3.0-50.1-1.1","5d0ac7504d57690017a355ef","D2","batch4","tol_toboard","357","","","","","","","","","tol_peg_2","357","357","0","[[0,0,0],[3,2],[1]]","2","[[1,2,0],[3,0],[0]]","13","0","","","","","","4","","","","",""
"","","","","","single-stim-button","329","1091626","0.0-3.0-50.2-0.2","5d0ac7504d57690017a355ef","D2","batch4","tol_tohand","387","","","","","","","","","tol_peg_3","387","387","0","[[0,0,0],[3,2],[0]]","3","[[1,2,0],[3,0],[0]]","13","0","","","","","","4","","","","",""
"","","","","","single-stim-button","330","1092198","0.0-3.0-50.2-1.2","5d0ac7504d57690017a355ef","D2","batch4","tol_toboard","571","","","","","","","","","tol_peg_1","571","571","0","[[1,0,0],[3,2],[0]]","3","[[1,2,0],[3,0],[0]]","13","0","","","","","","4","","","","",""
"","","","","","single-stim-button","331","1092641","0.0-3.0-50.3-0.3","5d0ac7504d57690017a355ef","D2","batch4","tol_tohand","443","","","","","","","","","tol_peg_2","443","443","0","[[1,0,0],[3,0],[0]]","4","[[1,2,0],[3,0],[0]]","13","0","","","","","","4","","","","",""
"","","","","","single-stim-button","332","1092989","0.0-3.0-50.3-1.3","5d0ac7504d57690017a355ef","D2","batch4","tol_toboard","347","","","","","","","","","tol_peg_1","347","347","0","[[1,2,0],[3,0],[0]]","4","[[1,2,0],[3,0],[0]]","13","0","","","","","","4","","","","",""
"","","","","","poldrack-single-stim","333","1093994","0.0-3.0-51.0","5d0ac7504d57690017a355ef","D2","batch4","tol_feedback","-1","","","","","true","","","","","1000","1000","500","","","","","","-1","none","true","5881","7222","","","","","",""
"","","","","","html-button-response","334","1094816","0.0-3.0-52.0","5d0ac7504d57690017a355ef","D2","batch4","tol_trial_num","821","<div class = centerbox><p class = center-block-text>problem <strong>15</strong> out of 25 problems</p></div>","0","","","","","","","","","","","","","","","","","","","","","","","","","",""
"","","","","","single-stim-button","335","1098183","0.0-3.0-53.0-0.0","5d0ac7504d57690017a355ef","D2","batch4","tol_tohand","3365","","","","","","","","","tol_peg_1","3365","3365","0","[[1,0,0],[3,0],[0]]","1","[[2,0,0],[3,0],[1]]","14","0","","","","","","3","","","","",""
"","","","","","single-stim-button","336","1098573","0.0-3.0-53.0-1.0","5d0ac7504d57690017a355ef","D2","batch4","tol_toboard","390","","","","","","","","","tol_peg_2","390","390","0","[[1,0,0],[3,2],[0]]","1","[[2,0,0],[3,0],[1]]","14","0","","","","","","3","","","","",""
"","","","","","single-stim-button","337","1099003","0.0-3.0-53.1-0.1","5d0ac7504d57690017a355ef","D2","batch4","tol_tohand","429","","","","","","","","","tol_peg_1","429","429","0","[[0,0,0],[3,2],[0]]","2","[[2,0,0],[3,0],[1]]","14","0","","","","","","3","","","","",""
"","","","","","single-stim-button","338","1100265","0.0-3.0-53.1-1.1","5d0ac7504d57690017a355ef","D2","batch4","tol_toboard","1260","","","","","","","","","tol_peg_3","1260","1260","0","[[0,0,0],[3,2],[1]]","2","[[2,0,0],[3,0],[1]]","14","0","","","","","","3","","","","",""
"","","","","","single-stim-button","339","1100895","0.0-3.0-53.2-0.2","5d0ac7504d57690017a355ef","D2","batch4","tol_tohand","630","","","","","","","","","tol_peg_2","630","630","0","[[0,0,0],[3,0],[1]]","3","[[2,0,0],[3,0],[1]]","14","0","","","","","","3","","","","",""
"","","","","","single-stim-button","340","1101385","0.0-3.0-53.2-1.2","5d0ac7504d57690017a355ef","D2","batch4","tol_toboard","489","","","","","","","","","tol_peg_1","489","489","0","[[2,0,0],[3,0],[1]]","3","[[2,0,0],[3,0],[1]]","14","0","","","","","","3","","","","",""
"","","","","","poldrack-single-stim","341","1102398","0.0-3.0-54.0","5d0ac7504d57690017a355ef","D2","batch4","tol_feedback","-1","","","","","true","","","","","1000","1000","500","","","","","","-1","none","true","3365","4424","","","","","",""
"","","","","","html-button-response","342","1102940","0.0-3.0-55.0","5d0ac7504d57690017a355ef","D2","batch4","tol_trial_num","541.6999999880791","<div class = centerbox><p class = center-block-text>problem <strong>16</strong> out of 25 problems</p></div>","0","","","","","","","","","","","","","","","","","","","","","","","","","",""
"","","","","","single-stim-button","343","1111901","0.0-3.0-56.0-0.0","5d0ac7504d57690017a355ef","D2","batch4","tol_tohand","8960","","","","","","","","","tol_peg_2","8960","8960","0","[[0,0,0],[2,0],[1]]","1","[[2,3,0],[1,0],[0]]","15","0","","","","","","7","","","","",""
"","","","","","single-stim-button","344","1112881","0.0-3.0-56.0-1.0","5d0ac7504d57690017a355ef","D2","batch4","tol_toboard","978","","","","","","","","","tol_peg_1","978","978","0","[[3,0,0],[2,0],[1]]","1","[[2,3,0],[1,0],[0]]","15","0","","","","","","7","","","","",""
"","","","","","single-stim-button","345","1114085","0.0-3.0-56.1-0.1","5d0ac7504d57690017a355ef","D2","batch4","tol_tohand","1204","","","","","","","","","tol_peg_2","1204","1204","0","[[3,0,0],[0,0],[1]]","2","[[2,3,0],[1,0],[0]]","15","0","","","","","","7","","","","",""
"","","","","","single-stim-button","346","1114611","0.0-3.0-56.1-1.1","5d0ac7504d57690017a355ef","D2","batch4","tol_toboard","525","","","","","","","","","tol_peg_1","525","525","0","[[3,2,0],[0,0],[1]]","2","[[2,3,0],[1,0],[0]]","15","0","","","","","","7","","","","",""
"","","","","","single-stim-button","347","1116830","0.0-3.0-56.2-0.2","5d0ac7504d57690017a355ef","D2","batch4","tol_tohand","2217","","","","","","","","","tol_peg_3","2217","2217","0","[[3,2,0],[0,0],[0]]","3","[[2,3,0],[1,0],[0]]","15","0","","","","","","7","","","","",""
"","","","","","single-stim-button","348","1117303","0.0-3.0-56.2-1.2","5d0ac7504d57690017a355ef","D2","batch4","tol_toboard","473","","","","","","","","","tol_peg_2","473","473","0","[[3,2,0],[1,0],[0]]","3","[[2,3,0],[1,0],[0]]","15","0","","","","","","7","","","","",""
"","","","","","single-stim-button","349","1118134","0.0-3.0-56.3-0.3","5d0ac7504d57690017a355ef","D2","batch4","tol_tohand","830","","","","","","","","","tol_peg_1","830","830","0","[[3,0,0],[1,0],[0]]","4","[[2,3,0],[1,0],[0]]","15","0","","","","","","7","","","","",""
"","","","","","single-stim-button","350","1118597","0.0-3.0-56.3-1.3","5d0ac7504d57690017a355ef","D2","batch4","tol_toboard","462","","","","","","","","","tol_peg_2","462","462","0","[[3,0,0],[1,2],[0]]","4","[[2,3,0],[1,0],[0]]","15","0","","","","","","7","","","","",""
"","","","","","single-stim-button","351","1119534","0.0-3.0-56.4-0.4","5d0ac7504d57690017a355ef","D2","batch4","tol_tohand","935","","","","","","","","","tol_peg_1","935","935","0","[[0,0,0],[1,2],[0]]","5","[[2,3,0],[1,0],[0]]","15","0","","","","","","7","","","","",""
"","","","","","single-stim-button","352","1119995","0.0-3.0-56.4-1.4","5d0ac7504d57690017a355ef","D2","batch4","tol_toboard","461","","","","","","","","","tol_peg_3","461","461","0","[[0,0,0],[1,2],[3]]","5","[[2,3,0],[1,0],[0]]","15","0","","","","","","7","","","","",""
"","","","","","single-stim-button","353","1120895","0.0-3.0-56.5-0.5","5d0ac7504d57690017a355ef","D2","batch4","tol_tohand","900","","","","","","","","","tol_peg_2","900","900","0","[[0,0,0],[1,0],[3]]","6","[[2,3,0],[1,0],[0]]","15","0","","","","","","7","","","","",""
"","","","","","single-stim-button","354","1121308","0.0-3.0-56.5-1.5","5d0ac7504d57690017a355ef","D2","batch4","tol_toboard","413","","","","","","","","","tol_peg_1","413","413","0","[[2,0,0],[1,0],[3]]","6","[[2,3,0],[1,0],[0]]","15","0","","","","","","7","","","","",""
