"success","timeout","failed_images","failed_audio","failed_video","trial_type","trial_index","time_elapsed","internal_node_id","subject_id","study_id","session_id","view_history","rt","task","stimulus","response","correct","mouse_click","stim_duration","block_duration","timing_post_trial","current_position","tol_num_moves_made","tol_target","tol_problem_id","tol_rt","key_press","possible_responses","tol_correct","preplanning","tol_rt_per_trial","tol_min_moves","item","answer","spm_correct","spm_rt","fiar_detect_rt","fiar_detect_correct","total_correct_fiar_detect","post_trial_gap","choices"
"true","false","[]","[]","[]","preload","0","809","0.0-0.0","5d16ab9b59da87001ac41a61","F1","batch6","","","","","","","","","","","","","","","","","","","","","","","","","","","","","",""
"true","","","","","fullscreen","1","11329","0.0-1.0-0.0","5d16ab9b59da87001ac41a61","F1","batch6","","","","","","","","","","","","","","","","","","","","","","","","","","","","","",""
"true","","","","","fullscreen","2","14137","0.0-2.0-0.0","5d16ab9b59da87001ac41a61","F1","batch6","","","","","","","","","","","","","","","","","","","","","","","","","","","","","",""
"","","","","","instructions","3","53409","0.0-2.0-1.0-0.0-0.0","5d16ab9b59da87001ac41a61","F1","batch6","[{""page_index"":0,""viewing_time"":7646},{""page_index"":1,""viewing_time"":4688},{""page_index"":2,""viewing_time"":3776},{""page_index"":3,""viewing_time"":13144},{""page_index"":4,""viewing_time"":4943},{""page_index"":5,""viewing_time"":3521},{""page_index"":6,""viewing_time"":1552}]","39271","tol-instructions","","","","","","","","","","","","","","","","","","","","","","","","","","",""
"","","","","","html-button-response","4","54683","0.0-2.0-1.0-1.0-0.0","5d16ab9b59da87001ac41a61","F1","batch6","","1272","tol_enter_quiz","<p class=block-text> Let's answer a few questions <br>","0","","","","","","","","","","","","","","","","","","","","","","","","",""
"","","","","","html-button-response","5","58337","0.0-2.0-1.0-1.0-1.0","5d16ab9b59da87001ac41a61","F1","batch6","","3653","tol_quiz","<p class = block-text>True or False: You can only move the ball on top of a peg. <br></p>","1","false","","","","","","","","","","","","","","","","","","","","","","","",""
"","","","","","html-button-response","6","60268","0.0-2.0-1.0-1.0-2.0","5d16ab9b59da87001ac41a61","F1","batch6","","1931","tol_quiz_feedback","<p class = block-text>Incorrect. Remember, you can only move the ball on top of a peg.</p>","0","","","","","","","","","","","","","","","","","","","","","","","","",""
"","","","","","html-button-response","7","63193","0.0-2.0-1.0-1.0-3.0","5d16ab9b59da87001ac41a61","F1","batch6","","2924","tol_quiz","<p class = block-text>True or False: You should try to match your board with the target board with fewest moves possible. <br></p>","0","true","","","","","","","","","","","","","","","","","","","","","","","",""
"","","","","","html-button-response","8","64137","0.0-2.0-1.0-1.0-4.0","5d16ab9b59da87001ac41a61","F1","batch6","","942","tol_quiz_feedback","<p class = block-text>Correct! </p>","0","","","","","","","","","","","","","","","","","","","","","","","","",""
"","","","","","html-button-response","9","65913","0.0-2.0-1.0-2.0-0.0","5d16ab9b59da87001ac41a61","F1","batch6","","1775","","<p class = block-text>You made too many incorrect choices.</p><p class = block-text>You will now repeat the instructions and quiz</p>","0","","","","","","","","","","","","","","","","","","","","","","","","",""
"","","","","","instructions","10","74433","0.0-2.0-1.1-0.1-0.1","5d16ab9b59da87001ac41a61","F1","batch6","[{""page_index"":0,""viewing_time"":1359},{""page_index"":1,""viewing_time"":1128},{""page_index"":2,""viewing_time"":784},{""page_index"":3,""viewing_time"":1048},{""page_index"":4,""viewing_time"":1033},{""page_index"":5,""viewing_time"":1087},{""page_index"":6,""viewing_time"":2080}]","8519","tol-instructions","","","","","","","","","","","","","","","","","","","","","","","","","","",""
"","","","","","html-button-response","11","75472","0.0-2.0-1.1-1.1-0.1","5d16ab9b59da87001ac41a61","F1","batch6","","1040","tol_enter_quiz","<p class=block-text> Let's answer a few questions <br>","0","","","","","","","","","","","","","","","","","","","","","","","","",""
"","","","","","html-button-response","12","77536","0.0-2.0-1.1-1.1-1.1","5d16ab9b59da87001ac41a61","F1","batch6","","2062","tol_quiz","<p class = block-text>True or False: You can only move the ball on top of a peg. <br></p>","0","true","","","","","","","","","","","","","","","","","","","","","","","",""
"","","","","","html-button-response","13","78968","0.0-2.0-1.1-1.1-2.1","5d16ab9b59da87001ac41a61","F1","batch6","","1431","tol_quiz_feedback","<p class = block-text>Correct! You can only move the ball on top of a peg.</p>","0","","","","","","","","","","","","","","","","","","","","","","","","",""
"","","","","","html-button-response","14","81786","0.0-2.0-1.1-1.1-3.1","5d16ab9b59da87001ac41a61","F1","batch6","","2817","tol_quiz","<p class = block-text>True or False: You should try to match your board with the target board with fewest moves possible. <br></p>","0","true","","","","","","","","","","","","","","","","","","","","","","","",""
"","","","","","html-button-response","15","82760","0.0-2.0-1.1-1.1-4.1","5d16ab9b59da87001ac41a61","F1","batch6","","972","tol_quiz_feedback","<p class = block-text>Correct! </p>","0","","","","","","","","","","","","","","","","","","","","","","","","",""
"","","","","","html-button-response","16","84177","0.0-2.0-2.0","5d16ab9b59da87001ac41a61","F1","batch6","","1416","","<p class=block-text> Now that you've understood the game, let's practice a few easier examples before we start!<br> <br>","0","","","","","","","","","","","","","","","","","","","","","","","","",""
"","","","","","single-stim-button","17","86538","0.0-2.0-3.0-0.0","5d16ab9b59da87001ac41a61","F1","batch6","","2359","tol_practice","","","","tol_peg_2","2359","2359","0","[[1,2,0],[0,0],[0]]","1","[[1,2,0],[0,0],[3]]","practice","2359","","","","","","","","","","","","","","",""
"","","","","","single-stim-button","18","88009","0.0-2.0-3.0-1.0","5d16ab9b59da87001ac41a61","F1","batch6","","1469","tol_practice","","","","tol_peg_3","1469","1469","0","[[1,2,0],[0,0],[3]]","1","[[1,2,0],[0,0],[3]]","practice","1469","","","","","","","","","","","","","","",""
"","","","","","poldrack-single-stim","19","89011","0.0-2.0-4.0","5d16ab9b59da87001ac41a61","F1","batch6","","-1","tol_feedback","","","true","","1000","1000","500","","","","","","-1","none","true","","0","","","","","","","","","",""
"","","","","","single-stim-button","20","91721","0.0-2.0-5.0-0.0","5d16ab9b59da87001ac41a61","F1","batch6","","2709","tol_practice","","","","tol_peg_1","2709","2709","0","[[1,0,0],[3,0],[0]]","2","[[0,0,0],[3,1],[2]]","practice","2709","","","","","","","","","","","","","","",""
"","","","","","single-stim-button","21","92601","0.0-2.0-5.0-1.0","5d16ab9b59da87001ac41a61","F1","batch6","","879","tol_practice","","","","tol_peg_3","879","879","0","[[1,0,0],[3,0],[2]]","2","[[0,0,0],[3,1],[2]]","practice","879","","","","","","","","","","","","","","",""
"","","","","","single-stim-button","22","93633","0.0-2.0-5.1-0.1","5d16ab9b59da87001ac41a61","F1","batch6","","1032","tol_practice","","","","tol_peg_1","1032","1032","0","[[0,0,0],[3,0],[2]]","3","[[0,0,0],[3,1],[2]]","practice","1032","","","","","","","","","","","","","","",""
"","","","","","single-stim-button","23","94345","0.0-2.0-5.1-1.1","5d16ab9b59da87001ac41a61","F1","batch6","","710","tol_practice","","","","tol_peg_2","710","710","0","[[0,0,0],[3,1],[2]]","3","[[0,0,0],[3,1],[2]]","practice","710","","","","","","","","","","","","","","",""
"","","","","","poldrack-single-stim","24","95348","0.0-2.0-6.0","5d16ab9b59da87001ac41a61","F1","batch6","","-1","tol_feedback","","","true","","1000","1000","500","","","","","","-1","none","true","","0","","","","","","","","","",""
"","","","","","single-stim-button","25","100089","0.0-2.0-7.0-0.0","5d16ab9b59da87001ac41a61","F1","batch6","","4741","tol_practice","","","","tol_peg_2","4741","4741","0","[[1,2,0],[0,0],[0]]","4","[[1,0,0],[2,0],[3]]","practice","4741","","","","","","","","","","","","","","",""
"","","","","","single-stim-button","26","100857","0.0-2.0-7.0-1.0","5d16ab9b59da87001ac41a61","F1","batch6","","766","tol_practice","","","","tol_peg_3","766","766","0","[[1,2,0],[0,0],[3]]","4","[[1,0,0],[2,0],[3]]","practice","766","","","","","","","","","","","","","","",""
"","","","","","single-stim-button","27","101873","0.0-2.0-7.1-0.1","5d16ab9b59da87001ac41a61","F1","batch6","","1015","tol_practice","","","","tol_peg_1","1015","1015","0","[[1,0,0],[0,0],[3]]","5","[[1,0,0],[2,0],[3]]","practice","1015","","","","","","","","","","","","","","",""
"","","","","","single-stim-button","28","102489","0.0-2.0-7.1-1.1","5d16ab9b59da87001ac41a61","F1","batch6","","615","tol_practice","","","","tol_peg_2","615","615","0","[[1,0,0],[2,0],[3]]","5","[[1,0,0],[2,0],[3]]","practice","615","","","","","","","","","","","","","","",""
"","","","","","poldrack-single-stim","29","103507","0.0-2.0-8.0","5d16ab9b59da87001ac41a61","F1","batch6","","-1","tol_feedback","","","true","","1000","1000","500","","","","","","-1","none","true","","0","","","","","","","","","",""
"","","","","","html-button-response","30","105450","0.0-2.0-9.0","5d16ab9b59da87001ac41a61","F1","batch6","","1941","tol_instruction","<div class = centerbox><p class = center-block-text>Great job! You are done with practice trials<br>You are about to start official trials.<br> <br> Problem <strong>1</strong> out of 25 problems</p></div>","0","","","","","","","","","","","","","","","","","","","","","","","","",""
"","","","","","single-stim-button","31","120969","0.0-2.0-10.0-0.0","5d16ab9b59da87001ac41a61","F1","batch6","","14517","tol_tohand","","","","tol_peg_1","14517","14517","0","[[1,0,0],[3,0],[0]]","1","[[1,3,0],[2,0],[0]]","0","0","","","","","","3","","","","","","","","",""
"","","","","","single-stim-button","32","121834","0.0-2.0-10.0-1.0","5d16ab9b59da87001ac41a61","F1","batch6","","864","tol_toboard","","","","tol_peg_3","864","864","0","[[1,0,0],[3,0],[2]]","1","[[1,3,0],[2,0],[0]]","0","0","","","","","","3","","","","","","","","",""
"","","","","","single-stim-button","33","122529","0.0-2.0-10.1-0.1","5d16ab9b59da87001ac41a61","F1","batch6","","693","tol_tohand","","","","tol_peg_2","693","693","0","[[1,0,0],[0,0],[2]]","2","[[1,3,0],[2,0],[0]]","0","0","","","","","","3","","","","","","","","",""
"","","","","","single-stim-button","34","123416","0.0-2.0-10.1-1.1","5d16ab9b59da87001ac41a61","F1","batch6","","887","tol_toboard","","","","tol_peg_1","887","887","0","[[1,3,0],[0,0],[2]]","2","[[1,3,0],[2,0],[0]]","0","0","","","","","","3","","","","","","","","",""
"","","","","","single-stim-button","35","124450","0.0-2.0-10.2-0.2","5d16ab9b59da87001ac41a61","F1","batch6","","1033","tol_tohand","","","","tol_peg_3","1033","1033","0","[[1,3,0],[0,0],[0]]","3","[[1,3,0],[2,0],[0]]","0","0","","","","","","3","","","","","","","","",""
"","","","","","single-stim-button","36","125081","0.0-2.0-10.2-1.2","5d16ab9b59da87001ac41a61","F1","batch6","","630","tol_toboard","","","","tol_peg_2","630","630","0","[[1,3,0],[2,0],[0]]","3","[[1,3,0],[2,0],[0]]","0","0","","","","","","3","","","","","","","","",""
"","","","","","poldrack-single-stim","37","126083","0.0-2.0-11.0","5d16ab9b59da87001ac41a61","F1","batch6","","-1","tol_feedback","","","true","","1000","1000","500","","","","","","-1","none","true","14517","16243","","","","","","","","","",""
"","","","","","html-button-response","38","127280","0.0-2.0-12.0","5d16ab9b59da87001ac41a61","F1","batch6","","1197","tol_trial_num","<div class = centerbox><p class = center-block-text>problem <strong>2</strong> out of 25 problems</p></div>","0","","","","","","","","","","","","","","","","","","","","","","","","",""
"","","","","","single-stim-button","39","150899","0.0-2.0-13.0-0.0","5d16ab9b59da87001ac41a61","F1","batch6","","23617","tol_tohand","","","","tol_peg_1","23617","23617","0","[[1,0,0],[3,0],[0]]","1","[[2,1,3],[0,0],[0]]","1","0","","","","","","5","","","","","","","","",""
"","","","","","single-stim-button","40","151705","0.0-2.0-13.0-1.0","5d16ab9b59da87001ac41a61","F1","batch6","","805","tol_toboard","","","","tol_peg_2","805","805","0","[[1,0,0],[3,2],[0]]","1","[[2,1,3],[0,0],[0]]","1","0","","","","","","5","","","","","","","","",""
"","","","","","single-stim-button","41","152544","0.0-2.0-13.1-0.1","5d16ab9b59da87001ac41a61","F1","batch6","","839","tol_tohand","","","","tol_peg_1","839","839","0","[[0,0,0],[3,2],[0]]","2","[[2,1,3],[0,0],[0]]","1","0","","","","","","5","","","","","","","","",""
"","","","","","single-stim-button","42","153905","0.0-2.0-13.1-1.1","5d16ab9b59da87001ac41a61","F1","batch6","","1360","tol_toboard","","","","tol_peg_3","1360","1360","0","[[0,0,0],[3,2],[1]]","2","[[2,1,3],[0,0],[0]]","1","0","","","","","","5","","","","","","","","",""
"","","","","","single-stim-button","43","154968","0.0-2.0-13.2-0.2","5d16ab9b59da87001ac41a61","F1","batch6","","1063","tol_tohand","","","","tol_peg_2","1063","1063","0","[[0,0,0],[3,0],[1]]","3","[[2,1,3],[0,0],[0]]","1","0","","","","","","5","","","","","","","","",""
"","","","","","single-stim-button","44","155850","0.0-2.0-13.2-1.2","5d16ab9b59da87001ac41a61","F1","batch6","","881","tol_toboard","","","","tol_peg_1","881","881","0","[[2,0,0],[3,0],[1]]","3","[[2,1,3],[0,0],[0]]","1","0","","","","","","5","","","","","","","","",""
"","","","","","single-stim-button","45","156985","0.0-2.0-13.3-0.3","5d16ab9b59da87001ac41a61","F1","batch6","","1133","tol_tohand","","","","tol_peg_3","1133","1133","0","[[2,0,0],[3,0],[0]]","4","[[2,1,3],[0,0],[0]]","1","0","","","","","","5","","","","","","","","",""
"","","","","","single-stim-button","46","157792","0.0-2.0-13.3-1.3","5d16ab9b59da87001ac41a61","F1","batch6","","807","tol_toboard","","","","tol_peg_1","807","807","0","[[2,1,0],[3,0],[0]]","4","[[2,1,3],[0,0],[0]]","1","0","","","","","","5","","","","","","","","",""
"","","","","","single-stim-button","47","158585","0.0-2.0-13.4-0.4","5d16ab9b59da87001ac41a61","F1","batch6","","792","tol_tohand","","","","tol_peg_2","792","792","0","[[2,1,0],[0,0],[0]]","5","[[2,1,3],[0,0],[0]]","1","0","","","","","","5","","","","","","","","",""
"","","","","","single-stim-button","48","159329","0.0-2.0-13.4-1.4","5d16ab9b59da87001ac41a61","F1","batch6","","743","tol_toboard","","","","tol_peg_1","743","743","0","[[2,1,3],[0,0],[0]]","5","[[2,1,3],[0,0],[0]]","1","0","","","","","","5","","","","","","","","",""
"","","","","","poldrack-single-stim","49","160330","0.0-2.0-14.0","5d16ab9b59da87001ac41a61","F1","batch6","","-1","tol_feedback","","","true","","1000","1000","500","","","","","","-1","none","true","23617","27444","","","","","","","","","",""
"","","","","","html-button-response","50","162544","0.0-2.0-15.0","5d16ab9b59da87001ac41a61","F1","batch6","","2212","tol_trial_num","<div class = centerbox><p class = center-block-text>problem <strong>3</strong> out of 25 problems</p></div>","0","","","","","","","","","","","","","","","","","","","","","","","","",""
"","","","","","single-stim-button","51","166793","0.0-2.0-16.0-0.0","5d16ab9b59da87001ac41a61","F1","batch6","","4248","tol_tohand","","","","tol_peg_1","4248","4248","0","[[2,0,0],[0,0],[1]]","1","[[1,2,0],[3,0],[0]]","2","0","","","","","","4","","","","","","","","",""
"","","","","","single-stim-button","52","167640","0.0-2.0-16.0-1.0","5d16ab9b59da87001ac41a61","F1","batch6","","847","tol_toboard","","","","tol_peg_2","847","847","0","[[2,0,0],[3,0],[1]]","1","[[1,2,0],[3,0],[0]]","2","0","","","","","","4","","","","","","","","",""
"","","","","","single-stim-button","53","169009","0.0-2.0-16.1-0.1","5d16ab9b59da87001ac41a61","F1","batch6","","1367","tol_tohand","","","","tol_peg_1","1367","1367","0","[[0,0,0],[3,0],[1]]","2","[[1,2,0],[3,0],[0]]","2","0","","","","","","4","","","","","","","","",""
"","","","","","single-stim-button","54","169665","0.0-2.0-16.1-1.1","5d16ab9b59da87001ac41a61","F1","batch6","","655","tol_toboard","","","","tol_peg_2","655","655","0","[[0,0,0],[3,2],[1]]","2","[[1,2,0],[3,0],[0]]","2","0","","","","","","4","","","","","","","","",""
"","","","","","single-stim-button","55","170489","0.0-2.0-16.2-0.2","5d16ab9b59da87001ac41a61","F1","batch6","","823","tol_tohand","","","","tol_peg_3","823","823","0","[[0,0,0],[3,2],[0]]","3","[[1,2,0],[3,0],[0]]","2","0","","","","","","4","","","","","","","","",""
"","","","","","single-stim-button","56","171449","0.0-2.0-16.2-1.2","5d16ab9b59da87001ac41a61","F1","batch6","","960","tol_toboard","","","","tol_peg_1","960","960","0","[[1,0,0],[3,2],[0]]","3","[[1,2,0],[3,0],[0]]","2","0","","","","","","4","","","","","","","","",""
"","","","","","single-stim-button","57","172218","0.0-2.0-16.3-0.3","5d16ab9b59da87001ac41a61","F1","batch6","","768","tol_tohand","","","","tol_peg_2","768","768","0","[[1,0,0],[3,0],[0]]","4","[[1,2,0],[3,0],[0]]","2","0","","","","","","4","","","","","","","","",""
"","","","","","single-stim-button","58","173034","0.0-2.0-16.3-1.3","5d16ab9b59da87001ac41a61","F1","batch6","","815","tol_toboard","","","","tol_peg_1","815","815","0","[[1,2,0],[3,0],[0]]","4","[[1,2,0],[3,0],[0]]","2","0","","","","","","4","","","","","","","","",""
"","","","","","poldrack-single-stim","59","174049","0.0-2.0-17.0","5d16ab9b59da87001ac41a61","F1","batch6","","-1","tol_feedback","","","true","","1000","1000","500","","","","","","-1","none","true","4248","7206","","","","","","","","","",""
"","","","","","html-button-response","60","175328","0.0-2.0-18.0","5d16ab9b59da87001ac41a61","F1","batch6","","1278","tol_trial_num","<div class = centerbox><p class = center-block-text>problem <strong>4</strong> out of 25 problems</p></div>","0","","","","","","","","","","","","","","","","","","","","","","","","",""
"","","","","","single-stim-button","61","185312","0.0-2.0-19.0-0.0","5d16ab9b59da87001ac41a61","F1","batch6","","9983","tol_tohand","","","","tol_peg_2","9983","9983","0","[[3,0,0],[2,0],[0]]","1","[[3,0,0],[1,0],[2]]","3","0","","","","","","3","","","","","","","","",""
"","","","","","single-stim-button","62","186072","0.0-2.0-19.0-1.0","5d16ab9b59da87001ac41a61","F1","batch6","","760","tol_toboard","","","","tol_peg_1","760","760","0","[[3,1,0],[2,0],[0]]","1","[[3,0,0],[1,0],[2]]","3","0","","","","","","3","","","","","","","","",""
"","","","","","single-stim-button","63","186784","0.0-2.0-19.1-0.1","5d16ab9b59da87001ac41a61","F1","batch6","","711","tol_tohand","","","","tol_peg_2","711","711","0","[[3,1,0],[0,0],[0]]","2","[[3,0,0],[1,0],[2]]","3","0","","","","","","3","","","","","","","","",""
"","","","","","single-stim-button","64","187497","0.0-2.0-19.1-1.1","5d16ab9b59da87001ac41a61","F1","batch6","","711","tol_toboard","","","","tol_peg_3","711","711","0","[[3,1,0],[0,0],[2]]","2","[[3,0,0],[1,0],[2]]","3","0","","","","","","3","","","","","","","","",""
"","","","","","single-stim-button","65","188584","0.0-2.0-19.2-0.2","5d16ab9b59da87001ac41a61","F1","batch6","","1086","tol_tohand","","","","tol_peg_1","1086","1086","0","[[3,0,0],[0,0],[2]]","3","[[3,0,0],[1,0],[2]]","3","0","","","","","","3","","","","","","","","",""
"","","","","","single-stim-button","66","189344","0.0-2.0-19.2-1.2","5d16ab9b59da87001ac41a61","F1","batch6","","759","tol_toboard","","","","tol_peg_2","759","759","0","[[3,0,0],[1,0],[2]]","3","[[3,0,0],[1,0],[2]]","3","0","","","","","","3","","","","","","","","",""
"","","","","","poldrack-single-stim","67","190350","0.0-2.0-20.0","5d16ab9b59da87001ac41a61","F1","batch6","","-1","tol_feedback","","","true","","1000","1000","500","","","","","","-1","none","true","9983","11780","","","","","","","","","",""
"","","","","","html-button-response","68","191449","0.0-2.0-21.0","5d16ab9b59da87001ac41a61","F1","batch6","","1097","tol_trial_num","<div class = centerbox><p class = center-block-text>problem <strong>5</strong> out of 25 problems</p></div>","0","","","","","","","","","","","","","","","","","","","","","","","","",""
"","","","","","single-stim-button","69","230832","0.0-2.0-22.0-0.0","5d16ab9b59da87001ac41a61","F1","batch6","","39382","tol_tohand","","","","tol_peg_2","39382","39382","0","[[1,0,0],[0,0],[3]]","1","[[0,0,0],[1,2],[3]]","4","0","","","","","","7","","","","","","","","",""
"","","","","","single-stim-button","70","234760","0.0-2.0-22.0-1.0","5d16ab9b59da87001ac41a61","F1","batch6","","3928","tol_toboard","","","","tol_peg_2","3928","3928","0","[[1,0,0],[2,0],[3]]","1","[[0,0,0],[1,2],[3]]","4","0","","","","","","7","","","","","","","","",""
"","","","","","single-stim-button","71","240466","0.0-2.0-22.1-0.1","5d16ab9b59da87001ac41a61","F1","batch6","","5704","tol_tohand","","","","tol_peg_3","5704","5704","0","[[1,0,0],[2,0],[0]]","2","[[0,0,0],[1,2],[3]]","4","0","","","","","","7","","","","","","","","",""
"","","","","","single-stim-button","72","241256","0.0-2.0-22.1-1.1","5d16ab9b59da87001ac41a61","F1","batch6","","789","tol_toboard","","","","tol_peg_1","789","789","0","[[1,3,0],[2,0],[0]]","2","[[0,0,0],[1,2],[3]]","4","0","","","","","","7","","","","","","","","",""
"","","","","","single-stim-button","73","243752","0.0-2.0-22.2-0.2","5d16ab9b59da87001ac41a61","F1","batch6","","2496","tol_tohand","","","","tol_peg_2","2496","2496","0","[[1,3,0],[0,0],[0]]","3","[[0,0,0],[1,2],[3]]","4","0","","","","","","7","","","","","","","","",""
"","","","","","single-stim-button","74","244880","0.0-2.0-22.2-1.2","5d16ab9b59da87001ac41a61","F1","batch6","","1126","tol_toboard","","","","tol_peg_3","1126","1126","0","[[1,3,0],[0,0],[2]]","3","[[0,0,0],[1,2],[3]]","4","0","","","","","","7","","","","","","","","",""
"","","","","","single-stim-button","75","246024","0.0-2.0-22.3-0.3","5d16ab9b59da87001ac41a61","F1","batch6","","1144","tol_tohand","","","","tol_peg_1","1144","1144","0","[[1,0,0],[0,0],[2]]","4","[[0,0,0],[1,2],[3]]","4","0","","","","","","7","","","","","","","","",""
"","","","","","single-stim-button","76","248568","0.0-2.0-22.3-1.3","5d16ab9b59da87001ac41a61","F1","batch6","","2543","tol_toboard","","","","tol_peg_1","2543","2543","0","[[1,3,0],[0,0],[2]]","4","[[0,0,0],[1,2],[3]]","4","0","","","","","","7","","","","","","","","",""
"","","","","","single-stim-button","77","271041","0.0-2.0-22.4-0.4","5d16ab9b59da87001ac41a61","F1","batch6","","22471","tol_tohand","","","","tol_peg_3","22471","22471","0","[[1,3,0],[0,0],[0]]","5","[[0,0,0],[1,2],[3]]","4","0","","","","","","7","","","","","","","","",""
"","","","","","single-stim-button","78","271736","0.0-2.0-22.4-1.4","5d16ab9b59da87001ac41a61","F1","batch6","","695","tol_toboard","","","","tol_peg_2","695","695","0","[[1,3,0],[2,0],[0]]","5","[[0,0,0],[1,2],[3]]","4","0","","","","","","7","","","","","","","","",""
"","","","","","single-stim-button","79","272513","0.0-2.0-22.5-0.5","5d16ab9b59da87001ac41a61","F1","batch6","","775","tol_tohand","","","","tol_peg_1","775","775","0","[[1,0,0],[2,0],[0]]","6","[[0,0,0],[1,2],[3]]","4","0","","","","","","7","","","","","","","","",""
"","","","","","single-stim-button","80","273385","0.0-2.0-22.5-1.5","5d16ab9b59da87001ac41a61","F1","batch6","","871","tol_toboard","","","","tol_peg_3","871","871","0","[[1,0,0],[2,0],[3]]","6","[[0,0,0],[1,2],[3]]","4","0","","","","","","7","","","","","","","","",""
"","","","","","single-stim-button","81","282544","0.0-2.0-22.6-0.6","5d16ab9b59da87001ac41a61","F1","batch6","","9157","tol_tohand","","","","tol_peg_2","9157","9157","0","[[1,0,0],[0,0],[3]]","7","[[0,0,0],[1,2],[3]]","4","0","","","","","","7","","","","","","","","",""
"","","","","","single-stim-button","82","283248","0.0-2.0-22.6-1.6","5d16ab9b59da87001ac41a61","F1","batch6","","704","tol_toboard","","","","tol_peg_1","704","704","0","[[1,2,0],[0,0],[3]]","7","[[0,0,0],[1,2],[3]]","4","0","","","","","","7","","","","","","","","",""
"","","","","","single-stim-button","83","284888","0.0-2.0-22.7-0.7","5d16ab9b59da87001ac41a61","F1","batch6","","1638","tol_tohand","","","","tol_peg_3","1638","1638","0","[[1,2,0],[0,0],[0]]","8","[[0,0,0],[1,2],[3]]","4","0","","","","","","7","","","","","","","","",""
"","","","","","single-stim-button","84","291456","0.0-2.0-22.7-1.7","5d16ab9b59da87001ac41a61","F1","batch6","","6567","tol_toboard","","","","tol_peg_2","6567","6567","0","[[1,2,0],[3,0],[0]]","8","[[0,0,0],[1,2],[3]]","4","0","","","","","","7","","","","","","","","",""
"","","","","","single-stim-button","85","292656","0.0-2.0-22.8-0.8","5d16ab9b59da87001ac41a61","F1","batch6","","1199","tol_tohand","","","","tol_peg_1","1199","1199","0","[[1,0,0],[3,0],[0]]","9","[[0,0,0],[1,2],[3]]","4","0","","","","","","7","","","","","","","","",""
"","","","","","single-stim-button","86","295336","0.0-2.0-22.8-1.8","5d16ab9b59da87001ac41a61","F1","batch6","","2680","tol_toboard","","","","tol_peg_3","2680","2680","0","[[1,0,0],[3,0],[2]]","9","[[0,0,0],[1,2],[3]]","4","0","","","","","","7","","","","","","","","",""
"","","","","","single-stim-button","87","298489","0.0-2.0-22.9-0.9","5d16ab9b59da87001ac41a61","F1","batch6","","3152","tol_tohand","","","","tol_peg_1","3152","3152","0","[[0,0,0],[3,0],[2]]","10","[[0,0,0],[1,2],[3]]","4","0","","","","","","7","","","","","","","","",""
"","","","","","single-stim-button","88","299129","0.0-2.0-22.9-1.9","5d16ab9b59da87001ac41a61","F1","batch6","","638","tol_toboard","","","","tol_peg_2","638","638","0","[[0,0,0],[3,1],[2]]","10","[[0,0,0],[1,2],[3]]","4","0","","","","","","7","","","","","","","","",""
"","","","","","single-stim-button","89","301219","0.0-2.0-22.10-0.10","5d16ab9b59da87001ac41a61","F1","batch6","","2090","tol_tohand","","","","tol_peg_3","2090","2090","0","[[0,0,0],[3,1],[0]]","11","[[0,0,0],[1,2],[3]]","4","0","","","","","","7","","","","","","","","",""
"","","","","","single-stim-button","90","301929","0.0-2.0-22.10-1.10","5d16ab9b59da87001ac41a61","F1","batch6","","708","tol_toboard","","","","tol_peg_1","708","708","0","[[2,0,0],[3,1],[0]]","11","[[0,0,0],[1,2],[3]]","4","0","","","","","","7","","","","","","","","",""
"","","","","","single-stim-button","91","302600","0.0-2.0-22.11-0.11","5d16ab9b59da87001ac41a61","F1","batch6","","671","tol_tohand","","","","tol_peg_2","671","671","0","[[2,0,0],[3,0],[0]]","12","[[0,0,0],[1,2],[3]]","4","0","","","","","","7","","","","","","","","",""
"","","","","","single-stim-button","92","303137","0.0-2.0-22.11-1.11","5d16ab9b59da87001ac41a61","F1","batch6","","536","tol_toboard","","","","tol_peg_3","536","536","0","[[2,0,0],[3,0],[1]]","12","[[0,0,0],[1,2],[3]]","4","0","","","","","","7","","","","","","","","",""
"","","","","","single-stim-button","93","305049","0.0-2.0-22.12-0.12","5d16ab9b59da87001ac41a61","F1","batch6","","1911","tol_tohand","","","","tol_peg_2","1911","1911","0","[[2,0,0],[0,0],[1]]","13","[[0,0,0],[1,2],[3]]","4","0","","","","","","7","","","","","","","","",""
"","","","","","single-stim-button","94","305736","0.0-2.0-22.12-1.12","5d16ab9b59da87001ac41a61","F1","batch6","","686","tol_toboard","","","","tol_peg_1","686","686","0","[[2,3,0],[0,0],[1]]","13","[[0,0,0],[1,2],[3]]","4","0","","","","","","7","","","","","","","","",""
"","","","","","single-stim-button","95","306505","0.0-2.0-22.13-0.13","5d16ab9b59da87001ac41a61","F1","batch6","","766","tol_tohand","","","","tol_peg_3","766","766","0","[[2,3,0],[0,0],[0]]","14","[[0,0,0],[1,2],[3]]","4","0","","","","","","7","","","","","","","","",""
"","","","","","single-stim-button","96","307080","0.0-2.0-22.13-1.13","5d16ab9b59da87001ac41a61","F1","batch6","","573","tol_toboard","","","","tol_peg_2","573","573","0","[[2,3,0],[1,0],[0]]","14","[[0,0,0],[1,2],[3]]","4","0","","","","","","7","","","","","","","","",""
"","","","","","single-stim-button","97","307776","0.0-2.0-22.14-0.14","5d16ab9b59da87001ac41a61","F1","batch6","","695","tol_tohand","","","","tol_peg_1","695","695","0","[[2,0,0],[1,0],[0]]","15","[[0,0,0],[1,2],[3]]","4","0","","","","","","7","","","","","","","","",""
"","","","","","single-stim-button","98","308568","0.0-2.0-22.14-1.14","5d16ab9b59da87001ac41a61","F1","batch6","","792","tol_toboard","","","","tol_peg_3","792","792","0","[[2,0,0],[1,0],[3]]","15","[[0,0,0],[1,2],[3]]","4","0","","","","","","7","","","","","","","","",""
"","","","","","single-stim-button","99","309456","0.0-2.0-22.15-0.15","5d16ab9b59da87001ac41a61","F1","batch6","","888","tol_tohand","","","","tol_peg_1","888","888","0","[[0,0,0],[1,0],[3]]","16","[[0,0,0],[1,2],[3]]","4","0","","","","","","7","","","","","","","","",""
"","","","","","single-stim-button","100","310064","0.0-2.0-22.15-1.15","5d16ab9b59da87001ac41a61","F1","batch6","","607","tol_toboard","","","","tol_peg_2","607","607","0","[[0,0,0],[1,2],[3]]","16","[[0,0,0],[1,2],[3]]","4","0","","","","","","7","","","","","","","","",""
"","","","","","poldrack-single-stim","101","311065","0.0-2.0-23.0","5d16ab9b59da87001ac41a61","F1","batch6","","-1","tol_feedback","","","true","","1000","1000","500","","","","","","-1","none","true","39382","94139","","","","","","","","","",""
"","","","","","html-button-response","102","312519","0.0-2.0-24.0","5d16ab9b59da87001ac41a61","F1","batch6","","1453","tol_trial_num","<div class = centerbox><p class = center-block-text>problem <strong>6</strong> out of 25 problems</p></div>","0","","","","","","","","","","","","","","","","","","","","","","","","",""
"","","","","","single-stim-button","103","334368","0.0-2.0-25.0-0.0","5d16ab9b59da87001ac41a61","F1","batch6","","21847","tol_tohand","","","","tol_peg_3","21847","21847","0","[[0,0,0],[1,2],[0]]","1","[[1,0,0],[2,3],[0]]","5","0","","","","","","6","","","","","","","","",""
"","","","","","single-stim-button","104","335343","0.0-2.0-25.0-1.0","5d16ab9b59da87001ac41a61","F1","batch6","","975","tol_toboard","","","","tol_peg_1","975","975","0","[[3,0,0],[1,2],[0]]","1","[[1,0,0],[2,3],[0]]","5","0","","","","","","6","","","","","","","","",""
"","","","","","single-stim-button","105","336503","0.0-2.0-25.1-0.1","5d16ab9b59da87001ac41a61","F1","batch6","","1159","tol_tohand","","","","tol_peg_2","1159","1159","0","[[3,0,0],[1,0],[0]]","2","[[1,0,0],[2,3],[0]]","5","0","","","","","","6","","","","","","","","",""
"","","","","","single-stim-button","106","337191","0.0-2.0-25.1-1.1","5d16ab9b59da87001ac41a61","F1","batch6","","687","tol_toboard","","","","tol_peg_1","687","687","0","[[3,2,0],[1,0],[0]]","2","[[1,0,0],[2,3],[0]]","5","0","","","","","","6","","","","","","","","",""
"","","","","","single-stim-button","107","338103","0.0-2.0-25.2-0.2","5d16ab9b59da87001ac41a61","F1","batch6","","911","tol_tohand","","","","tol_peg_2","911","911","0","[[3,2,0],[0,0],[0]]","3","[[1,0,0],[2,3],[0]]","5","0","","","","","","6","","","","","","","","",""
"","","","","","single-stim-button","108","338799","0.0-2.0-25.2-1.2","5d16ab9b59da87001ac41a61","F1","batch6","","695","tol_toboard","","","","tol_peg_3","695","695","0","[[3,2,0],[0,0],[1]]","3","[[1,0,0],[2,3],[0]]","5","0","","","","","","6","","","","","","","","",""
"","","","","","single-stim-button","109","340607","0.0-2.0-25.3-0.3","5d16ab9b59da87001ac41a61","F1","batch6","","1807","tol_tohand","","","","tol_peg_1","1807","1807","0","[[3,0,0],[0,0],[1]]","4","[[1,0,0],[2,3],[0]]","5","0","","","","","","6","","","","","","","","",""
"","","","","","single-stim-button","110","341295","0.0-2.0-25.3-1.3","5d16ab9b59da87001ac41a61","F1","batch6","","687","tol_toboard","","","","tol_peg_2","687","687","0","[[3,0,0],[2,0],[1]]","4","[[1,0,0],[2,3],[0]]","5","0","","","","","","6","","","","","","","","",""
"","","","","","single-stim-button","111","342103","0.0-2.0-25.4-0.4","5d16ab9b59da87001ac41a61","F1","batch6","","807","tol_tohand","","","","tol_peg_1","807","807","0","[[0,0,0],[2,0],[1]]","5","[[1,0,0],[2,3],[0]]","5","0","","","","","","6","","","","","","","","",""
"","","","","","single-stim-button","112","342784","0.0-2.0-25.4-1.4","5d16ab9b59da87001ac41a61","F1","batch6","","679","tol_toboard","","","","tol_peg_2","679","679","0","[[0,0,0],[2,3],[1]]","5","[[1,0,0],[2,3],[0]]","5","0","","","","","","6","","","","","","","","",""
"","","","","","single-stim-button","113","343519","0.0-2.0-25.5-0.5","5d16ab9b59da87001ac41a61","F1","batch6","","735","tol_tohand","","","","tol_peg_3","735","735","0","[[0,0,0],[2,3],[0]]","6","[[1,0,0],[2,3],[0]]","5","0","","","","","","6","","","","","","","","",""
"","","","","","single-stim-button","114","344287","0.0-2.0-25.5-1.5","5d16ab9b59da87001ac41a61","F1","batch6","","767","tol_toboard","","","","tol_peg_1","767","767","0","[[1,0,0],[2,3],[0]]","6","[[1,0,0],[2,3],[0]]","5","0","","","","","","6","","","","","","","","",""
"","","","","","poldrack-single-stim","115","345289","0.0-2.0-26.0","5d16ab9b59da87001ac41a61","F1","batch6","","-1","tol_feedback","","","true","","1000","1000","500","","","","","","-1","none","true","21847","27266","","","","","","","","","",""
"","","","","","html-button-response","116","346417","0.0-2.0-27.0","5d16ab9b59da87001ac41a61","F1","batch6","","1128","tol_trial_num","<div class = centerbox><p class = center-block-text>problem <strong>7</strong> out of 25 problems</p></div>","0","","","","","","","","","","","","","","","","","","","","","","","","",""
"","","","","","single-stim-button","117","350072","0.0-2.0-28.0-0.0","5d16ab9b59da87001ac41a61","F1","batch6","","3655","tol_tohand","","","","tol_peg_3","3655","3655","0","[[2,1,0],[0,0],[0]]","1","[[1,2,0],[3,0],[0]]","6","0","","","","","","5","","","","","","","","",""
"","","","","","single-stim-button","118","350807","0.0-2.0-28.0-1.0","5d16ab9b59da87001ac41a61","F1","batch6","","735","tol_toboard","","","","tol_peg_2","735","735","0","[[2,1,0],[3,0],[0]]","1","[[1,2,0],[3,0],[0]]","6","0","","","","","","5","","","","","","","","",""
"","","","","","single-stim-button","119","353703","0.0-2.0-28.1-0.1","5d16ab9b59da87001ac41a61","F1","batch6","","2895","tol_tohand","","","","tol_peg_1","2895","2895","0","[[2,0,0],[3,0],[0]]","2","[[1,2,0],[3,0],[0]]","6","0","","","","","","5","","","","","","","","",""
"","","","","","single-stim-button","120","354607","0.0-2.0-28.1-1.1","5d16ab9b59da87001ac41a61","F1","batch6","","903","tol_toboard","","","","tol_peg_2","903","903","0","[[2,0,0],[3,1],[0]]","2","[[1,2,0],[3,0],[0]]","6","0","","","","","","5","","","","","","","","",""
"","","","","","single-stim-button","121","355672","0.0-2.0-28.2-0.2","5d16ab9b59da87001ac41a61","F1","batch6","","1063","tol_tohand","","","","tol_peg_1","1063","1063","0","[[0,0,0],[3,1],[0]]","3","[[1,2,0],[3,0],[0]]","6","0","","","","","","5","","","","","","","","",""
"","","","","","single-stim-button","122","356575","0.0-2.0-28.2-1.2","5d16ab9b59da87001ac41a61","F1","batch6","","903","tol_toboard","","","","tol_peg_3","903","903","0","[[0,0,0],[3,1],[2]]","3","[[1,2,0],[3,0],[0]]","6","0","","","","","","5","","","","","","","","",""
"","","","","","single-stim-button","123","357383","0.0-2.0-28.3-0.3","5d16ab9b59da87001ac41a61","F1","batch6","","807","tol_tohand","","","","tol_peg_2","807","807","0","[[0,0,0],[3,0],[2]]","4","[[1,2,0],[3,0],[0]]","6","0","","","","","","5","","","","","","","","",""
"","","","","","single-stim-button","124","358144","0.0-2.0-28.3-1.3","5d16ab9b59da87001ac41a61","F1","batch6","","759","tol_toboard","","","","tol_peg_1","759","759","0","[[1,0,0],[3,0],[2]]","4","[[1,2,0],[3,0],[0]]","6","0","","","","","","5","","","","","","","","",""
"","","","","","single-stim-button","125","359063","0.0-2.0-28.4-0.4","5d16ab9b59da87001ac41a61","F1","batch6","","919","tol_tohand","","","","tol_peg_3","919","919","0","[[1,0,0],[3,0],[0]]","5","[[1,2,0],[3,0],[0]]","6","0","","","","","","5","","","","","","","","",""
"","","","","","single-stim-button","126","359849","0.0-2.0-28.4-1.4","5d16ab9b59da87001ac41a61","F1","batch6","","784","tol_toboard","","","","tol_peg_1","784","784","0","[[1,2,0],[3,0],[0]]","5","[[1,2,0],[3,0],[0]]","6","0","","","","","","5","","","","","","","","",""
"","","","","","poldrack-single-stim","127","360863","0.0-2.0-29.0","5d16ab9b59da87001ac41a61","F1","batch6","","-1","tol_feedback","","","true","","1000","1000","500","","","","","","-1","none","true","3655","9339","","","","","","","","","",""
"","","","","","html-button-response","128","361999","0.0-2.0-30.0","5d16ab9b59da87001ac41a61","F1","batch6","","1136","tol_trial_num","<div class = centerbox><p class = center-block-text>problem <strong>8</strong> out of 25 problems</p></div>","0","","","","","","","","","","","","","","","","","","","","","","","","",""
"","","","","","single-stim-button","129","364463","0.0-2.0-31.0-0.0","5d16ab9b59da87001ac41a61","F1","batch6","","2463","tol_tohand","","","","tol_peg_3","2463","2463","0","[[0,0,0],[2,3],[0]]","1","[[1,2,0],[3,0],[0]]","7","0","","","","","","4","","","","","","","","",""
"","","","","","single-stim-button","130","365264","0.0-2.0-31.0-1.0","5d16ab9b59da87001ac41a61","F1","batch6","","799","tol_toboard","","","","tol_peg_1","799","799","0","[[1,0,0],[2,3],[0]]","1","[[1,2,0],[3,0],[0]]","7","0","","","","","","4","","","","","","","","",""
"","","","","","single-stim-button","131","367743","0.0-2.0-31.1-0.1","5d16ab9b59da87001ac41a61","F1","batch6","","2479","tol_tohand","","","","tol_peg_2","2479","2479","0","[[1,0,0],[2,0],[0]]","2","[[1,2,0],[3,0],[0]]","7","0","","","","","","4","","","","","","","","",""
"","","","","","single-stim-button","132","369368","0.0-2.0-31.1-1.1","5d16ab9b59da87001ac41a61","F1","batch6","","1623","tol_toboard","","","","tol_peg_3","1623","1623","0","[[1,0,0],[2,0],[3]]","2","[[1,2,0],[3,0],[0]]","7","0","","","","","","4","","","","","","","","",""
"","","","","","single-stim-button","133","370176","0.0-2.0-31.2-0.2","5d16ab9b59da87001ac41a61","F1","batch6","","807","tol_tohand","","","","tol_peg_2","807","807","0","[[1,0,0],[0,0],[3]]","3","[[1,2,0],[3,0],[0]]","7","0","","","","","","4","","","","","","","","",""
"","","","","","single-stim-button","134","371048","0.0-2.0-31.2-1.2","5d16ab9b59da87001ac41a61","F1","batch6","","871","tol_toboard","","","","tol_peg_1","871","871","0","[[1,2,0],[0,0],[3]]","3","[[1,2,0],[3,0],[0]]","7","0","","","","","","4","","","","","","","","",""
"","","","","","single-stim-button","135","372160","0.0-2.0-31.3-0.3","5d16ab9b59da87001ac41a61","F1","batch6","","1111","tol_tohand","","","","tol_peg_3","1111","1111","0","[[1,2,0],[0,0],[0]]","4","[[1,2,0],[3,0],[0]]","7","0","","","","","","4","","","","","","","","",""
"","","","","","single-stim-button","136","372865","0.0-2.0-31.3-1.3","5d16ab9b59da87001ac41a61","F1","batch6","","705","tol_toboard","","","","tol_peg_2","705","705","0","[[1,2,0],[3,0],[0]]","4","[[1,2,0],[3,0],[0]]","7","0","","","","","","4","","","","","","","","",""
"","","","","","poldrack-single-stim","137","373867","0.0-2.0-32.0","5d16ab9b59da87001ac41a61","F1","batch6","","-1","tol_feedback","","","true","","1000","1000","500","","","","","","-1","none","true","2463","6860","","","","","","","","","",""
"","","","","","html-button-response","138","374983","0.0-2.0-33.0","5d16ab9b59da87001ac41a61","F1","batch6","","1115","tol_trial_num","<div class = centerbox><p class = center-block-text>problem <strong>9</strong> out of 25 problems</p></div>","0","","","","","","","","","","","","","","","","","","","","","","","","",""
"","","","","","single-stim-button","139","383656","0.0-2.0-34.0-0.0","5d16ab9b59da87001ac41a61","F1","batch6","","8671","tol_tohand","","","","tol_peg_1","8671","8671","0","[[3,0,0],[0,0],[1]]","1","[[2,1,0],[3,0],[0]]","8","0","","","","","","6","","","","","","","","",""
"","","","","","single-stim-button","140","385967","0.0-2.0-34.0-1.0","5d16ab9b59da87001ac41a61","F1","batch6","","2311","tol_toboard","","","","tol_peg_2","2311","2311","0","[[3,0,0],[2,0],[1]]","1","[[2,1,0],[3,0],[0]]","8","0","","","","","","6","","","","","","","","",""
"","","","","","single-stim-button","141","389312","0.0-2.0-34.1-0.1","5d16ab9b59da87001ac41a61","F1","batch6","","3343","tol_tohand","","","","tol_peg_1","3343","3343","0","[[0,0,0],[2,0],[1]]","2","[[2,1,0],[3,0],[0]]","8","0","","","","","","6","","","","","","","","",""
"","","","","","single-stim-button","142","390472","0.0-2.0-34.1-1.1","5d16ab9b59da87001ac41a61","F1","batch6","","1159","tol_toboard","","","","tol_peg_1","1159","1159","0","[[3,0,0],[2,0],[1]]","2","[[2,1,0],[3,0],[0]]","8","0","","","","","","6","","","","","","","","",""
"","","","","","single-stim-button","143","391728","0.0-2.0-34.2-0.2","5d16ab9b59da87001ac41a61","F1","batch6","","1255","tol_tohand","","","","tol_peg_3","1255","1255","0","[[3,0,0],[2,0],[0]]","3","[[2,1,0],[3,0],[0]]","8","0","","","","","","6","","","","","","","","",""
"","","","","","single-stim-button","144","397159","0.0-2.0-34.2-1.2","5d16ab9b59da87001ac41a61","F1","batch6","","5431","tol_toboard","","","","tol_peg_2","5431","5431","0","[[3,0,0],[2,1],[0]]","3","[[2,1,0],[3,0],[0]]","8","0","","","","","","6","","","","","","","","",""
"","","","","","single-stim-button","145","398008","0.0-2.0-34.3-0.3","5d16ab9b59da87001ac41a61","F1","batch6","","847","tol_tohand","","","","tol_peg_1","847","847","0","[[0,0,0],[2,1],[0]]","4","[[2,1,0],[3,0],[0]]","8","0","","","","","","6","","","","","","","","",""
"","","","","","single-stim-button","146","398696","0.0-2.0-34.3-1.3","5d16ab9b59da87001ac41a61","F1","batch6","","687","tol_toboard","","","","tol_peg_3","687","687","0","[[0,0,0],[2,1],[3]]","4","[[2,1,0],[3,0],[0]]","8","0","","","","","","6","","","","","","","","",""
"","","","","","single-stim-button","147","401855","0.0-2.0-34.4-0.4","5d16ab9b59da87001ac41a61","F1","batch6","","3159","tol_tohand","","","","tol_peg_2","3159","3159","0","[[0,0,0],[2,0],[3]]","5","[[2,1,0],[3,0],[0]]","8","0","","","","","","6","","","","","","","","",""
"","","","","","single-stim-button","148","402639","0.0-2.0-34.4-1.4","5d16ab9b59da87001ac41a61","F1","batch6","","783","tol_toboard","","","","tol_peg_1","783","783","0","[[1,0,0],[2,0],[3]]","5","[[2,1,0],[3,0],[0]]","8","0","","","","","","6","","","","","","","","",""
"","","","","","single-stim-button","149","404233","0.0-2.0-34.5-0.5","5d16ab9b59da87001ac41a61","F1","batch6","","1593","tol_tohand","","","","tol_peg_2","1593","1593","0","[[1,0,0],[0,0],[3]]","6","[[2,1,0],[3,0],[0]]","8","0","","","","","","6","","","","","","","","",""
"","","","","","single-stim-button","150","405167","0.0-2.0-34.5-1.5","5d16ab9b59da87001ac41a61","F1","batch6","","934","tol_toboard","","","","tol_peg_1","934","934","0","[[1,2,0],[0,0],[3]]","6","[[2,1,0],[3,0],[0]]","8","0","","","","","","6","","","","","","","","",""
"","","","","","single-stim-button","151","405969","0.0-2.0-34.6-0.6","5d16ab9b59da87001ac41a61","F1","batch6","","800","tol_tohand","","","","tol_peg_3","800","800","0","[[1,2,0],[0,0],[0]]","7","[[2,1,0],[3,0],[0]]","8","0","","","","","","6","","","","","","","","",""
"","","","","","single-stim-button","152","406504","0.0-2.0-34.6-1.6","5d16ab9b59da87001ac41a61","F1","batch6","","534","tol_toboard","","","","tol_peg_2","534","534","0","[[1,2,0],[3,0],[0]]","7","[[2,1,0],[3,0],[0]]","8","0","","","","","","6","","","","","","","","",""
"","","","","","single-stim-button","153","408080","0.0-2.0-34.7-0.7","5d16ab9b59da87001ac41a61","F1","batch6","","1575","tol_tohand","","","","tol_peg_1","1575","1575","0","[[1,0,0],[3,0],[0]]","8","[[2,1,0],[3,0],[0]]","8","0","","","","","","6","","","","","","","","",""
"","","","","","single-stim-button","154","408839","0.0-2.0-34.7-1.7","5d16ab9b59da87001ac41a61","F1","batch6","","759","tol_toboard","","","","tol_peg_2","759","759","0","[[1,0,0],[3,2],[0]]","8","[[2,1,0],[3,0],[0]]","8","0","","","","","","6","","","","","","","","",""
"","","","","","single-stim-button","155","409472","0.0-2.0-34.8-0.8","5d16ab9b59da87001ac41a61","F1","batch6","","631","tol_tohand","","","","tol_peg_1","631","631","0","[[0,0,0],[3,2],[0]]","9","[[2,1,0],[3,0],[0]]","8","0","","","","","","6","","","","","","","","",""
"","","","","","single-stim-button","156","410111","0.0-2.0-34.8-1.8","5d16ab9b59da87001ac41a61","F1","batch6","","639","tol_toboard","","","","tol_peg_3","639","639","0","[[0,0,0],[3,2],[1]]","9","[[2,1,0],[3,0],[0]]","8","0","","","","","","6","","","","","","","","",""
"","","","","","single-stim-button","157","410871","0.0-2.0-34.9-0.9","5d16ab9b59da87001ac41a61","F1","batch6","","759","tol_tohand","","","","tol_peg_2","759","759","0","[[0,0,0],[3,0],[1]]","10","[[2,1,0],[3,0],[0]]","8","0","","","","","","6","","","","","","","","",""
"","","","","","single-stim-button","158","411535","0.0-2.0-34.9-1.9","5d16ab9b59da87001ac41a61","F1","batch6","","663","tol_toboard","","","","tol_peg_1","663","663","0","[[2,0,0],[3,0],[1]]","10","[[2,1,0],[3,0],[0]]","8","0","","","","","","6","","","","","","","","",""
"","","","","","single-stim-button","159","412264","0.0-2.0-34.10-0.10","5d16ab9b59da87001ac41a61","F1","batch6","","728","tol_tohand","","","","tol_peg_3","728","728","0","[[2,0,0],[3,0],[0]]","11","[[2,1,0],[3,0],[0]]","8","0","","","","","","6","","","","","","","","",""
"","","","","","single-stim-button","160","412855","0.0-2.0-34.10-1.10","5d16ab9b59da87001ac41a61","F1","batch6","","591","tol_toboard","","","","tol_peg_1","591","591","0","[[2,1,0],[3,0],[0]]","11","[[2,1,0],[3,0],[0]]","8","0","","","","","","6","","","","","","","","",""
"","","","","","poldrack-single-stim","161","413863","0.0-2.0-35.0","5d16ab9b59da87001ac41a61","F1","batch6","","-1","tol_feedback","","","true","","1000","1000","500","","","","","","-1","none","true","8671","23361","","","","","","","","","",""
"","","","","","html-button-response","162","414967","0.0-2.0-36.0","5d16ab9b59da87001ac41a61","F1","batch6","","1104","tol_trial_num","<div class = centerbox><p class = center-block-text>problem <strong>10</strong> out of 25 problems</p></div>","0","","","","","","","","","","","","","","","","","","","","","","","","",""
"","","","","","single-stim-button","163","420551","0.0-2.0-37.0-0.0","5d16ab9b59da87001ac41a61","F1","batch6","","5583","tol_tohand","","","","tol_peg_3","5583","5583","0","[[3,0,0],[1,0],[0]]","1","[[3,0,0],[2,1],[0]]","9","0","","","","","","3","","","","","","","","",""
"","","","","","single-stim-button","164","421591","0.0-2.0-37.0-1.0","5d16ab9b59da87001ac41a61","F1","batch6","","1039","tol_toboard","","","","tol_peg_1","1039","1039","0","[[3,2,0],[1,0],[0]]","1","[[3,0,0],[2,1],[0]]","9","0","","","","","","3","","","","","","","","",""
"","","","","","single-stim-button","165","422432","0.0-2.0-37.1-0.1","5d16ab9b59da87001ac41a61","F1","batch6","","839","tol_tohand","","","","tol_peg_2","839","839","0","[[3,2,0],[0,0],[0]]","2","[[3,0,0],[2,1],[0]]","9","0","","","","","","3","","","","","","","","",""
"","","","","","single-stim-button","166","423152","0.0-2.0-37.1-1.1","5d16ab9b59da87001ac41a61","F1","batch6","","719","tol_toboard","","","","tol_peg_3","719","719","0","[[3,2,0],[0,0],[1]]","2","[[3,0,0],[2,1],[0]]","9","0","","","","","","3","","","","","","","","",""
"","","","","","single-stim-button","167","424039","0.0-2.0-37.2-0.2","5d16ab9b59da87001ac41a61","F1","batch6","","887","tol_tohand","","","","tol_peg_1","887","887","0","[[3,0,0],[0,0],[1]]","3","[[3,0,0],[2,1],[0]]","9","0","","","","","","3","","","","","","","","",""
"","","","","","single-stim-button","168","424680","0.0-2.0-37.2-1.2","5d16ab9b59da87001ac41a61","F1","batch6","","639","tol_toboard","","","","tol_peg_2","639","639","0","[[3,0,0],[2,0],[1]]","3","[[3,0,0],[2,1],[0]]","9","0","","","","","","3","","","","","","","","",""
"","","","","","single-stim-button","169","425304","0.0-2.0-37.3-0.3","5d16ab9b59da87001ac41a61","F1","batch6","","624","tol_tohand","","","","tol_peg_3","624","624","0","[[3,0,0],[2,0],[0]]","4","[[3,0,0],[2,1],[0]]","9","0","","","","","","3","","","","","","","","",""
"","","","","","single-stim-button","170","425831","0.0-2.0-37.3-1.3","5d16ab9b59da87001ac41a61","F1","batch6","","527","tol_toboard","","","","tol_peg_2","527","527","0","[[3,0,0],[2,1],[0]]","4","[[3,0,0],[2,1],[0]]","9","0","","","","","","3","","","","","","","","",""
"","","","","","poldrack-single-stim","171","426834","0.0-2.0-38.0","5d16ab9b59da87001ac41a61","F1","batch6","","-1","tol_feedback","","","true","","1000","1000","500","","","","","","-1","none","true","5583","7933","","","","","","","","","",""
"","","","","","html-button-response","172","427849","0.0-2.0-39.0","5d16ab9b59da87001ac41a61","F1","batch6","","1013","tol_trial_num","<div class = centerbox><p class = center-block-text>problem <strong>11</strong> out of 25 problems</p></div>","0","","","","","","","","","","","","","","","","","","","","","","","","",""
"","","","","","single-stim-button","173","431664","0.0-2.0-40.0-0.0","5d16ab9b59da87001ac41a61","F1","batch6","","3815","tol_tohand","","","","tol_peg_2","3815","3815","0","[[1,2,0],[0,0],[0]]","1","[[2,0,0],[1,3],[0]]","10","0","","","","","","6","","","","","","","","",""
"","","","","","single-stim-button","174","432359","0.0-2.0-40.0-1.0","5d16ab9b59da87001ac41a61","F1","batch6","","694","tol_toboard","","","","tol_peg_3","694","694","0","[[1,2,0],[0,0],[3]]","1","[[2,0,0],[1,3],[0]]","10","0","","","","","","6","","","","","","","","",""
"","","","","","single-stim-button","175","435511","0.0-2.0-40.1-0.1","5d16ab9b59da87001ac41a61","F1","batch6","","3151","tol_tohand","","","","tol_peg_1","3151","3151","0","[[1,0,0],[0,0],[3]]","2","[[2,0,0],[1,3],[0]]","10","0","","","","","","6","","","","","","","","",""
"","","","","","single-stim-button","176","440255","0.0-2.0-40.1-1.1","5d16ab9b59da87001ac41a61","F1","batch6","","4743","tol_toboard","","","","tol_peg_2","4743","4743","0","[[1,0,0],[2,0],[3]]","2","[[2,0,0],[1,3],[0]]","10","0","","","","","","6","","","","","","","","",""
"","","","","","single-stim-button","177","442879","0.0-2.0-40.2-0.2","5d16ab9b59da87001ac41a61","F1","batch6","","2623","tol_tohand","","","","tol_peg_1","2623","2623","0","[[0,0,0],[2,0],[3]]","3","[[2,0,0],[1,3],[0]]","10","0","","","","","","6","","","","","","","","",""
"","","","","","single-stim-button","178","443079","0.0-2.0-40.2-1.2","5d16ab9b59da87001ac41a61","F1","batch6","","199","tol_toboard","","","","tol_peg_1","199","199","0","[[1,0,0],[2,0],[3]]","3","[[2,0,0],[1,3],[0]]","10","0","","","","","","6","","","","","","","","",""
"","","","","","single-stim-button","179","444384","0.0-2.0-40.3-0.3","5d16ab9b59da87001ac41a61","F1","batch6","","1304","tol_tohand","","","","tol_peg_3","1304","1304","0","[[1,0,0],[2,0],[0]]","4","[[2,0,0],[1,3],[0]]","10","0","","","","","","6","","","","","","","","",""
"","","","","","single-stim-button","180","444855","0.0-2.0-40.3-1.3","5d16ab9b59da87001ac41a61","F1","batch6","","471","tol_toboard","","","","tol_peg_2","471","471","0","[[1,0,0],[2,3],[0]]","4","[[2,0,0],[1,3],[0]]","10","0","","","","","","6","","","","","","","","",""
"","","","","","single-stim-button","181","445543","0.0-2.0-40.4-0.4","5d16ab9b59da87001ac41a61","F1","batch6","","687","tol_tohand","","","","tol_peg_1","687","687","0","[[0,0,0],[2,3],[0]]","5","[[2,0,0],[1,3],[0]]","10","0","","","","","","6","","","","","","","","",""
"","","","","","single-stim-button","182","446335","0.0-2.0-40.4-1.4","5d16ab9b59da87001ac41a61","F1","batch6","","791","tol_toboard","","","","tol_peg_3","791","791","0","[[0,0,0],[2,3],[1]]","5","[[2,0,0],[1,3],[0]]","10","0","","","","","","6","","","","","","","","",""
"","","","","","single-stim-button","183","448303","0.0-2.0-40.5-0.5","5d16ab9b59da87001ac41a61","F1","batch6","","1967","tol_tohand","","","","tol_peg_2","1967","1967","0","[[0,0,0],[2,0],[1]]","6","[[2,0,0],[1,3],[0]]","10","0","","","","","","6","","","","","","","","",""
"","","","","","single-stim-button","184","449727","0.0-2.0-40.5-1.5","5d16ab9b59da87001ac41a61","F1","batch6","","1424","tol_toboard","","","","tol_peg_1","1424","1424","0","[[3,0,0],[2,0],[1]]","6","[[2,0,0],[1,3],[0]]","10","0","","","","","","6","","","","","","","","",""
"","","","","","single-stim-button","185","451839","0.0-2.0-40.6-0.6","5d16ab9b59da87001ac41a61","F1","batch6","","2111","tol_tohand","","","","tol_peg_2","2111","2111","0","[[3,0,0],[0,0],[1]]","7","[[2,0,0],[1,3],[0]]","10","0","","","","","","6","","","","","","","","",""
"","","","","","single-stim-button","186","452479","0.0-2.0-40.6-1.6","5d16ab9b59da87001ac41a61","F1","batch6","","639","tol_toboard","","","","tol_peg_1","639","639","0","[[3,2,0],[0,0],[1]]","7","[[2,0,0],[1,3],[0]]","10","0","","","","","","6","","","","","","","","",""
"","","","","","single-stim-button","187","453319","0.0-2.0-40.7-0.7","5d16ab9b59da87001ac41a61","F1","batch6","","839","tol_tohand","","","","tol_peg_3","839","839","0","[[3,2,0],[0,0],[0]]","8","[[2,0,0],[1,3],[0]]","10","0","","","","","","6","","","","","","","","",""
"","","","","","single-stim-button","188","453879","0.0-2.0-40.7-1.7","5d16ab9b59da87001ac41a61","F1","batch6","","559","tol_toboard","","","","tol_peg_2","559","559","0","[[3,2,0],[1,0],[0]]","8","[[2,0,0],[1,3],[0]]","10","0","","","","","","6","","","","","","","","",""
"","","","","","single-stim-button","189","454959","0.0-2.0-40.8-0.8","5d16ab9b59da87001ac41a61","F1","batch6","","1079","tol_tohand","","","","tol_peg_1","1079","1079","0","[[3,0,0],[1,0],[0]]","9","[[2,0,0],[1,3],[0]]","10","0","","","","","","6","","","","","","","","",""
"","","","","","single-stim-button","190","456495","0.0-2.0-40.8-1.8","5d16ab9b59da87001ac41a61","F1","batch6","","1536","tol_toboard","","","","tol_peg_3","1536","1536","0","[[3,0,0],[1,0],[2]]","9","[[2,0,0],[1,3],[0]]","10","0","","","","","","6","","","","","","","","",""
"","","","","","single-stim-button","191","457255","0.0-2.0-40.9-0.9","5d16ab9b59da87001ac41a61","F1","batch6","","759","tol_tohand","","","","tol_peg_1","759","759","0","[[0,0,0],[1,0],[2]]","10","[[2,0,0],[1,3],[0]]","10","0","","","","","","6","","","","","","","","",""
"","","","","","single-stim-button","192","457863","0.0-2.0-40.9-1.9","5d16ab9b59da87001ac41a61","F1","batch6","","608","tol_toboard","","","","tol_peg_2","608","608","0","[[0,0,0],[1,3],[2]]","10","[[2,0,0],[1,3],[0]]","10","0","","","","","","6","","","","","","","","",""
"","","","","","single-stim-button","193","458831","0.0-2.0-40.10-0.10","5d16ab9b59da87001ac41a61","F1","batch6","","967","tol_tohand","","","","tol_peg_3","967","967","0","[[0,0,0],[1,3],[0]]","11","[[2,0,0],[1,3],[0]]","10","0","","","","","","6","","","","","","","","",""
"","","","","","single-stim-button","194","459575","0.0-2.0-40.10-1.10","5d16ab9b59da87001ac41a61","F1","batch6","","743","tol_toboard","","","","tol_peg_1","743","743","0","[[2,0,0],[1,3],[0]]","11","[[2,0,0],[1,3],[0]]","10","0","","","","","","6","","","","","","","","",""
"","","","","","poldrack-single-stim","195","460577","0.0-2.0-41.0","5d16ab9b59da87001ac41a61","F1","batch6","","-1","tol_feedback","","","true","","1000","1000","500","","","","","","-1","none","true","3815","19302","","","","","","","","","",""
"","","","","","html-button-response","196","462319","0.0-2.0-42.0","5d16ab9b59da87001ac41a61","F1","batch6","","1741","tol_trial_num","<div class = centerbox><p class = center-block-text>problem <strong>12</strong> out of 25 problems</p></div>","0","","","","","","","","","","","","","","","","","","","","","","","","",""
"","","","","","single-stim-button","197","465063","0.0-2.0-43.0-0.0","5d16ab9b59da87001ac41a61","F1","batch6","","2744","tol_tohand","","","","tol_peg_1","2744","2744","0","[[1,0,0],[3,0],[0]]","1","[[2,3,0],[0,0],[1]]","11","0","","","","","","4","","","","","","","","",""
"","","","","","single-stim-button","198","465800","0.0-2.0-43.0-1.0","5d16ab9b59da87001ac41a61","F1","batch6","","735","tol_toboard","","","","tol_peg_2","735","735","0","[[1,0,0],[3,2],[0]]","1","[[2,3,0],[0,0],[1]]","11","0","","","","","","4","","","","","","","","",""
"","","","","","single-stim-button","199","466543","0.0-2.0-43.1-0.1","5d16ab9b59da87001ac41a61","F1","batch6","","743","tol_tohand","","","","tol_peg_1","743","743","0","[[0,0,0],[3,2],[0]]","2","[[2,3,0],[0,0],[1]]","11","0","","","","","","4","","","","","","","","",""
"","","","","","single-stim-button","200","467407","0.0-2.0-43.1-1.1","5d16ab9b59da87001ac41a61","F1","batch6","","864","tol_toboard","","","","tol_peg_3","864","864","0","[[0,0,0],[3,2],[1]]","2","[[2,3,0],[0,0],[1]]","11","0","","","","","","4","","","","","","","","",""
"","","","","","single-stim-button","201","469959","0.0-2.0-43.2-0.2","5d16ab9b59da87001ac41a61","F1","batch6","","2552","tol_tohand","","","","tol_peg_2","2552","2552","0","[[0,0,0],[3,0],[1]]","3","[[2,3,0],[0,0],[1]]","11","0","","","","","","4","","","","","","","","",""
"","","","","","single-stim-button","202","470519","0.0-2.0-43.2-1.2","5d16ab9b59da87001ac41a61","F1","batch6","","560","tol_toboard","","","","tol_peg_1","560","560","0","[[2,0,0],[3,0],[1]]","3","[[2,3,0],[0,0],[1]]","11","0","","","","","","4","","","","","","","","",""
"","","","","","single-stim-button","203","471359","0.0-2.0-43.3-0.3","5d16ab9b59da87001ac41a61","F1","batch6","","840","tol_tohand","","","","tol_peg_2","840","840","0","[[2,0,0],[0,0],[1]]","4","[[2,3,0],[0,0],[1]]","11","0","","","","","","4","","","","","","","","",""
"","","","","","single-stim-button","204","472055","0.0-2.0-43.3-1.3","5d16ab9b59da87001ac41a61","F1","batch6","","696","tol_toboard","","","","tol_peg_1","696","696","0","[[2,3,0],[0,0],[1]]","4","[[2,3,0],[0,0],[1]]","11","0","","","","","","4","","","","","","","","",""
"","","","","","poldrack-single-stim","205","473057","0.0-2.0-44.0","5d16ab9b59da87001ac41a61","F1","batch6","","-1","tol_feedback","","","true","","1000","1000","500","","","","","","-1","none","true","2744","6879","","","","","","","","","",""
"","","","","","html-button-response","206","474391","0.0-2.0-45.0","5d16ab9b59da87001ac41a61","F1","batch6","","1333","tol_trial_num","<div class = centerbox><p class = center-block-text>problem <strong>13</strong> out of 25 problems</p></div>","0","","","","","","","","","","","","","","","","","","","","","","","","",""
"","","","","","single-stim-button","207","477215","0.0-2.0-46.0-0.0","5d16ab9b59da87001ac41a61","F1","batch6","","2824","tol_tohand","","","","tol_peg_1","2824","2824","0","[[1,0,0],[3,0],[0]]","1","[[0,0,0],[2,3],[1]]","12","0","","","","","","4","","","","","","","","",""
"","","","","","single-stim-button","208","477800","0.0-2.0-46.0-1.0","5d16ab9b59da87001ac41a61","F1","batch6","","583","tol_toboard","","","","tol_peg_2","583","583","0","[[1,0,0],[3,2],[0]]","1","[[0,0,0],[2,3],[1]]","12","0","","","","","","4","","","","","","","","",""
"","","","","","single-stim-button","209","478455","0.0-2.0-46.1-0.1","5d16ab9b59da87001ac41a61","F1","batch6","","655","tol_tohand","","","","tol_peg_1","655","655","0","[[0,0,0],[3,2],[0]]","2","[[0,0,0],[2,3],[1]]","12","0","","","","","","4","","","","","","","","",""
"","","","","","single-stim-button","210","479367","0.0-2.0-46.1-1.1","5d16ab9b59da87001ac41a61","F1","batch6","","912","tol_toboard","","","","tol_peg_3","912","912","0","[[0,0,0],[3,2],[1]]","2","[[0,0,0],[2,3],[1]]","12","0","","","","","","4","","","","","","","","",""
"","","","","","single-stim-button","211","480207","0.0-2.0-46.2-0.2","5d16ab9b59da87001ac41a61","F1","batch6","","840","tol_tohand","","","","tol_peg_2","840","840","0","[[0,0,0],[3,0],[1]]","3","[[0,0,0],[2,3],[1]]","12","0","","","","","","4","","","","","","","","",""
"","","","","","single-stim-button","212","480927","0.0-2.0-46.2-1.2","5d16ab9b59da87001ac41a61","F1","batch6","","719","tol_toboard","","","","tol_peg_1","719","719","0","[[2,0,0],[3,0],[1]]","3","[[0,0,0],[2,3],[1]]","12","0","","","","","","4","","","","","","","","",""
"","","","","","single-stim-button","213","481583","0.0-2.0-46.3-0.3","5d16ab9b59da87001ac41a61","F1","batch6","","655","tol_tohand","","","","tol_peg_2","655","655","0","[[2,0,0],[0,0],[1]]","4","[[0,0,0],[2,3],[1]]","12","0","","","","","","4","","","","","","","","",""
"","","","","","single-stim-button","214","482287","0.0-2.0-46.3-1.3","5d16ab9b59da87001ac41a61","F1","batch6","","704","tol_toboard","","","","tol_peg_1","704","704","0","[[2,3,0],[0,0],[1]]","4","[[0,0,0],[2,3],[1]]","12","0","","","","","","4","","","","","","","","",""
"","","","","","single-stim-button","215","490775","0.0-2.0-46.4-0.4","5d16ab9b59da87001ac41a61","F1","batch6","","8488","tol_tohand","","","","tol_peg_1","8488","8488","0","[[2,0,0],[0,0],[1]]","5","[[0,0,0],[2,3],[1]]","12","0","","","","","","4","","","","","","","","",""
"","","","","","single-stim-button","216","492399","0.0-2.0-46.4-1.4","5d16ab9b59da87001ac41a61","F1","batch6","","1623","tol_toboard","","","","tol_peg_2","1623","1623","0","[[2,0,0],[3,0],[1]]","5","[[0,0,0],[2,3],[1]]","12","0","","","","","","4","","","","","","","","",""
"","","","","","single-stim-button","217","498087","0.0-2.0-46.5-0.5","5d16ab9b59da87001ac41a61","F1","batch6","","5688","tol_tohand","","","","tol_peg_3","5688","5688","0","[[2,0,0],[3,0],[0]]","6","[[0,0,0],[2,3],[1]]","12","0","","","","","","4","","","","","","","","",""
"","","","","","single-stim-button","218","498799","0.0-2.0-46.5-1.5","5d16ab9b59da87001ac41a61","F1","batch6","","711","tol_toboard","","","","tol_peg_2","711","711","0","[[2,0,0],[3,1],[0]]","6","[[0,0,0],[2,3],[1]]","12","0","","","","","","4","","","","","","","","",""
"","","","","","single-stim-button","219","499440","0.0-2.0-46.6-0.6","5d16ab9b59da87001ac41a61","F1","batch6","","640","tol_tohand","","","","tol_peg_1","640","640","0","[[0,0,0],[3,1],[0]]","7","[[0,0,0],[2,3],[1]]","12","0","","","","","","4","","","","","","","","",""
"","","","","","single-stim-button","220","500144","0.0-2.0-46.6-1.6","5d16ab9b59da87001ac41a61","F1","batch6","","703","tol_toboard","","","","tol_peg_3","703","703","0","[[0,0,0],[3,1],[2]]","7","[[0,0,0],[2,3],[1]]","12","0","","","","","","4","","","","","","","","",""
"","","","","","single-stim-button","221","501911","0.0-2.0-46.7-0.7","5d16ab9b59da87001ac41a61","F1","batch6","","1767","tol_tohand","","","","tol_peg_2","1767","1767","0","[[0,0,0],[3,0],[2]]","8","[[0,0,0],[2,3],[1]]","12","0","","","","","","4","","","","","","","","",""
"","","","","","single-stim-button","222","502615","0.0-2.0-46.7-1.7","5d16ab9b59da87001ac41a61","F1","batch6","","704","tol_toboard","","","","tol_peg_1","704","704","0","[[1,0,0],[3,0],[2]]","8","[[0,0,0],[2,3],[1]]","12","0","","","","","","4","","","","","","","","",""
"","","","","","single-stim-button","223","503455","0.0-2.0-46.8-0.8","5d16ab9b59da87001ac41a61","F1","batch6","","839","tol_tohand","","","","tol_peg_2","839","839","0","[[1,0,0],[0,0],[2]]","9","[[0,0,0],[2,3],[1]]","12","0","","","","","","4","","","","","","","","",""
"","","","","","single-stim-button","224","504015","0.0-2.0-46.8-1.8","5d16ab9b59da87001ac41a61","F1","batch6","","560","tol_toboard","","","","tol_peg_1","560","560","0","[[1,3,0],[0,0],[2]]","9","[[0,0,0],[2,3],[1]]","12","0","","","","","","4","","","","","","","","",""
"","","","","","single-stim-button","225","504799","0.0-2.0-46.9-0.9","5d16ab9b59da87001ac41a61","F1","batch6","","783","tol_tohand","","","","tol_peg_3","783","783","0","[[1,3,0],[0,0],[0]]","10","[[0,0,0],[2,3],[1]]","12","0","","","","","","4","","","","","","","","",""
"","","","","","single-stim-button","226","505336","0.0-2.0-46.9-1.9","5d16ab9b59da87001ac41a61","F1","batch6","","535","tol_toboard","","","","tol_peg_2","535","535","0","[[1,3,0],[2,0],[0]]","10","[[0,0,0],[2,3],[1]]","12","0","","","","","","4","","","","","","","","",""
"","","","","","single-stim-button","227","505935","0.0-2.0-46.10-0.10","5d16ab9b59da87001ac41a61","F1","batch6","","599","tol_tohand","","","","tol_peg_1","599","599","0","[[1,0,0],[2,0],[0]]","11","[[0,0,0],[2,3],[1]]","12","0","","","","","","4","","","","","","","","",""
"","","","","","single-stim-button","228","506543","0.0-2.0-46.10-1.10","5d16ab9b59da87001ac41a61","F1","batch6","","608","tol_toboard","","","","tol_peg_2","608","608","0","[[1,0,0],[2,3],[0]]","11","[[0,0,0],[2,3],[1]]","12","0","","","","","","4","","","","","","","","",""
"","","","","","single-stim-button","229","507256","0.0-2.0-46.11-0.11","5d16ab9b59da87001ac41a61","F1","batch6","","712","tol_tohand","","","","tol_peg_1","712","712","0","[[0,0,0],[2,3],[0]]","12","[[0,0,0],[2,3],[1]]","12","0","","","","","","4","","","","","","","","",""
"","","","","","single-stim-button","230","507919","0.0-2.0-46.11-1.11","5d16ab9b59da87001ac41a61","F1","batch6","","663","tol_toboard","","","","tol_peg_3","663","663","0","[[0,0,0],[2,3],[1]]","12","[[0,0,0],[2,3],[1]]","12","0","","","","","","4","","","","","","","","",""
"","","","","","poldrack-single-stim","231","508921","0.0-2.0-47.0","5d16ab9b59da87001ac41a61","F1","batch6","","-1","tol_feedback","","","true","","1000","1000","500","","","","","","-1","none","true","2824","24490","","","","","","","","","",""
"","","","","","html-button-response","232","511551","0.0-2.0-48.0","5d16ab9b59da87001ac41a61","F1","batch6","","2630","attention_check","<p class = block-text>How many balls are in your board<br></p>","1","true","","","","","","","","","","","","","","","","","","","","","","","",""
"","","","","","html-button-response","233","513079","0.0-2.0-49.0","5d16ab9b59da87001ac41a61","F1","batch6","","1527","tol_trial_num","<div class = centerbox><p class = center-block-text>problem <strong>14</strong> out of 25 problems</p></div>","0","","","","","","","","","","","","","","","","","","","","","","","","",""
"","","","","","single-stim-button","234","516727","0.0-2.0-50.0-0.0","5d16ab9b59da87001ac41a61","F1","batch6","","3648","tol_tohand","","","","tol_peg_1","3648","3648","0","[[2,0,0],[3,0],[0]]","1","[[1,2,0],[3,0],[0]]","13","0","","","","","","4","","","","","","","","",""
"","","","","","single-stim-button","235","518439","0.0-2.0-50.0-1.0","5d16ab9b59da87001ac41a61","F1","batch6","","1712","tol_toboard","","","","tol_peg_3","1712","1712","0","[[2,0,0],[3,0],[1]]","1","[[1,2,0],[3,0],[0]]","13","0","","","","","","4","","","","","","","","",""
"","","","","","single-stim-button","236","519951","0.0-2.0-50.1-0.1","5d16ab9b59da87001ac41a61","F1","batch6","","1512","tol_tohand","","","","tol_peg_1","1512","1512","0","[[0,0,0],[3,0],[1]]","2","[[1,2,0],[3,0],[0]]","13","0","","","","","","4","","","","","","","","",""
"","","","","","single-stim-button","237","520703","0.0-2.0-50.1-1.1","5d16ab9b59da87001ac41a61","F1","batch6","","752","tol_toboard","","","","tol_peg_2","752","752","0","[[0,0,0],[3,2],[1]]","2","[[1,2,0],[3,0],[0]]","13","0","","","","","","4","","","","","","","","",""
"","","","","","single-stim-button","238","521415","0.0-2.0-50.2-0.2","5d16ab9b59da87001ac41a61","F1","batch6","","712","tol_tohand","","","","tol_peg_3","712","712","0","[[0,0,0],[3,2],[0]]","3","[[1,2,0],[3,0],[0]]","13","0","","","","","","4","","","","","","","","",""
"","","","","","single-stim-button","239","522159","0.0-2.0-50.2-1.2","5d16ab9b59da87001ac41a61","F1","batch6","","744","tol_toboard","","","","tol_peg_1","744","744","0","[[1,0,0],[3,2],[0]]","3","[[1,2,0],[3,0],[0]]","13","0","","","","","","4","","","","","","","","",""
"","","","","","single-stim-button","240","522783","0.0-2.0-50.3-0.3","5d16ab9b59da87001ac41a61","F1","batch6","","624","tol_tohand","","","","tol_peg_2","624","624","0","[[1,0,0],[3,0],[0]]","4","[[1,2,0],[3,0],[0]]","13","0","","","","","","4","","","","","","","","",""
"","","","","","single-stim-button","241","523320","0.0-2.0-50.3-1.3","5d16ab9b59da87001ac41a61","F1","batch6","","536","tol_toboard","","","","tol_peg_1","536","536","0","[[1,2,0],[3,0],[0]]","4","[[1,2,0],[3,0],[0]]","13","0","","","","","","4","","","","","","","","",""
"","","","","","poldrack-single-stim","242","524325","0.0-2.0-51.0","5d16ab9b59da87001ac41a61","F1","batch6","","-1","tol_feedback","","","true","","1000","1000","500","","","","","","-1","none","true","3648","6496","","","","","","","","","",""
"","","","","","html-button-response","243","525407","0.0-2.0-52.0","5d16ab9b59da87001ac41a61","F1","batch6","","1082","tol_trial_num","<div class = centerbox><p class = center-block-text>problem <strong>15</strong> out of 25 problems</p></div>","0","","","","","","","","","","","","","","","","","","","","","","","","",""
"","","","","","single-stim-button","244","528503","0.0-2.0-53.0-0.0","5d16ab9b59da87001ac41a61","F1","batch6","","3096","tol_tohand","","","","tol_peg_1","3096","3096","0","[[1,0,0],[3,0],[0]]","1","[[2,0,0],[3,0],[1]]","14","0","","","","","","3","","","","","","","","",""
"","","","","","single-stim-button","245","529263","0.0-2.0-53.0-1.0","5d16ab9b59da87001ac41a61","F1","batch6","","759","tol_toboard","","","","tol_peg_2","759","759","0","[[1,0,0],[3,2],[0]]","1","[[2,0,0],[3,0],[1]]","14","0","","","","","","3","","","","","","","","",""
"","","","","","single-stim-button","246","529943","0.0-2.0-53.1-0.1","5d16ab9b59da87001ac41a61","F1","batch6","","679","tol_tohand","","","","tol_peg_1","679","679","0","[[0,0,0],[3,2],[0]]","2","[[2,0,0],[3,0],[1]]","14","0","","","","","","3","","","","","","","","",""
"","","","","","single-stim-button","247","530751","0.0-2.0-53.1-1.1","5d16ab9b59da87001ac41a61","F1","batch6","","808","tol_toboard","","","","tol_peg_3","808","808","0","[[0,0,0],[3,2],[1]]","2","[[2,0,0],[3,0],[1]]","14","0","","","","","","3","","","","","","","","",""
"","","","","","single-stim-button","248","531735","0.0-2.0-53.2-0.2","5d16ab9b59da87001ac41a61","F1","batch6","","984","tol_tohand","","","","tol_peg_2","984","984","0","[[0,0,0],[3,0],[1]]","3","[[2,0,0],[3,0],[1]]","14","0","","","","","","3","","","","","","","","",""
"","","","","","single-stim-button","249","532495","0.0-2.0-53.2-1.2","5d16ab9b59da87001ac41a61","F1","batch6","","760","tol_toboard","","","","tol_peg_1","760","760","0","[[2,0,0],[3,0],[1]]","3","[[2,0,0],[3,0],[1]]","14","0","","","","","","3","","","","","","","","",""
"","","","","","poldrack-single-stim","250","533501","0.0-2.0-54.0","5d16ab9b59da87001ac41a61","F1","batch6","","-1","tol_feedback","","","true","","1000","1000","500","","","","","","-1","none","true","3096","4759","","","","","","","","","",""
"","","","","","html-button-response","251","534791","0.0-2.0-55.0","5d16ab9b59da87001ac41a61","F1","batch6","","1289","tol_trial_num","<div class = centerbox><p class = center-block-text>problem <strong>16</strong> out of 25 problems</p></div>","0","","","","","","","","","","","","","","","","","","","","","","","","",""
"","","","","","single-stim-button","252","540424","0.0-2.0-56.0-0.0","5d16ab9b59da87001ac41a61","F1","batch6","","5632","tol_tohand","","","","tol_peg_3","5632","5632","0","[[0,0,0],[2,3],[0]]","1","[[2,3,0],[1,0],[0]]","15","0","","","","","","7","","","","","","","","",""
"","","","","","single-stim-button","253","541167","0.0-2.0-56.0-1.0","5d16ab9b59da87001ac41a61","F1","batch6","","743","tol_toboard","","","","tol_peg_1","743","743","0","[[1,0,0],[2,3],[0]]","1","[[2,3,0],[1,0],[0]]","15","0","","","","","","7","","","","","","","","",""
"","","","","","single-stim-button","254","541839","0.0-2.0-56.1-0.1","5d16ab9b59da87001ac41a61","F1","batch6","","671","tol_tohand","","","","tol_peg_2","671","671","0","[[1,0,0],[2,0],[0]]","2","[[2,3,0],[1,0],[0]]","15","0","","","","","","7","","","","","","","","",""
"","","","","","single-stim-button","255","542839","0.0-2.0-56.1-1.1","5d16ab9b59da87001ac41a61","F1","batch6","","1000","tol_toboard","","","","tol_peg_1","1000","1000","0","[[1,3,0],[2,0],[0]]","2","[[2,3,0],[1,0],[0]]","15","0","","","","","","7","","","","","","","","",""
"","","","","","single-stim-button","256","544767","0.0-2.0-56.2-0.2","5d16ab9b59da87001ac41a61","F1","batch6","","1928","tol_tohand","","","","tol_peg_2","1928","1928","0","[[1,3,0],[0,0],[0]]","3","[[2,3,0],[1,0],[0]]","15","0","","","","","","7","","","","","","","","",""
"","","","","","single-stim-button","257","545383","0.0-2.0-56.2-1.2","5d16ab9b59da87001ac41a61","F1","batch6","","616","tol_toboard","","","","tol_peg_3","616","616","0","[[1,3,0],[0,0],[2]]","3","[[2,3,0],[1,0],[0]]","15","0","","","","","","7","","","","","","","","",""
"","","","","","single-stim-button","258","547551","0.0-2.0-56.3-0.3","5d16ab9b59da87001ac41a61","F1","batch6","","2168","tol_tohand","","","","tol_peg_1","2168","2168","0","[[1,0,0],[0,0],[2]]","4","[[2,3,0],[1,0],[0]]","15","0","","","","","","7","","","","","","","","",""
"","","","","","single-stim-button","259","548375","0.0-2.0-56.3-1.3","5d16ab9b59da87001ac41a61","F1","batch6","","823","tol_toboard","","","","tol_peg_2","823","823","0","[[1,0,0],[3,0],[2]]","4","[[2,3,0],[1,0],[0]]","15","0","","","","","","7","","","","","","","","",""
"","","","","","single-stim-button","260","549175","0.0-2.0-56.4-0.4","5d16ab9b59da87001ac41a61","F1","batch6","","800","tol_tohand","","","","tol_peg_1","800","800","0","[[0,0,0],[3,0],[2]]","5","[[2,3,0],[1,0],[0]]","15","0","","","","","","7","","","","","","","","",""
"","","","","","single-stim-button","261","549823","0.0-2.0-56.4-1.4","5d16ab9b59da87001ac41a61","F1","batch6","","648","tol_toboard","","","","tol_peg_2","648","648","0","[[0,0,0],[3,1],[2]]","5","[[2,3,0],[1,0],[0]]","15","0","","","","","","7","","","","","","","","",""
"","","","","","single-stim-button","262","550847","0.0-2.0-56.5-0.5","5d16ab9b59da87001ac41a61","F1","batch6","","1024","tol_tohand","","","","tol_peg_3","1024","1024","0","[[0,0,0],[3,1],[0]]","6","[[2,3,0],[1,0],[0]]","15","0","","","","","","7","","","","","","","","",""
"","","","","","single-stim-button","263","551432","0.0-2.0-56.5-1.5","5d16ab9b59da87001ac41a61","F1","batch6","","584","tol_toboard","","","","tol_peg_1","584","584","0","[[2,0,0],[3,1],[0]]","6","[[2,3,0],[1,0],[0]]","15","0","","","","","","7","","","","","","","","",""
"","","","","","single-stim-button","264","553183","0.0-2.0-56.6-0.6","5d16ab9b59da87001ac41a61","F1","batch6","","1751","tol_tohand","","","","tol_peg_2","1751","1751","0","[[2,0,0],[3,0],[0]]","7","[[2,3,0],[1,0],[0]]","15","0","","","","","","7","","","","","","","","",""
"","","","","","single-stim-button","265","553959","0.0-2.0-56.6-1.6","5d16ab9b59da87001ac41a61","F1","batch6","","774","tol_toboard","","","","tol_peg_3","774","774","0","[[2,0,0],[3,0],[1]]","7","[[2,3,0],[1,0],[0]]","15","0","","","","","","7","","","","","","","","",""
"","","","","","single-stim-button","266","554687","0.0-2.0-56.7-0.7","5d16ab9b59da87001ac41a61","F1","batch6","","727","tol_tohand","","","","tol_peg_2","727","727","0","[[2,0,0],[0,0],[1]]","8","[[2,3,0],[1,0],[0]]","15","0","","","","","","7","","","","","","","","",""
"","","","","","single-stim-button","267","555351","0.0-2.0-56.7-1.7","5d16ab9b59da87001ac41a61","F1","batch6","","663","tol_toboard","","","","tol_peg_1","663","663","0","[[2,3,0],[0,0],[1]]","8","[[2,3,0],[1,0],[0]]","15","0","","","","","","7","","","","","","","","",""
"","","","","","single-stim-button","268","556127","0.0-2.0-56.8-0.8","5d16ab9b59da87001ac41a61","F1","batch6","","775","tol_tohand","","","","tol_peg_3","775","775","0","[[2,3,0],[0,0],[0]]","9","[[2,3,0],[1,0],[0]]","15","0","","","","","","7","","","","","","","","",""
"","","","","","single-stim-button","269","556703","0.0-2.0-56.8-1.8","5d16ab9b59da87001ac41a61","F1","batch6","","575","tol_toboard","","","","tol_peg_2","575","575","0","[[2,3,0],[1,0],[0]]","9","[[2,3,0],[1,0],[0]]","15","0","","","","","","7","","","","","","","","",""
"","","","","","poldrack-single-stim","270","557717","0.0-2.0-57.0","5d16ab9b59da87001ac41a61","F1","batch6","","-1","tol_feedback","","","true","","1000","1000","500","","","","","","-1","none","true","5632","15476","","","","","","","","","",""
"","","","","","html-button-response","271","558871","0.0-2.0-58.0","5d16ab9b59da87001ac41a61","F1","batch6","","1153","tol_trial_num","<div class = centerbox><p class = center-block-text>problem <strong>17</strong> out of 25 problems</p></div>","0","","","","","","","","","","","","","","","","","","","","","","","","",""
"","","","","","single-stim-button","272","562847","0.0-2.0-59.0-0.0","5d16ab9b59da87001ac41a61","F1","batch6","","3975","tol_tohand","","","","tol_peg_2","3975","3975","0","[[1,2,0],[0,0],[0]]","1","[[3,1,0],[2,0],[0]]","16","0","","","","","","5","","","","","","","","",""
"","","","","","single-stim-button","273","563479","0.0-2.0-59.0-1.0","5d16ab9b59da87001ac41a61","F1","batch6","","631","tol_toboard","","","","tol_peg_3","631","631","0","[[1,2,0],[0,0],[3]]","1","[[3,1,0],[2,0],[0]]","16","0","","","","","","5","","","","","","","","",""
"","","","","","single-stim-button","274","564399","0.0-2.0-59.1-0.1","5d16ab9b59da87001ac41a61","F1","batch6","","920","tol_tohand","","","","tol_peg_1","920","920","0","[[1,0,0],[0,0],[3]]","2","[[3,1,0],[2,0],[0]]","16","0","","","","","","5","","","","","","","","",""
"","","","","","single-stim-button","275","564999","0.0-2.0-59.1-1.1","5d16ab9b59da87001ac41a61","F1","batch6","","600","tol_toboard","","","","tol_peg_2","600","600","0","[[1,0,0],[2,0],[3]]","2","[[3,1,0],[2,0],[0]]","16","0","","","","","","5","","","","","","","","",""
"","","","","","single-stim-button","276","566855","0.0-2.0-59.2-0.2","5d16ab9b59da87001ac41a61","F1","batch6","","1855","tol_tohand","","","","tol_peg_1","1855","1855","0","[[0,0,0],[2,0],[3]]","3","[[3,1,0],[2,0],[0]]","16","0","","","","","","5","","","","","","","","",""
"","","","","","single-stim-button","277","567439","0.0-2.0-59.2-1.2","5d16ab9b59da87001ac41a61","F1","batch6","","582","tol_toboard","","","","tol_peg_2","582","582","0","[[0,0,0],[2,1],[3]]","3","[[3,1,0],[2,0],[0]]","16","0","","","","","","5","","","","","","","","",""
"","","","","","single-stim-button","278","567999","0.0-2.0-59.3-0.3","5d16ab9b59da87001ac41a61","F1","batch6","","560","tol_tohand","","","","tol_peg_3","560","560","0","[[0,0,0],[2,1],[0]]","4","[[3,1,0],[2,0],[0]]","16","0","","","","","","5","","","","","","","","",""
"","","","","","single-stim-button","279","568791","0.0-2.0-59.3-1.3","5d16ab9b59da87001ac41a61","F1","batch6","","791","tol_toboard","","","","tol_peg_1","791","791","0","[[3,0,0],[2,1],[0]]","4","[[3,1,0],[2,0],[0]]","16","0","","","","","","5","","","","","","","","",""
"","","","","","single-stim-button","280","569751","0.0-2.0-59.4-0.4","5d16ab9b59da87001ac41a61","F1","batch6","","960","tol_tohand","","","","tol_peg_2","960","960","0","[[3,0,0],[2,0],[0]]","5","[[3,1,0],[2,0],[0]]","16","0","","","","","","5","","","","","","","","",""
"","","","","","single-stim-button","281","570375","0.0-2.0-59.4-1.4","5d16ab9b59da87001ac41a61","F1","batch6","","623","tol_toboard","","","","tol_peg_1","623","623","0","[[3,1,0],[2,0],[0]]","5","[[3,1,0],[2,0],[0]]","16","0","","","","","","5","","","","","","","","",""
"","","","","","poldrack-single-stim","282","571376","0.0-2.0-60.0","5d16ab9b59da87001ac41a61","F1","batch6","","-1","tol_feedback","","","true","","1000","1000","500","","","","","","-1","none","true","3975","8270","","","","","","","","","",""
"","","","","","html-button-response","283","573007","0.0-2.0-61.0","5d16ab9b59da87001ac41a61","F1","batch6","","1631","tol_trial_num","<div class = centerbox><p class = center-block-text>problem <strong>18</strong> out of 25 problems</p></div>","0","","","","","","","","","","","","","","","","","","","","","","","","",""
"","","","","","single-stim-button","284","585423","0.0-2.0-62.0-0.0","5d16ab9b59da87001ac41a61","F1","batch6","","12414","tol_tohand","","","","tol_peg_1","12414","12414","0","[[1,0,0],[3,0],[0]]","1","[[3,0,0],[2,0],[1]]","17","0","","","","","","5","","","","","","","","",""
"","","","","","single-stim-button","285","586311","0.0-2.0-62.0-1.0","5d16ab9b59da87001ac41a61","F1","batch6","","887","tol_toboard","","","","tol_peg_2","887","887","0","[[1,0,0],[3,2],[0]]","1","[[3,0,0],[2,0],[1]]","17","0","","","","","","5","","","","","","","","",""
"","","","","","single-stim-button","286","587023","0.0-2.0-62.1-0.1","5d16ab9b59da87001ac41a61","F1","batch6","","711","tol_tohand","","","","tol_peg_1","711","711","0","[[0,0,0],[3,2],[0]]","2","[[3,0,0],[2,0],[1]]","17","0","","","","","","5","","","","","","","","",""
"","","","","","single-stim-button","287","587727","0.0-2.0-62.1-1.1","5d16ab9b59da87001ac41a61","F1","batch6","","703","tol_toboard","","","","tol_peg_3","703","703","0","[[0,0,0],[3,2],[1]]","2","[[3,0,0],[2,0],[1]]","17","0","","","","","","5","","","","","","","","",""
"","","","","","single-stim-button","288","589223","0.0-2.0-62.2-0.2","5d16ab9b59da87001ac41a61","F1","batch6","","1495","tol_tohand","","","","tol_peg_2","1495","1495","0","[[0,0,0],[3,0],[1]]","3","[[3,0,0],[2,0],[1]]","17","0","","","","","","5","","","","","","","","",""
"","","","","","single-stim-button","289","589935","0.0-2.0-62.2-1.2","5d16ab9b59da87001ac41a61","F1","batch6","","711","tol_toboard","","","","tol_peg_2","711","711","0","[[0,0,0],[3,2],[1]]","3","[[3,0,0],[2,0],[1]]","17","0","","","","","","5","","","","","","","","",""
"","","","","","single-stim-button","290","590775","0.0-2.0-62.3-0.3","5d16ab9b59da87001ac41a61","F1","batch6","","839","tol_tohand","","","","tol_peg_2","839","839","0","[[0,0,0],[3,0],[1]]","4","[[3,0,0],[2,0],[1]]","17","0","","","","","","5","","","","","","","","",""
"","","","","","single-stim-button","291","591631","0.0-2.0-62.3-1.3","5d16ab9b59da87001ac41a61","F1","batch6","","855","tol_toboard","","","","tol_peg_1","855","855","0","[[2,0,0],[3,0],[1]]","4","[[3,0,0],[2,0],[1]]","17","0","","","","","","5","","","","","","","","",""
"","","","","","single-stim-button","292","593135","0.0-2.0-62.4-0.4","5d16ab9b59da87001ac41a61","F1","batch6","","1503","tol_tohand","","","","tol_peg_2","1503","1503","0","[[2,0,0],[0,0],[1]]","5","[[3,0,0],[2,0],[1]]","17","0","","","","","","5","","","","","","","","",""
"","","","","","single-stim-button","293","593855","0.0-2.0-62.4-1.4","5d16ab9b59da87001ac41a61","F1","batch6","","719","tol_toboard","","","","tol_peg_1","719","719","0","[[2,3,0],[0,0],[1]]","5","[[3,0,0],[2,0],[1]]","17","0","","","","","","5","","","","","","","","",""
"","","","","","single-stim-button","294","598728","0.0-2.0-62.5-0.5","5d16ab9b59da87001ac41a61","F1","batch6","","4873","tol_tohand","","","","tol_peg_3","4873","4873","0","[[2,3,0],[0,0],[0]]","6","[[3,0,0],[2,0],[1]]","17","0","","","","","","5","","","","","","","","",""
"","","","","","single-stim-button","295","599327","0.0-2.0-62.5-1.5","5d16ab9b59da87001ac41a61","F1","batch6","","597","tol_toboard","","","","tol_peg_2","597","597","0","[[2,3,0],[1,0],[0]]","6","[[3,0,0],[2,0],[1]]","17","0","","","","","","5","","","","","","","","",""
"","","","","","single-stim-button","296","604007","0.0-2.0-62.6-0.6","5d16ab9b59da87001ac41a61","F1","batch6","","4679","tol_tohand","","","","tol_peg_1","4679","4679","0","[[2,0,0],[1,0],[0]]","7","[[3,0,0],[2,0],[1]]","17","0","","","","","","5","","","","","","","","",""
"","","","","","single-stim-button","297","608687","0.0-2.0-62.6-1.6","5d16ab9b59da87001ac41a61","F1","batch6","","4680","tol_toboard","","","","tol_peg_2","4680","4680","0","[[2,0,0],[1,3],[0]]","7","[[3,0,0],[2,0],[1]]","17","0","","","","","","5","","","","","","","","",""
"","","","","","single-stim-button","298","609743","0.0-2.0-62.7-0.7","5d16ab9b59da87001ac41a61","F1","batch6","","1054","tol_tohand","","","","tol_peg_2","1054","1054","0","[[2,0,0],[1,0],[0]]","8","[[3,0,0],[2,0],[1]]","17","0","","","","","","5","","","","","","","","",""
"","","","","","single-stim-button","299","612079","0.0-2.0-62.7-1.7","5d16ab9b59da87001ac41a61","F1","batch6","","2335","tol_toboard","","","","tol_peg_3","2335","2335","0","[[2,0,0],[1,0],[3]]","8","[[3,0,0],[2,0],[1]]","17","0","","","","","","5","","","","","","","","",""
"","","","","","single-stim-button","300","612975","0.0-2.0-62.8-0.8","5d16ab9b59da87001ac41a61","F1","batch6","","895","tol_tohand","","","","tol_peg_1","895","895","0","[[0,0,0],[1,0],[3]]","9","[[3,0,0],[2,0],[1]]","17","0","","","","","","5","","","","","","","","",""
"","","","","","single-stim-button","301","613655","0.0-2.0-62.8-1.8","5d16ab9b59da87001ac41a61","F1","batch6","","679","tol_toboard","","","","tol_peg_2","679","679","0","[[0,0,0],[1,2],[3]]","9","[[3,0,0],[2,0],[1]]","17","0","","","","","","5","","","","","","","","",""
"","","","","","single-stim-button","302","614400","0.0-2.0-62.9-0.9","5d16ab9b59da87001ac41a61","F1","batch6","","744","tol_tohand","","","","tol_peg_3","744","744","0","[[0,0,0],[1,2],[0]]","10","[[3,0,0],[2,0],[1]]","17","0","","","","","","5","","","","","","","","",""
"","","","","","single-stim-button","303","615687","0.0-2.0-62.9-1.9","5d16ab9b59da87001ac41a61","F1","batch6","","1286","tol_toboard","","","","tol_peg_1","1286","1286","0","[[3,0,0],[1,2],[0]]","10","[[3,0,0],[2,0],[1]]","17","0","","","","","","5","","","","","","","","",""
"","","","","","single-stim-button","304","617255","0.0-2.0-62.10-0.10","5d16ab9b59da87001ac41a61","F1","batch6","","1568","tol_tohand","","","","tol_peg_2","1568","1568","0","[[3,0,0],[1,0],[0]]","11","[[3,0,0],[2,0],[1]]","17","0","","","","","","5","","","","","","","","",""
"","","","","","single-stim-button","305","617799","0.0-2.0-62.10-1.10","5d16ab9b59da87001ac41a61","F1","batch6","","542","tol_toboard","","","","tol_peg_1","542","542","0","[[3,2,0],[1,0],[0]]","11","[[3,0,0],[2,0],[1]]","17","0","","","","","","5","","","","","","","","",""
"","","","","","single-stim-button","306","618568","0.0-2.0-62.11-0.11","5d16ab9b59da87001ac41a61","F1","batch6","","769","tol_tohand","","","","tol_peg_2","769","769","0","[[3,2,0],[0,0],[0]]","12","[[3,0,0],[2,0],[1]]","17","0","","","","","","5","","","","","","","","",""
"","","","","","single-stim-button","307","619063","0.0-2.0-62.11-1.11","5d16ab9b59da87001ac41a61","F1","batch6","","494","tol_toboard","","","","tol_peg_3","494","494","0","[[3,2,0],[0,0],[1]]","12","[[3,0,0],[2,0],[1]]","17","0","","","","","","5","","","","","","","","",""
"","","","","","single-stim-button","308","620055","0.0-2.0-62.12-0.12","5d16ab9b59da87001ac41a61","F1","batch6","","991","tol_tohand","","","","tol_peg_1","991","991","0","[[3,0,0],[0,0],[1]]","13","[[3,0,0],[2,0],[1]]","17","0","","","","","","5","","","","","","","","",""
"","","","","","single-stim-button","309","620783","0.0-2.0-62.12-1.12","5d16ab9b59da87001ac41a61","F1","batch6","","728","tol_toboard","","","","tol_peg_2","728","728","0","[[3,0,0],[2,0],[1]]","13","[[3,0,0],[2,0],[1]]","17","0","","","","","","5","","","","","","","","",""
"","","","","","poldrack-single-stim","310","621789","0.0-2.0-63.0","5d16ab9b59da87001ac41a61","F1","batch6","","-1","tol_feedback","","","true","","1000","1000","500","","","","","","-1","none","true","12414","32535","","","","","","","","","",""
"","","","","","html-button-response","311","623038","0.0-2.0-64.0","5d16ab9b59da87001ac41a61","F1","batch6","","1249","tol_trial_num","<div class = centerbox><p class = center-block-text>problem <strong>19</strong> out of 25 problems</p></div>","0","","","","","","","","","","","","","","","","","","","","","","","","",""
"","","","","","single-stim-button","312","626655","0.0-2.0-65.0-0.0","5d16ab9b59da87001ac41a61","F1","batch6","","3615","tol_tohand","","","","tol_peg_2","3615","3615","0","[[1,2,0],[0,0],[0]]","1","[[0,0,0],[1,2],[3]]","18","0","","","","","","7","","","","","","","","",""
"","","","","","single-stim-button","313","627407","0.0-2.0-65.0-1.0","5d16ab9b59da87001ac41a61","F1","batch6","","751","tol_toboard","","","","tol_peg_3","751","751","0","[[1,2,0],[0,0],[3]]","1","[[0,0,0],[1,2],[3]]","18","0","","","","","","7","","","","","","","","",""
"","","","","","single-stim-button","314","628639","0.0-2.0-65.1-0.1","5d16ab9b59da87001ac41a61","F1","batch6","","1232","tol_tohand","","","","tol_peg_1","1232","1232","0","[[1,0,0],[0,0],[3]]","2","[[0,0,0],[1,2],[3]]","18","0","","","","","","7","","","","","","","","",""
"","","","","","single-stim-button","315","629295","0.0-2.0-65.1-1.1","5d16ab9b59da87001ac41a61","F1","batch6","","655","tol_toboard","","","","tol_peg_2","655","655","0","[[1,0,0],[2,0],[3]]","2","[[0,0,0],[1,2],[3]]","18","0","","","","","","7","","","","","","","","",""
"","","","","","single-stim-button","316","630047","0.0-2.0-65.2-0.2","5d16ab9b59da87001ac41a61","F1","batch6","","752","tol_tohand","","","","tol_peg_1","752","752","0","[[0,0,0],[2,0],[3]]","3","[[0,0,0],[1,2],[3]]","18","0","","","","","","7","","","","","","","","",""
"","","","","","single-stim-button","317","630751","0.0-2.0-65.2-1.2","5d16ab9b59da87001ac41a61","F1","batch6","","702","tol_toboard","","","","tol_peg_2","702","702","0","[[0,0,0],[2,1],[3]]","3","[[0,0,0],[1,2],[3]]","18","0","","","","","","7","","","","","","","","",""
"","","","","","single-stim-button","318","638951","0.0-2.0-65.3-0.3","5d16ab9b59da87001ac41a61","F1","batch6","","8199","tol_tohand","","","","tol_peg_2","8199","8199","0","[[0,0,0],[2,0],[3]]","4","[[0,0,0],[1,2],[3]]","18","0","","","","","","7","","","","","","","","",""
"","","","","","single-stim-button","319","639783","0.0-2.0-65.3-1.3","5d16ab9b59da87001ac41a61","F1","batch6","","831","tol_toboard","","","","tol_peg_1","831","831","0","[[1,0,0],[2,0],[3]]","4","[[0,0,0],[1,2],[3]]","18","0","","","","","","7","","","","","","","","",""
"","","","","","single-stim-button","320","640423","0.0-2.0-65.4-0.4","5d16ab9b59da87001ac41a61","F1","batch6","","639","tol_tohand","","","","tol_peg_2","639","639","0","[[1,0,0],[0,0],[3]]","5","[[0,0,0],[1,2],[3]]","18","0","","","","","","7","","","","","","","","",""
"","","","","","single-stim-button","321","641015","0.0-2.0-65.4-1.4","5d16ab9b59da87001ac41a61","F1","batch6","","591","tol_toboard","","","","tol_peg_1","591","591","0","[[1,2,0],[0,0],[3]]","5","[[0,0,0],[1,2],[3]]","18","0","","","","","","7","","","","","","","","",""
"","","","","","single-stim-button","322","642783","0.0-2.0-65.5-0.5","5d16ab9b59da87001ac41a61","F1","batch6","","1768","tol_tohand","","","","tol_peg_3","1768","1768","0","[[1,2,0],[0,0],[0]]","6","[[0,0,0],[1,2],[3]]","18","0","","","","","","7","","","","","","","","",""
"","","","","","single-stim-button","323","643375","0.0-2.0-65.5-1.5","5d16ab9b59da87001ac41a61","F1","batch6","","590","tol_toboard","","","","tol_peg_2","590","590","0","[[1,2,0],[3,0],[0]]","6","[[0,0,0],[1,2],[3]]","18","0","","","","","","7","","","","","","","","",""
"","","","","","single-stim-button","324","644535","0.0-2.0-65.6-0.6","5d16ab9b59da87001ac41a61","F1","batch6","","1159","tol_tohand","","","","tol_peg_1","1159","1159","0","[[1,0,0],[3,0],[0]]","7","[[0,0,0],[1,2],[3]]","18","0","","","","","","7","","","","","","","","",""
"","","","","","single-stim-button","325","647007","0.0-2.0-65.6-1.6","5d16ab9b59da87001ac41a61","F1","batch6","","2471","tol_toboard","","","","tol_peg_2","2471","2471","0","[[1,0,0],[3,2],[0]]","7","[[0,0,0],[1,2],[3]]","18","0","","","","","","7","","","","","","","","",""
"","","","","","single-stim-button","326","647663","0.0-2.0-65.7-0.7","5d16ab9b59da87001ac41a61","F1","batch6","","656","tol_tohand","","","","tol_peg_1","656","656","0","[[0,0,0],[3,2],[0]]","8","[[0,0,0],[1,2],[3]]","18","0","","","","","","7","","","","","","","","",""
"","","","","","single-stim-button","327","648446","0.0-2.0-65.7-1.7","5d16ab9b59da87001ac41a61","F1","batch6","","783","tol_toboard","","","","tol_peg_3","783","783","0","[[0,0,0],[3,2],[1]]","8","[[0,0,0],[1,2],[3]]","18","0","","","","","","7","","","","","","","","",""
"","","","","","single-stim-button","328","650655","0.0-2.0-65.8-0.8","5d16ab9b59da87001ac41a61","F1","batch6","","2207","tol_tohand","","","","tol_peg_2","2207","2207","0","[[0,0,0],[3,0],[1]]","9","[[0,0,0],[1,2],[3]]","18","0","","","","","","7","","","","","","","","",""
"","","","","","single-stim-button","329","651607","0.0-2.0-65.8-1.8","5d16ab9b59da87001ac41a61","F1","batch6","","951","tol_toboard","","","","tol_peg_1","951","951","0","[[2,0,0],[3,0],[1]]","9","[[0,0,0],[1,2],[3]]","18","0","","","","","","7","","","","","","","","",""
"","","","","","single-stim-button","330","652223","0.0-2.0-65.9-0.9","5d16ab9b59da87001ac41a61","F1","batch6","","615","tol_tohand","","","","tol_peg_2","615","615","0","[[2,0,0],[0,0],[1]]","10","[[0,0,0],[1,2],[3]]","18","0","","","","","","7","","","","","","","","",""
"","","","","","single-stim-button","331","653143","0.0-2.0-65.9-1.9","5d16ab9b59da87001ac41a61","F1","batch6","","919","tol_toboard","","","","tol_peg_1","919","919","0","[[2,3,0],[0,0],[1]]","10","[[0,0,0],[1,2],[3]]","18","0","","","","","","7","","","","","","","","",""
"","","","","","single-stim-button","332","653847","0.0-2.0-65.10-0.10","5d16ab9b59da87001ac41a61","F1","batch6","","704","tol_tohand","","","","tol_peg_3","704","704","0","[[2,3,0],[0,0],[0]]","11","[[0,0,0],[1,2],[3]]","18","0","","","","","","7","","","","","","","","",""
"","","","","","single-stim-button","333","654344","0.0-2.0-65.10-1.10","5d16ab9b59da87001ac41a61","F1","batch6","","496","tol_toboard","","","","tol_peg_2","496","496","0","[[2,3,0],[1,0],[0]]","11","[[0,0,0],[1,2],[3]]","18","0","","","","","","7","","","","","","","","",""
"","","","","","single-stim-button","334","655015","0.0-2.0-65.11-0.11","5d16ab9b59da87001ac41a61","F1","batch6","","671","tol_tohand","","","","tol_peg_1","671","671","0","[[2,0,0],[1,0],[0]]","12","[[0,0,0],[1,2],[3]]","18","0","","","","","","7","","","","","","","","",""
"","","","","","single-stim-button","335","655695","0.0-2.0-65.11-1.11","5d16ab9b59da87001ac41a61","F1","batch6","","679","tol_toboard","","","","tol_peg_3","679","679","0","[[2,0,0],[1,0],[3]]","12","[[0,0,0],[1,2],[3]]","18","0","","","","","","7","","","","","","","","",""
"","","","","","single-stim-button","336","656455","0.0-2.0-65.12-0.12","5d16ab9b59da87001ac41a61","F1","batch6","","759","tol_tohand","","","","tol_peg_1","759","759","0","[[0,0,0],[1,0],[3]]","13","[[0,0,0],[1,2],[3]]","18","0","","","","","","7","","","","","","","","",""
"","","","","","single-stim-button","337","657095","0.0-2.0-65.12-1.12","5d16ab9b59da87001ac41a61","F1","batch6","","639","tol_toboard","","","","tol_peg_2","639","639","0","[[0,0,0],[1,2],[3]]","13","[[0,0,0],[1,2],[3]]","18","0","","","","","","7","","","","","","","","",""
"","","","","","poldrack-single-stim","338","658096","0.0-2.0-66.0","5d16ab9b59da87001ac41a61","F1","batch6","","-1","tol_feedback","","","true","","1000","1000","500","","","","","","-1","none","true","3615","22976","","","","","","","","","",""
"","","","","","html-button-response","339","665406","0.0-2.0-67.0","5d16ab9b59da87001ac41a61","F1","batch6","","7310","tol_trial_num","<div class = centerbox><p class = center-block-text>problem <strong>20</strong> out of 25 problems</p></div>","0","","","","","","","","","","","","","","","","","","","","","","","","",""
"","","","","","single-stim-button","340","674847","0.0-2.0-68.0-0.0","5d16ab9b59da87001ac41a61","F1","batch6","","9439","tol_tohand","","","","tol_peg_1","9439","9439","0","[[1,0,0],[3,0],[0]]","1","[[2,1,0],[0,0],[3]]","19","0","","","","","","5","","","","","","","","",""
"","","","","","single-stim-button","341","675495","0.0-2.0-68.0-1.0","5d16ab9b59da87001ac41a61","F1","batch6","","647","tol_toboard","","","","tol_peg_3","647","647","0","[[1,0,0],[3,0],[2]]","1","[[2,1,0],[0,0],[3]]","19","0","","","","","","5","","","","","","","","",""
"","","","","","single-stim-button","342","676447","0.0-2.0-68.1-0.1","5d16ab9b59da87001ac41a61","F1","batch6","","951","tol_tohand","","","","tol_peg_1","951","951","0","[[0,0,0],[3,0],[2]]","2","[[2,1,0],[0,0],[3]]","19","0","","","","","","5","","","","","","","","",""
"","","","","","single-stim-button","343","678399","0.0-2.0-68.1-1.1","5d16ab9b59da87001ac41a61","F1","batch6","","1951","tol_toboard","","","","tol_peg_2","1951","1951","0","[[0,0,0],[3,1],[2]]","2","[[2,1,0],[0,0],[3]]","19","0","","","","","","5","","","","","","","","",""
"","","","","","single-stim-button","344","679167","0.0-2.0-68.2-0.2","5d16ab9b59da87001ac41a61","F1","batch6","","767","tol_tohand","","","","tol_peg_3","767","767","0","[[0,0,0],[3,1],[0]]","3","[[2,1,0],[0,0],[3]]","19","0","","","","","","5","","","","","","","","",""
"","","","","","single-stim-button","345","679759","0.0-2.0-68.2-1.2","5d16ab9b59da87001ac41a61","F1","batch6","","591","tol_toboard","","","","tol_peg_1","591","591","0","[[2,0,0],[3,1],[0]]","3","[[2,1,0],[0,0],[3]]","19","0","","","","","","5","","","","","","","","",""
"","","","","","single-stim-button","346","680655","0.0-2.0-68.3-0.3","5d16ab9b59da87001ac41a61","F1","batch6","","895","tol_tohand","","","","tol_peg_2","895","895","0","[[2,0,0],[3,0],[0]]","4","[[2,1,0],[0,0],[3]]","19","0","","","","","","5","","","","","","","","",""
"","","","","","single-stim-button","347","681351","0.0-2.0-68.3-1.3","5d16ab9b59da87001ac41a61","F1","batch6","","695","tol_toboard","","","","tol_peg_1","695","695","0","[[2,1,0],[3,0],[0]]","4","[[2,1,0],[0,0],[3]]","19","0","","","","","","5","","","","","","","","",""
"","","","","","single-stim-button","348","682231","0.0-2.0-68.4-0.4","5d16ab9b59da87001ac41a61","F1","batch6","","879","tol_tohand","","","","tol_peg_2","879","879","0","[[2,1,0],[0,0],[0]]","5","[[2,1,0],[0,0],[3]]","19","0","","","","","","5","","","","","","","","",""
"","","","","","single-stim-button","349","682871","0.0-2.0-68.4-1.4","5d16ab9b59da87001ac41a61","F1","batch6","","639","tol_toboard","","","","tol_peg_3","639","639","0","[[2,1,0],[0,0],[3]]","5","[[2,1,0],[0,0],[3]]","19","0","","","","","","5","","","","","","","","",""
"","","","","","poldrack-single-stim","350","683874","0.0-2.0-69.0","5d16ab9b59da87001ac41a61","F1","batch6","","-1","tol_feedback","","","true","","1000","1000","500","","","","","","-1","none","true","9439","12931","","","","","","","","","",""
"","","","","","html-button-response","351","685014","0.0-2.0-70.0","5d16ab9b59da87001ac41a61","F1","batch6","","1140","tol_trial_num","<div class = centerbox><p class = center-block-text>problem <strong>21</strong> out of 25 problems</p></div>","0","","","","","","","","","","","","","","","","","","","","","","","","",""
"","","","","","single-stim-button","352","688175","0.0-2.0-71.0-0.0","5d16ab9b59da87001ac41a61","F1","batch6","","3160","tol_tohand","","","","tol_peg_1","3160","3160","0","[[1,0,0],[3,0],[0]]","1","[[3,2,0],[0,0],[1]]","20","0","","","","","","6","","","","","","","","",""
"","","","","","single-stim-button","353","688663","0.0-2.0-71.0-1.0","5d16ab9b59da87001ac41a61","F1","batch6","","487","tol_toboard","","","","tol_peg_2","487","487","0","[[1,0,0],[3,2],[0]]","1","[[3,2,0],[0,0],[1]]","20","0","","","","","","6","","","","","","","","",""
"","","","","","single-stim-button","354","689375","0.0-2.0-71.1-0.1","5d16ab9b59da87001ac41a61","F1","batch6","","711","tol_tohand","","","","tol_peg_1","711","711","0","[[0,0,0],[3,2],[0]]","2","[[3,2,0],[0,0],[1]]","20","0","","","","","","6","","","","","","","","",""
"","","","","","single-stim-button","355","690263","0.0-2.0-71.1-1.1","5d16ab9b59da87001ac41a61","F1","batch6","","887","tol_toboard","","","","tol_peg_3","887","887","0","[[0,0,0],[3,2],[1]]","2","[[3,2,0],[0,0],[1]]","20","0","","","","","","6","","","","","","","","",""
