"success","timeout","failed_images","failed_audio","failed_video","trial_type","trial_index","time_elapsed","internal_node_id","subject_id","study_id","session_id","task","rt","stimulus","response","item","answer","correct","spm_correct","spm_rt","view_history","fiar_detect_rt","fiar_detect_correct","total_correct_fiar_detect","post_trial_gap","choices","mouse_click","stim_duration","block_duration","timing_post_trial","current_position","tol_num_moves_made","tol_target","tol_problem_id","tol_rt","key_press","possible_responses","tol_correct","preplanning","tol_rt_per_trial","tol_min_moves"
"true","false","[]","[]","[]","preload","0","83","0.0-0.0","5d17ce93ac37cd0019535088","B2","batch2","","","","","","","","","","","","","","","","","","","","","","","","","","","","","",""
"true","","","","","fullscreen","1","2901","0.0-1.0-0.0","5d17ce93ac37cd0019535088","B2","batch2","","","","","","","","","","","","","","","","","","","","","","","","","","","","","",""
"true","","","","","fullscreen","2","5046","0.0-2.0-0.0","5d17ce93ac37cd0019535088","B2","batch2","spm_fullscreen","","","","","","","","","","","","","","","","","","","","","","","","","","","","",""
"","","","","","html-button-response","3","10189","0.0-2.0-1.0","5d17ce93ac37cd0019535088","B2","batch2","","5141.699999999255","<p class = block-text><b>Instructions</b> <br>This is a widely used intelligence test in research. <br>In this test, a figure with a missing piece will be presented.<br>Below the figure are alternative pieces to complete the figure, only one of which is correct.<br> Different figures might involve different principles for obtaining the missing piece<br>Your job is to select the most logical piece to complete the figure.</p>","0","","","","","","","","","","","","","","","","","","","","","","","","","",""
"","","","","","html-keyboard-response","4","10990","0.0-2.0-2.0-0.0","5d17ce93ac37cd0019535088","B2","batch2","spm_show_trial_num","null","<p class=block-text>Trial 1 out of 60</p>","null","","","","","","","","","","","","","","","","","","","","","","","","","",""
"","","","","","image-button-response","5","18979","0.0-2.0-2.0-1.0","5d17ce93ac37cd0019535088","B2","batch2","spm_respsonse","7986.5999999996275","img/question_1_1.jpeg","0","mat_01","4","0","0","7986.5999999996275","","","","","","","","","","","","","","","","","","","","",""
"","","","","","html-keyboard-response","6","20041","0.0-2.0-2.0-0.1","5d17ce93ac37cd0019535088","B2","batch2","spm_show_trial_num","null","<p class=block-text>Trial 2 out of 60</p>","null","","","","","","","","","","","","","","","","","","","","","","","","","",""
"","","","","","image-button-response","7","24087","0.0-2.0-2.0-1.1","5d17ce93ac37cd0019535088","B2","batch2","spm_respsonse","4044.5","img/question_1_2.jpeg","4","mat_02","5","1","1","4044.5","","","","","","","","","","","","","","","","","","","","",""
"","","","","","html-keyboard-response","8","25151","0.0-2.0-2.0-0.2","5d17ce93ac37cd0019535088","B2","batch2","spm_show_trial_num","null","<p class=block-text>Trial 3 out of 60</p>","null","","","","","","","","","","","","","","","","","","","","","","","","","",""
"","","","","","image-button-response","9","27454","0.0-2.0-2.0-1.2","5d17ce93ac37cd0019535088","B2","batch2","spm_respsonse","2302.5999999996275","img/question_1_3.jpeg","0","mat_03","1","1","1","2302.5999999996275","","","","","","","","","","","","","","","","","","","","",""
"","","","","","html-keyboard-response","10","28517","0.0-2.0-2.0-0.3","5d17ce93ac37cd0019535088","B2","batch2","spm_show_trial_num","null","<p class=block-text>Trial 4 out of 60</p>","null","","","","","","","","","","","","","","","","","","","","","","","","","",""
"","","","","","image-button-response","11","32022","0.0-2.0-2.0-1.3","5d17ce93ac37cd0019535088","B2","batch2","spm_respsonse","3503.800000000745","img/question_1_4.jpeg","1","mat_04","2","1","1","3503.800000000745","","","","","","","","","","","","","","","","","","","","",""
"","","","","","html-keyboard-response","12","33074","0.0-2.0-2.0-0.4","5d17ce93ac37cd0019535088","B2","batch2","spm_show_trial_num","null","<p class=block-text>Trial 5 out of 60</p>","null","","","","","","","","","","","","","","","","","","","","","","","","","",""
"","","","","","image-button-response","13","37355","0.0-2.0-2.0-1.4","5d17ce93ac37cd0019535088","B2","batch2","spm_respsonse","4279.0999999996275","img/question_1_5.jpeg","5","mat_05","6","1","1","4279.0999999996275","","","","","","","","","","","","","","","","","","","","",""
"","","","","","html-keyboard-response","14","38415","0.0-2.0-2.0-0.5","5d17ce93ac37cd0019535088","B2","batch2","spm_show_trial_num","null","<p class=block-text>Trial 6 out of 60</p>","null","","","","","","","","","","","","","","","","","","","","","","","","","",""
"","","","","","image-button-response","15","52265","0.0-2.0-2.0-1.5","5d17ce93ac37cd0019535088","B2","batch2","spm_respsonse","13849.199999999255","img/question_1_6.jpeg","2","mat_06","3","1","1","13849.199999999255","","","","","","","","","","","","","","","","","","","","",""
"","","","","","html-keyboard-response","16","53327","0.0-2.0-2.0-0.6","5d17ce93ac37cd0019535088","B2","batch2","spm_show_trial_num","null","<p class=block-text>Trial 7 out of 60</p>","null","","","","","","","","","","","","","","","","","","","","","","","","","",""
"","","","","","image-button-response","17","58476","0.0-2.0-2.0-1.6","5d17ce93ac37cd0019535088","B2","batch2","spm_respsonse","5147.199999999255","img/question_1_7.jpeg","5","mat_07","6","1","1","5147.199999999255","","","","","","","","","","","","","","","","","","","","",""
"","","","","","html-keyboard-response","18","59543","0.0-2.0-2.0-0.7","5d17ce93ac37cd0019535088","B2","batch2","spm_show_trial_num","null","<p class=block-text>Trial 8 out of 60</p>","null","","","","","","","","","","","","","","","","","","","","","","","","","",""
"","","","","","image-button-response","19","66216","0.0-2.0-2.0-1.7","5d17ce93ac37cd0019535088","B2","batch2","spm_respsonse","6672.0999999996275","img/question_1_8.jpeg","1","mat_08","2","1","1","6672.0999999996275","","","","","","","","","","","","","","","","","","","","",""
"","","","","","html-keyboard-response","20","67277","0.0-2.0-2.0-0.8","5d17ce93ac37cd0019535088","B2","batch2","spm_show_trial_num","null","<p class=block-text>Trial 9 out of 60</p>","null","","","","","","","","","","","","","","","","","","","","","","","","","",""
"","","","","","image-button-response","21","88237","0.0-2.0-2.0-1.8","5d17ce93ac37cd0019535088","B2","batch2","spm_respsonse","20959.300000000745","img/question_1_9.jpeg","0","mat_09","1","1","1","20959.300000000745","","","","","","","","","","","","","","","","","","","","",""
"","","","","","html-keyboard-response","22","89306","0.0-2.0-2.0-0.9","5d17ce93ac37cd0019535088","B2","batch2","spm_show_trial_num","null","<p class=block-text>Trial 10 out of 60</p>","null","","","","","","","","","","","","","","","","","","","","","","","","","",""
"","","","","","image-button-response","23","92333","0.0-2.0-2.0-1.9","5d17ce93ac37cd0019535088","B2","batch2","spm_respsonse","3025.9000000003725","img/question_1_10.jpeg","2","mat_10","3","1","1","3025.9000000003725","","","","","","","","","","","","","","","","","","","","",""
"","","","","","html-keyboard-response","24","93404","0.0-2.0-2.0-0.10","5d17ce93ac37cd0019535088","B2","batch2","spm_show_trial_num","null","<p class=block-text>Trial 11 out of 60</p>","null","","","","","","","","","","","","","","","","","","","","","","","","","",""
"","","","","","image-button-response","25","100649","0.0-2.0-2.0-1.10","5d17ce93ac37cd0019535088","B2","batch2","spm_respsonse","7244.39999999851","img/question_1_11.jpeg","3","mat_11","4","1","1","7244.39999999851","","","","","","","","","","","","","","","","","","","","",""
"","","","","","html-keyboard-response","26","101721","0.0-2.0-2.0-0.11","5d17ce93ac37cd0019535088","B2","batch2","spm_show_trial_num","null","<p class=block-text>Trial 12 out of 60</p>","null","","","","","","","","","","","","","","","","","","","","","","","","","",""
"","","","","","image-button-response","27","110701","0.0-2.0-2.0-1.11","5d17ce93ac37cd0019535088","B2","batch2","spm_respsonse","8978.10000000149","img/question_1_12.jpeg","4","mat_12","5","1","1","8978.10000000149","","","","","","","","","","","","","","","","","","","","",""
"","","","","","html-keyboard-response","28","111764","0.0-2.0-2.0-0.12","5d17ce93ac37cd0019535088","B2","batch2","spm_show_trial_num","null","<p class=block-text>Trial 13 out of 60</p>","null","","","","","","","","","","","","","","","","","","","","","","","","","",""
"","","","","","image-button-response","29","114158","0.0-2.0-2.0-1.12","5d17ce93ac37cd0019535088","B2","batch2","spm_respsonse","2392.5","img/question_2_1.jpeg","1","mat_13","2","1","1","2392.5","","","","","","","","","","","","","","","","","","","","",""
"","","","","","html-keyboard-response","30","115211","0.0-2.0-2.0-0.13","5d17ce93ac37cd0019535088","B2","batch2","spm_show_trial_num","null","<p class=block-text>Trial 14 out of 60</p>","null","","","","","","","","","","","","","","","","","","","","","","","","","",""
"","","","","","image-button-response","31","118665","0.0-2.0-2.0-1.13","5d17ce93ac37cd0019535088","B2","batch2","spm_respsonse","3453.39999999851","img/question_2_2.jpeg","5","mat_14","6","1","1","3453.39999999851","","","","","","","","","","","","","","","","","","","","",""
"","","","","","html-keyboard-response","32","119726","0.0-2.0-2.0-0.14","5d17ce93ac37cd0019535088","B2","batch2","spm_show_trial_num","null","<p class=block-text>Trial 15 out of 60</p>","null","","","","","","","","","","","","","","","","","","","","","","","","","",""
"","","","","","image-button-response","33","122183","0.0-2.0-2.0-1.14","5d17ce93ac37cd0019535088","B2","batch2","spm_respsonse","2456.0999999996275","img/question_2_3.jpeg","0","mat_15","1","1","1","2456.0999999996275","","","","","","","","","","","","","","","","","","","","",""
"","","","","","html-keyboard-response","34","123250","0.0-2.0-2.0-0.15","5d17ce93ac37cd0019535088","B2","batch2","spm_show_trial_num","null","<p class=block-text>Trial 16 out of 60</p>","null","","","","","","","","","","","","","","","","","","","","","","","","","",""
"","","","","","image-button-response","35","131723","0.0-2.0-2.0-1.15","5d17ce93ac37cd0019535088","B2","batch2","spm_respsonse","8471.699999999255","img/question_2_4.jpeg","1","mat_16","2","1","1","8471.699999999255","","","","","","","","","","","","","","","","","","","","",""
"","","","","","html-keyboard-response","36","132775","0.0-2.0-2.0-0.16","5d17ce93ac37cd0019535088","B2","batch2","spm_show_trial_num","null","<p class=block-text>Trial 17 out of 60</p>","null","","","","","","","","","","","","","","","","","","","","","","","","","",""
"","","","","","image-button-response","37","137535","0.0-2.0-2.0-1.16","5d17ce93ac37cd0019535088","B2","batch2","spm_respsonse","4759","img/question_2_5.jpeg","0","mat_17","1","1","1","4759","","","","","","","","","","","","","","","","","","","","",""
"","","","","","html-keyboard-response","38","138600","0.0-2.0-2.0-0.17","5d17ce93ac37cd0019535088","B2","batch2","spm_show_trial_num","null","<p class=block-text>Trial 18 out of 60</p>","null","","","","","","","","","","","","","","","","","","","","","","","","","",""
"","","","","","image-button-response","39","143776","0.0-2.0-2.0-1.17","5d17ce93ac37cd0019535088","B2","batch2","spm_respsonse","5175.10000000149","img/question_2_6.jpeg","2","mat_18","3","1","1","5175.10000000149","","","","","","","","","","","","","","","","","","","","",""
"","","","","","html-keyboard-response","40","144840","0.0-2.0-2.0-0.18","5d17ce93ac37cd0019535088","B2","batch2","spm_show_trial_num","null","<p class=block-text>Trial 19 out of 60</p>","null","","","","","","","","","","","","","","","","","","","","","","","","","",""
"","","","","","image-button-response","41","159872","0.0-2.0-2.0-1.18","5d17ce93ac37cd0019535088","B2","batch2","spm_respsonse","15030.800000000745","img/question_2_7.jpeg","4","mat_19","5","1","1","15030.800000000745","","","","","","","","","","","","","","","","","","","","",""
"","","","","","html-keyboard-response","42","160924","0.0-2.0-2.0-0.19","5d17ce93ac37cd0019535088","B2","batch2","spm_show_trial_num","null","<p class=block-text>Trial 20 out of 60</p>","null","","","","","","","","","","","","","","","","","","","","","","","","","",""
"","","","","","image-button-response","43","186166","0.0-2.0-2.0-1.19","5d17ce93ac37cd0019535088","B2","batch2","spm_respsonse","25241.599999999627","img/question_2_8.jpeg","5","mat_20","6","1","1","25241.599999999627","","","","","","","","","","","","","","","","","","","","",""
"","","","","","html-keyboard-response","44","187226","0.0-2.0-2.0-0.20","5d17ce93ac37cd0019535088","B2","batch2","spm_show_trial_num","null","<p class=block-text>Trial 21 out of 60</p>","null","","","","","","","","","","","","","","","","","","","","","","","","","",""
"","","","","","image-button-response","45","213235","0.0-2.0-2.0-1.20","5d17ce93ac37cd0019535088","B2","batch2","spm_respsonse","26007.800000000745","img/question_2_9.jpeg","3","mat_21","4","1","1","26007.800000000745","","","","","","","","","","","","","","","","","","","","",""
"","","","","","html-keyboard-response","46","214295","0.0-2.0-2.0-0.21","5d17ce93ac37cd0019535088","B2","batch2","spm_show_trial_num","null","<p class=block-text>Trial 22 out of 60</p>","null","","","","","","","","","","","","","","","","","","","","","","","","","",""
"","","","","","image-button-response","47","218477","0.0-2.0-2.0-1.21","5d17ce93ac37cd0019535088","B2","batch2","spm_respsonse","4181.700000001118","img/question_2_10.jpeg","2","mat_22","3","1","1","4181.700000001118","","","","","","","","","","","","","","","","","","","","",""
"","","","","","html-keyboard-response","48","219536","0.0-2.0-2.0-0.22","5d17ce93ac37cd0019535088","B2","batch2","spm_show_trial_num","null","<p class=block-text>Trial 23 out of 60</p>","null","","","","","","","","","","","","","","","","","","","","","","","","","",""
"","","","","","image-button-response","49","225715","0.0-2.0-2.0-1.22","5d17ce93ac37cd0019535088","B2","batch2","spm_respsonse","6177.5999999996275","img/question_2_11.jpeg","3","mat_23","4","1","1","6177.5999999996275","","","","","","","","","","","","","","","","","","","","",""
"","","","","","html-keyboard-response","50","226773","0.0-2.0-2.0-0.23","5d17ce93ac37cd0019535088","B2","batch2","spm_show_trial_num","null","<p class=block-text>Trial 24 out of 60</p>","null","","","","","","","","","","","","","","","","","","","","","","","","","",""
"","","","","","image-button-response","51","235427","0.0-2.0-2.0-1.23","5d17ce93ac37cd0019535088","B2","batch2","spm_respsonse","8652.699999999255","img/question_2_12.jpeg","4","mat_24","5","1","1","8652.699999999255","","","","","","","","","","","","","","","","","","","","",""
"","","","","","html-button-response","52","236972","0.0-2.0-3.0","5d17ce93ac37cd0019535088","B2","batch2","attention_check","1283.2000000011176","<p class = block-text>Attention check: Please choose 1<br></p>","0","","","true","","","","","","","","","","","","","","","","","","","","","","",""
"","","","","","html-keyboard-response","53","237785","0.0-2.0-4.0-0.0","5d17ce93ac37cd0019535088","B2","batch2","spm_show_trial_num","null","<p class=block-text>Trial 25 out of 60</p>","null","","","","","","","","","","","","","","","","","","","","","","","","","",""
"","","","","","image-button-response","54","243880","0.0-2.0-4.0-1.0","5d17ce93ac37cd0019535088","B2","batch2","spm_respsonse","6093.9000000003725","img/question_3_1.jpeg","7","mat_25","8","1","1","6093.9000000003725","","","","","","","","","","","","","","","","","","","","",""
"","","","","","html-keyboard-response","55","244950","0.0-2.0-4.0-0.1","5d17ce93ac37cd0019535088","B2","batch2","spm_show_trial_num","null","<p class=block-text>Trial 26 out of 60</p>","null","","","","","","","","","","","","","","","","","","","","","","","","","",""
"","","","","","image-button-response","56","254268","0.0-2.0-4.0-1.1","5d17ce93ac37cd0019535088","B2","batch2","spm_respsonse","9317.599999999627","img/question_3_2.jpeg","1","mat_26","2","1","1","9317.599999999627","","","","","","","","","","","","","","","","","","","","",""
"","","","","","html-keyboard-response","57","255320","0.0-2.0-4.0-0.2","5d17ce93ac37cd0019535088","B2","batch2","spm_show_trial_num","null","<p class=block-text>Trial 27 out of 60</p>","null","","","","","","","","","","","","","","","","","","","","","","","","","",""
"","","","","","image-button-response","58","270446","0.0-2.0-4.0-1.2","5d17ce93ac37cd0019535088","B2","batch2","spm_respsonse","15125.300000000745","img/question_3_3.jpeg","2","mat_27","3","1","1","15125.300000000745","","","","","","","","","","","","","","","","","","","","",""
"","","","","","html-keyboard-response","59","271507","0.0-2.0-4.0-0.3","5d17ce93ac37cd0019535088","B2","batch2","spm_show_trial_num","null","<p class=block-text>Trial 28 out of 60</p>","null","","","","","","","","","","","","","","","","","","","","","","","","","",""
"","","","","","image-button-response","60","280002","0.0-2.0-4.0-1.3","5d17ce93ac37cd0019535088","B2","batch2","spm_respsonse","8494.300000000745","img/question_3_4.jpeg","7","mat_28","8","1","1","8494.300000000745","","","","","","","","","","","","","","","","","","","","",""
"","","","","","html-keyboard-response","61","281068","0.0-2.0-4.0-0.4","5d17ce93ac37cd0019535088","B2","batch2","spm_show_trial_num","null","<p class=block-text>Trial 29 out of 60</p>","null","","","","","","","","","","","","","","","","","","","","","","","","","",""
"","","","","","image-button-response","62","289932","0.0-2.0-4.0-1.4","5d17ce93ac37cd0019535088","B2","batch2","spm_respsonse","8863.099999999627","img/question_3_5.jpeg","6","mat_29","7","1","1","8863.099999999627","","","","","","","","","","","","","","","","","","","","",""
"","","","","","html-keyboard-response","63","291006","0.0-2.0-4.0-0.5","5d17ce93ac37cd0019535088","B2","batch2","spm_show_trial_num","null","<p class=block-text>Trial 30 out of 60</p>","null","","","","","","","","","","","","","","","","","","","","","","","","","",""
"","","","","","image-button-response","64","318320","0.0-2.0-4.0-1.5","5d17ce93ac37cd0019535088","B2","batch2","spm_respsonse","27313","img/question_3_6.jpeg","3","mat_30","4","1","1","27313","","","","","","","","","","","","","","","","","","","","",""
"","","","","","html-keyboard-response","65","319384","0.0-2.0-4.0-0.6","5d17ce93ac37cd0019535088","B2","batch2","spm_show_trial_num","null","<p class=block-text>Trial 31 out of 60</p>","null","","","","","","","","","","","","","","","","","","","","","","","","","",""
"","","","","","image-button-response","66","324748","0.0-2.0-4.0-1.6","5d17ce93ac37cd0019535088","B2","batch2","spm_respsonse","5363","img/question_3_7.jpeg","4","mat_31","5","1","1","5363","","","","","","","","","","","","","","","","","","","","",""
"","","","","","html-keyboard-response","67","325811","0.0-2.0-4.0-0.7","5d17ce93ac37cd0019535088","B2","batch2","spm_show_trial_num","null","<p class=block-text>Trial 32 out of 60</p>","null","","","","","","","","","","","","","","","","","","","","","","","","","",""
"","","","","","image-button-response","68","336546","0.0-2.0-4.0-1.7","5d17ce93ac37cd0019535088","B2","batch2","spm_respsonse","10734.300000000745","img/question_3_8.jpeg","5","mat_32","1","0","0","10734.300000000745","","","","","","","","","","","","","","","","","","","","",""
"","","","","","html-keyboard-response","69","337613","0.0-2.0-4.0-0.8","5d17ce93ac37cd0019535088","B2","batch2","spm_show_trial_num","null","<p class=block-text>Trial 33 out of 60</p>","null","","","","","","","","","","","","","","","","","","","","","","","","","",""
"","","","","","image-button-response","70","342472","0.0-2.0-4.0-1.8","5d17ce93ac37cd0019535088","B2","batch2","spm_respsonse","4857.799999998882","img/question_3_9.jpeg","6","mat_33","7","1","1","4857.799999998882","","","","","","","","","","","","","","","","","","","","",""
"","","","","","html-keyboard-response","71","343538","0.0-2.0-4.0-0.9","5d17ce93ac37cd0019535088","B2","batch2","spm_show_trial_num","null","<p class=block-text>Trial 34 out of 60</p>","null","","","","","","","","","","","","","","","","","","","","","","","","","",""
"","","","","","image-button-response","72","377543","0.0-2.0-4.0-1.9","5d17ce93ac37cd0019535088","B2","batch2","spm_respsonse","34003.20000000112","img/question_3_10.jpeg","0","mat_34","6","0","0","34003.20000000112","","","","","","","","","","","","","","","","","","","","",""
"","","","","","html-keyboard-response","73","378598","0.0-2.0-4.0-0.10","5d17ce93ac37cd0019535088","B2","batch2","spm_show_trial_num","null","<p class=block-text>Trial 35 out of 60</p>","null","","","","","","","","","","","","","","","","","","","","","","","","","",""
"","","","","","image-button-response","74","393308","0.0-2.0-4.0-1.10","5d17ce93ac37cd0019535088","B2","batch2","spm_respsonse","14709.5","img/question_3_11.jpeg","0","mat_35","1","1","1","14709.5","","","","","","","","","","","","","","","","","","","","",""
"","","","","","html-keyboard-response","75","394370","0.0-2.0-4.0-0.11","5d17ce93ac37cd0019535088","B2","batch2","spm_show_trial_num","null","<p class=block-text>Trial 36 out of 60</p>","null","","","","","","","","","","","","","","","","","","","","","","","","","",""
"","","","","","image-button-response","76","416529","0.0-2.0-4.0-1.11","5d17ce93ac37cd0019535088","B2","batch2","spm_respsonse","22157.5","img/question_3_12.jpeg","1","mat_36","2","1","1","22157.5","","","","","","","","","","","","","","","","","","","","",""
"","","","","","html-keyboard-response","77","417585","0.0-2.0-4.0-0.12","5d17ce93ac37cd0019535088","B2","batch2","spm_show_trial_num","null","<p class=block-text>Trial 37 out of 60</p>","null","","","","","","","","","","","","","","","","","","","","","","","","","",""
"","","","","","image-button-response","78","420444","0.0-2.0-4.0-1.12","5d17ce93ac37cd0019535088","B2","batch2","spm_respsonse","2858.0999999996275","img/question_4_1.jpeg","2","mat_37","3","1","1","2858.0999999996275","","","","","","","","","","","","","","","","","","","","",""
"","","","","","html-keyboard-response","79","421495","0.0-2.0-4.0-0.13","5d17ce93ac37cd0019535088","B2","batch2","spm_show_trial_num","null","<p class=block-text>Trial 38 out of 60</p>","null","","","","","","","","","","","","","","","","","","","","","","","","","",""
"","","","","","image-button-response","80","425927","0.0-2.0-4.0-1.13","5d17ce93ac37cd0019535088","B2","batch2","spm_respsonse","4430.199999999255","img/question_4_2.jpeg","3","mat_38","4","1","1","4430.199999999255","","","","","","","","","","","","","","","","","","","","",""
"","","","","","html-keyboard-response","81","426982","0.0-2.0-4.0-0.14","5d17ce93ac37cd0019535088","B2","batch2","spm_show_trial_num","null","<p class=block-text>Trial 39 out of 60</p>","null","","","","","","","","","","","","","","","","","","","","","","","","","",""
"","","","","","image-button-response","82","430074","0.0-2.0-4.0-1.14","5d17ce93ac37cd0019535088","B2","batch2","spm_respsonse","3091","img/question_4_3.jpeg","2","mat_39","3","1","1","3091","","","","","","","","","","","","","","","","","","","","",""
"","","","","","html-keyboard-response","83","431127","0.0-2.0-4.0-0.15","5d17ce93ac37cd0019535088","B2","batch2","spm_show_trial_num","null","<p class=block-text>Trial 40 out of 60</p>","null","","","","","","","","","","","","","","","","","","","","","","","","","",""
"","","","","","image-button-response","84","460691","0.0-2.0-4.0-1.15","5d17ce93ac37cd0019535088","B2","batch2","spm_respsonse","29562.60000000149","img/question_4_4.jpeg","6","mat_40","7","1","1","29562.60000000149","","","","","","","","","","","","","","","","","","","","",""
"","","","","","html-keyboard-response","85","461748","0.0-2.0-4.0-0.16","5d17ce93ac37cd0019535088","B2","batch2","spm_show_trial_num","null","<p class=block-text>Trial 41 out of 60</p>","null","","","","","","","","","","","","","","","","","","","","","","","","","",""
"","","","","","image-button-response","86","468582","0.0-2.0-4.0-1.16","5d17ce93ac37cd0019535088","B2","batch2","spm_respsonse","6832.4000000003725","img/question_4_5.jpeg","7","mat_41","8","1","1","6832.4000000003725","","","","","","","","","","","","","","","","","","","","",""
"","","","","","html-keyboard-response","87","469637","0.0-2.0-4.0-0.17","5d17ce93ac37cd0019535088","B2","batch2","spm_show_trial_num","null","<p class=block-text>Trial 42 out of 60</p>","null","","","","","","","","","","","","","","","","","","","","","","","","","",""
"","","","","","image-button-response","88","477402","0.0-2.0-4.0-1.17","5d17ce93ac37cd0019535088","B2","batch2","spm_respsonse","7763.4000000003725","img/question_4_6.jpeg","5","mat_42","6","1","1","7763.4000000003725","","","","","","","","","","","","","","","","","","","","",""
"","","","","","html-keyboard-response","89","478467","0.0-2.0-4.0-0.18","5d17ce93ac37cd0019535088","B2","batch2","spm_show_trial_num","null","<p class=block-text>Trial 43 out of 60</p>","null","","","","","","","","","","","","","","","","","","","","","","","","","",""
"","","","","","image-button-response","90","489957","0.0-2.0-4.0-1.18","5d17ce93ac37cd0019535088","B2","batch2","spm_respsonse","11488.900000000373","img/question_4_7.jpeg","4","mat_43","5","1","1","11488.900000000373","","","","","","","","","","","","","","","","","","","","",""
"","","","","","html-keyboard-response","91","491015","0.0-2.0-4.0-0.19","5d17ce93ac37cd0019535088","B2","batch2","spm_show_trial_num","null","<p class=block-text>Trial 44 out of 60</p>","null","","","","","","","","","","","","","","","","","","","","","","","","","",""
"","","","","","image-button-response","92","501147","0.0-2.0-4.0-1.19","5d17ce93ac37cd0019535088","B2","batch2","spm_respsonse","10131.39999999851","img/question_4_8.jpeg","3","mat_44","4","1","1","10131.39999999851","","","","","","","","","","","","","","","","","","","","",""
"","","","","","html-keyboard-response","93","502212","0.0-2.0-4.0-0.20","5d17ce93ac37cd0019535088","B2","batch2","spm_show_trial_num","null","<p class=block-text>Trial 45 out of 60</p>","null","","","","","","","","","","","","","","","","","","","","","","","","","",""
"","","","","","image-button-response","94","525185","0.0-2.0-4.0-1.20","5d17ce93ac37cd0019535088","B2","batch2","spm_respsonse","22972.099999999627","img/question_4_9.jpeg","0","mat_45","1","1","1","22972.099999999627","","","","","","","","","","","","","","","","","","","","",""
"","","","","","html-keyboard-response","95","526247","0.0-2.0-4.0-0.21","5d17ce93ac37cd0019535088","B2","batch2","spm_show_trial_num","null","<p class=block-text>Trial 46 out of 60</p>","null","","","","","","","","","","","","","","","","","","","","","","","","","",""
"","","","","","image-button-response","96","535497","0.0-2.0-4.0-1.21","5d17ce93ac37cd0019535088","B2","batch2","spm_respsonse","9248.699999999255","img/question_4_10.jpeg","1","mat_46","2","1","1","9248.699999999255","","","","","","","","","","","","","","","","","","","","",""
"","","","","","html-keyboard-response","97","536551","0.0-2.0-4.0-0.22","5d17ce93ac37cd0019535088","B2","batch2","spm_show_trial_num","null","<p class=block-text>Trial 47 out of 60</p>","null","","","","","","","","","","","","","","","","","","","","","","","","","",""
"","","","","","image-button-response","98","575129","0.0-2.0-4.0-1.22","5d17ce93ac37cd0019535088","B2","batch2","spm_respsonse","38577.10000000149","img/question_4_11.jpeg","7","mat_47","5","0","0","38577.10000000149","","","","","","","","","","","","","","","","","","","","",""
"","","","","","html-keyboard-response","99","576193","0.0-2.0-4.0-0.23","5d17ce93ac37cd0019535088","B2","batch2","spm_show_trial_num","null","<p class=block-text>Trial 48 out of 60</p>","null","","","","","","","","","","","","","","","","","","","","","","","","","",""
"","","","","","image-button-response","100","595597","0.0-2.0-4.0-1.23","5d17ce93ac37cd0019535088","B2","batch2","spm_respsonse","19403.099999999627","img/question_4_12.jpeg","4","mat_48","6","0","0","19403.099999999627","","","","","","","","","","","","","","","","","","","","",""
"","","","","","html-keyboard-response","101","596668","0.0-2.0-4.0-0.24","5d17ce93ac37cd0019535088","B2","batch2","spm_show_trial_num","null","<p class=block-text>Trial 49 out of 60</p>","null","","","","","","","","","","","","","","","","","","","","","","","","","",""
"","","","","","image-button-response","102","625208","0.0-2.0-4.0-1.24","5d17ce93ac37cd0019535088","B2","batch2","spm_respsonse","28539.599999999627","img/question_5_1.jpeg","6","mat_49","7","1","1","28539.599999999627","","","","","","","","","","","","","","","","","","","","",""
"","","","","","html-keyboard-response","103","626260","0.0-2.0-4.0-0.25","5d17ce93ac37cd0019535088","B2","batch2","spm_show_trial_num","null","<p class=block-text>Trial 50 out of 60</p>","null","","","","","","","","","","","","","","","","","","","","","","","","","",""
"","","","","","image-button-response","104","705649","0.0-2.0-4.0-1.25","5d17ce93ac37cd0019535088","B2","batch2","spm_respsonse","79387.19999999925","img/question_5_2.jpeg","5","mat_50","6","1","1","79387.19999999925","","","","","","","","","","","","","","","","","","","","",""
"","","","","","html-keyboard-response","105","706706","0.0-2.0-4.0-0.26","5d17ce93ac37cd0019535088","B2","batch2","spm_show_trial_num","null","<p class=block-text>Trial 51 out of 60</p>","null","","","","","","","","","","","","","","","","","","","","","","","","","",""
"","","","","","image-button-response","106","717478","0.0-2.0-4.0-1.26","5d17ce93ac37cd0019535088","B2","batch2","spm_respsonse","10770.699999999255","img/question_5_3.jpeg","7","mat_51","8","1","1","10770.699999999255","","","","","","","","","","","","","","","","","","","","",""
"","","","","","html-keyboard-response","107","718535","0.0-2.0-4.0-0.27","5d17ce93ac37cd0019535088","B2","batch2","spm_show_trial_num","null","<p class=block-text>Trial 52 out of 60</p>","null","","","","","","","","","","","","","","","","","","","","","","","","","",""
"","","","","","image-button-response","108","727737","0.0-2.0-4.0-1.27","5d17ce93ac37cd0019535088","B2","batch2","spm_respsonse","9200.800000000745","img/question_5_4.jpeg","1","mat_52","2","1","1","9200.800000000745","","","","","","","","","","","","","","","","","","","","",""
"","","","","","html-keyboard-response","109","728793","0.0-2.0-4.0-0.28","5d17ce93ac37cd0019535088","B2","batch2","spm_show_trial_num","null","<p class=block-text>Trial 53 out of 60</p>","null","","","","","","","","","","","","","","","","","","","","","","","","","",""
"","","","","","image-button-response","110","734698","0.0-2.0-4.0-1.28","5d17ce93ac37cd0019535088","B2","batch2","spm_respsonse","5904.199999999255","img/question_5_5.jpeg","0","mat_53","1","1","1","5904.199999999255","","","","","","","","","","","","","","","","","","","","",""
"","","","","","html-keyboard-response","111","735749","0.0-2.0-4.0-0.29","5d17ce93ac37cd0019535088","B2","batch2","spm_show_trial_num","null","<p class=block-text>Trial 54 out of 60</p>","null","","","","","","","","","","","","","","","","","","","","","","","","","",""
"","","","","","image-button-response","112","757424","0.0-2.0-4.0-1.29","5d17ce93ac37cd0019535088","B2","batch2","spm_respsonse","21673.299999998882","img/question_5_6.jpeg","4","mat_54","5","1","1","21673.299999998882","","","","","","","","","","","","","","","","","","","","",""
"","","","","","html-keyboard-response","113","758479","0.0-2.0-4.0-0.30","5d17ce93ac37cd0019535088","B2","batch2","spm_show_trial_num","null","<p class=block-text>Trial 55 out of 60</p>","null","","","","","","","","","","","","","","","","","","","","","","","","","",""
"","","","","","image-button-response","114","767728","0.0-2.0-4.0-1.30","5d17ce93ac37cd0019535088","B2","batch2","spm_respsonse","9248.299999998882","img/question_5_7.jpeg","0","mat_55","1","1","1","9248.299999998882","","","","","","","","","","","","","","","","","","","","",""
"","","","","","html-keyboard-response","115","768790","0.0-2.0-4.0-0.31","5d17ce93ac37cd0019535088","B2","batch2","spm_show_trial_num","null","<p class=block-text>Trial 56 out of 60</p>","null","","","","","","","","","","","","","","","","","","","","","","","","","",""
"","","","","","image-button-response","116","783224","0.0-2.0-4.0-1.31","5d17ce93ac37cd0019535088","B2","batch2","spm_respsonse","14433.400000000373","img/question_5_8.jpeg","5","mat_56","6","1","1","14433.400000000373","","","","","","","","","","","","","","","","","","","","",""
"","","","","","html-keyboard-response","117","784289","0.0-2.0-4.0-0.32","5d17ce93ac37cd0019535088","B2","batch2","spm_show_trial_num","null","<p class=block-text>Trial 57 out of 60</p>","null","","","","","","","","","","","","","","","","","","","","","","","","","",""
"","","","","","image-button-response","118","798390","0.0-2.0-4.0-1.32","5d17ce93ac37cd0019535088","B2","batch2","spm_respsonse","14099.700000001118","img/question_5_9.jpeg","0","mat_57","3","0","0","14099.700000001118","","","","","","","","","","","","","","","","","","","","",""
"","","","","","html-keyboard-response","119","799448","0.0-2.0-4.0-0.33","5d17ce93ac37cd0019535088","B2","batch2","spm_show_trial_num","null","<p class=block-text>Trial 58 out of 60</p>","null","","","","","","","","","","","","","","","","","","","","","","","","","",""
"","","","","","image-button-response","120","828173","0.0-2.0-4.0-1.33","5d17ce93ac37cd0019535088","B2","batch2","spm_respsonse","28724","img/question_5_10.jpeg","1","mat_58","2","1","1","28724","","","","","","","","","","","","","","","","","","","","",""
"","","","","","html-keyboard-response","121","829236","0.0-2.0-4.0-0.34","5d17ce93ac37cd0019535088","B2","batch2","spm_show_trial_num","null","<p class=block-text>Trial 59 out of 60</p>","null","","","","","","","","","","","","","","","","","","","","","","","","","",""
"","","","","","image-button-response","122","846856","0.0-2.0-4.0-1.34","5d17ce93ac37cd0019535088","B2","batch2","spm_respsonse","17619.200000001118","img/question_5_11.jpeg","0","mat_59","4","0","0","17619.200000001118","","","","","","","","","","","","","","","","","","","","",""
"","","","","","html-keyboard-response","123","847913","0.0-2.0-4.0-0.35","5d17ce93ac37cd0019535088","B2","batch2","spm_show_trial_num","null","<p class=block-text>Trial 60 out of 60</p>","null","","","","","","","","","","","","","","","","","","","","","","","","","",""
"","","","","","image-button-response","124","907917","0.0-2.0-4.0-1.35","5d17ce93ac37cd0019535088","B2","batch2","spm_respsonse","60002.59999999963","img/question_5_12.jpeg","4","mat_60","5","1","1","60002.59999999963","","","","","","","","","","","","","","","","","","","","",""
"","","","","","html-button-response","125","916340","0.0-2.0-5.0","5d17ce93ac37cd0019535088","B2","batch2","spm_goodbye","8171.299999998882","<p class= block-text>This concludes the Standard Progressive Matrix game. Thank you for your responses!<br> When you are ready, click the button continue</p>","0","","","","","","","","","","","","","","","","","","","","","","","","","",""
"true","","","","","fullscreen","126","920800","0.0-3.0-0.0","5d17ce93ac37cd0019535088","B2","batch2","","","","","","","","","","","","","","","","","","","","","","","","","","","","","",""
"","","","","","instructions","127","937393","0.0-3.0-1.0-0.0","5d17ce93ac37cd0019535088","B2","batch2","","16592.099999999627","","","","","","","","[{""page_index"":0,""viewing_time"":11034.400000000373},{""page_index"":1,""viewing_time"":5557.5}]","","","","","","","","","","","","","","","","","","","",""
"","","","","","html-button-response","128","938248","0.0-3.0-1.0-1.0-0.0","5d17ce93ac37cd0019535088","B2","batch2","pattern_enter_quiz","854.5999999996275","<p class=block-text> Let's answer a few questions <br>","0","","","","","","","","","","","","","","","","","","","","","","","","","",""
"","","","","","html-button-response","129","942275","0.0-3.0-1.0-1.0-1.0","5d17ce93ac37cd0019535088","B2","batch2","pattern_quiz","4026.7000000011176","<p class = block-text>True or False: You will have as much time as you want to make each choice. <br></p>","0","","","false","","","","","","","","","","","","","","","","","","","","","","",""
"","","","","","html-button-response","130","943581","0.0-3.0-1.0-1.0-2.0","5d17ce93ac37cd0019535088","B2","batch2","pattern_quiz_feedback","1304.300000000745","<p class = block-text>Incorrect. Remember, You should make your choice as fast as you can.</p>","0","","","","","","","","","","","","","","","","","","","","","","","","","",""
"","","","","","html-button-response","131","946866","0.0-3.0-1.0-1.0-3.0","5d17ce93ac37cd0019535088","B2","batch2","pattern_quiz","3284.800000000745","<p class = block-text>True or False: You will look for 4 pieces in black or white color connected in a row either horizontally, vertically or diagonally. <br></p>","0","","","true","","","","","","","","","","","","","","","","","","","","","","",""
"","","","","","html-button-response","132","947511","0.0-3.0-1.0-1.0-4.0","5d17ce93ac37cd0019535088","B2","batch2","pattern_quiz_feedback","644.2000000011176","<p class = block-text>Correct! </p>","0","","","","","","","","","","","","","","","","","","","","","","","","","",""
"","","","","","html-button-response","133","948823","0.0-3.0-1.0-2.0-0.0","5d17ce93ac37cd0019535088","B2","batch2","","1311.199999999255","<p class = block-text>You made too many incorrect choices.</p><p class = block-text>You will now repeat the instruction and quiz</p>","0","","","","","","","","","","","","","","","","","","","","","","","","","",""
"","","","","","instructions","134","953069","0.0-3.0-1.1-0.1","5d17ce93ac37cd0019535088","B2","batch2","","4245","","","","","","","","[{""page_index"":0,""viewing_time"":3014.5999999996275},{""page_index"":1,""viewing_time"":1230.2999999988824}]","","","","","","","","","","","","","","","","","","","",""
"","","","","","html-button-response","135","953751","0.0-3.0-1.1-1.1-0.1","5d17ce93ac37cd0019535088","B2","batch2","pattern_enter_quiz","681.1999999992549","<p class=block-text> Let's answer a few questions <br>","0","","","","","","","","","","","","","","","","","","","","","","","","","",""
"","","","","","html-button-response","136","955123","0.0-3.0-1.1-1.1-1.1","5d17ce93ac37cd0019535088","B2","batch2","pattern_quiz","1371.6000000014901","<p class = block-text>True or False: You will have as much time as you want to make each choice. <br></p>","1","","","true","","","","","","","","","","","","","","","","","","","","","","",""
"","","","","","html-button-response","137","955806","0.0-3.0-1.1-1.1-2.1","5d17ce93ac37cd0019535088","B2","batch2","pattern_quiz_feedback","682.5","<p class = block-text>Correct! You should make your choice <strong> as fast as you can</strong>.</p>","0","","","","","","","","","","","","","","","","","","","","","","","","","",""
"","","","","","html-button-response","138","957538","0.0-3.0-1.1-1.1-3.1","5d17ce93ac37cd0019535088","B2","batch2","pattern_quiz","1731.7999999988824","<p class = block-text>True or False: You will look for 4 pieces in black or white color connected in a row either horizontally, vertically or diagonally. <br></p>","0","","","true","","","","","","","","","","","","","","","","","","","","","","",""
"","","","","","html-button-response","139","958101","0.0-3.0-1.1-1.1-4.1","5d17ce93ac37cd0019535088","B2","batch2","pattern_quiz_feedback","562.5","<p class = block-text>Correct! </p>","0","","","","","","","","","","","","","","","","","","","","","","","","","",""
"","","","","","html-button-response","140","959465","0.0-3.0-2.0","5d17ce93ac37cd0019535088","B2","batch2","pattern_enter_practice","1363.2999999988824","<p class=block-text> Now that you've understood the game, let's do a few practice trials before we start!<br> <br>","0","","","","","","","","","","","","","","","","","","","","","","","","","",""
"","","","","","image-keyboard-response","141","960833","0.0-3.0-3.0-0.0","5d17ce93ac37cd0019535088","B2","batch2","pattern_practice","1367.300000000745","stim/prac_no_18_1.png","j","","j","true","","","","","","","","","","","","","","","","","","","","","","",""
"","","","","","html-keyboard-response","142","961842","0.0-3.0-3.0-1.0","5d17ce93ac37cd0019535088","B2","batch2","pattern_feedback","null","<p style=""font-size:30px;color:green;"">Correct!</p>","null","","","","","","","","","","","","","","","","","","","","","","","","","",""
"","","","","","image-keyboard-response","143","962465","0.0-3.0-3.0-0.1","5d17ce93ac37cd0019535088","B2","batch2","pattern_practice","623","stim/prac_yes_16_ver_w1.png","f","","f","true","","","","","","","","","","","","","","","","","","","","","","",""
"","","","","","html-keyboard-response","144","963476","0.0-3.0-3.0-1.1","5d17ce93ac37cd0019535088","B2","batch2","pattern_feedback","null","<p style=""font-size:30px;color:green;"">Correct!</p>","null","","","","","","","","","","","","","","","","","","","","","","","","","",""
"","","","","","image-keyboard-response","145","964333","0.0-3.0-3.0-0.2","5d17ce93ac37cd0019535088","B2","batch2","pattern_practice","857","stim/prac_yes_18_hor_w1.png","f","","f","true","","","","","","","","","","","","","","","","","","","","","","",""
"","","","","","html-keyboard-response","146","965349","0.0-3.0-3.0-1.2","5d17ce93ac37cd0019535088","B2","batch2","pattern_feedback","null","<p style=""font-size:30px;color:green;"">Correct!</p>","null","","","","","","","","","","","","","","","","","","","","","","","","","",""
"","","","","","image-keyboard-response","147","965951","0.0-3.0-3.0-0.3","5d17ce93ac37cd0019535088","B2","batch2","pattern_practice","601.4000000003725","stim/prac_no_16_1.png","f","","j","false","","","","","","","","","","","","","","","","","","","","","","",""
"","","","","","html-keyboard-response","148","966971","0.0-3.0-3.0-1.3","5d17ce93ac37cd0019535088","B2","batch2","pattern_feedback","null","<p style=""font-size:30px;color:red;"">Wrong.</p>","null","","","","","","","","","","","","","","","","","","","","","","","","","",""
"","","","","","image-keyboard-response","149","968324","0.0-3.0-3.0-0.4","5d17ce93ac37cd0019535088","B2","batch2","pattern_practice","1352.7999999988824","stim/prac_yes_20_dia_b1.png","f","","f","true","","","","","","","","","","","","","","","","","","","","","","",""
"","","","","","html-keyboard-response","150","969340","0.0-3.0-3.0-1.4","5d17ce93ac37cd0019535088","B2","batch2","pattern_feedback","null","<p style=""font-size:30px;color:green;"">Correct!</p>","null","","","","","","","","","","","","","","","","","","","","","","","","","",""
"","","","","","html-button-response","151","972208","0.0-3.0-4.0","5d17ce93ac37cd0019535088","B2","batch2","pattern_enter_official_trials","2866.39999999851","<p class=block-text> Good job! You are done with practice trials!<br>
        You responded correctly on 80% of the trials.<br>
        Press the button below to start official trials. Now you won't see any feedback about your response</p>","0","","","","","","","","","","","","","","","","","","","","","","","","","",""
"","","","","","html-keyboard-response","152","973019","0.0-3.0-5.0-0.0","5d17ce93ac37cd0019535088","B2","batch2","pattern_show_trial_num","null","<p class=block-text>Trial 1 out of 78</p>","null","","","","","","","","","","","","","","","","","","","","","","","","","",""
"","","","","","image-keyboard-response","153","975339","0.0-3.0-5.0-1.0","5d17ce93ac37cd0019535088","B2","batch2","pattern_response","2318.300000000745","stim/no_37_2_w.png","j","pattern_19","j","true","","","","2318.300000000745","true","1","","","","","","","","","","","","","","","","",""
"","","","","","html-keyboard-response","154","976654","0.0-3.0-5.0-0.1","5d17ce93ac37cd0019535088","B2","batch2","pattern_show_trial_num","null","<p class=block-text>Trial 2 out of 78</p>","null","","","","","","","","","","","","","","","","","","","","","","","","","",""
"","","","","","image-keyboard-response","155","977823","0.0-3.0-5.0-1.1","5d17ce93ac37cd0019535088","B2","batch2","pattern_response","1168.5999999996275","stim/no_22_1_b.png","j","pattern_07","j","true","","","","1168.5999999996275","true","2","","","","","","","","","","","","","","","","",""
"","","","","","html-keyboard-response","156","979146","0.0-3.0-5.0-0.2","5d17ce93ac37cd0019535088","B2","batch2","pattern_show_trial_num","null","<p class=block-text>Trial 3 out of 78</p>","null","","","","","","","","","","","","","","","","","","","","","","","","","",""
"","","","","","image-keyboard-response","157","981498","0.0-3.0-5.0-1.2","5d17ce93ac37cd0019535088","B2","batch2","pattern_response","2351.7999999988824","stim/yes_58_dia_w1_w.png","j","pattern_76","f","false","","","","2351.7999999988824","false","2","","","","","","","","","","","","","","","","",""
"","","","","","html-keyboard-response","158","982820","0.0-3.0-5.0-0.3","5d17ce93ac37cd0019535088","B2","batch2","pattern_show_trial_num","null","<p class=block-text>Trial 4 out of 78</p>","null","","","","","","","","","","","","","","","","","","","","","","","","","",""
"","","","","","image-keyboard-response","159","986045","0.0-3.0-5.0-1.3","5d17ce93ac37cd0019535088","B2","batch2","pattern_response","3224.10000000149","stim/no_51_1.png","j","pattern_31","j","true","","","","3224.10000000149","true","3","","","","","","","","","","","","","","","","",""
"","","","","","html-keyboard-response","160","987359","0.0-3.0-5.0-0.4","5d17ce93ac37cd0019535088","B2","batch2","pattern_show_trial_num","null","<p class=block-text>Trial 5 out of 78</p>","null","","","","","","","","","","","","","","","","","","","","","","","","","",""
"","","","","","image-keyboard-response","161","990542","0.0-3.0-5.0-1.4","5d17ce93ac37cd0019535088","B2","batch2","pattern_response","3182.4000000003725","stim/no_67_1.png","j","pattern_39","j","true","","","","3182.4000000003725","true","4","","","","","","","","","","","","","","","","",""
"","","","","","html-keyboard-response","162","991858","0.0-3.0-5.0-0.5","5d17ce93ac37cd0019535088","B2","batch2","pattern_show_trial_num","null","<p class=block-text>Trial 6 out of 78</p>","null","","","","","","","","","","","","","","","","","","","","","","","","","",""
"","","","","","image-keyboard-response","163","993008","0.0-3.0-5.0-1.5","5d17ce93ac37cd0019535088","B2","batch2","pattern_response","1149.8999999985099","stim/yes_70_ver_b1.png","f","pattern_80","f","true","","","","1149.8999999985099","true","5","","","","","","","","","","","","","","","","",""
"","","","","","html-keyboard-response","164","994331","0.0-3.0-5.0-0.6","5d17ce93ac37cd0019535088","B2","batch2","pattern_show_trial_num","null","<p class=block-text>Trial 7 out of 78</p>","null","","","","","","","","","","","","","","","","","","","","","","","","","",""
"","","","","","image-keyboard-response","165","995142","0.0-3.0-5.0-1.6","5d17ce93ac37cd0019535088","B2","batch2","pattern_response","810.4000000003725","stim/yes_46_ver_b1_b.png","f","pattern_68","f","true","","","","810.4000000003725","true","6","","","","","","","","","","","","","","","","",""
"","","","","","html-keyboard-response","166","996459","0.0-3.0-5.0-0.7","5d17ce93ac37cd0019535088","B2","batch2","pattern_show_trial_num","null","<p class=block-text>Trial 8 out of 78</p>","null","","","","","","","","","","","","","","","","","","","","","","","","","",""
"","","","","","image-keyboard-response","167","997868","0.0-3.0-5.0-1.7","5d17ce93ac37cd0019535088","B2","batch2","pattern_response","1408.8999999985099","stim/no_39_1_w.png","j","pattern_21","j","true","","","","1408.8999999985099","true","7","","","","","","","","","","","","","","","","",""
"","","","","","html-keyboard-response","168","999183","0.0-3.0-5.0-0.8","5d17ce93ac37cd0019535088","B2","batch2","pattern_show_trial_num","null","<p class=block-text>Trial 9 out of 78</p>","null","","","","","","","","","","","","","","","","","","","","","","","","","",""
"","","","","","image-keyboard-response","169","1002738","0.0-3.0-5.0-1.8","5d17ce93ac37cd0019535088","B2","batch2","pattern_response","3554.699999999255","stim/yes_63_dia_b1.png","j","pattern_78","f","false","","","","3554.699999999255","false","7","","","","","","","","","","","","","","","","",""
"","","","","","html-keyboard-response","170","1004052","0.0-3.0-5.0-0.9","5d17ce93ac37cd0019535088","B2","batch2","pattern_show_trial_num","null","<p class=block-text>Trial 10 out of 78</p>","null","","","","","","","","","","","","","","","","","","","","","","","","","",""
"","","","","","image-keyboard-response","171","1005288","0.0-3.0-5.0-1.9","5d17ce93ac37cd0019535088","B2","batch2","pattern_response","1235","stim/no_49_2_b.png","f","pattern_29","j","false","","","","1235","false","7","","","","","","","","","","","","","","","","",""
"","","","","","html-keyboard-response","172","1006610","0.0-3.0-5.0-0.10","5d17ce93ac37cd0019535088","B2","batch2","pattern_show_trial_num","null","<p class=block-text>Trial 11 out of 78</p>","null","","","","","","","","","","","","","","","","","","","","","","","","","",""
"","","","","","image-keyboard-response","173","1008648","0.0-3.0-5.0-1.10","5d17ce93ac37cd0019535088","B2","batch2","pattern_response","2037.0999999996275","stim/no_15_1_w.png","f","pattern_03","j","false","","","","2037.0999999996275","false","7","","","","","","","","","","","","","","","","",""
"","","","","","html-keyboard-response","174","1009972","0.0-3.0-5.0-0.11","5d17ce93ac37cd0019535088","B2","batch2","pattern_show_trial_num","null","<p class=block-text>Trial 12 out of 78</p>","null","","","","","","","","","","","","","","","","","","","","","","","","","",""
"","","","","","image-keyboard-response","175","1012959","0.0-3.0-5.0-1.11","5d17ce93ac37cd0019535088","B2","batch2","pattern_response","2987","stim/yes_44_ver_w1_w.png","f","pattern_66","f","true","","","","2987","true","8","","","","","","","","","","","","","","","","",""
"","","","","","html-keyboard-response","176","1014284","0.0-3.0-5.0-0.12","5d17ce93ac37cd0019535088","B2","batch2","pattern_show_trial_num","null","<p class=block-text>Trial 13 out of 78</p>","null","","","","","","","","","","","","","","","","","","","","","","","","","",""
"","","","","","image-keyboard-response","177","1015716","0.0-3.0-5.0-1.12","5d17ce93ac37cd0019535088","B2","batch2","pattern_response","1431.300000000745","stim/no_12_1.png","j","pattern_01","j","true","","","","1431.300000000745","true","9","","","","","","","","","","","","","","","","",""
"","","","","","html-keyboard-response","178","1017040","0.0-3.0-5.0-0.13","5d17ce93ac37cd0019535088","B2","batch2","pattern_show_trial_num","null","<p class=block-text>Trial 14 out of 78</p>","null","","","","","","","","","","","","","","","","","","","","","","","","","",""
"","","","","","image-keyboard-response","179","1018754","0.0-3.0-5.0-1.13","5d17ce93ac37cd0019535088","B2","batch2","pattern_response","1712.800000000745","stim/yes_37_hor_w1_w.png","f","pattern_60","f","true","","","","1712.800000000745","true","10","","","","","","","","","","","","","","","","",""
"","","","","","html-keyboard-response","180","1020072","0.0-3.0-5.0-0.14","5d17ce93ac37cd0019535088","B2","batch2","pattern_show_trial_num","null","<p class=block-text>Trial 15 out of 78</p>","null","","","","","","","","","","","","","","","","","","","","","","","","","",""
"","","","","","image-keyboard-response","181","1021269","0.0-3.0-5.0-1.14","5d17ce93ac37cd0019535088","B2","batch2","pattern_response","1195.5999999996275","stim/yes_26_dia_w2_w.png","f","pattern_50","f","true","","","","1195.5999999996275","true","11","","","","","","","","","","","","","","","","",""
"","","","","","html-keyboard-response","182","1022594","0.0-3.0-5.0-0.15","5d17ce93ac37cd0019535088","B2","batch2","pattern_show_trial_num","null","<p class=block-text>Trial 16 out of 78</p>","null","","","","","","","","","","","","","","","","","","","","","","","","","",""
"","","","","","image-keyboard-response","183","1023426","0.0-3.0-5.0-1.15","5d17ce93ac37cd0019535088","B2","batch2","pattern_response","830.6999999992549","stim/yes_23_ver_b1.png","f","pattern_48","f","true","","","","830.6999999992549","true","12","","","","","","","","","","","","","","","","",""
"","","","","","html-keyboard-response","184","1024741","0.0-3.0-5.0-0.16","5d17ce93ac37cd0019535088","B2","batch2","pattern_show_trial_num","null","<p class=block-text>Trial 17 out of 78</p>","null","","","","","","","","","","","","","","","","","","","","","","","","","",""
"","","","","","image-keyboard-response","185","1027182","0.0-3.0-5.0-1.16","5d17ce93ac37cd0019535088","B2","batch2","pattern_response","2441.300000000745","stim/no_30_1_b.png","j","pattern_13","j","true","","","","2441.300000000745","true","13","","","","","","","","","","","","","","","","",""
"","","","","","html-keyboard-response","186","1028505","0.0-3.0-5.0-0.17","5d17ce93ac37cd0019535088","B2","batch2","pattern_show_trial_num","null","<p class=block-text>Trial 18 out of 78</p>","null","","","","","","","","","","","","","","","","","","","","","","","","","",""
"","","","","","image-keyboard-response","187","1029602","0.0-3.0-5.0-1.17","5d17ce93ac37cd0019535088","B2","batch2","pattern_response","1096.199999999255","stim/yes_49_hor_w1_b.png","f","pattern_70","f","true","","","","1096.199999999255","true","14","","","","","","","","","","","","","","","","",""
"","","","","","html-keyboard-response","188","1030916","0.0-3.0-5.0-0.18","5d17ce93ac37cd0019535088","B2","batch2","pattern_show_trial_num","null","<p class=block-text>Trial 19 out of 78</p>","null","","","","","","","","","","","","","","","","","","","","","","","","","",""
"","","","","","image-keyboard-response","189","1031619","0.0-3.0-5.0-1.18","5d17ce93ac37cd0019535088","B2","batch2","pattern_response","703","stim/yes_29_hor_b1_b.png","f","pattern_52","f","true","","","","703","true","15","","","","","","","","","","","","","","","","",""
"","","","","","html-keyboard-response","190","1032938","0.0-3.0-5.0-0.19","5d17ce93ac37cd0019535088","B2","batch2","pattern_show_trial_num","null","<p class=block-text>Trial 20 out of 78</p>","null","","","","","","","","","","","","","","","","","","","","","","","","","",""
"","","","","","image-keyboard-response","191","1033642","0.0-3.0-5.0-1.19","5d17ce93ac37cd0019535088","B2","batch2","pattern_response","704","stim/yes_17_ver_b1_b.png","f","pattern_46","f","true","","","","704","true","16","","","","","","","","","","","","","","","","",""
"","","","","","html-keyboard-response","192","1034966","0.0-3.0-5.0-0.20","5d17ce93ac37cd0019535088","B2","batch2","pattern_show_trial_num","null","<p class=block-text>Trial 21 out of 78</p>","null","","","","","","","","","","","","","","","","","","","","","","","","","",""
"","","","","","image-keyboard-response","193","1036420","0.0-3.0-5.0-1.20","5d17ce93ac37cd0019535088","B2","batch2","pattern_response","1453.7000000011176","stim/yes_53_ver_b1_b.png","f","pattern_74","f","true","","","","1453.7000000011176","true","17","","","","","","","","","","","","","","","","",""
"","","","","","html-keyboard-response","194","1037735","0.0-3.0-5.0-0.21","5d17ce93ac37cd0019535088","B2","batch2","pattern_show_trial_num","null","<p class=block-text>Trial 22 out of 78</p>","null","","","","","","","","","","","","","","","","","","","","","","","","","",""
"","","","","","image-keyboard-response","195","1040464","0.0-3.0-5.0-1.21","5d17ce93ac37cd0019535088","B2","batch2","pattern_response","2727.7999999988824","stim/no_45_1_w.png","j","pattern_25","j","true","","","","2727.7999999988824","true","18","","","","","","","","","","","","","","","","",""
"","","","","","html-keyboard-response","196","1041778","0.0-3.0-5.0-0.22","5d17ce93ac37cd0019535088","B2","batch2","pattern_show_trial_num","null","<p class=block-text>Trial 23 out of 78</p>","null","","","","","","","","","","","","","","","","","","","","","","","","","",""
"","","","","","image-keyboard-response","197","1044522","0.0-3.0-5.0-1.22","5d17ce93ac37cd0019535088","B2","batch2","pattern_response","2743.7000000011176","stim/no_43_2_b.png","j","pattern_23","j","true","","","","2743.7000000011176","true","19","","","","","","","","","","","","","","","","",""
"","","","","","html-keyboard-response","198","1045843","0.0-3.0-5.0-0.23","5d17ce93ac37cd0019535088","B2","batch2","pattern_show_trial_num","null","<p class=block-text>Trial 24 out of 78</p>","null","","","","","","","","","","","","","","","","","","","","","","","","","",""
"","","","","","image-keyboard-response","199","1048712","0.0-3.0-5.0-1.23","5d17ce93ac37cd0019535088","B2","batch2","pattern_response","2868.699999999255","stim/no_33_1_b.png","j","pattern_15","j","true","","","","2868.699999999255","true","20","","","","","","","","","","","","","","","","",""
"","","","","","html-keyboard-response","200","1050021","0.0-3.0-5.0-0.24","5d17ce93ac37cd0019535088","B2","batch2","pattern_show_trial_num","null","<p class=block-text>Trial 25 out of 78</p>","null","","","","","","","","","","","","","","","","","","","","","","","","","",""
"","","","","","image-keyboard-response","201","1051550","0.0-3.0-5.0-1.24","5d17ce93ac37cd0019535088","B2","batch2","pattern_response","1527.9000000003725","stim/yes_33_dia_w1_w.png","f","pattern_56","f","true","","","","1527.9000000003725","true","21","","","","","","","","","","","","","","","","",""
"","","","","","html-keyboard-response","202","1052871","0.0-3.0-5.0-0.25","5d17ce93ac37cd0019535088","B2","batch2","pattern_show_trial_num","null","<p class=block-text>Trial 26 out of 78</p>","null","","","","","","","","","","","","","","","","","","","","","","","","","",""
"","","","","","image-keyboard-response","203","1053522","0.0-3.0-5.0-1.25","5d17ce93ac37cd0019535088","B2","batch2","pattern_response","650.5999999996275","stim/yes_36_ver_w1_w.png","f","pattern_58","f","true","","","","650.5999999996275","true","22","","","","","","","","","","","","","","","","",""
"","","","","","html-keyboard-response","204","1054849","0.0-3.0-5.0-0.26","5d17ce93ac37cd0019535088","B2","batch2","pattern_show_trial_num","null","<p class=block-text>Trial 27 out of 78</p>","null","","","","","","","","","","","","","","","","","","","","","","","","","",""
"","","","","","image-keyboard-response","205","1056629","0.0-3.0-5.0-1.26","5d17ce93ac37cd0019535088","B2","batch2","pattern_response","1779.9000000003725","stim/no_36_1_b.png","j","pattern_17","j","true","","","","1779.9000000003725","true","23","","","","","","","","","","","","","","","","",""
"","","","","","html-keyboard-response","206","1057952","0.0-3.0-5.0-0.27","5d17ce93ac37cd0019535088","B2","batch2","pattern_show_trial_num","null","<p class=block-text>Trial 28 out of 78</p>","null","","","","","","","","","","","","","","","","","","","","","","","","","",""
"","","","","","image-keyboard-response","207","1060276","0.0-3.0-5.0-1.27","5d17ce93ac37cd0019535088","B2","batch2","pattern_response","2323.7000000011176","stim/yes_51_dia_b1.png","j","pattern_72","f","false","","","","2323.7000000011176","false","23","","","","","","","","","","","","","","","","",""
"","","","","","html-keyboard-response","208","1061598","0.0-3.0-5.0-0.28","5d17ce93ac37cd0019535088","B2","batch2","pattern_show_trial_num","null","<p class=block-text>Trial 29 out of 78</p>","null","","","","","","","","","","","","","","","","","","","","","","","","","",""
"","","","","","image-keyboard-response","209","1062889","0.0-3.0-5.0-1.28","5d17ce93ac37cd0019535088","B2","batch2","pattern_response","1289.8999999985099","stim/no_18_1_b.png","j","pattern_05","j","true","","","","1289.8999999985099","true","24","","","","","","","","","","","","","","","","",""
"","","","","","html-keyboard-response","210","1064214","0.0-3.0-5.0-0.29","5d17ce93ac37cd0019535088","B2","batch2","pattern_show_trial_num","null","<p class=block-text>Trial 30 out of 78</p>","null","","","","","","","","","","","","","","","","","","","","","","","","","",""
"","","","","","image-keyboard-response","211","1064986","0.0-3.0-5.0-1.29","5d17ce93ac37cd0019535088","B2","batch2","pattern_response","771.8000000007451","stim/yes_15_dia_b1u_b.png","f","pattern_44","f","true","","","","771.8000000007451","true","25","","","","","","","","","","","","","","","","",""
"","","","","","html-keyboard-response","212","1066299","0.0-3.0-5.0-0.30","5d17ce93ac37cd0019535088","B2","batch2","pattern_show_trial_num","null","<p class=block-text>Trial 31 out of 78</p>","null","","","","","","","","","","","","","","","","","","","","","","","","","",""
"","","","","","image-keyboard-response","213","1068716","0.0-3.0-5.0-1.30","5d17ce93ac37cd0019535088","B2","batch2","pattern_response","2417.0999999996275","stim/no_47_1_b.png","j","pattern_27","j","true","","","","2417.0999999996275","true","26","","","","","","","","","","","","","","","","",""
"","","","","","html-keyboard-response","214","1070019","0.0-3.0-5.0-0.31","5d17ce93ac37cd0019535088","B2","batch2","pattern_show_trial_num","null","<p class=block-text>Trial 32 out of 78</p>","null","","","","","","","","","","","","","","","","","","","","","","","","","",""
"","","","","","image-keyboard-response","215","1073524","0.0-3.0-5.0-1.31","5d17ce93ac37cd0019535088","B2","batch2","pattern_response","3504.699999999255","stim/no_58_1_w.png","j","pattern_35","j","true","","","","3504.699999999255","true","27","","","","","","","","","","","","","","","","",""
"","","","","","html-keyboard-response","216","1074837","0.0-3.0-5.0-0.32","5d17ce93ac37cd0019535088","B2","batch2","pattern_show_trial_num","null","<p class=block-text>Trial 33 out of 78</p>","null","","","","","","","","","","","","","","","","","","","","","","","","","",""
"","","","","","image-keyboard-response","217","1075908","0.0-3.0-5.0-1.32","5d17ce93ac37cd0019535088","B2","batch2","pattern_response","1070.300000000745","stim/yes_30_ver_b1_b.png","f","pattern_54","f","true","","","","1070.300000000745","true","28","","","","","","","","","","","","","","","","",""
"","","","","","html-keyboard-response","218","1077231","0.0-3.0-5.0-0.33","5d17ce93ac37cd0019535088","B2","batch2","pattern_show_trial_num","null","<p class=block-text>Trial 34 out of 78</p>","null","","","","","","","","","","","","","","","","","","","","","","","","","",""
"","","","","","image-keyboard-response","219","1079655","0.0-3.0-5.0-1.33","5d17ce93ac37cd0019535088","B2","batch2","pattern_response","2422.5999999996275","stim/yes_42_dia_w1_w.png","j","pattern_64","f","false","","","","2422.5999999996275","false","28","","","","","","","","","","","","","","","","",""
"","","","","","html-keyboard-response","220","1080981","0.0-3.0-5.0-0.34","5d17ce93ac37cd0019535088","B2","batch2","pattern_show_trial_num","null","<p class=block-text>Trial 35 out of 78</p>","null","","","","","","","","","","","","","","","","","","","","","","","","","",""
"","","","","","image-keyboard-response","221","1082916","0.0-3.0-5.0-1.34","5d17ce93ac37cd0019535088","B2","batch2","pattern_response","1933.800000000745","stim/no_25_1_b.png","j","pattern_09","j","true","","","","1933.800000000745","true","29","","","","","","","","","","","","","","","","",""
"","","","","","html-keyboard-response","222","1084230","0.0-3.0-5.0-0.35","5d17ce93ac37cd0019535088","B2","batch2","pattern_show_trial_num","null","<p class=block-text>Trial 36 out of 78</p>","null","","","","","","","","","","","","","","","","","","","","","","","","","",""
"","","","","","image-keyboard-response","223","1085085","0.0-3.0-5.0-1.35","5d17ce93ac37cd0019535088","B2","batch2","pattern_response","853.8000000007451","stim/yes_39_hor_w1_w.png","f","pattern_62","f","true","","","","853.8000000007451","true","30","","","","","","","","","","","","","","","","",""
"","","","","","html-keyboard-response","224","1086399","0.0-3.0-5.0-0.36","5d17ce93ac37cd0019535088","B2","batch2","pattern_show_trial_num","null","<p class=block-text>Trial 37 out of 78</p>","null","","","","","","","","","","","","","","","","","","","","","","","","","",""
"","","","","","image-keyboard-response","225","1089124","0.0-3.0-5.0-1.36","5d17ce93ac37cd0019535088","B2","batch2","pattern_response","2724.300000000745","stim/no_53_1_b.png","j","pattern_33","j","true","","","","2724.300000000745","true","31","","","","","","","","","","","","","","","","",""
"","","","","","html-keyboard-response","226","1090434","0.0-3.0-5.0-0.37","5d17ce93ac37cd0019535088","B2","batch2","pattern_show_trial_num","null","<p class=block-text>Trial 38 out of 78</p>","null","","","","","","","","","","","","","","","","","","","","","","","","","",""
"","","","","","image-keyboard-response","227","1093419","0.0-3.0-5.0-1.37","5d17ce93ac37cd0019535088","B2","batch2","pattern_response","2983.5","stim/no_28_2.png","j","pattern_11","j","true","","","","2983.5","true","32","","","","","","","","","","","","","","","","",""
"","","","","","html-keyboard-response","228","1094731","0.0-3.0-5.0-0.38","5d17ce93ac37cd0019535088","B2","batch2","pattern_show_trial_num","null","<p class=block-text>Trial 39 out of 78</p>","null","","","","","","","","","","","","","","","","","","","","","","","","","",""
"","","","","","image-keyboard-response","229","1095379","0.0-3.0-5.0-1.38","5d17ce93ac37cd0019535088","B2","batch2","pattern_response","646.9000000003725","stim/yes_12_hor_w1_w.png","f","pattern_42","f","true","","","","646.9000000003725","true","33","","","","","","","","","","","","","","","","",""
"","","","","","image-keyboard-response","230","1097268","0.0-3.0-6.0","5d17ce93ac37cd0019535088","B2","batch2","attention_check","1373","stim/empty_board.png","j","","j","true","","","","","","","500","[""f"",""j""]","","","","","","","","","","","","","","",""
"","","","","","html-keyboard-response","231","1098081","0.0-3.0-7.0-0.0","5d17ce93ac37cd0019535088","B2","batch2","pattern_show_trial_num","null","<p class=block-text>Trial 40 out of 78</p>","null","","","","","","","","","","","","","","","","","","","","","","","","","",""
"","","","","","image-keyboard-response","232","1102161","0.0-3.0-7.0-1.0","5d17ce93ac37cd0019535088","B2","batch2","pattern_response","4079.5","stim/yes_50_dia_w1.png","f","pattern_71","f","true","","","","4079.5","true","34","","","","","","","","","","","","","","","","",""
"","","","","","html-keyboard-response","233","1103484","0.0-3.0-7.0-0.1","5d17ce93ac37cd0019535088","B2","batch2","pattern_show_trial_num","null","<p class=block-text>Trial 41 out of 78</p>","null","","","","","","","","","","","","","","","","","","","","","","","","","",""
"","","","","","image-keyboard-response","234","1104264","0.0-3.0-7.0-1.1","5d17ce93ac37cd0019535088","B2","batch2","pattern_response","779.5","stim/yes_25_hor_b1_b.png","f","pattern_49","f","true","","","","779.5","true","35","","","","","","","","","","","","","","","","",""
"","","","","","html-keyboard-response","235","1105582","0.0-3.0-7.0-0.2","5d17ce93ac37cd0019535088","B2","batch2","pattern_show_trial_num","null","<p class=block-text>Trial 42 out of 78</p>","null","","","","","","","","","","","","","","","","","","","","","","","","","",""
"","","","","","image-keyboard-response","236","1106547","0.0-3.0-7.0-1.2","5d17ce93ac37cd0019535088","B2","batch2","pattern_response","964.1999999992549","stim/yes_29_ver_w1.png","f","pattern_53","f","true","","","","964.1999999992549","true","36","","","","","","","","","","","","","","","","",""
"","","","","","html-keyboard-response","237","1107850","0.0-3.0-7.0-0.3","5d17ce93ac37cd0019535088","B2","batch2","pattern_show_trial_num","null","<p class=block-text>Trial 43 out of 78</p>","null","","","","","","","","","","","","","","","","","","","","","","","","","",""
"","","","","","image-keyboard-response","238","1109013","0.0-3.0-7.0-1.3","5d17ce93ac37cd0019535088","B2","batch2","pattern_response","1158.7000000011176","stim/yes_55_hor_w1_w.png","f","pattern_75","f","true","","","","1158.7000000011176","true","37","","","","","","","","","","","","","","","","",""
"","","","","","html-keyboard-response","239","1110322","0.0-3.0-7.0-0.4","5d17ce93ac37cd0019535088","B2","batch2","pattern_show_trial_num","null","<p class=block-text>Trial 44 out of 78</p>","null","","","","","","","","","","","","","","","","","","","","","","","","","",""
"","","","","","image-keyboard-response","240","1113926","0.0-3.0-7.0-1.4","5d17ce93ac37cd0019535088","B2","batch2","pattern_response","3602.0999999996275","stim/no_48_1_w.png","j","pattern_28","j","true","","","","3602.0999999996275","true","38","","","","","","","","","","","","","","","","",""
"","","","","","html-keyboard-response","241","1115249","0.0-3.0-7.0-0.5","5d17ce93ac37cd0019535088","B2","batch2","pattern_show_trial_num","null","<p class=block-text>Trial 45 out of 78</p>","null","","","","","","","","","","","","","","","","","","","","","","","","","",""
"","","","","","image-keyboard-response","242","1116211","0.0-3.0-7.0-1.5","5d17ce93ac37cd0019535088","B2","batch2","pattern_response","961.2000000011176","stim/yes_43_ver_w1_w.png","f","pattern_65","f","true","","","","961.2000000011176","true","39","","","","","","","","","","","","","","","","",""
"","","","","","html-keyboard-response","243","1117522","0.0-3.0-7.0-0.6","5d17ce93ac37cd0019535088","B2","batch2","pattern_show_trial_num","null","<p class=block-text>Trial 46 out of 78</p>","null","","","","","","","","","","","","","","","","","","","","","","","","","",""
"","","","","","image-keyboard-response","244","1120617","0.0-3.0-7.0-1.6","5d17ce93ac37cd0019535088","B2","batch2","pattern_response","3093.800000000745","stim/yes_37_dia_w1.png","f","pattern_59","f","true","","","","3093.800000000745","true","40","","","","","","","","","","","","","","","","",""
"","","","","","html-keyboard-response","245","1121929","0.0-3.0-7.0-0.7","5d17ce93ac37cd0019535088","B2","batch2","pattern_show_trial_num","null","<p class=block-text>Trial 47 out of 78</p>","null","","","","","","","","","","","","","","","","","","","","","","","","","",""
"","","","","","image-keyboard-response","246","1123594","0.0-3.0-7.0-1.7","5d17ce93ac37cd0019535088","B2","batch2","pattern_response","1664.7000000011176","stim/yes_48_dia_w1_w.png","f","pattern_69","f","true","","","","1664.7000000011176","true","41","","","","","","","","","","","","","","","","",""
"","","","","","html-keyboard-response","247","1124903","0.0-3.0-7.0-0.8","5d17ce93ac37cd0019535088","B2","batch2","pattern_show_trial_num","null","<p class=block-text>Trial 48 out of 78</p>","null","","","","","","","","","","","","","","","","","","","","","","","","","",""
"","","","","","image-keyboard-response","248","1129575","0.0-3.0-7.0-1.8","5d17ce93ac37cd0019535088","B2","batch2","pattern_response","4671.5","stim/no_65_1_b.png","j","pattern_38","j","true","","","","4671.5","true","42","","","","","","","","","","","","","","","","",""
"","","","","","html-keyboard-response","249","1130891","0.0-3.0-7.0-0.9","5d17ce93ac37cd0019535088","B2","batch2","pattern_show_trial_num","null","<p class=block-text>Trial 49 out of 78</p>","null","","","","","","","","","","","","","","","","","","","","","","","","","",""
"","","","","","image-keyboard-response","250","1134091","0.0-3.0-7.0-1.9","5d17ce93ac37cd0019535088","B2","batch2","pattern_response","3199","stim/no_50_1.png","j","pattern_30","j","true","","","","3199","true","43","","","","","","","","","","","","","","","","",""
"","","","","","html-keyboard-response","251","1135414","0.0-3.0-7.0-0.10","5d17ce93ac37cd0019535088","B2","batch2","pattern_show_trial_num","null","<p class=block-text>Trial 50 out of 78</p>","null","","","","","","","","","","","","","","","","","","","","","","","","","",""
"","","","","","image-keyboard-response","252","1137173","0.0-3.0-7.0-1.10","5d17ce93ac37cd0019535088","B2","batch2","pattern_response","1758.2000000011176","stim/no_26_1_w.png","j","pattern_10","j","true","","","","1758.2000000011176","true","44","","","","","","","","","","","","","","","","",""
"","","","","","html-keyboard-response","253","1138491","0.0-3.0-7.0-0.11","5d17ce93ac37cd0019535088","B2","batch2","pattern_show_trial_num","null","<p class=block-text>Trial 51 out of 78</p>","null","","","","","","","","","","","","","","","","","","","","","","","","","",""
"","","","","","image-keyboard-response","254","1139481","0.0-3.0-7.0-1.11","5d17ce93ac37cd0019535088","B2","batch2","pattern_response","988.6000000014901","stim/yes_45_hor_b2_b.png","f","pattern_67","f","true","","","","988.6000000014901","true","45","","","","","","","","","","","","","","","","",""
"","","","","","html-keyboard-response","255","1140784","0.0-3.0-7.0-0.12","5d17ce93ac37cd0019535088","B2","batch2","pattern_show_trial_num","null","<p class=block-text>Trial 52 out of 78</p>","null","","","","","","","","","","","","","","","","","","","","","","","","","",""
"","","","","","image-keyboard-response","256","1141342","0.0-3.0-7.0-1.12","5d17ce93ac37cd0019535088","B2","batch2","pattern_response","557.1000000014901","stim/yes_14_hor_b1_w.png","f","pattern_43","f","true","","","","557.1000000014901","true","46","","","","","","","","","","","","","","","","",""
"","","","","","html-keyboard-response","257","1142660","0.0-3.0-7.0-0.13","5d17ce93ac37cd0019535088","B2","batch2","pattern_show_trial_num","null","<p class=block-text>Trial 53 out of 78</p>","null","","","","","","","","","","","","","","","","","","","","","","","","","",""
"","","","","","image-keyboard-response","258","1145098","0.0-3.0-7.0-1.13","5d17ce93ac37cd0019535088","B2","batch2","pattern_response","2437.300000000745","stim/yes_40_dia_b1_b.png","j","pattern_63","f","false","","","","2437.300000000745","false","46","","","","","","","","","","","","","","","","",""
"","","","","","html-keyboard-response","259","1146414","0.0-3.0-7.0-0.14","5d17ce93ac37cd0019535088","B2","batch2","pattern_show_trial_num","null","<p class=block-text>Trial 54 out of 78</p>","null","","","","","","","","","","","","","","","","","","","","","","","","","",""
"","","","","","image-keyboard-response","260","1149382","0.0-3.0-7.0-1.14","5d17ce93ac37cd0019535088","B2","batch2","pattern_response","2967.10000000149","stim/no_44_1.png","j","pattern_24","j","true","","","","2967.10000000149","true","47","","","","","","","","","","","","","","","","",""
"","","","","","html-keyboard-response","261","1150696","0.0-3.0-7.0-0.15","5d17ce93ac37cd0019535088","B2","batch2","pattern_show_trial_num","null","<p class=block-text>Trial 55 out of 78</p>","null","","","","","","","","","","","","","","","","","","","","","","","","","",""
"","","","","","image-keyboard-response","262","1151514","0.0-3.0-7.0-1.15","5d17ce93ac37cd0019535088","B2","batch2","pattern_response","816.5999999996275","stim/yes_67_hor_b1.png","f","pattern_79","f","true","","","","816.5999999996275","true","48","","","","","","","","","","","","","","","","",""
"","","","","","html-keyboard-response","263","1152824","0.0-3.0-7.0-0.16","5d17ce93ac37cd0019535088","B2","batch2","pattern_show_trial_num","null","<p class=block-text>Trial 56 out of 78</p>","null","","","","","","","","","","","","","","","","","","","","","","","","","",""
"","","","","","image-keyboard-response","264","1154755","0.0-3.0-7.0-1.16","5d17ce93ac37cd0019535088","B2","batch2","pattern_response","1929.699999999255","stim/no_17_1_w.png","j","pattern_04","j","true","","","","1929.699999999255","true","49","","","","","","","","","","","","","","","","",""
"","","","","","html-keyboard-response","265","1156066","0.0-3.0-7.0-0.17","5d17ce93ac37cd0019535088","B2","batch2","pattern_show_trial_num","null","<p class=block-text>Trial 57 out of 78</p>","null","","","","","","","","","","","","","","","","","","","","","","","","","",""
"","","","","","image-keyboard-response","266","1157597","0.0-3.0-7.0-1.17","5d17ce93ac37cd0019535088","B2","batch2","pattern_response","1529.800000000745","stim/yes_38_hor_b1_b.png","f","pattern_61","f","true","","","","1529.800000000745","true","50","","","","","","","","","","","","","","","","",""
"","","","","","html-keyboard-response","267","1158920","0.0-3.0-7.0-0.18","5d17ce93ac37cd0019535088","B2","batch2","pattern_show_trial_num","null","<p class=block-text>Trial 58 out of 78</p>","null","","","","","","","","","","","","","","","","","","","","","","","","","",""
"","","","","","image-keyboard-response","268","1160819","0.0-3.0-7.0-1.18","5d17ce93ac37cd0019535088","B2","batch2","pattern_response","1898.1000000014901","stim/no_23_1.png","j","pattern_08","j","true","","","","1898.1000000014901","true","51","","","","","","","","","","","","","","","","",""
"","","","","","html-keyboard-response","269","1162141","0.0-3.0-7.0-0.19","5d17ce93ac37cd0019535088","B2","batch2","pattern_show_trial_num","null","<p class=block-text>Trial 59 out of 78</p>","null","","","","","","","","","","","","","","","","","","","","","","","","","",""
"","","","","","image-keyboard-response","270","1162948","0.0-3.0-7.0-1.19","5d17ce93ac37cd0019535088","B2","batch2","pattern_response","805.6000000014901","stim/yes_28_ver_b1.png","f","pattern_51","f","true","","","","805.6000000014901","true","52","","","","","","","","","","","","","","","","",""
"","","","","","html-keyboard-response","271","1164260","0.0-3.0-7.0-0.20","5d17ce93ac37cd0019535088","B2","batch2","pattern_show_trial_num","null","<p class=block-text>Trial 60 out of 78</p>","null","","","","","","","","","","","","","","","","","","","","","","","","","",""
"","","","","","image-keyboard-response","272","1166947","0.0-3.0-7.0-1.20","5d17ce93ac37cd0019535088","B2","batch2","pattern_response","2685.9000000003725","stim/no_52_1.png","j","pattern_32","j","true","","","","2685.9000000003725","true","53","","","","","","","","","","","","","","","","",""
"","","","","","html-keyboard-response","273","1168266","0.0-3.0-7.0-0.21","5d17ce93ac37cd0019535088","B2","batch2","pattern_show_trial_num","null","<p class=block-text>Trial 61 out of 78</p>","null","","","","","","","","","","","","","","","","","","","","","","","","","",""
"","","","","","image-keyboard-response","274","1172774","0.0-3.0-7.0-1.21","5d17ce93ac37cd0019535088","B2","batch2","pattern_response","4506.9000000003725","stim/no_62_1_w.png","j","pattern_36","j","true","","","","4506.9000000003725","true","54","","","","","","","","","","","","","","","","",""
"","","","","","html-keyboard-response","275","1174088","0.0-3.0-7.0-0.22","5d17ce93ac37cd0019535088","B2","batch2","pattern_show_trial_num","null","<p class=block-text>Trial 62 out of 78</p>","null","","","","","","","","","","","","","","","","","","","","","","","","","",""
"","","","","","image-keyboard-response","276","1174776","0.0-3.0-7.0-1.22","5d17ce93ac37cd0019535088","B2","batch2","pattern_response","686.3999999985099","stim/yes_17_dia_w1.png","f","pattern_45","f","true","","","","686.3999999985099","true","55","","","","","","","","","","","","","","","","",""
"","","","","","html-keyboard-response","277","1176100","0.0-3.0-7.0-0.23","5d17ce93ac37cd0019535088","B2","batch2","pattern_show_trial_num","null","<p class=block-text>Trial 63 out of 78</p>","null","","","","","","","","","","","","","","","","","","","","","","","","","",""
"","","","","","image-keyboard-response","278","1177972","0.0-3.0-7.0-1.23","5d17ce93ac37cd0019535088","B2","batch2","pattern_response","1870.7999999988824","stim/no_34_1_b.png","j","pattern_16","j","true","","","","1870.7999999988824","true","56","","","","","","","","","","","","","","","","",""
"","","","","","html-keyboard-response","279","1179289","0.0-3.0-7.0-0.24","5d17ce93ac37cd0019535088","B2","batch2","pattern_show_trial_num","null","<p class=block-text>Trial 64 out of 78</p>","null","","","","","","","","","","","","","","","","","","","","","","","","","",""
"","","","","","image-keyboard-response","280","1182961","0.0-3.0-7.0-1.24","5d17ce93ac37cd0019535088","B2","batch2","pattern_response","3671.4000000003725","stim/no_55_1_w.png","j","pattern_34","j","true","","","","3671.4000000003725","true","57","","","","","","","","","","","","","","","","",""
"","","","","","html-keyboard-response","281","1184274","0.0-3.0-7.0-0.25","5d17ce93ac37cd0019535088","B2","batch2","pattern_show_trial_num","null","<p class=block-text>Trial 65 out of 78</p>","null","","","","","","","","","","","","","","","","","","","","","","","","","",""
"","","","","","image-keyboard-response","282","1187547","0.0-3.0-7.0-1.25","5d17ce93ac37cd0019535088","B2","batch2","pattern_response","3272.2000000011176","stim/no_29_1_b.png","j","pattern_12","j","true","","","","3272.2000000011176","true","58","","","","","","","","","","","","","","","","",""
"","","","","","html-keyboard-response","283","1188865","0.0-3.0-7.0-0.26","5d17ce93ac37cd0019535088","B2","batch2","pattern_show_trial_num","null","<p class=block-text>Trial 66 out of 78</p>","null","","","","","","","","","","","","","","","","","","","","","","","","","",""
"","","","","","image-keyboard-response","284","1191056","0.0-3.0-7.0-1.26","5d17ce93ac37cd0019535088","B2","batch2","pattern_response","2190.10000000149","stim/yes_35_dia_b1.png","f","pattern_57","f","true","","","","2190.10000000149","true","59","","","","","","","","","","","","","","","","",""
"","","","","","html-keyboard-response","285","1192362","0.0-3.0-7.0-0.27","5d17ce93ac37cd0019535088","B2","batch2","pattern_show_trial_num","null","<p class=block-text>Trial 67 out of 78</p>","null","","","","","","","","","","","","","","","","","","","","","","","","","",""
"","","","","","image-keyboard-response","286","1193729","0.0-3.0-7.0-1.27","5d17ce93ac37cd0019535088","B2","batch2","pattern_response","1365.9000000003725","stim/no_13_2_b.png","j","pattern_02","j","true","","","","1365.9000000003725","true","60","","","","","","","","","","","","","","","","",""
"","","","","","html-keyboard-response","287","1195050","0.0-3.0-7.0-0.28","5d17ce93ac37cd0019535088","B2","batch2","pattern_show_trial_num","null","<p class=block-text>Trial 68 out of 78</p>","null","","","","","","","","","","","","","","","","","","","","","","","","","",""
"","","","","","image-keyboard-response","288","1200090","0.0-3.0-7.0-1.28","5d17ce93ac37cd0019535088","B2","batch2","pattern_response","5038.699999999255","stim/no_70_2.png","j","pattern_40","j","true","","","","5038.699999999255","true","61","","","","","","","","","","","","","","","","",""
"","","","","","html-keyboard-response","289","1201398","0.0-3.0-7.0-0.29","5d17ce93ac37cd0019535088","B2","batch2","pattern_show_trial_num","null","<p class=block-text>Trial 69 out of 78</p>","null","","","","","","","","","","","","","","","","","","","","","","","","","",""
"","","","","","image-keyboard-response","290","1204341","0.0-3.0-7.0-1.29","5d17ce93ac37cd0019535088","B2","batch2","pattern_response","2941.5999999996275","stim/no_38_1_b.png","j","pattern_20","j","true","","","","2941.5999999996275","true","62","","","","","","","","","","","","","","","","",""
"","","","","","html-keyboard-response","291","1205650","0.0-3.0-7.0-0.30","5d17ce93ac37cd0019535088","B2","batch2","pattern_show_trial_num","null","<p class=block-text>Trial 70 out of 78</p>","null","","","","","","","","","","","","","","","","","","","","","","","","","",""
"","","","","","image-keyboard-response","292","1209274","0.0-3.0-7.0-1.30","5d17ce93ac37cd0019535088","B2","batch2","pattern_response","3622.5999999996275","stim/no_46_1_b.png","j","pattern_26","j","true","","","","3622.5999999996275","true","63","","","","","","","","","","","","","","","","",""
"","","","","","html-keyboard-response","293","1210593","0.0-3.0-7.0-0.31","5d17ce93ac37cd0019535088","B2","batch2","pattern_show_trial_num","null","<p class=block-text>Trial 71 out of 78</p>","null","","","","","","","","","","","","","","","","","","","","","","","","","",""
"","","","","","image-keyboard-response","294","1211626","0.0-3.0-7.0-1.31","5d17ce93ac37cd0019535088","B2","batch2","pattern_response","1032.199999999255","stim/yes_60_ver_b1_b.png","f","pattern_77","f","true","","","","1032.199999999255","true","64","","","","","","","","","","","","","","","","",""
"","","","","","html-keyboard-response","295","1212948","0.0-3.0-7.0-0.32","5d17ce93ac37cd0019535088","B2","batch2","pattern_show_trial_num","null","<p class=block-text>Trial 72 out of 78</p>","null","","","","","","","","","","","","","","","","","","","","","","","","","",""
"","","","","","image-keyboard-response","296","1214558","0.0-3.0-7.0-1.32","5d17ce93ac37cd0019535088","B2","batch2","pattern_response","1608.6000000014901","stim/no_32_1_w.png","j","pattern_14","j","true","","","","1608.6000000014901","true","65","","","","","","","","","","","","","","","","",""
"","","","","","html-keyboard-response","297","1215868","0.0-3.0-7.0-0.33","5d17ce93ac37cd0019535088","B2","batch2","pattern_show_trial_num","null","<p class=block-text>Trial 73 out of 78</p>","null","","","","","","","","","","","","","","","","","","","","","","","","","",""
"","","","","","image-keyboard-response","298","1216657","0.0-3.0-7.0-1.33","5d17ce93ac37cd0019535088","B2","batch2","pattern_response","788.3000000007451","stim/no_36_2_w.png","f","pattern_18","j","false","","","","788.3000000007451","false","65","","","","","","","","","","","","","","","","",""
"","","","","","html-keyboard-response","299","1217985","0.0-3.0-7.0-0.34","5d17ce93ac37cd0019535088","B2","batch2","pattern_show_trial_num","null","<p class=block-text>Trial 74 out of 78</p>","null","","","","","","","","","","","","","","","","","","","","","","","","","",""
"","","","","","image-keyboard-response","300","1218816","0.0-3.0-7.0-1.34","5d17ce93ac37cd0019535088","B2","batch2","pattern_response","830.0999999996275","stim/yes_31_hor_b1.png","f","pattern_55","f","true","","","","830.0999999996275","true","66","","","","","","","","","","","","","","","","",""
"","","","","","html-keyboard-response","301","1220126","0.0-3.0-7.0-0.35","5d17ce93ac37cd0019535088","B2","batch2","pattern_show_trial_num","null","<p class=block-text>Trial 75 out of 78</p>","null","","","","","","","","","","","","","","","","","","","","","","","","","",""
"","","","","","image-keyboard-response","302","1221369","0.0-3.0-7.0-1.35","5d17ce93ac37cd0019535088","B2","batch2","pattern_response","1241.8999999985099","stim/no_20_1_w.png","j","pattern_06","j","true","","","","1241.8999999985099","true","67","","","","","","","","","","","","","","","","",""
"","","","","","html-keyboard-response","303","1222682","0.0-3.0-7.0-0.36","5d17ce93ac37cd0019535088","B2","batch2","pattern_show_trial_num","null","<p class=block-text>Trial 76 out of 78</p>","null","","","","","","","","","","","","","","","","","","","","","","","","","",""
"","","","","","image-keyboard-response","304","1225814","0.0-3.0-7.0-1.36","5d17ce93ac37cd0019535088","B2","batch2","pattern_response","3131.60000000149","stim/no_42_1_w.png","j","pattern_22","j","true","","","","3131.60000000149","true","68","","","","","","","","","","","","","","","","",""
"","","","","","html-keyboard-response","305","1227135","0.0-3.0-7.0-0.37","5d17ce93ac37cd0019535088","B2","batch2","pattern_show_trial_num","null","<p class=block-text>Trial 77 out of 78</p>","null","","","","","","","","","","","","","","","","","","","","","","","","","",""
"","","","","","image-keyboard-response","306","1227897","0.0-3.0-7.0-1.37","5d17ce93ac37cd0019535088","B2","batch2","pattern_response","760.8000000007451","stim/yes_22_ver_w1.png","f","pattern_47","f","true","","","","760.8000000007451","true","69","","","","","","","","","","","","","","","","",""
"","","","","","html-keyboard-response","307","1229209","0.0-3.0-7.0-0.38","5d17ce93ac37cd0019535088","B2","batch2","pattern_show_trial_num","null","<p class=block-text>Trial 78 out of 78</p>","null","","","","","","","","","","","","","","","","","","","","","","","","","",""
"","","","","","image-keyboard-response","308","1232619","0.0-3.0-7.0-1.38","5d17ce93ac37cd0019535088","B2","batch2","pattern_response","3408.89999999851","stim/yes_52_ver_w1.png","j","pattern_73","f","false","","","","3408.89999999851","false","69","","","","","","","","","","","","","","","","",""
"","","","","","html-button-response","309","1236634","0.0-3.0-8.0","5d17ce93ac37cd0019535088","B2","batch2","","3504.2000000011176","<p class = block-text>This concludes the 4-in-a-row detection game.Thank you for your responses!<br>
            You responded correctly on 88% of the trials.<br>
            When you are ready, press ""Continue"" button to continue </p>","0","","","","","","","","","","","","","","","","","","","","","","","","","",""
"true","","","","","fullscreen","310","1239008","0.0-4.0-0.0","5d17ce93ac37cd0019535088","B2","batch2","","","","","","","","","","","","","","","","","","","","","","","","","","","","","",""
"","","","","","instructions","311","1257665","0.0-4.0-1.0-0.0-0.0","5d17ce93ac37cd0019535088","B2","batch2","tol-instructions","18656.799999998882","","","","","","","","[{""page_index"":0,""viewing_time"":4750.299999998882},{""page_index"":1,""viewing_time"":2318.5},{""page_index"":2,""viewing_time"":1214.9000000003725},{""page_index"":3,""viewing_time"":1927.2000000011176},{""page_index"":4,""viewing_time"":2070.199999999255},{""page_index"":5,""viewing_time"":5325.5},{""page_index"":6,""viewing_time"":1050.0999999996275}]","","","","","","","","","","","","","","","","","","","",""
"","","","","","html-button-response","312","1258325","0.0-4.0-1.0-1.0-0.0","5d17ce93ac37cd0019535088","B2","batch2","tol_enter_quiz","659.5","<p class=block-text> Let's answer a few questions <br>","0","","","","","","","","","","","","","","","","","","","","","","","","","",""
"","","","","","html-button-response","313","1265398","0.0-4.0-1.0-1.0-1.0","5d17ce93ac37cd0019535088","B2","batch2","tol_quiz","7072.0999999996275","<p class = block-text>True or False: You can only move the ball on top of a peg. <br></p>","1","","","false","","","","","","","","","","","","","","","","","","","","","","",""
"","","","","","html-button-response","314","1266320","0.0-4.0-1.0-1.0-2.0","5d17ce93ac37cd0019535088","B2","batch2","tol_quiz_feedback","921.5","<p class = block-text>Incorrect. Remember, you can only move the ball on top of a peg.</p>","0","","","","","","","","","","","","","","","","","","","","","","","","","",""
"","","","","","html-button-response","315","1268810","0.0-4.0-1.0-1.0-3.0","5d17ce93ac37cd0019535088","B2","batch2","tol_quiz","2489.7000000011176","<p class = block-text>True or False: You should try to match your board with the target board with fewest moves possible. <br></p>","0","","","true","","","","","","","","","","","","","","","","","","","","","","",""
"","","","","","html-button-response","316","1269320","0.0-4.0-1.0-1.0-4.0","5d17ce93ac37cd0019535088","B2","batch2","tol_quiz_feedback","509.30000000074506","<p class = block-text>Correct! </p>","0","","","","","","","","","","","","","","","","","","","","","","","","","",""
"","","","","","html-button-response","317","1269928","0.0-4.0-1.0-2.0-0.0","5d17ce93ac37cd0019535088","B2","batch2","","606.4000000003725","<p class = block-text>You made too many incorrect choices.</p><p class = block-text>You will now repeat the instructions and quiz</p>","0","","","","","","","","","","","","","","","","","","","","","","","","","",""
"","","","","","instructions","318","1273535","0.0-4.0-1.1-0.1-0.1","5d17ce93ac37cd0019535088","B2","batch2","tol-instructions","3607","","","","","","","","[{""page_index"":0,""viewing_time"":967.5999999996275},{""page_index"":1,""viewing_time"":194},{""page_index"":2,""viewing_time"":254.90000000037253},{""page_index"":3,""viewing_time"":443.09999999962747},{""page_index"":4,""viewing_time"":352.09999999962747},{""page_index"":5,""viewing_time"":413},{""page_index"":6,""viewing_time"":982.2000000011176}]","","","","","","","","","","","","","","","","","","","",""
"","","","","","html-button-response","319","1274128","0.0-4.0-1.1-1.1-0.1","5d17ce93ac37cd0019535088","B2","batch2","tol_enter_quiz","592.5999999996275","<p class=block-text> Let's answer a few questions <br>","0","","","","","","","","","","","","","","","","","","","","","","","","","",""
"","","","","","html-button-response","320","1275613","0.0-4.0-1.1-1.1-1.1","5d17ce93ac37cd0019535088","B2","batch2","tol_quiz","1484.699999999255","<p class = block-text>True or False: You can only move the ball on top of a peg. <br></p>","0","","","true","","","","","","","","","","","","","","","","","","","","","","",""
"","","","","","html-button-response","321","1276078","0.0-4.0-1.1-1.1-2.1","5d17ce93ac37cd0019535088","B2","batch2","tol_quiz_feedback","464.2999999988824","<p class = block-text>Correct! You can only move the ball on top of a peg.</p>","0","","","","","","","","","","","","","","","","","","","","","","","","","",""
"","","","","","html-button-response","322","1277757","0.0-4.0-1.1-1.1-3.1","5d17ce93ac37cd0019535088","B2","batch2","tol_quiz","1678.5999999996275","<p class = block-text>True or False: You should try to match your board with the target board with fewest moves possible. <br></p>","0","","","true","","","","","","","","","","","","","","","","","","","","","","",""
"","","","","","html-button-response","323","1278246","0.0-4.0-1.1-1.1-4.1","5d17ce93ac37cd0019535088","B2","batch2","tol_quiz_feedback","487.59999999962747","<p class = block-text>Correct! </p>","0","","","","","","","","","","","","","","","","","","","","","","","","","",""
"","","","","","html-button-response","324","1278831","0.0-4.0-2.0","5d17ce93ac37cd0019535088","B2","batch2","","584.5","<p class=block-text> Now that you've understood the game, let's practice a few easier examples before we start!<br> <br>","0","","","","","","","","","","","","","","","","","","","","","","","","","",""
"","","","","","single-stim-button","325","1281156","0.0-4.0-3.0-0.0","5d17ce93ac37cd0019535088","B2","batch2","tol_practice","2324","","","","","","","","","","","","","","tol_peg_2","2324","2324","0","[[1,2,0],[0,0],[0]]","1","[[1,2,0],[0,0],[3]]","practice","2324","","","","","",""
"","","","","","single-stim-button","326","1282565","0.0-4.0-3.0-1.0","5d17ce93ac37cd0019535088","B2","batch2","tol_practice","1409","","","","","","","","","","","","","","tol_peg_3","1409","1409","0","[[1,2,0],[0,0],[3]]","1","[[1,2,0],[0,0],[3]]","practice","1409","","","","","",""
"","","","","","poldrack-single-stim","327","1283579","0.0-4.0-4.0","5d17ce93ac37cd0019535088","B2","batch2","tol_feedback","-1","","","","","true","","","","","","","","","","1000","1000","500","","","","","","-1","none","true","","0",""
"","","","","","single-stim-button","328","1286892","0.0-4.0-5.0-0.0","5d17ce93ac37cd0019535088","B2","batch2","tol_practice","3313","","","","","","","","","","","","","","tol_peg_1","3313","3313","0","[[1,0,0],[3,0],[0]]","2","[[0,0,0],[3,1],[2]]","practice","3313","","","","","",""
"","","","","","single-stim-button","329","1287635","0.0-4.0-5.0-1.0","5d17ce93ac37cd0019535088","B2","batch2","tol_practice","742","","","","","","","","","","","","","","tol_peg_3","742","742","0","[[1,0,0],[3,0],[2]]","2","[[0,0,0],[3,1],[2]]","practice","742","","","","","",""
"","","","","","single-stim-button","330","1288251","0.0-4.0-5.1-0.1","5d17ce93ac37cd0019535088","B2","batch2","tol_practice","614","","","","","","","","","","","","","","tol_peg_1","614","614","0","[[0,0,0],[3,0],[2]]","3","[[0,0,0],[3,1],[2]]","practice","614","","","","","",""
"","","","","","single-stim-button","331","1288791","0.0-4.0-5.1-1.1","5d17ce93ac37cd0019535088","B2","batch2","tol_practice","540","","","","","","","","","","","","","","tol_peg_2","540","540","0","[[0,0,0],[3,1],[2]]","3","[[0,0,0],[3,1],[2]]","practice","540","","","","","",""
"","","","","","poldrack-single-stim","332","1289795","0.0-4.0-6.0","5d17ce93ac37cd0019535088","B2","batch2","tol_feedback","-1","","","","","true","","","","","","","","","","1000","1000","500","","","","","","-1","none","true","","0",""
"","","","","","single-stim-button","333","1291933","0.0-4.0-7.0-0.0","5d17ce93ac37cd0019535088","B2","batch2","tol_practice","2137","","","","","","","","","","","","","","tol_peg_2","2137","2137","0","[[1,2,0],[0,0],[0]]","4","[[1,0,0],[2,0],[3]]","practice","2137","","","","","",""
"","","","","","single-stim-button","334","1292465","0.0-4.0-7.0-1.0","5d17ce93ac37cd0019535088","B2","batch2","tol_practice","532","","","","","","","","","","","","","","tol_peg_3","532","532","0","[[1,2,0],[0,0],[3]]","4","[[1,0,0],[2,0],[3]]","practice","532","","","","","",""
"","","","","","single-stim-button","335","1293005","0.0-4.0-7.1-0.1","5d17ce93ac37cd0019535088","B2","batch2","tol_practice","540","","","","","","","","","","","","","","tol_peg_1","540","540","0","[[1,0,0],[0,0],[3]]","5","[[1,0,0],[2,0],[3]]","practice","540","","","","","",""
"","","","","","single-stim-button","336","1293725","0.0-4.0-7.1-1.1","5d17ce93ac37cd0019535088","B2","batch2","tol_practice","720","","","","","","","","","","","","","","tol_peg_2","720","720","0","[[1,0,0],[2,0],[3]]","5","[[1,0,0],[2,0],[3]]","practice","720","","","","","",""
"","","","","","poldrack-single-stim","337","1294733","0.0-4.0-8.0","5d17ce93ac37cd0019535088","B2","batch2","tol_feedback","-1","","","","","true","","","","","","","","","","1000","1000","500","","","","","","-1","none","true","","0",""
"","","","","","html-button-response","338","1295923","0.0-4.0-9.0","5d17ce93ac37cd0019535088","B2","batch2","tol_instruction","1189.7999999988824","<div class = centerbox><p class = center-block-text>Great job! You are done with practice trials<br>You are about to start official trials.<br> <br> Problem <strong>1</strong> out of 25 problems</p></div>","0","","","","","","","","","","","","","","","","","","","","","","","","","",""
"","","","","","single-stim-button","339","1301796","0.0-4.0-10.0-0.0","5d17ce93ac37cd0019535088","B2","batch2","tol_tohand","4872","","","","","","","","","","","","","","tol_peg_2","4872","4872","0","[[1,2,0],[0,0],[0]]","1","[[1,3,0],[2,0],[0]]","0","0","","","","","","3"
"","","","","","single-stim-button","340","1302313","0.0-4.0-10.0-1.0","5d17ce93ac37cd0019535088","B2","batch2","tol_toboard","516","","","","","","","","","","","","","","tol_peg_3","516","516","0","[[1,2,0],[0,0],[3]]","1","[[1,3,0],[2,0],[0]]","0","0","","","","","","3"
"","","","","","single-stim-button","341","1302793","0.0-4.0-10.1-0.1","5d17ce93ac37cd0019535088","B2","batch2","tol_tohand","480","","","","","","","","","","","","","","tol_peg_1","480","480","0","[[1,0,0],[0,0],[3]]","2","[[1,3,0],[2,0],[0]]","0","0","","","","","","3"
"","","","","","single-stim-button","342","1303250","0.0-4.0-10.1-1.1","5d17ce93ac37cd0019535088","B2","batch2","tol_toboard","457","","","","","","","","","","","","","","tol_peg_2","457","457","0","[[1,0,0],[2,0],[3]]","2","[[1,3,0],[2,0],[0]]","0","0","","","","","","3"
"","","","","","single-stim-button","343","1303768","0.0-4.0-10.2-0.2","5d17ce93ac37cd0019535088","B2","batch2","tol_tohand","517","","","","","","","","","","","","","","tol_peg_3","517","517","0","[[1,0,0],[2,0],[0]]","3","[[1,3,0],[2,0],[0]]","0","0","","","","","","3"
