"success","timeout","failed_images","failed_audio","failed_video","trial_type","trial_index","time_elapsed","internal_node_id","subject_id","study_id","session_id","view_history","rt","stimulus","response","task","correct","answer","item","fiar_detect_rt","fiar_detect_correct","total_correct_fiar_detect","post_trial_gap","choices","mouse_click","stim_duration","block_duration","timing_post_trial","current_position","tol_num_moves_made","tol_target","tol_problem_id","tol_rt","key_press","possible_responses","tol_correct","preplanning","tol_rt_per_trial","tol_min_moves","spm_correct","spm_rt"
"true","false","[]","[]","[]","preload","0","1611","0.0-0.0","5d1aa9db716058001a060031","D2","batch4","","","","","","","","","","","","","","","","","","","","","","","","","","","","","",""
"true","","","","","fullscreen","1","7370","0.0-1.0-0.0","5d1aa9db716058001a060031","D2","batch4","","","","","","","","","","","","","","","","","","","","","","","","","","","","","",""
"true","","","","","fullscreen","2","12300","0.0-2.0-0.0","5d1aa9db716058001a060031","D2","batch4","","","","","","","","","","","","","","","","","","","","","","","","","","","","","",""
"","","","","","instructions","3","44230","0.0-2.0-1.0-0.0","5d1aa9db716058001a060031","D2","batch4","[{""page_index"":0,""viewing_time"":25909.60000000894},{""page_index"":1,""viewing_time"":6017.399999991059}]","31927.5","","","","","","","","","","","","","","","","","","","","","","","","","","","",""
"","","","","","html-button-response","4","45577","0.0-2.0-1.0-1.0-0.0","5d1aa9db716058001a060031","D2","batch4","","1344.3999999910593","<p class=block-text> Let's answer a few questions <br>","0","pattern_enter_quiz","","","","","","","","","","","","","","","","","","","","","","","","",""
"","","","","","html-button-response","5","48164","0.0-2.0-1.0-1.0-1.0","5d1aa9db716058001a060031","D2","batch4","","2585","<p class = block-text>True or False: You will have as much time as you want to make each choice. <br></p>","1","pattern_quiz","true","","","","","","","","","","","","","","","","","","","","","","","",""
"","","","","","html-button-response","6","48923","0.0-2.0-1.0-1.0-2.0","5d1aa9db716058001a060031","D2","batch4","","756.7000000029802","<p class = block-text>Correct! You should make your choice <strong> as fast as you can</strong>.</p>","0","pattern_quiz_feedback","","","","","","","","","","","","","","","","","","","","","","","","",""
"","","","","","html-button-response","7","52387","0.0-2.0-1.0-1.0-3.0","5d1aa9db716058001a060031","D2","batch4","","3462.5","<p class = block-text>True or False: You will look for 4 pieces in black or white color connected in a row either horizontally, vertically or diagonally. <br></p>","0","pattern_quiz","true","","","","","","","","","","","","","","","","","","","","","","","",""
"","","","","","html-button-response","8","53287","0.0-2.0-1.0-1.0-4.0","5d1aa9db716058001a060031","D2","batch4","","897.9000000059605","<p class = block-text>Correct! </p>","0","pattern_quiz_feedback","","","","","","","","","","","","","","","","","","","","","","","","",""
"","","","","","html-button-response","9","54411","0.0-2.0-2.0","5d1aa9db716058001a060031","D2","batch4","","1122.2999999970198","<p class=block-text> Now that you've understood the game, let's do a few practice trials before we start!<br> <br>","0","pattern_enter_practice","","","","","","","","","","","","","","","","","","","","","","","","",""
"","","","","","image-keyboard-response","10","56984","0.0-2.0-3.0-0.0","5d1aa9db716058001a060031","D2","batch4","","2568.5","stim/prac_no_18_1.png","j","pattern_practice","true","j","","","","","","","","","","","","","","","","","","","","","","",""
"","","","","","html-keyboard-response","11","59290","0.0-2.0-3.0-1.0","5d1aa9db716058001a060031","D2","batch4","","null","<p style=""font-size:30px;color:green;"">Correct!</p>","null","pattern_feedback","","","","","","","","","","","","","","","","","","","","","","","","",""
"","","","","","image-keyboard-response","12","61992","0.0-2.0-3.0-0.1","5d1aa9db716058001a060031","D2","batch4","","2699.7000000029802","stim/prac_no_16_1.png","j","pattern_practice","true","j","","","","","","","","","","","","","","","","","","","","","","",""
"","","","","","html-keyboard-response","13","63006","0.0-2.0-3.0-1.1","5d1aa9db716058001a060031","D2","batch4","","null","<p style=""font-size:30px;color:green;"">Correct!</p>","null","pattern_feedback","","","","","","","","","","","","","","","","","","","","","","","","",""
"","","","","","image-keyboard-response","14","63885","0.0-2.0-3.0-0.2","5d1aa9db716058001a060031","D2","batch4","","877.1000000089407","stim/prac_yes_18_hor_w1.png","f","pattern_practice","true","f","","","","","","","","","","","","","","","","","","","","","","",""
"","","","","","html-keyboard-response","15","64891","0.0-2.0-3.0-1.2","5d1aa9db716058001a060031","D2","batch4","","null","<p style=""font-size:30px;color:green;"">Correct!</p>","null","pattern_feedback","","","","","","","","","","","","","","","","","","","","","","","","",""
"","","","","","image-keyboard-response","16","65571","0.0-2.0-3.0-0.3","5d1aa9db716058001a060031","D2","batch4","","679","stim/prac_yes_16_ver_w1.png","f","pattern_practice","true","f","","","","","","","","","","","","","","","","","","","","","","",""
"","","","","","html-keyboard-response","17","66585","0.0-2.0-3.0-1.3","5d1aa9db716058001a060031","D2","batch4","","null","<p style=""font-size:30px;color:green;"">Correct!</p>","null","pattern_feedback","","","","","","","","","","","","","","","","","","","","","","","","",""
"","","","","","image-keyboard-response","18","67997","0.0-2.0-3.0-0.4","5d1aa9db716058001a060031","D2","batch4","","1410.2999999970198","stim/prac_yes_20_dia_b1.png","j","pattern_practice","false","f","","","","","","","","","","","","","","","","","","","","","","",""
"","","","","","html-keyboard-response","19","69019","0.0-2.0-3.0-1.4","5d1aa9db716058001a060031","D2","batch4","","null","<p style=""font-size:30px;color:red;"">Wrong.</p>","null","pattern_feedback","","","","","","","","","","","","","","","","","","","","","","","","",""
"","","","","","html-button-response","20","70922","0.0-2.0-4.0","5d1aa9db716058001a060031","D2","batch4","","1900.7999999970198","<p class=block-text> Good job! You are done with practice trials!<br>
        You responded correctly on 80% of the trials.<br>
        Press the button below to start official trials. Now you won't see any feedback about your response</p>","0","pattern_enter_official_trials","","","","","","","","","","","","","","","","","","","","","","","","",""
"","","","","","html-keyboard-response","21","71733","0.0-2.0-5.0-0.0","5d1aa9db716058001a060031","D2","batch4","","null","<p class=block-text>Trial 1 out of 78</p>","null","pattern_show_trial_num","","","","","","","","","","","","","","","","","","","","","","","","",""
"","","","","","image-keyboard-response","22","72868","0.0-2.0-5.0-1.0","5d1aa9db716058001a060031","D2","batch4","","1133.699999988079","stim/yes_17_ver_b1_b.png","f","pattern_response","true","f","pattern_46","1133.699999988079","true","1","","","","","","","","","","","","","","","","","","",""
"","","","","","html-keyboard-response","23","75290","0.0-2.0-5.0-0.1","5d1aa9db716058001a060031","D2","batch4","","null","<p class=block-text>Trial 2 out of 78</p>","null","pattern_show_trial_num","","","","","","","","","","","","","","","","","","","","","","","","",""
"","","","","","image-keyboard-response","24","80054","0.0-2.0-5.0-1.1","5d1aa9db716058001a060031","D2","batch4","","4761.5999999940395","stim/no_53_1_b.png","j","pattern_response","true","j","pattern_33","4761.5999999940395","true","2","","","","","","","","","","","","","","","","","","",""
"","","","","","html-keyboard-response","25","81372","0.0-2.0-5.0-0.2","5d1aa9db716058001a060031","D2","batch4","","null","<p class=block-text>Trial 3 out of 78</p>","null","pattern_show_trial_num","","","","","","","","","","","","","","","","","","","","","","","","",""
"","","","","","image-keyboard-response","26","82256","0.0-2.0-5.0-1.2","5d1aa9db716058001a060031","D2","batch4","","881.5","stim/yes_36_ver_w1_w.png","f","pattern_response","true","f","pattern_58","881.5","true","3","","","","","","","","","","","","","","","","","","",""
"","","","","","html-keyboard-response","27","83584","0.0-2.0-5.0-0.3","5d1aa9db716058001a060031","D2","batch4","","null","<p class=block-text>Trial 4 out of 78</p>","null","pattern_show_trial_num","","","","","","","","","","","","","","","","","","","","","","","","",""
"","","","","","image-keyboard-response","28","85224","0.0-2.0-5.0-1.3","5d1aa9db716058001a060031","D2","batch4","","1636.5","stim/yes_46_ver_b1_b.png","f","pattern_response","true","f","pattern_68","1636.5","true","4","","","","","","","","","","","","","","","","","","",""
"","","","","","html-keyboard-response","29","86537","0.0-2.0-5.0-0.4","5d1aa9db716058001a060031","D2","batch4","","null","<p class=block-text>Trial 5 out of 78</p>","null","pattern_show_trial_num","","","","","","","","","","","","","","","","","","","","","","","","",""
"","","","","","image-keyboard-response","30","89057","0.0-2.0-5.0-1.4","5d1aa9db716058001a060031","D2","batch4","","2518.1000000089407","stim/no_22_1_b.png","j","pattern_response","true","j","pattern_07","2518.1000000089407","true","5","","","","","","","","","","","","","","","","","","",""
"","","","","","html-keyboard-response","31","91296","0.0-2.0-5.0-0.5","5d1aa9db716058001a060031","D2","batch4","","null","<p class=block-text>Trial 6 out of 78</p>","null","pattern_show_trial_num","","","","","","","","","","","","","","","","","","","","","","","","",""
"","","","","","image-keyboard-response","32","92304","0.0-2.0-5.0-1.5","5d1aa9db716058001a060031","D2","batch4","","1005.8000000119209","stim/yes_12_hor_w1_w.png","f","pattern_response","true","f","pattern_42","1005.8000000119209","true","6","","","","","","","","","","","","","","","","","","",""
"","","","","","html-keyboard-response","33","93634","0.0-2.0-5.0-0.6","5d1aa9db716058001a060031","D2","batch4","","null","<p class=block-text>Trial 7 out of 78</p>","null","pattern_show_trial_num","","","","","","","","","","","","","","","","","","","","","","","","",""
"","","","","","image-keyboard-response","34","94454","0.0-2.0-5.0-1.6","5d1aa9db716058001a060031","D2","batch4","","817.2000000029802","stim/yes_39_hor_w1_w.png","f","pattern_response","true","f","pattern_62","817.2000000029802","true","7","","","","","","","","","","","","","","","","","","",""
"","","","","","html-keyboard-response","35","95782","0.0-2.0-5.0-0.7","5d1aa9db716058001a060031","D2","batch4","","null","<p class=block-text>Trial 8 out of 78</p>","null","pattern_show_trial_num","","","","","","","","","","","","","","","","","","","","","","","","",""
"","","","","","image-keyboard-response","36","99756","0.0-2.0-5.0-1.7","5d1aa9db716058001a060031","D2","batch4","","3972.2000000029802","stim/no_39_1_w.png","j","pattern_response","true","j","pattern_21","3972.2000000029802","true","8","","","","","","","","","","","","","","","","","","",""
"","","","","","html-keyboard-response","37","101073","0.0-2.0-5.0-0.8","5d1aa9db716058001a060031","D2","batch4","","null","<p class=block-text>Trial 9 out of 78</p>","null","pattern_show_trial_num","","","","","","","","","","","","","","","","","","","","","","","","",""
"","","","","","image-keyboard-response","38","102105","0.0-2.0-5.0-1.8","5d1aa9db716058001a060031","D2","batch4","","1029.2999999970198","stim/yes_33_dia_w1_w.png","f","pattern_response","true","f","pattern_56","1029.2999999970198","true","9","","","","","","","","","","","","","","","","","","",""
"","","","","","html-keyboard-response","39","103444","0.0-2.0-5.0-0.9","5d1aa9db716058001a060031","D2","batch4","","null","<p class=block-text>Trial 10 out of 78</p>","null","pattern_show_trial_num","","","","","","","","","","","","","","","","","","","","","","","","",""
"","","","","","image-keyboard-response","40","104265","0.0-2.0-5.0-1.9","5d1aa9db716058001a060031","D2","batch4","","818.3999999910593","stim/yes_23_ver_b1.png","f","pattern_response","true","f","pattern_48","818.3999999910593","true","10","","","","","","","","","","","","","","","","","","",""
"","","","","","html-keyboard-response","41","106301","0.0-2.0-5.0-0.10","5d1aa9db716058001a060031","D2","batch4","","null","<p class=block-text>Trial 11 out of 78</p>","null","pattern_show_trial_num","","","","","","","","","","","","","","","","","","","","","","","","",""
"","","","","","image-keyboard-response","42","109400","0.0-2.0-5.0-1.10","5d1aa9db716058001a060031","D2","batch4","","3097.1000000089407","stim/no_43_2_b.png","j","pattern_response","true","j","pattern_23","3097.1000000089407","true","11","","","","","","","","","","","","","","","","","","",""
"","","","","","html-keyboard-response","43","110724","0.0-2.0-5.0-0.11","5d1aa9db716058001a060031","D2","batch4","","null","<p class=block-text>Trial 12 out of 78</p>","null","pattern_show_trial_num","","","","","","","","","","","","","","","","","","","","","","","","",""
"","","","","","image-keyboard-response","44","114710","0.0-2.0-5.0-1.11","5d1aa9db716058001a060031","D2","batch4","","3984.4000000059605","stim/no_51_1.png","j","pattern_response","true","j","pattern_31","3984.4000000059605","true","12","","","","","","","","","","","","","","","","","","",""
"","","","","","html-keyboard-response","45","116022","0.0-2.0-5.0-0.12","5d1aa9db716058001a060031","D2","batch4","","null","<p class=block-text>Trial 13 out of 78</p>","null","pattern_show_trial_num","","","","","","","","","","","","","","","","","","","","","","","","",""
"","","","","","image-keyboard-response","46","117009","0.0-2.0-5.0-1.12","5d1aa9db716058001a060031","D2","batch4","","983.5999999940395","stim/yes_49_hor_w1_b.png","f","pattern_response","true","f","pattern_70","983.5999999940395","true","13","","","","","","","","","","","","","","","","","","",""
"","","","","","html-keyboard-response","47","118329","0.0-2.0-5.0-0.13","5d1aa9db716058001a060031","D2","batch4","","null","<p class=block-text>Trial 14 out of 78</p>","null","pattern_show_trial_num","","","","","","","","","","","","","","","","","","","","","","","","",""
"","","","","","image-keyboard-response","48","119088","0.0-2.0-5.0-1.13","5d1aa9db716058001a060031","D2","batch4","","757.2000000029802","stim/yes_15_dia_b1u_b.png","f","pattern_response","true","f","pattern_44","757.2000000029802","true","14","","","","","","","","","","","","","","","","","","",""
"","","","","","html-keyboard-response","49","121301","0.0-2.0-5.0-0.14","5d1aa9db716058001a060031","D2","batch4","","null","<p class=block-text>Trial 15 out of 78</p>","null","pattern_show_trial_num","","","","","","","","","","","","","","","","","","","","","","","","",""
"","","","","","image-keyboard-response","50","124451","0.0-2.0-5.0-1.14","5d1aa9db716058001a060031","D2","batch4","","3162.7999999970198","stim/no_47_1_b.png","j","pattern_response","true","j","pattern_27","3162.7999999970198","true","15","","","","","","","","","","","","","","","","","","",""
"","","","","","html-keyboard-response","51","125780","0.0-2.0-5.0-0.15","5d1aa9db716058001a060031","D2","batch4","","null","<p class=block-text>Trial 16 out of 78</p>","null","pattern_show_trial_num","","","","","","","","","","","","","","","","","","","","","","","","",""
"","","","","","image-keyboard-response","52","127078","0.0-2.0-5.0-1.15","5d1aa9db716058001a060031","D2","batch4","","1295.1000000089407","stim/yes_63_dia_b1.png","f","pattern_response","true","f","pattern_78","1295.1000000089407","true","16","","","","","","","","","","","","","","","","","","",""
"","","","","","html-keyboard-response","53","128392","0.0-2.0-5.0-0.16","5d1aa9db716058001a060031","D2","batch4","","null","<p class=block-text>Trial 17 out of 78</p>","null","pattern_show_trial_num","","","","","","","","","","","","","","","","","","","","","","","","",""
"","","","","","image-keyboard-response","54","130318","0.0-2.0-5.0-1.16","5d1aa9db716058001a060031","D2","batch4","","1924.5999999940395","stim/yes_29_hor_b1_b.png","f","pattern_response","true","f","pattern_52","1924.5999999940395","true","17","","","","","","","","","","","","","","","","","","",""
"","","","","","html-keyboard-response","55","131659","0.0-2.0-5.0-0.17","5d1aa9db716058001a060031","D2","batch4","","null","<p class=block-text>Trial 18 out of 78</p>","null","pattern_show_trial_num","","","","","","","","","","","","","","","","","","","","","","","","",""
"","","","","","image-keyboard-response","56","133544","0.0-2.0-5.0-1.17","5d1aa9db716058001a060031","D2","batch4","","1882.800000011921","stim/no_36_1_b.png","j","pattern_response","true","j","pattern_17","1882.800000011921","true","18","","","","","","","","","","","","","","","","","","",""
"","","","","","html-keyboard-response","57","134863","0.0-2.0-5.0-0.18","5d1aa9db716058001a060031","D2","batch4","","null","<p class=block-text>Trial 19 out of 78</p>","null","pattern_show_trial_num","","","","","","","","","","","","","","","","","","","","","","","","",""
"","","","","","image-keyboard-response","58","136239","0.0-2.0-5.0-1.18","5d1aa9db716058001a060031","D2","batch4","","1375.2999999970198","stim/yes_44_ver_w1_w.png","f","pattern_response","true","f","pattern_66","1375.2999999970198","true","19","","","","","","","","","","","","","","","","","","",""
"","","","","","html-keyboard-response","59","137570","0.0-2.0-5.0-0.19","5d1aa9db716058001a060031","D2","batch4","","null","<p class=block-text>Trial 20 out of 78</p>","null","pattern_show_trial_num","","","","","","","","","","","","","","","","","","","","","","","","",""
"","","","","","image-keyboard-response","60","140161","0.0-2.0-5.0-1.19","5d1aa9db716058001a060031","D2","batch4","","2589.7999999970198","stim/no_28_2.png","j","pattern_response","true","j","pattern_11","2589.7999999970198","true","20","","","","","","","","","","","","","","","","","","",""
"","","","","","html-keyboard-response","61","142276","0.0-2.0-5.0-0.20","5d1aa9db716058001a060031","D2","batch4","","null","<p class=block-text>Trial 21 out of 78</p>","null","pattern_show_trial_num","","","","","","","","","","","","","","","","","","","","","","","","",""
"","","","","","image-keyboard-response","62","146279","0.0-2.0-5.0-1.20","5d1aa9db716058001a060031","D2","batch4","","4000.5","stim/yes_42_dia_w1_w.png","f","pattern_response","true","f","pattern_64","4000.5","true","21","","","","","","","","","","","","","","","","","","",""
"","","","","","html-keyboard-response","63","147588","0.0-2.0-5.0-0.21","5d1aa9db716058001a060031","D2","batch4","","null","<p class=block-text>Trial 22 out of 78</p>","null","pattern_show_trial_num","","","","","","","","","","","","","","","","","","","","","","","","",""
"","","","","","image-keyboard-response","64","148762","0.0-2.0-5.0-1.21","5d1aa9db716058001a060031","D2","batch4","","1171.7000000029802","stim/yes_51_dia_b1.png","f","pattern_response","true","f","pattern_72","1171.7000000029802","true","22","","","","","","","","","","","","","","","","","","",""
"","","","","","html-keyboard-response","65","150082","0.0-2.0-5.0-0.22","5d1aa9db716058001a060031","D2","batch4","","null","<p class=block-text>Trial 23 out of 78</p>","null","pattern_show_trial_num","","","","","","","","","","","","","","","","","","","","","","","","",""
"","","","","","image-keyboard-response","66","150986","0.0-2.0-5.0-1.22","5d1aa9db716058001a060031","D2","batch4","","901.8999999910593","stim/yes_37_hor_w1_w.png","f","pattern_response","true","f","pattern_60","901.8999999910593","true","23","","","","","","","","","","","","","","","","","","",""
"","","","","","html-keyboard-response","67","153275","0.0-2.0-5.0-0.23","5d1aa9db716058001a060031","D2","batch4","","null","<p class=block-text>Trial 24 out of 78</p>","null","pattern_show_trial_num","","","","","","","","","","","","","","","","","","","","","","","","",""
"","","","","","image-keyboard-response","68","154305","0.0-2.0-5.0-1.23","5d1aa9db716058001a060031","D2","batch4","","1027.9000000059605","stim/no_15_1_w.png","j","pattern_response","true","j","pattern_03","1027.9000000059605","true","24","","","","","","","","","","","","","","","","","","",""
"","","","","","html-keyboard-response","69","155623","0.0-2.0-5.0-0.24","5d1aa9db716058001a060031","D2","batch4","","null","<p class=block-text>Trial 25 out of 78</p>","null","pattern_show_trial_num","","","","","","","","","","","","","","","","","","","","","","","","",""
"","","","","","image-keyboard-response","70","160422","0.0-2.0-5.0-1.24","5d1aa9db716058001a060031","D2","batch4","","4796.5999999940395","stim/no_58_1_w.png","j","pattern_response","true","j","pattern_35","4796.5999999940395","true","25","","","","","","","","","","","","","","","","","","",""
"","","","","","html-keyboard-response","71","161744","0.0-2.0-5.0-0.25","5d1aa9db716058001a060031","D2","batch4","","null","<p class=block-text>Trial 26 out of 78</p>","null","pattern_show_trial_num","","","","","","","","","","","","","","","","","","","","","","","","",""
"","","","","","image-keyboard-response","72","164929","0.0-2.0-5.0-1.25","5d1aa9db716058001a060031","D2","batch4","","3182.2999999970198","stim/no_37_2_w.png","j","pattern_response","true","j","pattern_19","3182.2999999970198","true","26","","","","","","","","","","","","","","","","","","",""
"","","","","","html-keyboard-response","73","167277","0.0-2.0-5.0-0.26","5d1aa9db716058001a060031","D2","batch4","","null","<p class=block-text>Trial 27 out of 78</p>","null","pattern_show_trial_num","","","","","","","","","","","","","","","","","","","","","","","","",""
"","","","","","image-keyboard-response","74","168361","0.0-2.0-5.0-1.26","5d1aa9db716058001a060031","D2","batch4","","1081.5","stim/yes_26_dia_w2_w.png","f","pattern_response","true","f","pattern_50","1081.5","true","27","","","","","","","","","","","","","","","","","","",""
"","","","","","html-keyboard-response","75","169677","0.0-2.0-5.0-0.27","5d1aa9db716058001a060031","D2","batch4","","null","<p class=block-text>Trial 28 out of 78</p>","null","pattern_show_trial_num","","","","","","","","","","","","","","","","","","","","","","","","",""
"","","","","","image-keyboard-response","76","172496","0.0-2.0-5.0-1.27","5d1aa9db716058001a060031","D2","batch4","","2817.9000000059605","stim/no_30_1_b.png","j","pattern_response","true","j","pattern_13","2817.9000000059605","true","28","","","","","","","","","","","","","","","","","","",""
"","","","","","html-keyboard-response","77","174285","0.0-2.0-5.0-0.28","5d1aa9db716058001a060031","D2","batch4","","null","<p class=block-text>Trial 29 out of 78</p>","null","pattern_show_trial_num","","","","","","","","","","","","","","","","","","","","","","","","",""
"","","","","","image-keyboard-response","78","179001","0.0-2.0-5.0-1.28","5d1aa9db716058001a060031","D2","batch4","","4713.100000008941","stim/no_67_1.png","j","pattern_response","true","j","pattern_39","4713.100000008941","true","29","","","","","","","","","","","","","","","","","","",""
"","","","","","html-keyboard-response","79","180320","0.0-2.0-5.0-0.29","5d1aa9db716058001a060031","D2","batch4","","null","<p class=block-text>Trial 30 out of 78</p>","null","pattern_show_trial_num","","","","","","","","","","","","","","","","","","","","","","","","",""
"","","","","","image-keyboard-response","80","184173","0.0-2.0-5.0-1.29","5d1aa9db716058001a060031","D2","batch4","","3845.2999999970198","stim/no_33_1_b.png","j","pattern_response","true","j","pattern_15","3845.2999999970198","true","30","","","","","","","","","","","","","","","","","","",""
"","","","","","html-keyboard-response","81","185488","0.0-2.0-5.0-0.30","5d1aa9db716058001a060031","D2","batch4","","null","<p class=block-text>Trial 31 out of 78</p>","null","pattern_show_trial_num","","","","","","","","","","","","","","","","","","","","","","","","",""
"","","","","","image-keyboard-response","82","186537","0.0-2.0-5.0-1.30","5d1aa9db716058001a060031","D2","batch4","","1045.7000000029802","stim/yes_70_ver_b1.png","f","pattern_response","true","f","pattern_80","1045.7000000029802","true","31","","","","","","","","","","","","","","","","","","",""
"","","","","","html-keyboard-response","83","187852","0.0-2.0-5.0-0.31","5d1aa9db716058001a060031","D2","batch4","","null","<p class=block-text>Trial 32 out of 78</p>","null","pattern_show_trial_num","","","","","","","","","","","","","","","","","","","","","","","","",""
"","","","","","image-keyboard-response","84","189007","0.0-2.0-5.0-1.31","5d1aa9db716058001a060031","D2","batch4","","1152.6000000089407","stim/yes_53_ver_b1_b.png","f","pattern_response","true","f","pattern_74","1152.6000000089407","true","32","","","","","","","","","","","","","","","","","","",""
"","","","","","html-keyboard-response","85","191277","0.0-2.0-5.0-0.32","5d1aa9db716058001a060031","D2","batch4","","null","<p class=block-text>Trial 33 out of 78</p>","null","pattern_show_trial_num","","","","","","","","","","","","","","","","","","","","","","","","",""
"","","","","","image-keyboard-response","86","194782","0.0-2.0-5.0-1.32","5d1aa9db716058001a060031","D2","batch4","","3503","stim/yes_58_dia_w1_w.png","j","pattern_response","false","f","pattern_76","3503","false","32","","","","","","","","","","","","","","","","","","",""
"","","","","","html-keyboard-response","87","196104","0.0-2.0-5.0-0.33","5d1aa9db716058001a060031","D2","batch4","","null","<p class=block-text>Trial 34 out of 78</p>","null","pattern_show_trial_num","","","","","","","","","","","","","","","","","","","","","","","","",""
"","","","","","image-keyboard-response","88","197188","0.0-2.0-5.0-1.33","5d1aa9db716058001a060031","D2","batch4","","1082.7000000029802","stim/no_18_1_b.png","j","pattern_response","true","j","pattern_05","1082.7000000029802","true","33","","","","","","","","","","","","","","","","","","",""
"","","","","","html-keyboard-response","89","198510","0.0-2.0-5.0-0.34","5d1aa9db716058001a060031","D2","batch4","","null","<p class=block-text>Trial 35 out of 78</p>","null","pattern_show_trial_num","","","","","","","","","","","","","","","","","","","","","","","","",""
"","","","","","image-keyboard-response","90","202739","0.0-2.0-5.0-1.34","5d1aa9db716058001a060031","D2","batch4","","4226.29999999702","stim/no_49_2_b.png","j","pattern_response","true","j","pattern_29","4226.29999999702","true","34","","","","","","","","","","","","","","","","","","",""
"","","","","","html-keyboard-response","91","204057","0.0-2.0-5.0-0.35","5d1aa9db716058001a060031","D2","batch4","","null","<p class=block-text>Trial 36 out of 78</p>","null","pattern_show_trial_num","","","","","","","","","","","","","","","","","","","","","","","","",""
"","","","","","image-keyboard-response","92","205846","0.0-2.0-5.0-1.35","5d1aa9db716058001a060031","D2","batch4","","1786.2000000029802","stim/yes_30_ver_b1_b.png","f","pattern_response","true","f","pattern_54","1786.2000000029802","true","35","","","","","","","","","","","","","","","","","","",""
"","","","","","html-keyboard-response","93","207164","0.0-2.0-5.0-0.36","5d1aa9db716058001a060031","D2","batch4","","null","<p class=block-text>Trial 37 out of 78</p>","null","pattern_show_trial_num","","","","","","","","","","","","","","","","","","","","","","","","",""
"","","","","","image-keyboard-response","94","210921","0.0-2.0-5.0-1.36","5d1aa9db716058001a060031","D2","batch4","","3754.7000000029802","stim/no_45_1_w.png","j","pattern_response","true","j","pattern_25","3754.7000000029802","true","36","","","","","","","","","","","","","","","","","","",""
"","","","","","html-keyboard-response","95","212229","0.0-2.0-5.0-0.37","5d1aa9db716058001a060031","D2","batch4","","null","<p class=block-text>Trial 38 out of 78</p>","null","pattern_show_trial_num","","","","","","","","","","","","","","","","","","","","","","","","",""
"","","","","","image-keyboard-response","96","213929","0.0-2.0-5.0-1.37","5d1aa9db716058001a060031","D2","batch4","","1698.1000000089407","stim/no_12_1.png","j","pattern_response","true","j","pattern_01","1698.1000000089407","true","37","","","","","","","","","","","","","","","","","","",""
"","","","","","html-keyboard-response","97","215248","0.0-2.0-5.0-0.38","5d1aa9db716058001a060031","D2","batch4","","null","<p class=block-text>Trial 39 out of 78</p>","null","pattern_show_trial_num","","","","","","","","","","","","","","","","","","","","","","","","",""
"","","","","","image-keyboard-response","98","217117","0.0-2.0-5.0-1.38","5d1aa9db716058001a060031","D2","batch4","","1866.5","stim/no_25_1_b.png","j","pattern_response","true","j","pattern_09","1866.5","true","38","","","","","","","","","","","","","","","","","","",""
"","","","","","image-keyboard-response","99","219712","0.0-2.0-6.0","5d1aa9db716058001a060031","D2","batch4","","2092.7000000029802","stim/empty_board.png","j","attention_check","true","j","","","","","500","[""f"",""j""]","","","","","","","","","","","","","","","","",""
"","","","","","html-keyboard-response","100","220516","0.0-2.0-7.0-0.0","5d1aa9db716058001a060031","D2","batch4","","null","<p class=block-text>Trial 40 out of 78</p>","null","pattern_show_trial_num","","","","","","","","","","","","","","","","","","","","","","","","",""
"","","","","","image-keyboard-response","101","227594","0.0-2.0-7.0-1.0","5d1aa9db716058001a060031","D2","batch4","","7076.100000008941","stim/no_65_1_b.png","j","pattern_response","true","j","pattern_38","7076.100000008941","true","39","","","","","","","","","","","","","","","","","","",""
"","","","","","html-keyboard-response","102","228922","0.0-2.0-7.0-0.1","5d1aa9db716058001a060031","D2","batch4","","null","<p class=block-text>Trial 41 out of 78</p>","null","pattern_show_trial_num","","","","","","","","","","","","","","","","","","","","","","","","",""
"","","","","","image-keyboard-response","103","230779","0.0-2.0-7.0-1.1","5d1aa9db716058001a060031","D2","batch4","","1845.699999988079","stim/no_20_1_w.png","j","pattern_response","true","j","pattern_06","1845.699999988079","true","40","","","","","","","","","","","","","","","","","","",""
"","","","","","html-keyboard-response","104","232104","0.0-2.0-7.0-0.2","5d1aa9db716058001a060031","D2","batch4","","null","<p class=block-text>Trial 42 out of 78</p>","null","pattern_show_trial_num","","","","","","","","","","","","","","","","","","","","","","","","",""
"","","","","","image-keyboard-response","105","234747","0.0-2.0-7.0-1.2","5d1aa9db716058001a060031","D2","batch4","","2640.5","stim/yes_43_ver_w1_w.png","f","pattern_response","true","f","pattern_65","2640.5","true","41","","","","","","","","","","","","","","","","","","",""
"","","","","","html-keyboard-response","106","236068","0.0-2.0-7.0-0.3","5d1aa9db716058001a060031","D2","batch4","","null","<p class=block-text>Trial 43 out of 78</p>","null","pattern_show_trial_num","","","","","","","","","","","","","","","","","","","","","","","","",""
"","","","","","image-keyboard-response","107","236817","0.0-2.0-7.0-1.3","5d1aa9db716058001a060031","D2","batch4","","746.5","stim/yes_17_dia_w1.png","f","pattern_response","true","f","pattern_45","746.5","true","42","","","","","","","","","","","","","","","","","","",""
"","","","","","html-keyboard-response","108","238135","0.0-2.0-7.0-0.4","5d1aa9db716058001a060031","D2","batch4","","null","<p class=block-text>Trial 44 out of 78</p>","null","pattern_show_trial_num","","","","","","","","","","","","","","","","","","","","","","","","",""
"","","","","","image-keyboard-response","109","239175","0.0-2.0-7.0-1.4","5d1aa9db716058001a060031","D2","batch4","","1038.2000000029802","stim/yes_52_ver_w1.png","f","pattern_response","true","f","pattern_73","1038.2000000029802","true","43","","","","","","","","","","","","","","","","","","",""
"","","","","","html-keyboard-response","110","241291","0.0-2.0-7.0-0.5","5d1aa9db716058001a060031","D2","batch4","","null","<p class=block-text>Trial 45 out of 78</p>","null","pattern_show_trial_num","","","","","","","","","","","","","","","","","","","","","","","","",""
"","","","","","image-keyboard-response","111","242599","0.0-2.0-7.0-1.5","5d1aa9db716058001a060031","D2","batch4","","1306.9000000059605","stim/yes_55_hor_w1_w.png","f","pattern_response","true","f","pattern_75","1306.9000000059605","true","44","","","","","","","","","","","","","","","","","","",""
"","","","","","html-keyboard-response","112","243927","0.0-2.0-7.0-0.6","5d1aa9db716058001a060031","D2","batch4","","null","<p class=block-text>Trial 46 out of 78</p>","null","pattern_show_trial_num","","","","","","","","","","","","","","","","","","","","","","","","",""
"","","","","","image-keyboard-response","113","247568","0.0-2.0-7.0-1.6","5d1aa9db716058001a060031","D2","batch4","","3643.7999999970198","stim/no_46_1_b.png","j","pattern_response","true","j","pattern_26","3643.7999999970198","true","45","","","","","","","","","","","","","","","","","","",""
"","","","","","html-keyboard-response","114","248888","0.0-2.0-7.0-0.7","5d1aa9db716058001a060031","D2","batch4","","null","<p class=block-text>Trial 47 out of 78</p>","null","pattern_show_trial_num","","","","","","","","","","","","","","","","","","","","","","","","",""
"","","","","","image-keyboard-response","115","252271","0.0-2.0-7.0-1.7","5d1aa9db716058001a060031","D2","batch4","","3381.3999999910593","stim/no_34_1_b.png","j","pattern_response","true","j","pattern_16","3381.3999999910593","true","46","","","","","","","","","","","","","","","","","","",""
"","","","","","html-keyboard-response","116","254286","0.0-2.0-7.0-0.8","5d1aa9db716058001a060031","D2","batch4","","null","<p class=block-text>Trial 48 out of 78</p>","null","pattern_show_trial_num","","","","","","","","","","","","","","","","","","","","","","","","",""
"","","","","","image-keyboard-response","117","259156","0.0-2.0-7.0-1.8","5d1aa9db716058001a060031","D2","batch4","","4867.20000000298","stim/no_62_1_w.png","j","pattern_response","true","j","pattern_36","4867.20000000298","true","47","","","","","","","","","","","","","","","","","","",""
"","","","","","html-keyboard-response","118","260476","0.0-2.0-7.0-0.9","5d1aa9db716058001a060031","D2","batch4","","null","<p class=block-text>Trial 49 out of 78</p>","null","pattern_show_trial_num","","","","","","","","","","","","","","","","","","","","","","","","",""
"","","","","","image-keyboard-response","119","265828","0.0-2.0-7.0-1.9","5d1aa9db716058001a060031","D2","batch4","","5349.699999988079","stim/no_52_1.png","j","pattern_response","true","j","pattern_32","5349.699999988079","true","48","","","","","","","","","","","","","","","","","","",""
"","","","","","html-keyboard-response","120","267160","0.0-2.0-7.0-0.10","5d1aa9db716058001a060031","D2","batch4","","null","<p class=block-text>Trial 50 out of 78</p>","null","pattern_show_trial_num","","","","","","","","","","","","","","","","","","","","","","","","",""
"","","","","","image-keyboard-response","121","272510","0.0-2.0-7.0-1.10","5d1aa9db716058001a060031","D2","batch4","","5347.79999999702","stim/no_48_1_w.png","j","pattern_response","true","j","pattern_28","5347.79999999702","true","49","","","","","","","","","","","","","","","","","","",""
"","","","","","html-keyboard-response","122","273819","0.0-2.0-7.0-0.11","5d1aa9db716058001a060031","D2","batch4","","null","<p class=block-text>Trial 51 out of 78</p>","null","pattern_show_trial_num","","","","","","","","","","","","","","","","","","","","","","","","",""
"","","","","","image-keyboard-response","123","274936","0.0-2.0-7.0-1.11","5d1aa9db716058001a060031","D2","batch4","","1114.5","stim/yes_35_dia_b1.png","f","pattern_response","true","f","pattern_57","1114.5","true","50","","","","","","","","","","","","","","","","","","",""
"","","","","","html-keyboard-response","124","276266","0.0-2.0-7.0-0.12","5d1aa9db716058001a060031","D2","batch4","","null","<p class=block-text>Trial 52 out of 78</p>","null","pattern_show_trial_num","","","","","","","","","","","","","","","","","","","","","","","","",""
"","","","","","image-keyboard-response","125","278043","0.0-2.0-7.0-1.12","5d1aa9db716058001a060031","D2","batch4","","1774.300000011921","stim/yes_67_hor_b1.png","f","pattern_response","true","f","pattern_79","1774.300000011921","true","51","","","","","","","","","","","","","","","","","","",""
"","","","","","html-keyboard-response","126","279373","0.0-2.0-7.0-0.13","5d1aa9db716058001a060031","D2","batch4","","null","<p class=block-text>Trial 53 out of 78</p>","null","pattern_show_trial_num","","","","","","","","","","","","","","","","","","","","","","","","",""
"","","","","","image-keyboard-response","127","280443","0.0-2.0-7.0-1.13","5d1aa9db716058001a060031","D2","batch4","","1068.2999999970198","stim/yes_45_hor_b2_b.png","f","pattern_response","true","f","pattern_67","1068.2999999970198","true","52","","","","","","","","","","","","","","","","","","",""
"","","","","","html-keyboard-response","128","281774","0.0-2.0-7.0-0.14","5d1aa9db716058001a060031","D2","batch4","","null","<p class=block-text>Trial 54 out of 78</p>","null","pattern_show_trial_num","","","","","","","","","","","","","","","","","","","","","","","","",""
"","","","","","image-keyboard-response","129","284306","0.0-2.0-7.0-1.14","5d1aa9db716058001a060031","D2","batch4","","2530","stim/no_44_1.png","j","pattern_response","true","j","pattern_24","2530","true","53","","","","","","","","","","","","","","","","","","",""
"","","","","","html-keyboard-response","130","285631","0.0-2.0-7.0-0.15","5d1aa9db716058001a060031","D2","batch4","","null","<p class=block-text>Trial 55 out of 78</p>","null","pattern_show_trial_num","","","","","","","","","","","","","","","","","","","","","","","","",""
"","","","","","image-keyboard-response","131","286515","0.0-2.0-7.0-1.15","5d1aa9db716058001a060031","D2","batch4","","882","stim/yes_25_hor_b1_b.png","f","pattern_response","true","f","pattern_49","882","true","54","","","","","","","","","","","","","","","","","","",""
"","","","","","html-keyboard-response","132","287845","0.0-2.0-7.0-0.16","5d1aa9db716058001a060031","D2","batch4","","null","<p class=block-text>Trial 56 out of 78</p>","null","pattern_show_trial_num","","","","","","","","","","","","","","","","","","","","","","","","",""
"","","","","","image-keyboard-response","133","288672","0.0-2.0-7.0-1.16","5d1aa9db716058001a060031","D2","batch4","","825.5","stim/yes_22_ver_w1.png","f","pattern_response","true","f","pattern_47","825.5","true","55","","","","","","","","","","","","","","","","","","",""
"","","","","","html-keyboard-response","134","290277","0.0-2.0-7.0-0.17","5d1aa9db716058001a060031","D2","batch4","","null","<p class=block-text>Trial 57 out of 78</p>","null","pattern_show_trial_num","","","","","","","","","","","","","","","","","","","","","","","","",""
"","","","","","image-keyboard-response","135","291181","0.0-2.0-7.0-1.17","5d1aa9db716058001a060031","D2","batch4","","901.7000000029802","stim/no_13_2_b.png","j","pattern_response","true","j","pattern_02","901.7000000029802","true","56","","","","","","","","","","","","","","","","","","",""
"","","","","","html-keyboard-response","136","292504","0.0-2.0-7.0-0.18","5d1aa9db716058001a060031","D2","batch4","","null","<p class=block-text>Trial 58 out of 78</p>","null","pattern_show_trial_num","","","","","","","","","","","","","","","","","","","","","","","","",""
"","","","","","image-keyboard-response","137","297425","0.0-2.0-7.0-1.18","5d1aa9db716058001a060031","D2","batch4","","4919.600000008941","stim/no_70_2.png","j","pattern_response","true","j","pattern_40","4919.600000008941","true","57","","","","","","","","","","","","","","","","","","",""
"","","","","","html-keyboard-response","138","298746","0.0-2.0-7.0-0.19","5d1aa9db716058001a060031","D2","batch4","","null","<p class=block-text>Trial 59 out of 78</p>","null","pattern_show_trial_num","","","","","","","","","","","","","","","","","","","","","","","","",""
"","","","","","image-keyboard-response","139","301902","0.0-2.0-7.0-1.19","5d1aa9db716058001a060031","D2","batch4","","3153.1000000089407","stim/no_32_1_w.png","j","pattern_response","true","j","pattern_14","3153.1000000089407","true","58","","","","","","","","","","","","","","","","","","",""
"","","","","","html-keyboard-response","140","303286","0.0-2.0-7.0-0.20","5d1aa9db716058001a060031","D2","batch4","","null","<p class=block-text>Trial 60 out of 78</p>","null","pattern_show_trial_num","","","","","","","","","","","","","","","","","","","","","","","","",""
"","","","","","image-keyboard-response","141","305972","0.0-2.0-7.0-1.20","5d1aa9db716058001a060031","D2","batch4","","2684.4000000059605","stim/no_38_1_b.png","j","pattern_response","true","j","pattern_20","2684.4000000059605","true","59","","","","","","","","","","","","","","","","","","",""
"","","","","","html-keyboard-response","142","307302","0.0-2.0-7.0-0.21","5d1aa9db716058001a060031","D2","batch4","","null","<p class=block-text>Trial 61 out of 78</p>","null","pattern_show_trial_num","","","","","","","","","","","","","","","","","","","","","","","","",""
"","","","","","image-keyboard-response","143","312130","0.0-2.0-7.0-1.21","5d1aa9db716058001a060031","D2","batch4","","4820.5999999940395","stim/yes_37_dia_w1.png","f","pattern_response","true","f","pattern_59","4820.5999999940395","true","60","","","","","","","","","","","","","","","","","","",""
"","","","","","html-keyboard-response","144","313441","0.0-2.0-7.0-0.22","5d1aa9db716058001a060031","D2","batch4","","null","<p class=block-text>Trial 62 out of 78</p>","null","pattern_show_trial_num","","","","","","","","","","","","","","","","","","","","","","","","",""
"","","","","","image-keyboard-response","145","317943","0.0-2.0-7.0-1.22","5d1aa9db716058001a060031","D2","batch4","","4499.20000000298","stim/no_36_2_w.png","j","pattern_response","true","j","pattern_18","4499.20000000298","true","61","","","","","","","","","","","","","","","","","","",""
"","","","","","html-keyboard-response","146","319264","0.0-2.0-7.0-0.23","5d1aa9db716058001a060031","D2","batch4","","null","<p class=block-text>Trial 63 out of 78</p>","null","pattern_show_trial_num","","","","","","","","","","","","","","","","","","","","","","","","",""
"","","","","","image-keyboard-response","147","321501","0.0-2.0-7.0-1.23","5d1aa9db716058001a060031","D2","batch4","","2234.7999999970198","stim/no_17_1_w.png","j","pattern_response","true","j","pattern_04","2234.7999999970198","true","62","","","","","","","","","","","","","","","","","","",""
"","","","","","html-keyboard-response","148","322812","0.0-2.0-7.0-0.24","5d1aa9db716058001a060031","D2","batch4","","null","<p class=block-text>Trial 64 out of 78</p>","null","pattern_show_trial_num","","","","","","","","","","","","","","","","","","","","","","","","",""
"","","","","","image-keyboard-response","149","324622","0.0-2.0-7.0-1.24","5d1aa9db716058001a060031","D2","batch4","","1807.2999999970198","stim/no_23_1.png","j","pattern_response","true","j","pattern_08","1807.2999999970198","true","63","","","","","","","","","","","","","","","","","","",""
"","","","","","html-keyboard-response","150","325950","0.0-2.0-7.0-0.25","5d1aa9db716058001a060031","D2","batch4","","null","<p class=block-text>Trial 65 out of 78</p>","null","pattern_show_trial_num","","","","","","","","","","","","","","","","","","","","","","","","",""
"","","","","","image-keyboard-response","151","328381","0.0-2.0-7.0-1.25","5d1aa9db716058001a060031","D2","batch4","","2428.7000000029802","stim/no_26_1_w.png","j","pattern_response","true","j","pattern_10","2428.7000000029802","true","64","","","","","","","","","","","","","","","","","","",""
"","","","","","html-keyboard-response","152","330284","0.0-2.0-7.0-0.26","5d1aa9db716058001a060031","D2","batch4","","null","<p class=block-text>Trial 66 out of 78</p>","null","pattern_show_trial_num","","","","","","","","","","","","","","","","","","","","","","","","",""
"","","","","","image-keyboard-response","153","331265","0.0-2.0-7.0-1.26","5d1aa9db716058001a060031","D2","batch4","","979.2999999970198","stim/yes_28_ver_b1.png","f","pattern_response","true","f","pattern_51","979.2999999970198","true","65","","","","","","","","","","","","","","","","","","",""
"","","","","","html-keyboard-response","154","332566","0.0-2.0-7.0-0.27","5d1aa9db716058001a060031","D2","batch4","","null","<p class=block-text>Trial 67 out of 78</p>","null","pattern_show_trial_num","","","","","","","","","","","","","","","","","","","","","","","","",""
"","","","","","image-keyboard-response","155","336033","0.0-2.0-7.0-1.27","5d1aa9db716058001a060031","D2","batch4","","3463.7000000029802","stim/no_50_1.png","j","pattern_response","true","j","pattern_30","3463.7000000029802","true","66","","","","","","","","","","","","","","","","","","",""
"","","","","","html-keyboard-response","156","338290","0.0-2.0-7.0-0.28","5d1aa9db716058001a060031","D2","batch4","","null","<p class=block-text>Trial 68 out of 78</p>","null","pattern_show_trial_num","","","","","","","","","","","","","","","","","","","","","","","","",""
"","","","","","image-keyboard-response","157","339130","0.0-2.0-7.0-1.28","5d1aa9db716058001a060031","D2","batch4","","836.7999999970198","stim/yes_14_hor_b1_w.png","f","pattern_response","true","f","pattern_43","836.7999999970198","true","67","","","","","","","","","","","","","","","","","","",""
"","","","","","html-keyboard-response","158","340456","0.0-2.0-7.0-0.29","5d1aa9db716058001a060031","D2","batch4","","null","<p class=block-text>Trial 69 out of 78</p>","null","pattern_show_trial_num","","","","","","","","","","","","","","","","","","","","","","","","",""
"","","","","","image-keyboard-response","159","343040","0.0-2.0-7.0-1.29","5d1aa9db716058001a060031","D2","batch4","","2581.7000000029802","stim/yes_40_dia_b1_b.png","f","pattern_response","true","f","pattern_63","2581.7000000029802","true","68","","","","","","","","","","","","","","","","","","",""
"","","","","","html-keyboard-response","160","345277","0.0-2.0-7.0-0.30","5d1aa9db716058001a060031","D2","batch4","","null","<p class=block-text>Trial 70 out of 78</p>","null","pattern_show_trial_num","","","","","","","","","","","","","","","","","","","","","","","","",""
"","","","","","image-keyboard-response","161","347307","0.0-2.0-7.0-1.30","5d1aa9db716058001a060031","D2","batch4","","2028.2000000029802","stim/yes_60_ver_b1_b.png","f","pattern_response","true","f","pattern_77","2028.2000000029802","true","69","","","","","","","","","","","","","","","","","","",""
"","","","","","html-keyboard-response","162","348638","0.0-2.0-7.0-0.31","5d1aa9db716058001a060031","D2","batch4","","null","<p class=block-text>Trial 71 out of 78</p>","null","pattern_show_trial_num","","","","","","","","","","","","","","","","","","","","","","","","",""
"","","","","","image-keyboard-response","163","349494","0.0-2.0-7.0-1.31","5d1aa9db716058001a060031","D2","batch4","","855.5","stim/yes_29_ver_w1.png","f","pattern_response","true","f","pattern_53","855.5","true","70","","","","","","","","","","","","","","","","","","",""
"","","","","","html-keyboard-response","164","350820","0.0-2.0-7.0-0.32","5d1aa9db716058001a060031","D2","batch4","","null","<p class=block-text>Trial 72 out of 78</p>","null","pattern_show_trial_num","","","","","","","","","","","","","","","","","","","","","","","","",""
"","","","","","image-keyboard-response","165","351847","0.0-2.0-7.0-1.32","5d1aa9db716058001a060031","D2","batch4","","1025.7999999970198","stim/yes_31_hor_b1.png","f","pattern_response","true","f","pattern_55","1025.7999999970198","true","71","","","","","","","","","","","","","","","","","","",""
"","","","","","html-keyboard-response","166","354291","0.0-2.0-7.0-0.33","5d1aa9db716058001a060031","D2","batch4","","null","<p class=block-text>Trial 73 out of 78</p>","null","pattern_show_trial_num","","","","","","","","","","","","","","","","","","","","","","","","",""
"","","","","","image-keyboard-response","167","357916","0.0-2.0-7.0-1.33","5d1aa9db716058001a060031","D2","batch4","","3622.7000000029802","stim/no_55_1_w.png","j","pattern_response","true","j","pattern_34","3622.7000000029802","true","72","","","","","","","","","","","","","","","","","","",""
"","","","","","html-keyboard-response","168","359238","0.0-2.0-7.0-0.34","5d1aa9db716058001a060031","D2","batch4","","null","<p class=block-text>Trial 74 out of 78</p>","null","pattern_show_trial_num","","","","","","","","","","","","","","","","","","","","","","","","",""
"","","","","","image-keyboard-response","169","362045","0.0-2.0-7.0-1.34","5d1aa9db716058001a060031","D2","batch4","","2804.5999999940395","stim/yes_50_dia_w1.png","j","pattern_response","false","f","pattern_71","2804.5999999940395","false","72","","","","","","","","","","","","","","","","","","",""
"","","","","","html-keyboard-response","170","364285","0.0-2.0-7.0-0.35","5d1aa9db716058001a060031","D2","batch4","","null","<p class=block-text>Trial 75 out of 78</p>","null","pattern_show_trial_num","","","","","","","","","","","","","","","","","","","","","","","","",""
"","","","","","image-keyboard-response","171","366207","0.0-2.0-7.0-1.35","5d1aa9db716058001a060031","D2","batch4","","1919.2000000029802","stim/yes_38_hor_b1_b.png","f","pattern_response","true","f","pattern_61","1919.2000000029802","true","73","","","","","","","","","","","","","","","","","","",""
"","","","","","html-keyboard-response","172","367525","0.0-2.0-7.0-0.36","5d1aa9db716058001a060031","D2","batch4","","null","<p class=block-text>Trial 76 out of 78</p>","null","pattern_show_trial_num","","","","","","","","","","","","","","","","","","","","","","","","",""
"","","","","","image-keyboard-response","173","371135","0.0-2.0-7.0-1.36","5d1aa9db716058001a060031","D2","batch4","","3607.2999999970198","stim/no_42_1_w.png","j","pattern_response","true","j","pattern_22","3607.2999999970198","true","74","","","","","","","","","","","","","","","","","","",""
"","","","","","html-keyboard-response","174","372460","0.0-2.0-7.0-0.37","5d1aa9db716058001a060031","D2","batch4","","null","<p class=block-text>Trial 77 out of 78</p>","null","pattern_show_trial_num","","","","","","","","","","","","","","","","","","","","","","","","",""
"","","","","","image-keyboard-response","175","374450","0.0-2.0-7.0-1.37","5d1aa9db716058001a060031","D2","batch4","","1986.4000000059605","stim/no_29_1_b.png","j","pattern_response","true","j","pattern_12","1986.4000000059605","true","75","","","","","","","","","","","","","","","","","","",""
"","","","","","html-keyboard-response","176","375781","0.0-2.0-7.0-0.38","5d1aa9db716058001a060031","D2","batch4","","null","<p class=block-text>Trial 78 out of 78</p>","null","pattern_show_trial_num","","","","","","","","","","","","","","","","","","","","","","","","",""
"","","","","","image-keyboard-response","177","377727","0.0-2.0-7.0-1.38","5d1aa9db716058001a060031","D2","batch4","","1943.5","stim/yes_48_dia_w1_w.png","f","pattern_response","true","f","pattern_69","1943.5","true","76","","","","","","","","","","","","","","","","","","",""
"","","","","","html-button-response","178","428997","0.0-2.0-8.0","5d1aa9db716058001a060031","D2","batch4","","50762.90000000596","<p class = block-text>This concludes the 4-in-a-row detection game.Thank you for your responses!<br>
            You responded correctly on 97% of the trials.<br>
            When you are ready, press ""Continue"" button to continue </p>","0","","","","","","","","","","","","","","","","","","","","","","","","","",""
"true","","","","","fullscreen","179","431297","0.0-3.0-0.0","5d1aa9db716058001a060031","D2","batch4","","","","","","","","","","","","","","","","","","","","","","","","","","","","","",""
"","","","","","instructions","180","470173","0.0-3.0-1.0-0.0-0.0","5d1aa9db716058001a060031","D2","batch4","[{""page_index"":0,""viewing_time"":9700},{""page_index"":1,""viewing_time"":5756.600000008941},{""page_index"":2,""viewing_time"":4546.5},{""page_index"":3,""viewing_time"":4709.5999999940395},{""page_index"":4,""viewing_time"":4903},{""page_index"":5,""viewing_time"":5421.4000000059605},{""page_index"":6,""viewing_time"":3843.0999999940395}]","38880.5","","","tol-instructions","","","","","","","","","","","","","","","","","","","","","","","","",""
"","","","","","html-button-response","181","471383","0.0-3.0-1.0-1.0-0.0","5d1aa9db716058001a060031","D2","batch4","","1208.7000000029802","<p class=block-text> Let's answer a few questions <br>","0","tol_enter_quiz","","","","","","","","","","","","","","","","","","","","","","","","",""
"","","","","","html-button-response","182","476236","0.0-3.0-1.0-1.0-1.0","5d1aa9db716058001a060031","D2","batch4","","4851","<p class = block-text>True or False: You can only move the ball on top of a peg. <br></p>","0","tol_quiz","true","","","","","","","","","","","","","","","","","","","","","","","",""
"","","","","","html-button-response","183","477381","0.0-3.0-1.0-1.0-2.0","5d1aa9db716058001a060031","D2","batch4","","1142.7000000029802","<p class = block-text>Correct! You can only move the ball on top of a peg.</p>","0","tol_quiz_feedback","","","","","","","","","","","","","","","","","","","","","","","","",""
"","","","","","html-button-response","184","482219","0.0-3.0-1.0-1.0-3.0","5d1aa9db716058001a060031","D2","batch4","","4836.100000008941","<p class = block-text>True or False: You should try to match your board with the target board with fewest moves possible. <br></p>","0","tol_quiz","true","","","","","","","","","","","","","","","","","","","","","","","",""
"","","","","","html-button-response","185","483094","0.0-3.0-1.0-1.0-4.0","5d1aa9db716058001a060031","D2","batch4","","872.7000000029802","<p class = block-text>Correct! </p>","0","tol_quiz_feedback","","","","","","","","","","","","","","","","","","","","","","","","",""
"","","","","","html-button-response","186","484730","0.0-3.0-2.0","5d1aa9db716058001a060031","D2","batch4","","1634.3999999910593","<p class=block-text> Now that you've understood the game, let's practice a few easier examples before we start!<br> <br>","0","","","","","","","","","","","","","","","","","","","","","","","","","",""
"","","","","","single-stim-button","187","489270","0.0-3.0-3.0-0.0","5d1aa9db716058001a060031","D2","batch4","","4536","","","tol_practice","","","","","","","","","tol_peg_2","4536","4536","0","[[1,2,0],[0,0],[0]]","1","[[1,2,0],[0,0],[3]]","practice","4536","","","","","","","",""
"","","","","","single-stim-button","188","490679","0.0-3.0-3.0-1.0","5d1aa9db716058001a060031","D2","batch4","","1407","","","tol_practice","","","","","","","","","tol_peg_3","1407","1407","0","[[1,2,0],[0,0],[3]]","1","[[1,2,0],[0,0],[3]]","practice","1407","","","","","","","",""
"","","","","","poldrack-single-stim","189","491696","0.0-3.0-4.0","5d1aa9db716058001a060031","D2","batch4","","-1","","","tol_feedback","true","","","","","","","","","1000","1000","500","","","","","","-1","none","true","","0","","",""
"","","","","","single-stim-button","190","496176","0.0-3.0-5.0-0.0","5d1aa9db716058001a060031","D2","batch4","","4477","","","tol_practice","","","","","","","","","tol_peg_1","4477","4477","0","[[1,0,0],[3,0],[0]]","2","[[0,0,0],[3,1],[2]]","practice","4477","","","","","","","",""
"","","","","","single-stim-button","191","497326","0.0-3.0-5.0-1.0","5d1aa9db716058001a060031","D2","batch4","","1146","","","tol_practice","","","","","","","","","tol_peg_3","1146","1146","0","[[1,0,0],[3,0],[2]]","2","[[0,0,0],[3,1],[2]]","practice","1146","","","","","","","",""
"","","","","","single-stim-button","192","499815","0.0-3.0-5.1-0.1","5d1aa9db716058001a060031","D2","batch4","","2487","","","tol_practice","","","","","","","","","tol_peg_1","2487","2487","0","[[0,0,0],[3,0],[2]]","3","[[0,0,0],[3,1],[2]]","practice","2487","","","","","","","",""
"","","","","","single-stim-button","193","505736","0.0-3.0-5.1-1.1","5d1aa9db716058001a060031","D2","batch4","","5919","","","tol_practice","","","","","","","","","tol_peg_2","5919","5919","0","[[0,0,0],[3,1],[2]]","3","[[0,0,0],[3,1],[2]]","practice","5919","","","","","","","",""
"","","","","","poldrack-single-stim","194","506741","0.0-3.0-6.0","5d1aa9db716058001a060031","D2","batch4","","-1","","","tol_feedback","true","","","","","","","","","1000","1000","500","","","","","","-1","none","true","","0","","",""
"","","","","","single-stim-button","195","510063","0.0-3.0-7.0-0.0","5d1aa9db716058001a060031","D2","batch4","","3321","","","tol_practice","","","","","","","","","tol_peg_2","3321","3321","0","[[1,2,0],[0,0],[0]]","4","[[1,0,0],[2,0],[3]]","practice","3321","","","","","","","",""
"","","","","","single-stim-button","196","511021","0.0-3.0-7.0-1.0","5d1aa9db716058001a060031","D2","batch4","","955","","","tol_practice","","","","","","","","","tol_peg_3","955","955","0","[[1,2,0],[0,0],[3]]","4","[[1,0,0],[2,0],[3]]","practice","955","","","","","","","",""
"","","","","","single-stim-button","197","512117","0.0-3.0-7.1-0.1","5d1aa9db716058001a060031","D2","batch4","","1094","","","tol_practice","","","","","","","","","tol_peg_1","1094","1094","0","[[1,0,0],[0,0],[3]]","5","[[1,0,0],[2,0],[3]]","practice","1094","","","","","","","",""
"","","","","","single-stim-button","198","513096","0.0-3.0-7.1-1.1","5d1aa9db716058001a060031","D2","batch4","","976","","","tol_practice","","","","","","","","","tol_peg_2","976","976","0","[[1,0,0],[2,0],[3]]","5","[[1,0,0],[2,0],[3]]","practice","976","","","","","","","",""
"","","","","","poldrack-single-stim","199","514103","0.0-3.0-8.0","5d1aa9db716058001a060031","D2","batch4","","-1","","","tol_feedback","true","","","","","","","","","1000","1000","500","","","","","","-1","none","true","","0","","",""
"","","","","","html-button-response","200","516662","0.0-3.0-9.0","5d1aa9db716058001a060031","D2","batch4","","2557.7999999970198","<div class = centerbox><p class = center-block-text>Great job! You are done with practice trials<br>You are about to start official trials.<br> <br> Problem <strong>1</strong> out of 25 problems</p></div>","0","tol_instruction","","","","","","","","","","","","","","","","","","","","","","","","",""
"","","","","","single-stim-button","201","524000","0.0-3.0-10.0-0.0","5d1aa9db716058001a060031","D2","batch4","","6334","","","tol_tohand","","","","","","","","","tol_peg_2","6334","6334","0","[[1,2,0],[0,0],[0]]","1","[[1,3,0],[2,0],[0]]","0","0","","","","","","3","",""
"","","","","","single-stim-button","202","524880","0.0-3.0-10.0-1.0","5d1aa9db716058001a060031","D2","batch4","","877","","","tol_toboard","","","","","","","","","tol_peg_3","877","877","0","[[1,2,0],[0,0],[3]]","1","[[1,3,0],[2,0],[0]]","0","0","","","","","","3","",""
"","","","","","single-stim-button","203","525976","0.0-3.0-10.1-0.1","5d1aa9db716058001a060031","D2","batch4","","1094","","","tol_tohand","","","","","","","","","tol_peg_1","1094","1094","0","[[1,0,0],[0,0],[3]]","2","[[1,3,0],[2,0],[0]]","0","0","","","","","","3","",""
"","","","","","single-stim-button","204","527170","0.0-3.0-10.1-1.1","5d1aa9db716058001a060031","D2","batch4","","1192","","","tol_toboard","","","","","","","","","tol_peg_2","1192","1192","0","[[1,0,0],[2,0],[3]]","2","[[1,3,0],[2,0],[0]]","0","0","","","","","","3","",""
"","","","","","single-stim-button","205","528267","0.0-3.0-10.2-0.2","5d1aa9db716058001a060031","D2","batch4","","1095","","","tol_tohand","","","","","","","","","tol_peg_3","1095","1095","0","[[1,0,0],[2,0],[0]]","3","[[1,3,0],[2,0],[0]]","0","0","","","","","","3","",""
"","","","","","single-stim-button","206","529493","0.0-3.0-10.2-1.2","5d1aa9db716058001a060031","D2","batch4","","1223","","","tol_toboard","","","","","","","","","tol_peg_1","1223","1223","0","[[1,3,0],[2,0],[0]]","3","[[1,3,0],[2,0],[0]]","0","0","","","","","","3","",""
"","","","","","poldrack-single-stim","207","530511","0.0-3.0-11.0","5d1aa9db716058001a060031","D2","batch4","","-1","","","tol_feedback","true","","","","","","","","","1000","1000","500","","","","","","-1","none","true","6334","8523","","",""
"","","","","","html-button-response","208","532556","0.0-3.0-12.0","5d1aa9db716058001a060031","D2","batch4","","2042.5","<div class = centerbox><p class = center-block-text>problem <strong>2</strong> out of 25 problems</p></div>","0","tol_trial_num","","","","","","","","","","","","","","","","","","","","","","","","",""
"","","","","","single-stim-button","209","537232","0.0-3.0-13.0-0.0","5d1aa9db716058001a060031","D2","batch4","","4675","","","tol_tohand","","","","","","","","","tol_peg_1","4675","4675","0","[[1,0,0],[3,0],[0]]","1","[[2,1,3],[0,0],[0]]","1","0","","","","","","5","",""
"","","","","","single-stim-button","210","542713","0.0-3.0-13.0-1.0","5d1aa9db716058001a060031","D2","batch4","","5479","","","tol_toboard","","","","","","","","","tol_peg_2","5479","5479","0","[[1,0,0],[3,2],[0]]","1","[[2,1,3],[0,0],[0]]","1","0","","","","","","5","",""
"","","","","","single-stim-button","211","543827","0.0-3.0-13.1-0.1","5d1aa9db716058001a060031","D2","batch4","","1113","","","tol_tohand","","","","","","","","","tol_peg_1","1113","1113","0","[[0,0,0],[3,2],[0]]","2","[[2,1,3],[0,0],[0]]","1","0","","","","","","5","",""
"","","","","","single-stim-button","212","545113","0.0-3.0-13.1-1.1","5d1aa9db716058001a060031","D2","batch4","","1283","","","tol_toboard","","","","","","","","","tol_peg_3","1283","1283","0","[[0,0,0],[3,2],[1]]","2","[[2,1,3],[0,0],[0]]","1","0","","","","","","5","",""
"","","","","","single-stim-button","213","546055","0.0-3.0-13.2-0.2","5d1aa9db716058001a060031","D2","batch4","","940","","","tol_tohand","","","","","","","","","tol_peg_2","940","940","0","[[0,0,0],[3,0],[1]]","3","[[2,1,3],[0,0],[0]]","1","0","","","","","","5","",""
"","","","","","single-stim-button","214","547246","0.0-3.0-13.2-1.2","5d1aa9db716058001a060031","D2","batch4","","1188","","","tol_toboard","","","","","","","","","tol_peg_1","1188","1188","0","[[2,0,0],[3,0],[1]]","3","[[2,1,3],[0,0],[0]]","1","0","","","","","","5","",""
"","","","","","single-stim-button","215","548687","0.0-3.0-13.3-0.3","5d1aa9db716058001a060031","D2","batch4","","1439","","","tol_tohand","","","","","","","","","tol_peg_3","1439","1439","0","[[2,0,0],[3,0],[0]]","4","[[2,1,3],[0,0],[0]]","1","0","","","","","","5","",""
"","","","","","single-stim-button","216","549871","0.0-3.0-13.3-1.3","5d1aa9db716058001a060031","D2","batch4","","1181","","","tol_toboard","","","","","","","","","tol_peg_1","1181","1181","0","[[2,1,0],[3,0],[0]]","4","[[2,1,3],[0,0],[0]]","1","0","","","","","","5","",""
"","","","","","single-stim-button","217","551048","0.0-3.0-13.4-0.4","5d1aa9db716058001a060031","D2","batch4","","1175","","","tol_tohand","","","","","","","","","tol_peg_2","1175","1175","0","[[2,1,0],[0,0],[0]]","5","[[2,1,3],[0,0],[0]]","1","0","","","","","","5","",""
"","","","","","single-stim-button","218","552053","0.0-3.0-13.4-1.4","5d1aa9db716058001a060031","D2","batch4","","1003","","","tol_toboard","","","","","","","","","tol_peg_1","1003","1003","0","[[2,1,3],[0,0],[0]]","5","[[2,1,3],[0,0],[0]]","1","0","","","","","","5","",""
"","","","","","poldrack-single-stim","219","553069","0.0-3.0-14.0","5d1aa9db716058001a060031","D2","batch4","","-1","","","tol_feedback","true","","","","","","","","","1000","1000","500","","","","","","-1","none","true","4675","9342","","",""
"","","","","","html-button-response","220","557433","0.0-3.0-15.0","5d1aa9db716058001a060031","D2","batch4","","4360.70000000298","<div class = centerbox><p class = center-block-text>problem <strong>3</strong> out of 25 problems</p></div>","0","tol_trial_num","","","","","","","","","","","","","","","","","","","","","","","","",""
"","","","","","single-stim-button","221","561149","0.0-3.0-16.0-0.0","5d1aa9db716058001a060031","D2","batch4","","3714","","","tol_tohand","","","","","","","","","tol_peg_1","3714","3714","0","[[2,0,0],[0,0],[1]]","1","[[1,2,0],[3,0],[0]]","2","0","","","","","","4","",""
"","","","","","single-stim-button","222","562308","0.0-3.0-16.0-1.0","5d1aa9db716058001a060031","D2","batch4","","1156","","","tol_toboard","","","","","","","","","tol_peg_2","1156","1156","0","[[2,0,0],[3,0],[1]]","1","[[1,2,0],[3,0],[0]]","2","0","","","","","","4","",""
"","","","","","single-stim-button","223","563438","0.0-3.0-16.1-0.1","5d1aa9db716058001a060031","D2","batch4","","1127","","","tol_tohand","","","","","","","","","tol_peg_1","1127","1127","0","[[0,0,0],[3,0],[1]]","2","[[1,2,0],[3,0],[0]]","2","0","","","","","","4","",""
"","","","","","single-stim-button","224","564490","0.0-3.0-16.1-1.1","5d1aa9db716058001a060031","D2","batch4","","1050","","","tol_toboard","","","","","","","","","tol_peg_2","1050","1050","0","[[0,0,0],[3,2],[1]]","2","[[1,2,0],[3,0],[0]]","2","0","","","","","","4","",""
"","","","","","single-stim-button","225","565276","0.0-3.0-16.2-0.2","5d1aa9db716058001a060031","D2","batch4","","783","","","tol_tohand","","","","","","","","","tol_peg_3","783","783","0","[[0,0,0],[3,2],[0]]","3","[[1,2,0],[3,0],[0]]","2","0","","","","","","4","",""
"","","","","","single-stim-button","226","566326","0.0-3.0-16.2-1.2","5d1aa9db716058001a060031","D2","batch4","","1049","","","tol_toboard","","","","","","","","","tol_peg_1","1049","1049","0","[[1,0,0],[3,2],[0]]","3","[[1,2,0],[3,0],[0]]","2","0","","","","","","4","",""
"","","","","","single-stim-button","227","567474","0.0-3.0-16.3-0.3","5d1aa9db716058001a060031","D2","batch4","","1146","","","tol_tohand","","","","","","","","","tol_peg_2","1146","1146","0","[[1,0,0],[3,0],[0]]","4","[[1,2,0],[3,0],[0]]","2","0","","","","","","4","",""
"","","","","","single-stim-button","228","568541","0.0-3.0-16.3-1.3","5d1aa9db716058001a060031","D2","batch4","","1064","","","tol_toboard","","","","","","","","","tol_peg_1","1064","1064","0","[[1,2,0],[3,0],[0]]","4","[[1,2,0],[3,0],[0]]","2","0","","","","","","4","",""
"","","","","","poldrack-single-stim","229","569558","0.0-3.0-17.0","5d1aa9db716058001a060031","D2","batch4","","-1","","","tol_feedback","true","","","","","","","","","1000","1000","500","","","","","","-1","none","true","3714","6770","","",""
"","","","","","html-button-response","230","571100","0.0-3.0-18.0","5d1aa9db716058001a060031","D2","batch4","","1539.4000000059605","<div class = centerbox><p class = center-block-text>problem <strong>4</strong> out of 25 problems</p></div>","0","tol_trial_num","","","","","","","","","","","","","","","","","","","","","","","","",""
"","","","","","single-stim-button","231","574082","0.0-3.0-19.0-0.0","5d1aa9db716058001a060031","D2","batch4","","2980","","","tol_tohand","","","","","","","","","tol_peg_2","2980","2980","0","[[3,0,0],[2,0],[0]]","1","[[3,0,0],[1,0],[2]]","3","0","","","","","","3","",""
"","","","","","single-stim-button","232","576324","0.0-3.0-19.0-1.0","5d1aa9db716058001a060031","D2","batch4","","2240","","","tol_toboard","","","","","","","","","tol_peg_1","2240","2240","0","[[3,1,0],[2,0],[0]]","1","[[3,0,0],[1,0],[2]]","3","0","","","","","","3","",""
"","","","","","single-stim-button","233","577220","0.0-3.0-19.1-0.1","5d1aa9db716058001a060031","D2","batch4","","894","","","tol_tohand","","","","","","","","","tol_peg_2","894","894","0","[[3,1,0],[0,0],[0]]","2","[[3,0,0],[1,0],[2]]","3","0","","","","","","3","",""
"","","","","","single-stim-button","234","578098","0.0-3.0-19.1-1.1","5d1aa9db716058001a060031","D2","batch4","","876","","","tol_toboard","","","","","","","","","tol_peg_3","876","876","0","[[3,1,0],[0,0],[2]]","2","[[3,0,0],[1,0],[2]]","3","0","","","","","","3","",""
"","","","","","single-stim-button","235","579132","0.0-3.0-19.2-0.2","5d1aa9db716058001a060031","D2","batch4","","1033","","","tol_tohand","","","","","","","","","tol_peg_1","1033","1033","0","[[3,0,0],[0,0],[2]]","3","[[3,0,0],[1,0],[2]]","3","0","","","","","","3","",""
"","","","","","single-stim-button","236","580029","0.0-3.0-19.2-1.2","5d1aa9db716058001a060031","D2","batch4","","895","","","tol_toboard","","","","","","","","","tol_peg_2","895","895","0","[[3,0,0],[1,0],[2]]","3","[[3,0,0],[1,0],[2]]","3","0","","","","","","3","",""
"","","","","","poldrack-single-stim","237","581044","0.0-3.0-20.0","5d1aa9db716058001a060031","D2","batch4","","-1","","","tol_feedback","true","","","","","","","","","1000","1000","500","","","","","","-1","none","true","2980","4907","","",""
"","","","","","html-button-response","238","582887","0.0-3.0-21.0","5d1aa9db716058001a060031","D2","batch4","","1839.8999999910593","<div class = centerbox><p class = center-block-text>problem <strong>5</strong> out of 25 problems</p></div>","0","tol_trial_num","","","","","","","","","","","","","","","","","","","","","","","","",""
"","","","","","single-stim-button","239","585460","0.0-3.0-22.0-0.0","5d1aa9db716058001a060031","D2","batch4","","2571","","","tol_tohand","","","","","","","","","tol_peg_2","2571","2571","0","[[1,0,0],[0,0],[3]]","1","[[0,0,0],[1,2],[3]]","4","0","","","","","","7","",""
"","","","","","single-stim-button","240","589936","0.0-3.0-22.0-1.0","5d1aa9db716058001a060031","D2","batch4","","4475","","","tol_toboard","","","","","","","","","tol_peg_2","4475","4475","0","[[1,0,0],[2,0],[3]]","1","[[0,0,0],[1,2],[3]]","4","0","","","","","","7","",""
"","","","","","single-stim-button","241","591868","0.0-3.0-22.1-0.1","5d1aa9db716058001a060031","D2","batch4","","1930","","","tol_tohand","","","","","","","","","tol_peg_3","1930","1930","0","[[1,0,0],[2,0],[0]]","2","[[0,0,0],[1,2],[3]]","4","0","","","","","","7","",""
"","","","","","single-stim-button","242","592795","0.0-3.0-22.1-1.1","5d1aa9db716058001a060031","D2","batch4","","926","","","tol_toboard","","","","","","","","","tol_peg_2","926","926","0","[[1,0,0],[2,3],[0]]","2","[[0,0,0],[1,2],[3]]","4","0","","","","","","7","",""
"","","","","","single-stim-button","243","593703","0.0-3.0-22.2-0.2","5d1aa9db716058001a060031","D2","batch4","","908","","","tol_tohand","","","","","","","","","tol_peg_1","908","908","0","[[0,0,0],[2,3],[0]]","3","[[0,0,0],[1,2],[3]]","4","0","","","","","","7","",""
"","","","","","single-stim-button","244","594740","0.0-3.0-22.2-1.2","5d1aa9db716058001a060031","D2","batch4","","1035","","","tol_toboard","","","","","","","","","tol_peg_3","1035","1035","0","[[0,0,0],[2,3],[1]]","3","[[0,0,0],[1,2],[3]]","4","0","","","","","","7","",""
"","","","","","single-stim-button","245","598605","0.0-3.0-22.3-0.3","5d1aa9db716058001a060031","D2","batch4","","3865","","","tol_tohand","","","","","","","","","tol_peg_2","3865","3865","0","[[0,0,0],[2,0],[1]]","4","[[0,0,0],[1,2],[3]]","4","0","","","","","","7","",""
"","","","","","single-stim-button","246","599926","0.0-3.0-22.3-1.3","5d1aa9db716058001a060031","D2","batch4","","1319","","","tol_toboard","","","","","","","","","tol_peg_1","1319","1319","0","[[3,0,0],[2,0],[1]]","4","[[0,0,0],[1,2],[3]]","4","0","","","","","","7","",""
"","","","","","single-stim-button","247","602666","0.0-3.0-22.4-0.4","5d1aa9db716058001a060031","D2","batch4","","2737","","","tol_tohand","","","","","","","","","tol_peg_2","2737","2737","0","[[3,0,0],[0,0],[1]]","5","[[0,0,0],[1,2],[3]]","4","0","","","","","","7","",""
"","","","","","single-stim-button","248","603673","0.0-3.0-22.4-1.4","5d1aa9db716058001a060031","D2","batch4","","1005","","","tol_toboard","","","","","","","","","tol_peg_1","1005","1005","0","[[3,2,0],[0,0],[1]]","5","[[0,0,0],[1,2],[3]]","4","0","","","","","","7","",""
"","","","","","single-stim-button","249","604563","0.0-3.0-22.5-0.5","5d1aa9db716058001a060031","D2","batch4","","889","","","tol_tohand","","","","","","","","","tol_peg_3","889","889","0","[[3,2,0],[0,0],[0]]","6","[[0,0,0],[1,2],[3]]","4","0","","","","","","7","",""
"","","","","","single-stim-button","250","605572","0.0-3.0-22.5-1.5","5d1aa9db716058001a060031","D2","batch4","","1006","","","tol_toboard","","","","","","","","","tol_peg_2","1006","1006","0","[[3,2,0],[1,0],[0]]","6","[[0,0,0],[1,2],[3]]","4","0","","","","","","7","",""
"","","","","","single-stim-button","251","606448","0.0-3.0-22.6-0.6","5d1aa9db716058001a060031","D2","batch4","","874","","","tol_tohand","","","","","","","","","tol_peg_1","874","874","0","[[3,0,0],[1,0],[0]]","7","[[0,0,0],[1,2],[3]]","4","0","","","","","","7","",""
"","","","","","single-stim-button","252","607311","0.0-3.0-22.6-1.6","5d1aa9db716058001a060031","D2","batch4","","861","","","tol_toboard","","","","","","","","","tol_peg_2","861","861","0","[[3,0,0],[1,2],[0]]","7","[[0,0,0],[1,2],[3]]","4","0","","","","","","7","",""
"","","","","","single-stim-button","253","608520","0.0-3.0-22.7-0.7","5d1aa9db716058001a060031","D2","batch4","","1207","","","tol_tohand","","","","","","","","","tol_peg_1","1207","1207","0","[[0,0,0],[1,2],[0]]","8","[[0,0,0],[1,2],[3]]","4","0","","","","","","7","",""
"","","","","","single-stim-button","254","609632","0.0-3.0-22.7-1.7","5d1aa9db716058001a060031","D2","batch4","","1110","","","tol_toboard","","","","","","","","","tol_peg_3","1110","1110","0","[[0,0,0],[1,2],[3]]","8","[[0,0,0],[1,2],[3]]","4","0","","","","","","7","",""
"","","","","","poldrack-single-stim","255","610649","0.0-3.0-23.0","5d1aa9db716058001a060031","D2","batch4","","-1","","","tol_feedback","true","","","","","","","","","1000","1000","500","","","","","","-1","none","true","2571","14981","","",""
"","","","","","html-button-response","256","612064","0.0-3.0-24.0","5d1aa9db716058001a060031","D2","batch4","","1412.7999999970198","<div class = centerbox><p class = center-block-text>problem <strong>6</strong> out of 25 problems</p></div>","0","tol_trial_num","","","","","","","","","","","","","","","","","","","","","","","","",""
"","","","","","single-stim-button","257","615343","0.0-3.0-25.0-0.0","5d1aa9db716058001a060031","D2","batch4","","3277","","","tol_tohand","","","","","","","","","tol_peg_2","3277","3277","0","[[0,0,0],[1,0],[3]]","1","[[1,0,0],[2,3],[0]]","5","0","","","","","","6","",""
"","","","","","single-stim-button","258","616299","0.0-3.0-25.0-1.0","5d1aa9db716058001a060031","D2","batch4","","953","","","tol_toboard","","","","","","","","","tol_peg_1","953","953","0","[[2,0,0],[1,0],[3]]","1","[[1,0,0],[2,3],[0]]","5","0","","","","","","6","",""
"","","","","","single-stim-button","259","617399","0.0-3.0-25.1-0.1","5d1aa9db716058001a060031","D2","batch4","","1098","","","tol_tohand","","","","","","","","","tol_peg_3","1098","1098","0","[[2,0,0],[1,0],[0]]","2","[[1,0,0],[2,3],[0]]","5","0","","","","","","6","",""
"","","","","","single-stim-button","260","618341","0.0-3.0-25.1-1.1","5d1aa9db716058001a060031","D2","batch4","","940","","","tol_toboard","","","","","","","","","tol_peg_2","940","940","0","[[2,0,0],[1,3],[0]]","2","[[1,0,0],[2,3],[0]]","5","0","","","","","","6","",""
"","","","","","single-stim-button","261","619722","0.0-3.0-25.2-0.2","5d1aa9db716058001a060031","D2","batch4","","1379","","","tol_tohand","","","","","","","","","tol_peg_1","1379","1379","0","[[0,0,0],[1,3],[0]]","3","[[1,0,0],[2,3],[0]]","5","0","","","","","","6","",""
"","","","","","single-stim-button","262","620757","0.0-3.0-25.2-1.2","5d1aa9db716058001a060031","D2","batch4","","1032","","","tol_toboard","","","","","","","","","tol_peg_3","1032","1032","0","[[0,0,0],[1,3],[2]]","3","[[1,0,0],[2,3],[0]]","5","0","","","","","","6","",""
"","","","","","single-stim-button","263","621773","0.0-3.0-25.3-0.3","5d1aa9db716058001a060031","D2","batch4","","1015","","","tol_tohand","","","","","","","","","tol_peg_2","1015","1015","0","[[0,0,0],[1,0],[2]]","4","[[1,0,0],[2,3],[0]]","5","0","","","","","","6","",""
"","","","","","single-stim-button","264","624255","0.0-3.0-25.3-1.3","5d1aa9db716058001a060031","D2","batch4","","2480","","","tol_toboard","","","","","","","","","tol_peg_1","2480","2480","0","[[3,0,0],[1,0],[2]]","4","[[1,0,0],[2,3],[0]]","5","0","","","","","","6","",""
"","","","","","single-stim-button","265","625711","0.0-3.0-25.4-0.4","5d1aa9db716058001a060031","D2","batch4","","1455","","","tol_tohand","","","","","","","","","tol_peg_3","1455","1455","0","[[3,0,0],[1,0],[0]]","5","[[1,0,0],[2,3],[0]]","5","0","","","","","","6","",""
"","","","","","single-stim-button","266","626985","0.0-3.0-25.4-1.4","5d1aa9db716058001a060031","D2","batch4","","1273","","","tol_toboard","","","","","","","","","tol_peg_1","1273","1273","0","[[3,2,0],[1,0],[0]]","5","[[1,0,0],[2,3],[0]]","5","0","","","","","","6","",""
"","","","","","single-stim-button","267","629214","0.0-3.0-25.5-0.5","5d1aa9db716058001a060031","D2","batch4","","2226","","","tol_tohand","","","","","","","","","tol_peg_2","2226","2226","0","[[3,2,0],[0,0],[0]]","6","[[1,0,0],[2,3],[0]]","5","0","","","","","","6","",""
"","","","","","single-stim-button","268","630247","0.0-3.0-25.5-1.5","5d1aa9db716058001a060031","D2","batch4","","1031","","","tol_toboard","","","","","","","","","tol_peg_3","1031","1031","0","[[3,2,0],[0,0],[1]]","6","[[1,0,0],[2,3],[0]]","5","0","","","","","","6","",""
"","","","","","single-stim-button","269","631380","0.0-3.0-25.6-0.6","5d1aa9db716058001a060031","D2","batch4","","1132","","","tol_tohand","","","","","","","","","tol_peg_1","1132","1132","0","[[3,0,0],[0,0],[1]]","7","[[1,0,0],[2,3],[0]]","5","0","","","","","","6","",""
"","","","","","single-stim-button","270","632305","0.0-3.0-25.6-1.6","5d1aa9db716058001a060031","D2","batch4","","923","","","tol_toboard","","","","","","","","","tol_peg_2","923","923","0","[[3,0,0],[2,0],[1]]","7","[[1,0,0],[2,3],[0]]","5","0","","","","","","6","",""
"","","","","","single-stim-button","271","633356","0.0-3.0-25.7-0.7","5d1aa9db716058001a060031","D2","batch4","","1049","","","tol_tohand","","","","","","","","","tol_peg_1","1049","1049","0","[[0,0,0],[2,0],[1]]","8","[[1,0,0],[2,3],[0]]","5","0","","","","","","6","",""
"","","","","","single-stim-button","272","634283","0.0-3.0-25.7-1.7","5d1aa9db716058001a060031","D2","batch4","","925","","","tol_toboard","","","","","","","","","tol_peg_2","925","925","0","[[0,0,0],[2,3],[1]]","8","[[1,0,0],[2,3],[0]]","5","0","","","","","","6","",""
"","","","","","single-stim-button","273","635097","0.0-3.0-25.8-0.8","5d1aa9db716058001a060031","D2","batch4","","812","","","tol_tohand","","","","","","","","","tol_peg_3","812","812","0","[[0,0,0],[2,3],[0]]","9","[[1,0,0],[2,3],[0]]","5","0","","","","","","6","",""
"","","","","","single-stim-button","274","636087","0.0-3.0-25.8-1.8","5d1aa9db716058001a060031","D2","batch4","","988","","","tol_toboard","","","","","","","","","tol_peg_1","988","988","0","[[1,0,0],[2,3],[0]]","9","[[1,0,0],[2,3],[0]]","5","0","","","","","","6","",""
"","","","","","poldrack-single-stim","275","637102","0.0-3.0-26.0","5d1aa9db716058001a060031","D2","batch4","","-1","","","tol_feedback","true","","","","","","","","","1000","1000","500","","","","","","-1","none","true","3277","13443","","",""
"","","","","","html-button-response","276","638552","0.0-3.0-27.0","5d1aa9db716058001a060031","D2","batch4","","1447.4000000059605","<div class = centerbox><p class = center-block-text>problem <strong>7</strong> out of 25 problems</p></div>","0","tol_trial_num","","","","","","","","","","","","","","","","","","","","","","","","",""
"","","","","","single-stim-button","277","642551","0.0-3.0-28.0-0.0","5d1aa9db716058001a060031","D2","batch4","","3996","","","tol_tohand","","","","","","","","","tol_peg_1","3996","3996","0","[[2,0,0],[0,0],[3]]","1","[[1,2,0],[3,0],[0]]","6","0","","","","","","5","",""
"","","","","","single-stim-button","278","643523","0.0-3.0-28.0-1.0","5d1aa9db716058001a060031","D2","batch4","","970","","","tol_toboard","","","","","","","","","tol_peg_2","970","970","0","[[2,0,0],[1,0],[3]]","1","[[1,2,0],[3,0],[0]]","6","0","","","","","","5","",""
"","","","","","single-stim-button","279","648775","0.0-3.0-28.1-0.1","5d1aa9db716058001a060031","D2","batch4","","5249","","","tol_tohand","","","","","","","","","tol_peg_3","5249","5249","0","[[2,0,0],[1,0],[0]]","2","[[1,2,0],[3,0],[0]]","6","0","","","","","","5","",""
"","","","","","single-stim-button","280","649872","0.0-3.0-28.1-1.1","5d1aa9db716058001a060031","D2","batch4","","1096","","","tol_toboard","","","","","","","","","tol_peg_1","1096","1096","0","[[2,3,0],[1,0],[0]]","2","[[1,2,0],[3,0],[0]]","6","0","","","","","","5","",""
"","","","","","single-stim-button","281","650605","0.0-3.0-28.2-0.2","5d1aa9db716058001a060031","D2","batch4","","730","","","tol_tohand","","","","","","","","","tol_peg_2","730","730","0","[[2,3,0],[0,0],[0]]","3","[[1,2,0],[3,0],[0]]","6","0","","","","","","5","",""
"","","","","","single-stim-button","282","651512","0.0-3.0-28.2-1.2","5d1aa9db716058001a060031","D2","batch4","","905","","","tol_toboard","","","","","","","","","tol_peg_3","905","905","0","[[2,3,0],[0,0],[1]]","3","[[1,2,0],[3,0],[0]]","6","0","","","","","","5","",""
"","","","","","single-stim-button","283","652518","0.0-3.0-28.3-0.3","5d1aa9db716058001a060031","D2","batch4","","1004","","","tol_tohand","","","","","","","","","tol_peg_1","1004","1004","0","[[2,0,0],[0,0],[1]]","4","[[1,2,0],[3,0],[0]]","6","0","","","","","","5","",""
"","","","","","single-stim-button","284","653584","0.0-3.0-28.3-1.3","5d1aa9db716058001a060031","D2","batch4","","1064","","","tol_toboard","","","","","","","","","tol_peg_2","1064","1064","0","[[2,0,0],[3,0],[1]]","4","[[1,2,0],[3,0],[0]]","6","0","","","","","","5","",""
"","","","","","single-stim-button","285","654854","0.0-3.0-28.4-0.4","5d1aa9db716058001a060031","D2","batch4","","1268","","","tol_tohand","","","","","","","","","tol_peg_1","1268","1268","0","[[0,0,0],[3,0],[1]]","5","[[1,2,0],[3,0],[0]]","6","0","","","","","","5","",""
"","","","","","single-stim-button","286","655779","0.0-3.0-28.4-1.4","5d1aa9db716058001a060031","D2","batch4","","924","","","tol_toboard","","","","","","","","","tol_peg_2","924","924","0","[[0,0,0],[3,2],[1]]","5","[[1,2,0],[3,0],[0]]","6","0","","","","","","5","",""
"","","","","","single-stim-button","287","656518","0.0-3.0-28.5-0.5","5d1aa9db716058001a060031","D2","batch4","","736","","","tol_tohand","","","","","","","","","tol_peg_3","736","736","0","[[0,0,0],[3,2],[0]]","6","[[1,2,0],[3,0],[0]]","6","0","","","","","","5","",""
"","","","","","single-stim-button","288","657641","0.0-3.0-28.5-1.5","5d1aa9db716058001a060031","D2","batch4","","1121","","","tol_toboard","","","","","","","","","tol_peg_1","1121","1121","0","[[1,0,0],[3,2],[0]]","6","[[1,2,0],[3,0],[0]]","6","0","","","","","","5","",""
"","","","","","single-stim-button","289","658676","0.0-3.0-28.6-0.6","5d1aa9db716058001a060031","D2","batch4","","1033","","","tol_tohand","","","","","","","","","tol_peg_2","1033","1033","0","[[1,0,0],[3,0],[0]]","7","[[1,2,0],[3,0],[0]]","6","0","","","","","","5","",""
"","","","","","single-stim-button","290","659852","0.0-3.0-28.6-1.6","5d1aa9db716058001a060031","D2","batch4","","1174","","","tol_toboard","","","","","","","","","tol_peg_1","1174","1174","0","[[1,2,0],[3,0],[0]]","7","[[1,2,0],[3,0],[0]]","6","0","","","","","","5","",""
"","","","","","poldrack-single-stim","291","661279","0.0-3.0-29.0","5d1aa9db716058001a060031","D2","batch4","","-1","","","tol_feedback","true","","","","","","","","","1000","1000","500","","","","","","-1","none","true","3996","14016","","",""
"","","","","","html-button-response","292","665136","0.0-3.0-30.0","5d1aa9db716058001a060031","D2","batch4","","3854.7000000029802","<div class = centerbox><p class = center-block-text>problem <strong>8</strong> out of 25 problems</p></div>","0","tol_trial_num","","","","","","","","","","","","","","","","","","","","","","","","",""
"","","","","","single-stim-button","293","668638","0.0-3.0-31.0-0.0","5d1aa9db716058001a060031","D2","batch4","","3500","","","tol_tohand","","","","","","","","","tol_peg_3","3500","3500","0","[[0,0,0],[2,3],[0]]","1","[[1,2,0],[3,0],[0]]","7","0","","","","","","4","",""
"","","","","","single-stim-button","294","669689","0.0-3.0-31.0-1.0","5d1aa9db716058001a060031","D2","batch4","","1048","","","tol_toboard","","","","","","","","","tol_peg_1","1048","1048","0","[[1,0,0],[2,3],[0]]","1","[[1,2,0],[3,0],[0]]","7","0","","","","","","4","",""
"","","","","","single-stim-button","295","670706","0.0-3.0-31.1-0.1","5d1aa9db716058001a060031","D2","batch4","","1013","","","tol_tohand","","","","","","","","","tol_peg_2","1013","1013","0","[[1,0,0],[2,0],[0]]","2","[[1,2,0],[3,0],[0]]","7","0","","","","","","4","",""
"","","","","","single-stim-button","296","671864","0.0-3.0-31.1-1.1","5d1aa9db716058001a060031","D2","batch4","","1156","","","tol_toboard","","","","","","","","","tol_peg_3","1156","1156","0","[[1,0,0],[2,0],[3]]","2","[[1,2,0],[3,0],[0]]","7","0","","","","","","4","",""
"","","","","","single-stim-button","297","672913","0.0-3.0-31.2-0.2","5d1aa9db716058001a060031","D2","batch4","","1048","","","tol_tohand","","","","","","","","","tol_peg_2","1048","1048","0","[[1,0,0],[0,0],[3]]","3","[[1,2,0],[3,0],[0]]","7","0","","","","","","4","",""
"","","","","","single-stim-button","298","673830","0.0-3.0-31.2-1.2","5d1aa9db716058001a060031","D2","batch4","","915","","","tol_toboard","","","","","","","","","tol_peg_1","915","915","0","[[1,2,0],[0,0],[3]]","3","[[1,2,0],[3,0],[0]]","7","0","","","","","","4","",""
"","","","","","single-stim-button","299","675038","0.0-3.0-31.3-0.3","5d1aa9db716058001a060031","D2","batch4","","1206","","","tol_tohand","","","","","","","","","tol_peg_3","1206","1206","0","[[1,2,0],[0,0],[0]]","4","[[1,2,0],[3,0],[0]]","7","0","","","","","","4","",""
"","","","","","single-stim-button","300","676071","0.0-3.0-31.3-1.3","5d1aa9db716058001a060031","D2","batch4","","1030","","","tol_toboard","","","","","","","","","tol_peg_2","1030","1030","0","[[1,2,0],[3,0],[0]]","4","[[1,2,0],[3,0],[0]]","7","0","","","","","","4","",""
"","","","","","poldrack-single-stim","301","677085","0.0-3.0-32.0","5d1aa9db716058001a060031","D2","batch4","","-1","","","tol_feedback","true","","","","","","","","","1000","1000","500","","","","","","-1","none","true","3500","6767","","",""
"","","","","","html-button-response","302","678361","0.0-3.0-33.0","5d1aa9db716058001a060031","D2","batch4","","1274.4000000059605","<div class = centerbox><p class = center-block-text>problem <strong>9</strong> out of 25 problems</p></div>","0","tol_trial_num","","","","","","","","","","","","","","","","","","","","","","","","",""
"","","","","","single-stim-button","303","699146","0.0-3.0-34.0-0.0","5d1aa9db716058001a060031","D2","batch4","","20782","","","tol_tohand","","","","","","","","","tol_peg_3","20782","20782","0","[[3,2,0],[0,0],[0]]","1","[[2,1,0],[3,0],[0]]","8","0","","","","","","6","",""
"","","","","","single-stim-button","304","700057","0.0-3.0-34.0-1.0","5d1aa9db716058001a060031","D2","batch4","","909","","","tol_toboard","","","","","","","","","tol_peg_2","909","909","0","[[3,2,0],[1,0],[0]]","1","[[2,1,0],[3,0],[0]]","8","0","","","","","","6","",""
"","","","","","single-stim-button","305","701169","0.0-3.0-34.1-0.1","5d1aa9db716058001a060031","D2","batch4","","1110","","","tol_tohand","","","","","","","","","tol_peg_1","1110","1110","0","[[3,0,0],[1,0],[0]]","2","[[2,1,0],[3,0],[0]]","8","0","","","","","","6","",""
"","","","","","single-stim-button","306","705249","0.0-3.0-34.1-1.1","5d1aa9db716058001a060031","D2","batch4","","4079","","","tol_toboard","","","","","","","","","tol_peg_3","4079","4079","0","[[3,0,0],[1,0],[2]]","2","[[2,1,0],[3,0],[0]]","8","0","","","","","","6","",""
"","","","","","single-stim-button","307","706158","0.0-3.0-34.2-0.2","5d1aa9db716058001a060031","D2","batch4","","906","","","tol_tohand","","","","","","","","","tol_peg_1","906","906","0","[[0,0,0],[1,0],[2]]","3","[[2,1,0],[3,0],[0]]","8","0","","","","","","6","",""
"","","","","","single-stim-button","308","707070","0.0-3.0-34.2-1.2","5d1aa9db716058001a060031","D2","batch4","","910","","","tol_toboard","","","","","","","","","tol_peg_2","910","910","0","[[0,0,0],[1,3],[2]]","3","[[2,1,0],[3,0],[0]]","8","0","","","","","","6","",""
"","","","","","single-stim-button","309","707948","0.0-3.0-34.3-0.3","5d1aa9db716058001a060031","D2","batch4","","875","","","tol_tohand","","","","","","","","","tol_peg_3","875","875","0","[[0,0,0],[1,3],[0]]","4","[[2,1,0],[3,0],[0]]","8","0","","","","","","6","",""
"","","","","","single-stim-button","310","709126","0.0-3.0-34.3-1.3","5d1aa9db716058001a060031","D2","batch4","","1176","","","tol_toboard","","","","","","","","","tol_peg_1","1176","1176","0","[[2,0,0],[1,3],[0]]","4","[[2,1,0],[3,0],[0]]","8","0","","","","","","6","",""
"","","","","","single-stim-button","311","709989","0.0-3.0-34.4-0.4","5d1aa9db716058001a060031","D2","batch4","","861","","","tol_tohand","","","","","","","","","tol_peg_2","861","861","0","[[2,0,0],[1,0],[0]]","5","[[2,1,0],[3,0],[0]]","8","0","","","","","","6","",""
"","","","","","single-stim-button","312","710911","0.0-3.0-34.4-1.4","5d1aa9db716058001a060031","D2","batch4","","920","","","tol_toboard","","","","","","","","","tol_peg_3","920","920","0","[[2,0,0],[1,0],[3]]","5","[[2,1,0],[3,0],[0]]","8","0","","","","","","6","",""
"","","","","","single-stim-button","313","711681","0.0-3.0-34.5-0.5","5d1aa9db716058001a060031","D2","batch4","","769","","","tol_tohand","","","","","","","","","tol_peg_2","769","769","0","[[2,0,0],[0,0],[3]]","6","[[2,1,0],[3,0],[0]]","8","0","","","","","","6","",""
"","","","","","single-stim-button","314","712511","0.0-3.0-34.5-1.5","5d1aa9db716058001a060031","D2","batch4","","829","","","tol_toboard","","","","","","","","","tol_peg_1","829","829","0","[[2,1,0],[0,0],[3]]","6","[[2,1,0],[3,0],[0]]","8","0","","","","","","6","",""
"","","","","","single-stim-button","315","713499","0.0-3.0-34.6-0.6","5d1aa9db716058001a060031","D2","batch4","","986","","","tol_tohand","","","","","","","","","tol_peg_3","986","986","0","[[2,1,0],[0,0],[0]]","7","[[2,1,0],[3,0],[0]]","8","0","","","","","","6","",""
"","","","","","single-stim-button","316","714379","0.0-3.0-34.6-1.6","5d1aa9db716058001a060031","D2","batch4","","878","","","tol_toboard","","","","","","","","","tol_peg_2","878","878","0","[[2,1,0],[3,0],[0]]","7","[[2,1,0],[3,0],[0]]","8","0","","","","","","6","",""
"","","","","","poldrack-single-stim","317","715396","0.0-3.0-35.0","5d1aa9db716058001a060031","D2","batch4","","-1","","","tol_feedback","true","","","","","","","","","1000","1000","500","","","","","","-1","none","true","20782","26289","","",""
"","","","","","html-button-response","318","716468","0.0-3.0-36.0","5d1aa9db716058001a060031","D2","batch4","","1068.2999999970198","<div class = centerbox><p class = center-block-text>problem <strong>10</strong> out of 25 problems</p></div>","0","tol_trial_num","","","","","","","","","","","","","","","","","","","","","","","","",""
"","","","","","single-stim-button","319","721706","0.0-3.0-37.0-0.0","5d1aa9db716058001a060031","D2","batch4","","5235","","","tol_tohand","","","","","","","","","tol_peg_2","5235","5235","0","[[3,0,0],[0,0],[2]]","1","[[3,0,0],[2,1],[0]]","9","0","","","","","","3","",""
"","","","","","single-stim-button","320","722628","0.0-3.0-37.0-1.0","5d1aa9db716058001a060031","D2","batch4","","921","","","tol_toboard","","","","","","","","","tol_peg_1","921","921","0","[[3,1,0],[0,0],[2]]","1","[[3,0,0],[2,1],[0]]","9","0","","","","","","3","",""
"","","","","","single-stim-button","321","723476","0.0-3.0-37.1-0.1","5d1aa9db716058001a060031","D2","batch4","","847","","","tol_tohand","","","","","","","","","tol_peg_3","847","847","0","[[3,1,0],[0,0],[0]]","2","[[3,0,0],[2,1],[0]]","9","0","","","","","","3","",""
"","","","","","single-stim-button","322","724421","0.0-3.0-37.1-1.1","5d1aa9db716058001a060031","D2","batch4","","943","","","tol_toboard","","","","","","","","","tol_peg_2","943","943","0","[[3,1,0],[2,0],[0]]","2","[[3,0,0],[2,1],[0]]","9","0","","","","","","3","",""
"","","","","","single-stim-button","323","725114","0.0-3.0-37.2-0.2","5d1aa9db716058001a060031","D2","batch4","","691","","","tol_tohand","","","","","","","","","tol_peg_1","691","691","0","[[3,0,0],[2,0],[0]]","3","[[3,0,0],[2,1],[0]]","9","0","","","","","","3","",""
"","","","","","single-stim-button","324","725864","0.0-3.0-37.2-1.2","5d1aa9db716058001a060031","D2","batch4","","747","","","tol_toboard","","","","","","","","","tol_peg_2","747","747","0","[[3,0,0],[2,1],[0]]","3","[[3,0,0],[2,1],[0]]","9","0","","","","","","3","",""
"","","","","","poldrack-single-stim","325","727284","0.0-3.0-38.0","5d1aa9db716058001a060031","D2","batch4","","-1","","","tol_feedback","true","","","","","","","","","1000","1000","500","","","","","","-1","none","true","5235","6773","","",""
"","","","","","html-button-response","326","728607","0.0-3.0-39.0","5d1aa9db716058001a060031","D2","batch4","","1320.7000000029802","<div class = centerbox><p class = center-block-text>problem <strong>11</strong> out of 25 problems</p></div>","0","tol_trial_num","","","","","","","","","","","","","","","","","","","","","","","","",""
"","","","","","single-stim-button","327","734993","0.0-3.0-40.0-0.0","5d1aa9db716058001a060031","D2","batch4","","6384","","","tol_tohand","","","","","","","","","tol_peg_2","6384","6384","0","[[1,2,0],[0,0],[0]]","1","[[2,0,0],[1,3],[0]]","10","0","","","","","","6","",""
"","","","","","single-stim-button","328","736014","0.0-3.0-40.0-1.0","5d1aa9db716058001a060031","D2","batch4","","1019","","","tol_toboard","","","","","","","","","tol_peg_3","1019","1019","0","[[1,2,0],[0,0],[3]]","1","[[2,0,0],[1,3],[0]]","10","0","","","","","","6","",""
"","","","","","single-stim-button","329","737030","0.0-3.0-40.1-0.1","5d1aa9db716058001a060031","D2","batch4","","1015","","","tol_tohand","","","","","","","","","tol_peg_1","1015","1015","0","[[1,0,0],[0,0],[3]]","2","[[2,0,0],[1,3],[0]]","10","0","","","","","","6","",""
"","","","","","single-stim-button","330","744185","0.0-3.0-40.1-1.1","5d1aa9db716058001a060031","D2","batch4","","7153","","","tol_toboard","","","","","","","","","tol_peg_2","7153","7153","0","[[1,0,0],[2,0],[3]]","2","[[2,0,0],[1,3],[0]]","10","0","","","","","","6","",""
"","","","","","single-stim-button","331","744828","0.0-3.0-40.2-0.2","5d1aa9db716058001a060031","D2","batch4","","641","","","tol_tohand","","","","","","","","","tol_peg_1","641","641","0","[[0,0,0],[2,0],[3]]","3","[[2,0,0],[1,3],[0]]","10","0","","","","","","6","",""
"","","","","","single-stim-button","332","745826","0.0-3.0-40.2-1.2","5d1aa9db716058001a060031","D2","batch4","","996","","","tol_toboard","","","","","","","","","tol_peg_2","996","996","0","[[0,0,0],[2,1],[3]]","3","[[2,0,0],[1,3],[0]]","10","0","","","","","","6","",""
"","","","","","single-stim-button","333","746786","0.0-3.0-40.3-0.3","5d1aa9db716058001a060031","D2","batch4","","958","","","tol_tohand","","","","","","","","","tol_peg_3","958","958","0","[[0,0,0],[2,1],[0]]","4","[[2,0,0],[1,3],[0]]","10","0","","","","","","6","",""
"","","","","","single-stim-button","334","747808","0.0-3.0-40.3-1.3","5d1aa9db716058001a060031","D2","batch4","","1018","","","tol_toboard","","","","","","","","","tol_peg_1","1018","1018","0","[[3,0,0],[2,1],[0]]","4","[[2,0,0],[1,3],[0]]","10","0","","","","","","6","",""
"","","","","","single-stim-button","335","748592","0.0-3.0-40.4-0.4","5d1aa9db716058001a060031","D2","batch4","","782","","","tol_tohand","","","","","","","","","tol_peg_2","782","782","0","[[3,0,0],[2,0],[0]]","5","[[2,0,0],[1,3],[0]]","10","0","","","","","","6","",""
"","","","","","single-stim-button","336","749503","0.0-3.0-40.4-1.4","5d1aa9db716058001a060031","D2","batch4","","908","","","tol_toboard","","","","","","","","","tol_peg_3","908","908","0","[[3,0,0],[2,0],[1]]","5","[[2,0,0],[1,3],[0]]","10","0","","","","","","6","",""
"","","","","","single-stim-button","337","751733","0.0-3.0-40.5-0.5","5d1aa9db716058001a060031","D2","batch4","","2226","","","tol_tohand","","","","","","","","","tol_peg_2","2226","2226","0","[[3,0,0],[0,0],[1]]","6","[[2,0,0],[1,3],[0]]","10","0","","","","","","6","",""
"","","","","","single-stim-button","338","752755","0.0-3.0-40.5-1.5","5d1aa9db716058001a060031","D2","batch4","","1021","","","tol_toboard","","","","","","","","","tol_peg_2","1021","1021","0","[[3,0,0],[2,0],[1]]","6","[[2,0,0],[1,3],[0]]","10","0","","","","","","6","",""
"","","","","","single-stim-button","339","753695","0.0-3.0-40.6-0.6","5d1aa9db716058001a060031","D2","batch4","","938","","","tol_tohand","","","","","","","","","tol_peg_3","938","938","0","[[3,0,0],[2,0],[0]]","7","[[2,0,0],[1,3],[0]]","10","0","","","","","","6","",""
"","","","","","single-stim-button","340","754575","0.0-3.0-40.6-1.6","5d1aa9db716058001a060031","D2","batch4","","878","","","tol_toboard","","","","","","","","","tol_peg_1","878","878","0","[[3,1,0],[2,0],[0]]","7","[[2,0,0],[1,3],[0]]","10","0","","","","","","6","",""
"","","","","","single-stim-button","341","755274","0.0-3.0-40.7-0.7","5d1aa9db716058001a060031","D2","batch4","","698","","","tol_tohand","","","","","","","","","tol_peg_2","698","698","0","[[3,1,0],[0,0],[0]]","8","[[2,0,0],[1,3],[0]]","10","0","","","","","","6","",""
"","","","","","single-stim-button","342","756020","0.0-3.0-40.7-1.7","5d1aa9db716058001a060031","D2","batch4","","743","","","tol_toboard","","","","","","","","","tol_peg_3","743","743","0","[[3,1,0],[0,0],[2]]","8","[[2,0,0],[1,3],[0]]","10","0","","","","","","6","",""
"","","","","","single-stim-button","343","757714","0.0-3.0-40.8-0.8","5d1aa9db716058001a060031","D2","batch4","","1692","","","tol_tohand","","","","","","","","","tol_peg_1","1692","1692","0","[[3,0,0],[0,0],[2]]","9","[[2,0,0],[1,3],[0]]","10","0","","","","","","6","",""
"","","","","","single-stim-button","344","758656","0.0-3.0-40.8-1.8","5d1aa9db716058001a060031","D2","batch4","","940","","","tol_toboard","","","","","","","","","tol_peg_2","940","940","0","[[3,0,0],[1,0],[2]]","9","[[2,0,0],[1,3],[0]]","10","0","","","","","","6","",""
"","","","","","single-stim-button","345","759423","0.0-3.0-40.9-0.9","5d1aa9db716058001a060031","D2","batch4","","765","","","tol_tohand","","","","","","","","","tol_peg_1","765","765","0","[[0,0,0],[1,0],[2]]","10","[[2,0,0],[1,3],[0]]","10","0","","","","","","6","",""
"","","","","","single-stim-button","346","760242","0.0-3.0-40.9-1.9","5d1aa9db716058001a060031","D2","batch4","","817","","","tol_toboard","","","","","","","","","tol_peg_2","817","817","0","[[0,0,0],[1,3],[2]]","10","[[2,0,0],[1,3],[0]]","10","0","","","","","","6","",""
"","","","","","single-stim-button","347","760869","0.0-3.0-40.10-0.10","5d1aa9db716058001a060031","D2","batch4","","625","","","tol_tohand","","","","","","","","","tol_peg_3","625","625","0","[[0,0,0],[1,3],[0]]","11","[[2,0,0],[1,3],[0]]","10","0","","","","","","6","",""
"","","","","","single-stim-button","348","761902","0.0-3.0-40.10-1.10","5d1aa9db716058001a060031","D2","batch4","","1031","","","tol_toboard","","","","","","","","","tol_peg_1","1031","1031","0","[[2,0,0],[1,3],[0]]","11","[[2,0,0],[1,3],[0]]","10","0","","","","","","6","",""
