"success","timeout","failed_images","failed_audio","failed_video","trial_type","trial_index","time_elapsed","internal_node_id","subject_id","study_id","session_id","view_history","rt","task","stimulus","response","correct","mouse_click","stim_duration","block_duration","timing_post_trial","current_position","tol_num_moves_made","tol_target","tol_problem_id","tol_rt","key_press","possible_responses","tol_correct","preplanning","tol_rt_per_trial","tol_min_moves","answer","item","fiar_detect_rt","fiar_detect_correct","total_correct_fiar_detect","post_trial_gap","choices","spm_correct","spm_rt"
"true","false","[]","[]","[]","preload","0","21780","0.0-0.0","5d26aaf4665b0a00174b8f03","E1","batch5","","","","","","","","","","","","","","","","","","","","","","","","","","","","","",""
"true","","","","","fullscreen","1","33354","0.0-1.0-0.0","5d26aaf4665b0a00174b8f03","E1","batch5","","","","","","","","","","","","","","","","","","","","","","","","","","","","","",""
"true","","","","","fullscreen","2","36146","0.0-2.0-0.0","5d26aaf4665b0a00174b8f03","E1","batch5","","","","","","","","","","","","","","","","","","","","","","","","","","","","","",""
"","","","","","instructions","3","95301","0.0-2.0-1.0-0.0-0.0","5d26aaf4665b0a00174b8f03","E1","batch5","[{""page_index"":0,""viewing_time"":11121.899999976158},{""page_index"":1,""viewing_time"":5526.700000017881},{""page_index"":2,""viewing_time"":4176.5999999940395},{""page_index"":3,""viewing_time"":9215.5},{""page_index"":4,""viewing_time"":4095.800000011921},{""page_index"":5,""viewing_time"":20929.5},{""page_index"":6,""viewing_time"":4085.899999976158}]","59152.89999997616","tol-instructions","","","","","","","","","","","","","","","","","","","","","","","","","","",""
"","","","","","html-button-response","4","96662","0.0-2.0-1.0-1.0-0.0","5d26aaf4665b0a00174b8f03","E1","batch5","","1358.5","tol_enter_quiz","<p class=block-text> Let's answer a few questions <br>","0","","","","","","","","","","","","","","","","","","","","","","","","",""
"","","","","","html-button-response","5","102232","0.0-2.0-1.0-1.0-1.0","5d26aaf4665b0a00174b8f03","E1","batch5","","5566.4000000059605","tol_quiz","<p class = block-text>True or False: You can only move the ball on top of a peg. <br></p>","0","true","","","","","","","","","","","","","","","","","","","","","","","",""
"","","","","","html-button-response","6","104598","0.0-2.0-1.0-1.0-2.0","5d26aaf4665b0a00174b8f03","E1","batch5","","2363","tol_quiz_feedback","<p class = block-text>Correct! You can only move the ball on top of a peg.</p>","0","","","","","","","","","","","","","","","","","","","","","","","","",""
"","","","","","html-button-response","7","108062","0.0-2.0-1.0-1.0-3.0","5d26aaf4665b0a00174b8f03","E1","batch5","","3459.7000000178814","tol_quiz","<p class = block-text>True or False: You should try to match your board with the target board with fewest moves possible. <br></p>","0","true","","","","","","","","","","","","","","","","","","","","","","","",""
"","","","","","html-button-response","8","109054","0.0-2.0-1.0-1.0-4.0","5d26aaf4665b0a00174b8f03","E1","batch5","","989.9000000059605","tol_quiz_feedback","<p class = block-text>Correct! </p>","0","","","","","","","","","","","","","","","","","","","","","","","","",""
"","","","","","html-button-response","9","111247","0.0-2.0-2.0","5d26aaf4665b0a00174b8f03","E1","batch5","","2190.7999999821186","","<p class=block-text> Now that you've understood the game, let's practice a few easier examples before we start!<br> <br>","0","","","","","","","","","","","","","","","","","","","","","","","","",""
"","","","","","single-stim-button","10","114858","0.0-2.0-3.0-0.0","5d26aaf4665b0a00174b8f03","E1","batch5","","3607","tol_practice","","","","tol_peg_2","3607","3607","0","[[1,2,0],[0,0],[0]]","1","[[1,2,0],[0,0],[3]]","practice","3607","","","","","","","","","","","","","","",""
"","","","","","single-stim-button","11","116213","0.0-2.0-3.0-1.0","5d26aaf4665b0a00174b8f03","E1","batch5","","1352","tol_practice","","","","tol_peg_3","1352","1352","0","[[1,2,0],[0,0],[3]]","1","[[1,2,0],[0,0],[3]]","practice","1352","","","","","","","","","","","","","","",""
"","","","","","poldrack-single-stim","12","117218","0.0-2.0-4.0","5d26aaf4665b0a00174b8f03","E1","batch5","","-1","tol_feedback","","","true","","1000","1000","500","","","","","","-1","none","true","","0","","","","","","","","","",""
"","","","","","single-stim-button","13","120926","0.0-2.0-5.0-0.0","5d26aaf4665b0a00174b8f03","E1","batch5","","3707","tol_practice","","","","tol_peg_1","3707","3707","0","[[1,0,0],[3,0],[0]]","2","[[0,0,0],[3,1],[2]]","practice","3707","","","","","","","","","","","","","","",""
"","","","","","single-stim-button","14","122296","0.0-2.0-5.0-1.0","5d26aaf4665b0a00174b8f03","E1","batch5","","1369","tol_practice","","","","tol_peg_3","1369","1369","0","[[1,0,0],[3,0],[2]]","2","[[0,0,0],[3,1],[2]]","practice","1369","","","","","","","","","","","","","","",""
"","","","","","single-stim-button","15","123950","0.0-2.0-5.1-0.1","5d26aaf4665b0a00174b8f03","E1","batch5","","1652","tol_practice","","","","tol_peg_1","1652","1652","0","[[0,0,0],[3,0],[2]]","3","[[0,0,0],[3,1],[2]]","practice","1652","","","","","","","","","","","","","","",""
"","","","","","single-stim-button","16","125188","0.0-2.0-5.1-1.1","5d26aaf4665b0a00174b8f03","E1","batch5","","1238","tol_practice","","","","tol_peg_2","1238","1238","0","[[0,0,0],[3,1],[2]]","3","[[0,0,0],[3,1],[2]]","practice","1238","","","","","","","","","","","","","","",""
"","","","","","poldrack-single-stim","17","126194","0.0-2.0-6.0","5d26aaf4665b0a00174b8f03","E1","batch5","","-1","tol_feedback","","","true","","1000","1000","500","","","","","","-1","none","true","","0","","","","","","","","","",""
"","","","","","single-stim-button","18","131086","0.0-2.0-7.0-0.0","5d26aaf4665b0a00174b8f03","E1","batch5","","4891","tol_practice","","","","tol_peg_2","4891","4891","0","[[1,2,0],[0,0],[0]]","4","[[1,0,0],[2,0],[3]]","practice","4891","","","","","","","","","","","","","","",""
"","","","","","single-stim-button","19","132181","0.0-2.0-7.0-1.0","5d26aaf4665b0a00174b8f03","E1","batch5","","1093","tol_practice","","","","tol_peg_3","1093","1093","0","[[1,2,0],[0,0],[3]]","4","[[1,0,0],[2,0],[3]]","practice","1093","","","","","","","","","","","","","","",""
"","","","","","single-stim-button","20","133333","0.0-2.0-7.1-0.1","5d26aaf4665b0a00174b8f03","E1","batch5","","1151","tol_practice","","","","tol_peg_1","1151","1151","0","[[1,0,0],[0,0],[3]]","5","[[1,0,0],[2,0],[3]]","practice","1151","","","","","","","","","","","","","","",""
"","","","","","single-stim-button","21","134356","0.0-2.0-7.1-1.1","5d26aaf4665b0a00174b8f03","E1","batch5","","1022","tol_practice","","","","tol_peg_2","1022","1022","0","[[1,0,0],[2,0],[3]]","5","[[1,0,0],[2,0],[3]]","practice","1022","","","","","","","","","","","","","","",""
"","","","","","poldrack-single-stim","22","135362","0.0-2.0-8.0","5d26aaf4665b0a00174b8f03","E1","batch5","","-1","tol_feedback","","","true","","1000","1000","500","","","","","","-1","none","true","","0","","","","","","","","","",""
"","","","","","html-button-response","23","137358","0.0-2.0-9.0","5d26aaf4665b0a00174b8f03","E1","batch5","","1993.9000000059605","tol_instruction","<div class = centerbox><p class = center-block-text>Great job! You are done with practice trials<br>You are about to start official trials.<br> <br> Problem <strong>1</strong> out of 25 problems</p></div>","0","","","","","","","","","","","","","","","","","","","","","","","","",""
"","","","","","single-stim-button","24","145773","0.0-2.0-10.0-0.0","5d26aaf4665b0a00174b8f03","E1","batch5","","7409","tol_tohand","","","","tol_peg_1","7409","7409","0","[[1,0,0],[3,0],[0]]","1","[[1,3,0],[2,0],[0]]","0","0","","","","","","3","","","","","","","","",""
"","","","","","single-stim-button","25","148702","0.0-2.0-10.0-1.0","5d26aaf4665b0a00174b8f03","E1","batch5","","2928","tol_toboard","","","","tol_peg_3","2928","2928","0","[[1,0,0],[3,0],[2]]","1","[[1,3,0],[2,0],[0]]","0","0","","","","","","3","","","","","","","","",""
"","","","","","single-stim-button","26","149654","0.0-2.0-10.1-0.1","5d26aaf4665b0a00174b8f03","E1","batch5","","950","tol_tohand","","","","tol_peg_2","950","950","0","[[1,0,0],[0,0],[2]]","2","[[1,3,0],[2,0],[0]]","0","0","","","","","","3","","","","","","","","",""
"","","","","","single-stim-button","27","150669","0.0-2.0-10.1-1.1","5d26aaf4665b0a00174b8f03","E1","batch5","","1015","tol_toboard","","","","tol_peg_1","1015","1015","0","[[1,3,0],[0,0],[2]]","2","[[1,3,0],[2,0],[0]]","0","0","","","","","","3","","","","","","","","",""
"","","","","","single-stim-button","28","151950","0.0-2.0-10.2-0.2","5d26aaf4665b0a00174b8f03","E1","batch5","","1279","tol_tohand","","","","tol_peg_3","1279","1279","0","[[1,3,0],[0,0],[0]]","3","[[1,3,0],[2,0],[0]]","0","0","","","","","","3","","","","","","","","",""
"","","","","","single-stim-button","29","153142","0.0-2.0-10.2-1.2","5d26aaf4665b0a00174b8f03","E1","batch5","","1190","tol_toboard","","","","tol_peg_2","1190","1190","0","[[1,3,0],[2,0],[0]]","3","[[1,3,0],[2,0],[0]]","0","0","","","","","","3","","","","","","","","",""
"","","","","","poldrack-single-stim","30","154146","0.0-2.0-11.0","5d26aaf4665b0a00174b8f03","E1","batch5","","-1","tol_feedback","","","true","","1000","1000","500","","","","","","-1","none","true","7409","9638","","","","","","","","","",""
"","","","","","html-button-response","31","155703","0.0-2.0-12.0","5d26aaf4665b0a00174b8f03","E1","batch5","","1554.8999999761581","tol_trial_num","<div class = centerbox><p class = center-block-text>problem <strong>2</strong> out of 25 problems</p></div>","0","","","","","","","","","","","","","","","","","","","","","","","","",""
"","","","","","single-stim-button","32","160398","0.0-2.0-13.0-0.0","5d26aaf4665b0a00174b8f03","E1","batch5","","4694","tol_tohand","","","","tol_peg_1","4694","4694","0","[[1,0,0],[3,0],[0]]","1","[[2,1,3],[0,0],[0]]","1","0","","","","","","5","","","","","","","","",""
"","","","","","single-stim-button","33","161894","0.0-2.0-13.0-1.0","5d26aaf4665b0a00174b8f03","E1","batch5","","1494","tol_toboard","","","","tol_peg_3","1494","1494","0","[[1,0,0],[3,0],[2]]","1","[[2,1,3],[0,0],[0]]","1","0","","","","","","5","","","","","","","","",""
"","","","","","single-stim-button","34","163157","0.0-2.0-13.1-0.1","5d26aaf4665b0a00174b8f03","E1","batch5","","1262","tol_tohand","","","","tol_peg_1","1262","1262","0","[[0,0,0],[3,0],[2]]","2","[[2,1,3],[0,0],[0]]","1","0","","","","","","5","","","","","","","","",""
"","","","","","single-stim-button","35","164061","0.0-2.0-13.1-1.1","5d26aaf4665b0a00174b8f03","E1","batch5","","903","tol_toboard","","","","tol_peg_2","903","903","0","[[0,0,0],[3,1],[2]]","2","[[2,1,3],[0,0],[0]]","1","0","","","","","","5","","","","","","","","",""
"","","","","","single-stim-button","36","164853","0.0-2.0-13.2-0.2","5d26aaf4665b0a00174b8f03","E1","batch5","","790","tol_tohand","","","","tol_peg_3","790","790","0","[[0,0,0],[3,1],[0]]","3","[[2,1,3],[0,0],[0]]","1","0","","","","","","5","","","","","","","","",""
"","","","","","single-stim-button","37","165981","0.0-2.0-13.2-1.2","5d26aaf4665b0a00174b8f03","E1","batch5","","1128","tol_toboard","","","","tol_peg_1","1128","1128","0","[[2,0,0],[3,1],[0]]","3","[[2,1,3],[0,0],[0]]","1","0","","","","","","5","","","","","","","","",""
"","","","","","single-stim-button","38","167557","0.0-2.0-13.3-0.3","5d26aaf4665b0a00174b8f03","E1","batch5","","1575","tol_tohand","","","","tol_peg_2","1575","1575","0","[[2,0,0],[3,0],[0]]","4","[[2,1,3],[0,0],[0]]","1","0","","","","","","5","","","","","","","","",""
"","","","","","single-stim-button","39","168517","0.0-2.0-13.3-1.3","5d26aaf4665b0a00174b8f03","E1","batch5","","959","tol_toboard","","","","tol_peg_1","959","959","0","[[2,1,0],[3,0],[0]]","4","[[2,1,3],[0,0],[0]]","1","0","","","","","","5","","","","","","","","",""
"","","","","","single-stim-button","40","169509","0.0-2.0-13.4-0.4","5d26aaf4665b0a00174b8f03","E1","batch5","","990","tol_tohand","","","","tol_peg_2","990","990","0","[[2,1,0],[0,0],[0]]","5","[[2,1,3],[0,0],[0]]","1","0","","","","","","5","","","","","","","","",""
"","","","","","single-stim-button","41","170365","0.0-2.0-13.4-1.4","5d26aaf4665b0a00174b8f03","E1","batch5","","856","tol_toboard","","","","tol_peg_1","856","856","0","[[2,1,3],[0,0],[0]]","5","[[2,1,3],[0,0],[0]]","1","0","","","","","","5","","","","","","","","",""
"","","","","","poldrack-single-stim","42","171370","0.0-2.0-14.0","5d26aaf4665b0a00174b8f03","E1","batch5","","-1","tol_feedback","","","true","","1000","1000","500","","","","","","-1","none","true","4694","9311","","","","","","","","","",""
"","","","","","html-button-response","43","173023","0.0-2.0-15.0","5d26aaf4665b0a00174b8f03","E1","batch5","","1651.5","tol_trial_num","<div class = centerbox><p class = center-block-text>problem <strong>3</strong> out of 25 problems</p></div>","0","","","","","","","","","","","","","","","","","","","","","","","","",""
"","","","","","single-stim-button","44","175630","0.0-2.0-16.0-0.0","5d26aaf4665b0a00174b8f03","E1","batch5","","2606","tol_tohand","","","","tol_peg_1","2606","2606","0","[[2,0,0],[0,0],[1]]","1","[[1,2,0],[3,0],[0]]","2","0","","","","","","4","","","","","","","","",""
"","","","","","single-stim-button","45","177421","0.0-2.0-16.0-1.0","5d26aaf4665b0a00174b8f03","E1","batch5","","1789","tol_toboard","","","","tol_peg_2","1789","1789","0","[[2,0,0],[3,0],[1]]","1","[[1,2,0],[3,0],[0]]","2","0","","","","","","4","","","","","","","","",""
"","","","","","single-stim-button","46","180493","0.0-2.0-16.1-0.1","5d26aaf4665b0a00174b8f03","E1","batch5","","3071","tol_tohand","","","","tol_peg_1","3071","3071","0","[[0,0,0],[3,0],[1]]","2","[[1,2,0],[3,0],[0]]","2","0","","","","","","4","","","","","","","","",""
"","","","","","single-stim-button","47","180886","0.0-2.0-16.1-1.1","5d26aaf4665b0a00174b8f03","E1","batch5","","392","tol_toboard","","","","tol_peg_1","392","392","0","[[2,0,0],[3,0],[1]]","2","[[1,2,0],[3,0],[0]]","2","0","","","","","","4","","","","","","","","",""
"","","","","","single-stim-button","48","181462","0.0-2.0-16.2-0.2","5d26aaf4665b0a00174b8f03","E1","batch5","","575","tol_tohand","","","","tol_peg_1","575","575","0","[[0,0,0],[3,0],[1]]","3","[[1,2,0],[3,0],[0]]","2","0","","","","","","4","","","","","","","","",""
"","","","","","single-stim-button","49","182572","0.0-2.0-16.2-1.2","5d26aaf4665b0a00174b8f03","E1","batch5","","1110","tol_toboard","","","","tol_peg_2","1110","1110","0","[[0,0,0],[3,2],[1]]","3","[[1,2,0],[3,0],[0]]","2","0","","","","","","4","","","","","","","","",""
"","","","","","single-stim-button","50","183462","0.0-2.0-16.3-0.3","5d26aaf4665b0a00174b8f03","E1","batch5","","889","tol_tohand","","","","tol_peg_3","889","889","0","[[0,0,0],[3,2],[0]]","4","[[1,2,0],[3,0],[0]]","2","0","","","","","","4","","","","","","","","",""
"","","","","","single-stim-button","51","184541","0.0-2.0-16.3-1.3","5d26aaf4665b0a00174b8f03","E1","batch5","","1079","tol_toboard","","","","tol_peg_1","1079","1079","0","[[1,0,0],[3,2],[0]]","4","[[1,2,0],[3,0],[0]]","2","0","","","","","","4","","","","","","","","",""
"","","","","","single-stim-button","52","185950","0.0-2.0-16.4-0.4","5d26aaf4665b0a00174b8f03","E1","batch5","","1407","tol_tohand","","","","tol_peg_2","1407","1407","0","[[1,0,0],[3,0],[0]]","5","[[1,2,0],[3,0],[0]]","2","0","","","","","","4","","","","","","","","",""
"","","","","","single-stim-button","53","186837","0.0-2.0-16.4-1.4","5d26aaf4665b0a00174b8f03","E1","batch5","","887","tol_toboard","","","","tol_peg_1","887","887","0","[[1,2,0],[3,0],[0]]","5","[[1,2,0],[3,0],[0]]","2","0","","","","","","4","","","","","","","","",""
"","","","","","poldrack-single-stim","54","187842","0.0-2.0-17.0","5d26aaf4665b0a00174b8f03","E1","batch5","","-1","tol_feedback","","","true","","1000","1000","500","","","","","","-1","none","true","2606","8548","","","","","","","","","",""
"","","","","","html-button-response","55","188934","0.0-2.0-18.0","5d26aaf4665b0a00174b8f03","E1","batch5","","1090.800000011921","tol_trial_num","<div class = centerbox><p class = center-block-text>problem <strong>4</strong> out of 25 problems</p></div>","0","","","","","","","","","","","","","","","","","","","","","","","","",""
"","","","","","single-stim-button","56","193469","0.0-2.0-19.0-0.0","5d26aaf4665b0a00174b8f03","E1","batch5","","4533","tol_tohand","","","","tol_peg_2","4533","4533","0","[[3,0,0],[2,0],[0]]","1","[[3,0,0],[1,0],[2]]","3","0","","","","","","3","","","","","","","","",""
"","","","","","single-stim-button","57","194454","0.0-2.0-19.0-1.0","5d26aaf4665b0a00174b8f03","E1","batch5","","982","tol_toboard","","","","tol_peg_1","982","982","0","[[3,1,0],[2,0],[0]]","1","[[3,0,0],[1,0],[2]]","3","0","","","","","","3","","","","","","","","",""
"","","","","","single-stim-button","58","195469","0.0-2.0-19.1-0.1","5d26aaf4665b0a00174b8f03","E1","batch5","","1015","tol_tohand","","","","tol_peg_2","1015","1015","0","[[3,1,0],[0,0],[0]]","2","[[3,0,0],[1,0],[2]]","3","0","","","","","","3","","","","","","","","",""
"","","","","","single-stim-button","59","196517","0.0-2.0-19.1-1.1","5d26aaf4665b0a00174b8f03","E1","batch5","","1046","tol_toboard","","","","tol_peg_3","1046","1046","0","[[3,1,0],[0,0],[2]]","2","[[3,0,0],[1,0],[2]]","3","0","","","","","","3","","","","","","","","",""
"","","","","","single-stim-button","60","197469","0.0-2.0-19.2-0.2","5d26aaf4665b0a00174b8f03","E1","batch5","","952","tol_tohand","","","","tol_peg_1","952","952","0","[[3,0,0],[0,0],[2]]","3","[[3,0,0],[1,0],[2]]","3","0","","","","","","3","","","","","","","","",""
"","","","","","single-stim-button","61","198724","0.0-2.0-19.2-1.2","5d26aaf4665b0a00174b8f03","E1","batch5","","1255","tol_toboard","","","","tol_peg_2","1255","1255","0","[[3,0,0],[1,0],[2]]","3","[[3,0,0],[1,0],[2]]","3","0","","","","","","3","","","","","","","","",""
"","","","","","poldrack-single-stim","62","199730","0.0-2.0-20.0","5d26aaf4665b0a00174b8f03","E1","batch5","","-1","tol_feedback","","","true","","1000","1000","500","","","","","","-1","none","true","4533","6500","","","","","","","","","",""
"","","","","","html-button-response","63","200885","0.0-2.0-21.0","5d26aaf4665b0a00174b8f03","E1","batch5","","1153.2999999821186","tol_trial_num","<div class = centerbox><p class = center-block-text>problem <strong>5</strong> out of 25 problems</p></div>","0","","","","","","","","","","","","","","","","","","","","","","","","",""
"","","","","","single-stim-button","64","204061","0.0-2.0-22.0-0.0","5d26aaf4665b0a00174b8f03","E1","batch5","","3175","tol_tohand","","","","tol_peg_2","3175","3175","0","[[1,0,0],[0,0],[3]]","1","[[0,0,0],[1,2],[3]]","4","0","","","","","","7","","","","","","","","",""
"","","","","","single-stim-button","65","207830","0.0-2.0-22.0-1.0","5d26aaf4665b0a00174b8f03","E1","batch5","","3768","tol_toboard","","","","tol_peg_1","3768","3768","0","[[1,2,0],[0,0],[3]]","1","[[0,0,0],[1,2],[3]]","4","0","","","","","","7","","","","","","","","",""
"","","","","","single-stim-button","66","210029","0.0-2.0-22.1-0.1","5d26aaf4665b0a00174b8f03","E1","batch5","","2197","tol_tohand","","","","tol_peg_1","2197","2197","0","[[1,0,0],[0,0],[3]]","2","[[0,0,0],[1,2],[3]]","4","0","","","","","","7","","","","","","","","",""
"","","","","","single-stim-button","67","212165","0.0-2.0-22.1-1.1","5d26aaf4665b0a00174b8f03","E1","batch5","","2135","tol_toboard","","","","tol_peg_2","2135","2135","0","[[1,0,0],[2,0],[3]]","2","[[0,0,0],[1,2],[3]]","4","0","","","","","","7","","","","","","","","",""
"","","","","","single-stim-button","68","216502","0.0-2.0-22.2-0.2","5d26aaf4665b0a00174b8f03","E1","batch5","","4336","tol_tohand","","","","tol_peg_3","4336","4336","0","[[1,0,0],[2,0],[0]]","3","[[0,0,0],[1,2],[3]]","4","0","","","","","","7","","","","","","","","",""
"","","","","","single-stim-button","69","217951","0.0-2.0-22.2-1.2","5d26aaf4665b0a00174b8f03","E1","batch5","","1448","tol_toboard","","","","tol_peg_2","1448","1448","0","[[1,0,0],[2,3],[0]]","3","[[0,0,0],[1,2],[3]]","4","0","","","","","","7","","","","","","","","",""
"","","","","","single-stim-button","70","218853","0.0-2.0-22.3-0.3","5d26aaf4665b0a00174b8f03","E1","batch5","","901","tol_tohand","","","","tol_peg_1","901","901","0","[[0,0,0],[2,3],[0]]","4","[[0,0,0],[1,2],[3]]","4","0","","","","","","7","","","","","","","","",""
"","","","","","single-stim-button","71","219748","0.0-2.0-22.3-1.3","5d26aaf4665b0a00174b8f03","E1","batch5","","895","tol_toboard","","","","tol_peg_3","895","895","0","[[0,0,0],[2,3],[1]]","4","[[0,0,0],[1,2],[3]]","4","0","","","","","","7","","","","","","","","",""
"","","","","","single-stim-button","72","221118","0.0-2.0-22.4-0.4","5d26aaf4665b0a00174b8f03","E1","batch5","","1368","tol_tohand","","","","tol_peg_2","1368","1368","0","[[0,0,0],[2,0],[1]]","5","[[0,0,0],[1,2],[3]]","4","0","","","","","","7","","","","","","","","",""
"","","","","","single-stim-button","73","222389","0.0-2.0-22.4-1.4","5d26aaf4665b0a00174b8f03","E1","batch5","","1270","tol_toboard","","","","tol_peg_1","1270","1270","0","[[3,0,0],[2,0],[1]]","5","[[0,0,0],[1,2],[3]]","4","0","","","","","","7","","","","","","","","",""
"","","","","","single-stim-button","74","223229","0.0-2.0-22.5-0.5","5d26aaf4665b0a00174b8f03","E1","batch5","","839","tol_tohand","","","","tol_peg_2","839","839","0","[[3,0,0],[0,0],[1]]","6","[[0,0,0],[1,2],[3]]","4","0","","","","","","7","","","","","","","","",""
"","","","","","single-stim-button","75","224109","0.0-2.0-22.5-1.5","5d26aaf4665b0a00174b8f03","E1","batch5","","879","tol_toboard","","","","tol_peg_1","879","879","0","[[3,2,0],[0,0],[1]]","6","[[0,0,0],[1,2],[3]]","4","0","","","","","","7","","","","","","","","",""
"","","","","","single-stim-button","76","225029","0.0-2.0-22.6-0.6","5d26aaf4665b0a00174b8f03","E1","batch5","","919","tol_tohand","","","","tol_peg_3","919","919","0","[[3,2,0],[0,0],[0]]","7","[[0,0,0],[1,2],[3]]","4","0","","","","","","7","","","","","","","","",""
"","","","","","single-stim-button","77","226149","0.0-2.0-22.6-1.6","5d26aaf4665b0a00174b8f03","E1","batch5","","1119","tol_toboard","","","","tol_peg_2","1119","1119","0","[[3,2,0],[1,0],[0]]","7","[[0,0,0],[1,2],[3]]","4","0","","","","","","7","","","","","","","","",""
"","","","","","single-stim-button","78","227181","0.0-2.0-22.7-0.7","5d26aaf4665b0a00174b8f03","E1","batch5","","1031","tol_tohand","","","","tol_peg_1","1031","1031","0","[[3,0,0],[1,0],[0]]","8","[[0,0,0],[1,2],[3]]","4","0","","","","","","7","","","","","","","","",""
"","","","","","single-stim-button","79","228223","0.0-2.0-22.7-1.7","5d26aaf4665b0a00174b8f03","E1","batch5","","1040","tol_toboard","","","","tol_peg_2","1040","1040","0","[[3,0,0],[1,2],[0]]","8","[[0,0,0],[1,2],[3]]","4","0","","","","","","7","","","","","","","","",""
"","","","","","single-stim-button","80","229229","0.0-2.0-22.8-0.8","5d26aaf4665b0a00174b8f03","E1","batch5","","1006","tol_tohand","","","","tol_peg_1","1006","1006","0","[[0,0,0],[1,2],[0]]","9","[[0,0,0],[1,2],[3]]","4","0","","","","","","7","","","","","","","","",""
"","","","","","single-stim-button","81","230269","0.0-2.0-22.8-1.8","5d26aaf4665b0a00174b8f03","E1","batch5","","1040","tol_toboard","","","","tol_peg_3","1040","1040","0","[[0,0,0],[1,2],[3]]","9","[[0,0,0],[1,2],[3]]","4","0","","","","","","7","","","","","","","","",""
"","","","","","poldrack-single-stim","82","231274","0.0-2.0-23.0","5d26aaf4665b0a00174b8f03","E1","batch5","","-1","tol_feedback","","","true","","1000","1000","500","","","","","","-1","none","true","3175","15772","","","","","","","","","",""
"","","","","","html-button-response","83","232541","0.0-2.0-24.0","5d26aaf4665b0a00174b8f03","E1","batch5","","1266","tol_trial_num","<div class = centerbox><p class = center-block-text>problem <strong>6</strong> out of 25 problems</p></div>","0","","","","","","","","","","","","","","","","","","","","","","","","",""
"","","","","","single-stim-button","84","239166","0.0-2.0-25.0-0.0","5d26aaf4665b0a00174b8f03","E1","batch5","","6624","tol_tohand","","","","tol_peg_2","6624","6624","0","[[0,0,0],[1,0],[3]]","1","[[1,0,0],[2,3],[0]]","5","0","","","","","","6","","","","","","","","",""
"","","","","","single-stim-button","85","241262","0.0-2.0-25.0-1.0","5d26aaf4665b0a00174b8f03","E1","batch5","","2094","tol_toboard","","","","tol_peg_1","2094","2094","0","[[2,0,0],[1,0],[3]]","1","[[1,0,0],[2,3],[0]]","5","0","","","","","","6","","","","","","","","",""
"","","","","","single-stim-button","86","244917","0.0-2.0-25.1-0.1","5d26aaf4665b0a00174b8f03","E1","batch5","","3655","tol_tohand","","","","tol_peg_2","3655","3655","0","[[2,0,0],[0,0],[3]]","2","[[1,0,0],[2,3],[0]]","5","0","","","","","","6","","","","","","","","",""
"","","","","","single-stim-button","87","247853","0.0-2.0-25.1-1.1","5d26aaf4665b0a00174b8f03","E1","batch5","","2934","tol_toboard","","","","tol_peg_2","2934","2934","0","[[2,0,0],[1,0],[3]]","2","[[1,0,0],[2,3],[0]]","5","0","","","","","","6","","","","","","","","",""
"","","","","","single-stim-button","88","250022","0.0-2.0-25.2-0.2","5d26aaf4665b0a00174b8f03","E1","batch5","","2167","tol_tohand","","","","tol_peg_3","2167","2167","0","[[2,0,0],[1,0],[0]]","3","[[1,0,0],[2,3],[0]]","5","0","","","","","","6","","","","","","","","",""
"","","","","","single-stim-button","89","251118","0.0-2.0-25.2-1.2","5d26aaf4665b0a00174b8f03","E1","batch5","","1095","tol_toboard","","","","tol_peg_2","1095","1095","0","[[2,0,0],[1,3],[0]]","3","[[1,0,0],[2,3],[0]]","5","0","","","","","","6","","","","","","","","",""
"","","","","","single-stim-button","90","252118","0.0-2.0-25.3-0.3","5d26aaf4665b0a00174b8f03","E1","batch5","","999","tol_tohand","","","","tol_peg_1","999","999","0","[[0,0,0],[1,3],[0]]","4","[[1,0,0],[2,3],[0]]","5","0","","","","","","6","","","","","","","","",""
"","","","","","single-stim-button","91","253182","0.0-2.0-25.3-1.3","5d26aaf4665b0a00174b8f03","E1","batch5","","1064","tol_toboard","","","","tol_peg_3","1064","1064","0","[[0,0,0],[1,3],[2]]","4","[[1,0,0],[2,3],[0]]","5","0","","","","","","6","","","","","","","","",""
"","","","","","single-stim-button","92","254269","0.0-2.0-25.4-0.4","5d26aaf4665b0a00174b8f03","E1","batch5","","1085","tol_tohand","","","","tol_peg_2","1085","1085","0","[[0,0,0],[1,0],[2]]","5","[[1,0,0],[2,3],[0]]","5","0","","","","","","6","","","","","","","","",""
"","","","","","single-stim-button","93","255909","0.0-2.0-25.4-1.4","5d26aaf4665b0a00174b8f03","E1","batch5","","1640","tol_toboard","","","","tol_peg_1","1640","1640","0","[[3,0,0],[1,0],[2]]","5","[[1,0,0],[2,3],[0]]","5","0","","","","","","6","","","","","","","","",""
"","","","","","single-stim-button","94","257566","0.0-2.0-25.5-0.5","5d26aaf4665b0a00174b8f03","E1","batch5","","1655","tol_tohand","","","","tol_peg_2","1655","1655","0","[[3,0,0],[0,0],[2]]","6","[[1,0,0],[2,3],[0]]","5","0","","","","","","6","","","","","","","","",""
"","","","","","single-stim-button","95","259942","0.0-2.0-25.5-1.5","5d26aaf4665b0a00174b8f03","E1","batch5","","2375","tol_toboard","","","","tol_peg_1","2375","2375","0","[[3,1,0],[0,0],[2]]","6","[[1,0,0],[2,3],[0]]","5","0","","","","","","6","","","","","","","","",""
"","","","","","single-stim-button","96","260686","0.0-2.0-25.6-0.6","5d26aaf4665b0a00174b8f03","E1","batch5","","744","tol_tohand","","","","tol_peg_1","744","744","0","[[3,0,0],[0,0],[2]]","7","[[1,0,0],[2,3],[0]]","5","0","","","","","","6","","","","","","","","",""
"","","","","","single-stim-button","97","262622","0.0-2.0-25.6-1.6","5d26aaf4665b0a00174b8f03","E1","batch5","","1934","tol_toboard","","","","tol_peg_2","1934","1934","0","[[3,0,0],[1,0],[2]]","7","[[1,0,0],[2,3],[0]]","5","0","","","","","","6","","","","","","","","",""
"","","","","","single-stim-button","98","263718","0.0-2.0-25.7-0.7","5d26aaf4665b0a00174b8f03","E1","batch5","","1095","tol_tohand","","","","tol_peg_3","1095","1095","0","[[3,0,0],[1,0],[0]]","8","[[1,0,0],[2,3],[0]]","5","0","","","","","","6","","","","","","","","",""
"","","","","","single-stim-button","99","264628","0.0-2.0-25.7-1.7","5d26aaf4665b0a00174b8f03","E1","batch5","","910","tol_toboard","","","","tol_peg_2","910","910","0","[[3,0,0],[1,2],[0]]","8","[[1,0,0],[2,3],[0]]","5","0","","","","","","6","","","","","","","","",""
"","","","","","single-stim-button","100","266750","0.0-2.0-25.8-0.8","5d26aaf4665b0a00174b8f03","E1","batch5","","2120","tol_tohand","","","","tol_peg_1","2120","2120","0","[[0,0,0],[1,2],[0]]","9","[[1,0,0],[2,3],[0]]","5","0","","","","","","6","","","","","","","","",""
"","","","","","single-stim-button","101","269030","0.0-2.0-25.8-1.8","5d26aaf4665b0a00174b8f03","E1","batch5","","2280","tol_toboard","","","","tol_peg_1","2280","2280","0","[[3,0,0],[1,2],[0]]","9","[[1,0,0],[2,3],[0]]","5","0","","","","","","6","","","","","","","","",""
"","","","","","single-stim-button","102","269798","0.0-2.0-25.9-0.9","5d26aaf4665b0a00174b8f03","E1","batch5","","766","tol_tohand","","","","tol_peg_2","766","766","0","[[3,0,0],[1,0],[0]]","10","[[1,0,0],[2,3],[0]]","5","0","","","","","","6","","","","","","","","",""
"","","","","","single-stim-button","103","270799","0.0-2.0-25.9-1.9","5d26aaf4665b0a00174b8f03","E1","batch5","","1000","tol_toboard","","","","tol_peg_1","1000","1000","0","[[3,2,0],[1,0],[0]]","10","[[1,0,0],[2,3],[0]]","5","0","","","","","","6","","","","","","","","",""
"","","","","","single-stim-button","104","271621","0.0-2.0-25.10-0.10","5d26aaf4665b0a00174b8f03","E1","batch5","","822","tol_tohand","","","","tol_peg_2","822","822","0","[[3,2,0],[0,0],[0]]","11","[[1,0,0],[2,3],[0]]","5","0","","","","","","6","","","","","","","","",""
"","","","","","single-stim-button","105","273459","0.0-2.0-25.10-1.10","5d26aaf4665b0a00174b8f03","E1","batch5","","1836","tol_toboard","","","","tol_peg_3","1836","1836","0","[[3,2,0],[0,0],[1]]","11","[[1,0,0],[2,3],[0]]","5","0","","","","","","6","","","","","","","","",""
"","","","","","single-stim-button","106","274172","0.0-2.0-25.11-0.11","5d26aaf4665b0a00174b8f03","E1","batch5","","712","tol_tohand","","","","tol_peg_1","712","712","0","[[3,0,0],[0,0],[1]]","12","[[1,0,0],[2,3],[0]]","5","0","","","","","","6","","","","","","","","",""
"","","","","","single-stim-button","107","274885","0.0-2.0-25.11-1.11","5d26aaf4665b0a00174b8f03","E1","batch5","","712","tol_toboard","","","","tol_peg_2","712","712","0","[[3,0,0],[2,0],[1]]","12","[[1,0,0],[2,3],[0]]","5","0","","","","","","6","","","","","","","","",""
"","","","","","single-stim-button","108","275559","0.0-2.0-25.12-0.12","5d26aaf4665b0a00174b8f03","E1","batch5","","672","tol_tohand","","","","tol_peg_1","672","672","0","[[0,0,0],[2,0],[1]]","13","[[1,0,0],[2,3],[0]]","5","0","","","","","","6","","","","","","","","",""
"","","","","","single-stim-button","109","276500","0.0-2.0-25.12-1.12","5d26aaf4665b0a00174b8f03","E1","batch5","","940","tol_toboard","","","","tol_peg_2","940","940","0","[[0,0,0],[2,3],[1]]","13","[[1,0,0],[2,3],[0]]","5","0","","","","","","6","","","","","","","","",""
"","","","","","single-stim-button","110","277263","0.0-2.0-25.13-0.13","5d26aaf4665b0a00174b8f03","E1","batch5","","762","tol_tohand","","","","tol_peg_3","762","762","0","[[0,0,0],[2,3],[0]]","14","[[1,0,0],[2,3],[0]]","5","0","","","","","","6","","","","","","","","",""
"","","","","","single-stim-button","111","278105","0.0-2.0-25.13-1.13","5d26aaf4665b0a00174b8f03","E1","batch5","","841","tol_toboard","","","","tol_peg_1","841","841","0","[[1,0,0],[2,3],[0]]","14","[[1,0,0],[2,3],[0]]","5","0","","","","","","6","","","","","","","","",""
"","","","","","poldrack-single-stim","112","279114","0.0-2.0-26.0","5d26aaf4665b0a00174b8f03","E1","batch5","","-1","tol_feedback","","","true","","1000","1000","500","","","","","","-1","none","true","6624","23878","","","","","","","","","",""
"","","","","","html-button-response","113","279997","0.0-2.0-27.0","5d26aaf4665b0a00174b8f03","E1","batch5","","880.9000000059605","tol_trial_num","<div class = centerbox><p class = center-block-text>problem <strong>7</strong> out of 25 problems</p></div>","0","","","","","","","","","","","","","","","","","","","","","","","","",""
"","","","","","single-stim-button","114","286187","0.0-2.0-28.0-0.0","5d26aaf4665b0a00174b8f03","E1","batch5","","6189","tol_tohand","","","","tol_peg_1","6189","6189","0","[[2,0,0],[0,0],[3]]","1","[[1,2,0],[3,0],[0]]","6","0","","","","","","5","","","","","","","","",""
"","","","","","single-stim-button","115","286919","0.0-2.0-28.0-1.0","5d26aaf4665b0a00174b8f03","E1","batch5","","731","tol_toboard","","","","tol_peg_2","731","731","0","[[2,0,0],[1,0],[3]]","1","[[1,2,0],[3,0],[0]]","6","0","","","","","","5","","","","","","","","",""
"","","","","","single-stim-button","116","291070","0.0-2.0-28.1-0.1","5d26aaf4665b0a00174b8f03","E1","batch5","","4150","tol_tohand","","","","tol_peg_1","4150","4150","0","[[0,0,0],[1,0],[3]]","2","[[1,2,0],[3,0],[0]]","6","0","","","","","","5","","","","","","","","",""
"","","","","","single-stim-button","117","295812","0.0-2.0-28.1-1.1","5d26aaf4665b0a00174b8f03","E1","batch5","","4740","tol_toboard","","","","tol_peg_2","4740","4740","0","[[0,0,0],[1,2],[3]]","2","[[1,2,0],[3,0],[0]]","6","0","","","","","","5","","","","","","","","",""
"","","","","","single-stim-button","118","299001","0.0-2.0-28.2-0.2","5d26aaf4665b0a00174b8f03","E1","batch5","","3188","tol_tohand","","","","tol_peg_3","3188","3188","0","[[0,0,0],[1,2],[0]]","3","[[1,2,0],[3,0],[0]]","6","0","","","","","","5","","","","","","","","",""
"","","","","","single-stim-button","119","300418","0.0-2.0-28.2-1.2","5d26aaf4665b0a00174b8f03","E1","batch5","","1415","tol_toboard","","","","tol_peg_1","1415","1415","0","[[3,0,0],[1,2],[0]]","3","[[1,2,0],[3,0],[0]]","6","0","","","","","","5","","","","","","","","",""
"","","","","","single-stim-button","120","301170","0.0-2.0-28.3-0.3","5d26aaf4665b0a00174b8f03","E1","batch5","","750","tol_tohand","","","","tol_peg_2","750","750","0","[[3,0,0],[1,0],[0]]","4","[[1,2,0],[3,0],[0]]","6","0","","","","","","5","","","","","","","","",""
"","","","","","single-stim-button","121","301972","0.0-2.0-28.3-1.3","5d26aaf4665b0a00174b8f03","E1","batch5","","802","tol_toboard","","","","tol_peg_3","802","802","0","[[3,0,0],[1,0],[2]]","4","[[1,2,0],[3,0],[0]]","6","0","","","","","","5","","","","","","","","",""
"","","","","","single-stim-button","122","305092","0.0-2.0-28.4-0.4","5d26aaf4665b0a00174b8f03","E1","batch5","","3118","tol_tohand","","","","tol_peg_1","3118","3118","0","[[0,0,0],[1,0],[2]]","5","[[1,2,0],[3,0],[0]]","6","0","","","","","","5","","","","","","","","",""
"","","","","","single-stim-button","123","306419","0.0-2.0-28.4-1.4","5d26aaf4665b0a00174b8f03","E1","batch5","","1326","tol_toboard","","","","tol_peg_2","1326","1326","0","[[0,0,0],[1,3],[2]]","5","[[1,2,0],[3,0],[0]]","6","0","","","","","","5","","","","","","","","",""
"","","","","","single-stim-button","124","307598","0.0-2.0-28.5-0.5","5d26aaf4665b0a00174b8f03","E1","batch5","","1177","tol_tohand","","","","tol_peg_2","1177","1177","0","[[0,0,0],[1,0],[2]]","6","[[1,2,0],[3,0],[0]]","6","0","","","","","","5","","","","","","","","",""
"","","","","","single-stim-button","125","308489","0.0-2.0-28.5-1.5","5d26aaf4665b0a00174b8f03","E1","batch5","","890","tol_toboard","","","","tol_peg_1","890","890","0","[[3,0,0],[1,0],[2]]","6","[[1,2,0],[3,0],[0]]","6","0","","","","","","5","","","","","","","","",""
"","","","","","single-stim-button","126","309886","0.0-2.0-28.6-0.6","5d26aaf4665b0a00174b8f03","E1","batch5","","1395","tol_tohand","","","","tol_peg_2","1395","1395","0","[[3,0,0],[0,0],[2]]","7","[[1,2,0],[3,0],[0]]","6","0","","","","","","5","","","","","","","","",""
"","","","","","single-stim-button","127","312025","0.0-2.0-28.6-1.6","5d26aaf4665b0a00174b8f03","E1","batch5","","2139","tol_toboard","","","","tol_peg_1","2139","2139","0","[[3,1,0],[0,0],[2]]","7","[[1,2,0],[3,0],[0]]","6","0","","","","","","5","","","","","","","","",""
"","","","","","single-stim-button","128","312856","0.0-2.0-28.7-0.7","5d26aaf4665b0a00174b8f03","E1","batch5","","830","tol_tohand","","","","tol_peg_3","830","830","0","[[3,1,0],[0,0],[0]]","8","[[1,2,0],[3,0],[0]]","6","0","","","","","","5","","","","","","","","",""
"","","","","","single-stim-button","129","313698","0.0-2.0-28.7-1.7","5d26aaf4665b0a00174b8f03","E1","batch5","","841","tol_toboard","","","","tol_peg_2","841","841","0","[[3,1,0],[2,0],[0]]","8","[[1,2,0],[3,0],[0]]","6","0","","","","","","5","","","","","","","","",""
"","","","","","single-stim-button","130","314689","0.0-2.0-28.8-0.8","5d26aaf4665b0a00174b8f03","E1","batch5","","989","tol_tohand","","","","tol_peg_1","989","989","0","[[3,0,0],[2,0],[0]]","9","[[1,2,0],[3,0],[0]]","6","0","","","","","","5","","","","","","","","",""
"","","","","","single-stim-button","131","315778","0.0-2.0-28.8-1.8","5d26aaf4665b0a00174b8f03","E1","batch5","","1088","tol_toboard","","","","tol_peg_2","1088","1088","0","[[3,0,0],[2,1],[0]]","9","[[1,2,0],[3,0],[0]]","6","0","","","","","","5","","","","","","","","",""
"","","","","","single-stim-button","132","316432","0.0-2.0-28.9-0.9","5d26aaf4665b0a00174b8f03","E1","batch5","","653","tol_tohand","","","","tol_peg_1","653","653","0","[[0,0,0],[2,1],[0]]","10","[[1,2,0],[3,0],[0]]","6","0","","","","","","5","","","","","","","","",""
"","","","","","single-stim-button","133","318165","0.0-2.0-28.9-1.9","5d26aaf4665b0a00174b8f03","E1","batch5","","1732","tol_toboard","","","","tol_peg_3","1732","1732","0","[[0,0,0],[2,1],[3]]","10","[[1,2,0],[3,0],[0]]","6","0","","","","","","5","","","","","","","","",""
"","","","","","single-stim-button","134","318908","0.0-2.0-28.10-0.10","5d26aaf4665b0a00174b8f03","E1","batch5","","742","tol_tohand","","","","tol_peg_2","742","742","0","[[0,0,0],[2,0],[3]]","11","[[1,2,0],[3,0],[0]]","6","0","","","","","","5","","","","","","","","",""
"","","","","","single-stim-button","135","319838","0.0-2.0-28.10-1.10","5d26aaf4665b0a00174b8f03","E1","batch5","","930","tol_toboard","","","","tol_peg_1","930","930","0","[[1,0,0],[2,0],[3]]","11","[[1,2,0],[3,0],[0]]","6","0","","","","","","5","","","","","","","","",""
"","","","","","single-stim-button","136","320502","0.0-2.0-28.11-0.11","5d26aaf4665b0a00174b8f03","E1","batch5","","662","tol_tohand","","","","tol_peg_2","662","662","0","[[1,0,0],[0,0],[3]]","12","[[1,2,0],[3,0],[0]]","6","0","","","","","","5","","","","","","","","",""
"","","","","","single-stim-button","137","321384","0.0-2.0-28.11-1.11","5d26aaf4665b0a00174b8f03","E1","batch5","","880","tol_toboard","","","","tol_peg_1","880","880","0","[[1,2,0],[0,0],[3]]","12","[[1,2,0],[3,0],[0]]","6","0","","","","","","5","","","","","","","","",""
"","","","","","single-stim-button","138","324969","0.0-2.0-28.12-0.12","5d26aaf4665b0a00174b8f03","E1","batch5","","3585","tol_tohand","","","","tol_peg_3","3585","3585","0","[[1,2,0],[0,0],[0]]","13","[[1,2,0],[3,0],[0]]","6","0","","","","","","5","","","","","","","","",""
"","","","","","single-stim-button","139","325713","0.0-2.0-28.12-1.12","5d26aaf4665b0a00174b8f03","E1","batch5","","742","tol_toboard","","","","tol_peg_2","742","742","0","[[1,2,0],[3,0],[0]]","13","[[1,2,0],[3,0],[0]]","6","0","","","","","","5","","","","","","","","",""
"","","","","","poldrack-single-stim","140","326722","0.0-2.0-29.0","5d26aaf4665b0a00174b8f03","E1","batch5","","-1","tol_feedback","","","true","","1000","1000","500","","","","","","-1","none","true","6189","27428","","","","","","","","","",""
"","","","","","html-button-response","141","342903","0.0-2.0-30.0","5d26aaf4665b0a00174b8f03","E1","batch5","","16179.299999982119","tol_trial_num","<div class = centerbox><p class = center-block-text>problem <strong>8</strong> out of 25 problems</p></div>","0","","","","","","","","","","","","","","","","","","","","","","","","",""
"","","","","","single-stim-button","142","359486","0.0-2.0-31.0-0.0","5d26aaf4665b0a00174b8f03","E1","batch5","","16581","tol_tohand","","","","tol_peg_3","16581","16581","0","[[0,0,0],[2,3],[0]]","1","[[1,2,0],[3,0],[0]]","7","0","","","","","","4","","","","","","","","",""
"","","","","","single-stim-button","143","360961","0.0-2.0-31.0-1.0","5d26aaf4665b0a00174b8f03","E1","batch5","","1473","tol_toboard","","","","tol_peg_1","1473","1473","0","[[1,0,0],[2,3],[0]]","1","[[1,2,0],[3,0],[0]]","7","0","","","","","","4","","","","","","","","",""
"","","","","","single-stim-button","144","362762","0.0-2.0-31.1-0.1","5d26aaf4665b0a00174b8f03","E1","batch5","","1799","tol_tohand","","","","tol_peg_2","1799","1799","0","[[1,0,0],[2,0],[0]]","2","[[1,2,0],[3,0],[0]]","7","0","","","","","","4","","","","","","","","",""
"","","","","","single-stim-button","145","364276","0.0-2.0-31.1-1.1","5d26aaf4665b0a00174b8f03","E1","batch5","","1513","tol_toboard","","","","tol_peg_3","1513","1513","0","[[1,0,0],[2,0],[3]]","2","[[1,2,0],[3,0],[0]]","7","0","","","","","","4","","","","","","","","",""
"","","","","","single-stim-button","146","365187","0.0-2.0-31.2-0.2","5d26aaf4665b0a00174b8f03","E1","batch5","","909","tol_tohand","","","","tol_peg_2","909","909","0","[[1,0,0],[0,0],[3]]","3","[[1,2,0],[3,0],[0]]","7","0","","","","","","4","","","","","","","","",""
"","","","","","single-stim-button","147","365900","0.0-2.0-31.2-1.2","5d26aaf4665b0a00174b8f03","E1","batch5","","712","tol_toboard","","","","tol_peg_1","712","712","0","[[1,2,0],[0,0],[3]]","3","[[1,2,0],[3,0],[0]]","7","0","","","","","","4","","","","","","","","",""
"","","","","","single-stim-button","148","366711","0.0-2.0-31.3-0.3","5d26aaf4665b0a00174b8f03","E1","batch5","","810","tol_tohand","","","","tol_peg_3","810","810","0","[[1,2,0],[0,0],[0]]","4","[[1,2,0],[3,0],[0]]","7","0","","","","","","4","","","","","","","","",""
"","","","","","single-stim-button","149","367434","0.0-2.0-31.3-1.3","5d26aaf4665b0a00174b8f03","E1","batch5","","722","tol_toboard","","","","tol_peg_2","722","722","0","[[1,2,0],[3,0],[0]]","4","[[1,2,0],[3,0],[0]]","7","0","","","","","","4","","","","","","","","",""
"","","","","","poldrack-single-stim","150","368442","0.0-2.0-32.0","5d26aaf4665b0a00174b8f03","E1","batch5","","-1","tol_feedback","","","true","","1000","1000","500","","","","","","-1","none","true","16581","20099","","","","","","","","","",""
"","","","","","html-button-response","151","369462","0.0-2.0-33.0","5d26aaf4665b0a00174b8f03","E1","batch5","","1019.3000000119209","tol_trial_num","<div class = centerbox><p class = center-block-text>problem <strong>9</strong> out of 25 problems</p></div>","0","","","","","","","","","","","","","","","","","","","","","","","","",""
"","","","","","single-stim-button","152","383845","0.0-2.0-34.0-0.0","5d26aaf4665b0a00174b8f03","E1","batch5","","14381","tol_tohand","","","","tol_peg_3","14381","14381","0","[[3,2,0],[0,0],[0]]","1","[[2,1,0],[3,0],[0]]","8","0","","","","","","6","","","","","","","","",""
"","","","","","single-stim-button","153","384795","0.0-2.0-34.0-1.0","5d26aaf4665b0a00174b8f03","E1","batch5","","948","tol_toboard","","","","tol_peg_2","948","948","0","[[3,2,0],[1,0],[0]]","1","[[2,1,0],[3,0],[0]]","8","0","","","","","","6","","","","","","","","",""
"","","","","","single-stim-button","154","385637","0.0-2.0-34.1-0.1","5d26aaf4665b0a00174b8f03","E1","batch5","","840","tol_tohand","","","","tol_peg_1","840","840","0","[[3,0,0],[1,0],[0]]","2","[[2,1,0],[3,0],[0]]","8","0","","","","","","6","","","","","","","","",""
"","","","","","single-stim-button","155","388597","0.0-2.0-34.1-1.1","5d26aaf4665b0a00174b8f03","E1","batch5","","2959","tol_toboard","","","","tol_peg_2","2959","2959","0","[[3,0,0],[1,2],[0]]","2","[[2,1,0],[3,0],[0]]","8","0","","","","","","6","","","","","","","","",""
"","","","","","single-stim-button","156","389369","0.0-2.0-34.2-0.2","5d26aaf4665b0a00174b8f03","E1","batch5","","771","tol_tohand","","","","tol_peg_1","771","771","0","[[0,0,0],[1,2],[0]]","3","[[2,1,0],[3,0],[0]]","8","0","","","","","","6","","","","","","","","",""
"","","","","","single-stim-button","157","390617","0.0-2.0-34.2-1.2","5d26aaf4665b0a00174b8f03","E1","batch5","","1246","tol_toboard","","","","tol_peg_3","1246","1246","0","[[0,0,0],[1,2],[3]]","3","[[2,1,0],[3,0],[0]]","8","0","","","","","","6","","","","","","","","",""
"","","","","","single-stim-button","158","392666","0.0-2.0-34.3-0.3","5d26aaf4665b0a00174b8f03","E1","batch5","","2047","tol_tohand","","","","tol_peg_2","2047","2047","0","[[0,0,0],[1,0],[3]]","4","[[2,1,0],[3,0],[0]]","8","0","","","","","","6","","","","","","","","",""
"","","","","","single-stim-button","159","393577","0.0-2.0-34.3-1.3","5d26aaf4665b0a00174b8f03","E1","batch5","","910","tol_toboard","","","","tol_peg_1","910","910","0","[[2,0,0],[1,0],[3]]","4","[[2,1,0],[3,0],[0]]","8","0","","","","","","6","","","","","","","","",""
"","","","","","single-stim-button","160","394270","0.0-2.0-34.4-0.4","5d26aaf4665b0a00174b8f03","E1","batch5","","692","tol_tohand","","","","tol_peg_2","692","692","0","[[2,0,0],[0,0],[3]]","5","[[2,1,0],[3,0],[0]]","8","0","","","","","","6","","","","","","","","",""
"","","","","","single-stim-button","161","395161","0.0-2.0-34.4-1.4","5d26aaf4665b0a00174b8f03","E1","batch5","","890","tol_toboard","","","","tol_peg_1","890","890","0","[[2,1,0],[0,0],[3]]","5","[[2,1,0],[3,0],[0]]","8","0","","","","","","6","","","","","","","","",""
"","","","","","single-stim-button","162","395903","0.0-2.0-34.5-0.5","5d26aaf4665b0a00174b8f03","E1","batch5","","742","tol_tohand","","","","tol_peg_3","742","742","0","[[2,1,0],[0,0],[0]]","6","[[2,1,0],[3,0],[0]]","8","0","","","","","","6","","","","","","","","",""
"","","","","","single-stim-button","163","396705","0.0-2.0-34.5-1.5","5d26aaf4665b0a00174b8f03","E1","batch5","","801","tol_toboard","","","","tol_peg_2","801","801","0","[[2,1,0],[3,0],[0]]","6","[[2,1,0],[3,0],[0]]","8","0","","","","","","6","","","","","","","","",""
"","","","","","poldrack-single-stim","164","397714","0.0-2.0-35.0","5d26aaf4665b0a00174b8f03","E1","batch5","","-1","tol_feedback","","","true","","1000","1000","500","","","","","","-1","none","true","14381","19473","","","","","","","","","",""
"","","","","","html-button-response","165","398279","0.0-2.0-36.0","5d26aaf4665b0a00174b8f03","E1","batch5","","563.9000000059605","tol_trial_num","<div class = centerbox><p class = center-block-text>problem <strong>10</strong> out of 25 problems</p></div>","0","","","","","","","","","","","","","","","","","","","","","","","","",""
"","","","","","single-stim-button","166","401893","0.0-2.0-37.0-0.0","5d26aaf4665b0a00174b8f03","E1","batch5","","3613","tol_tohand","","","","tol_peg_2","3613","3613","0","[[3,0,0],[0,0],[2]]","1","[[3,0,0],[2,1],[0]]","9","0","","","","","","3","","","","","","","","",""
"","","","","","single-stim-button","167","402865","0.0-2.0-37.0-1.0","5d26aaf4665b0a00174b8f03","E1","batch5","","970","tol_toboard","","","","tol_peg_1","970","970","0","[[3,1,0],[0,0],[2]]","1","[[3,0,0],[2,1],[0]]","9","0","","","","","","3","","","","","","","","",""
"","","","","","single-stim-button","168","403596","0.0-2.0-37.1-0.1","5d26aaf4665b0a00174b8f03","E1","batch5","","731","tol_tohand","","","","tol_peg_3","731","731","0","[[3,1,0],[0,0],[0]]","2","[[3,0,0],[2,1],[0]]","9","0","","","","","","3","","","","","","","","",""
"","","","","","single-stim-button","169","404309","0.0-2.0-37.1-1.1","5d26aaf4665b0a00174b8f03","E1","batch5","","711","tol_toboard","","","","tol_peg_2","711","711","0","[[3,1,0],[2,0],[0]]","2","[[3,0,0],[2,1],[0]]","9","0","","","","","","3","","","","","","","","",""
"","","","","","single-stim-button","170","405052","0.0-2.0-37.2-0.2","5d26aaf4665b0a00174b8f03","E1","batch5","","742","tol_tohand","","","","tol_peg_1","742","742","0","[[3,0,0],[2,0],[0]]","3","[[3,0,0],[2,1],[0]]","9","0","","","","","","3","","","","","","","","",""
"","","","","","single-stim-button","171","405874","0.0-2.0-37.2-1.2","5d26aaf4665b0a00174b8f03","E1","batch5","","820","tol_toboard","","","","tol_peg_2","820","820","0","[[3,0,0],[2,1],[0]]","3","[[3,0,0],[2,1],[0]]","9","0","","","","","","3","","","","","","","","",""
"","","","","","poldrack-single-stim","172","406882","0.0-2.0-38.0","5d26aaf4665b0a00174b8f03","E1","batch5","","-1","tol_feedback","","","true","","1000","1000","500","","","","","","-1","none","true","3613","5086","","","","","","","","","",""
"","","","","","html-button-response","173","407861","0.0-2.0-39.0","5d26aaf4665b0a00174b8f03","E1","batch5","","977.7000000178814","tol_trial_num","<div class = centerbox><p class = center-block-text>problem <strong>11</strong> out of 25 problems</p></div>","0","","","","","","","","","","","","","","","","","","","","","","","","",""
"","","","","","single-stim-button","174","413525","0.0-2.0-40.0-0.0","5d26aaf4665b0a00174b8f03","E1","batch5","","5662","tol_tohand","","","","tol_peg_1","5662","5662","0","[[1,0,0],[3,0],[0]]","1","[[2,0,0],[1,3],[0]]","10","0","","","","","","6","","","","","","","","",""
"","","","","","single-stim-button","175","414398","0.0-2.0-40.0-1.0","5d26aaf4665b0a00174b8f03","E1","batch5","","872","tol_toboard","","","","tol_peg_2","872","872","0","[[1,0,0],[3,2],[0]]","1","[[2,0,0],[1,3],[0]]","10","0","","","","","","6","","","","","","","","",""
"","","","","","single-stim-button","176","415582","0.0-2.0-40.1-0.1","5d26aaf4665b0a00174b8f03","E1","batch5","","1182","tol_tohand","","","","tol_peg_1","1182","1182","0","[[0,0,0],[3,2],[0]]","2","[[2,0,0],[1,3],[0]]","10","0","","","","","","6","","","","","","","","",""
"","","","","","single-stim-button","177","416781","0.0-2.0-40.1-1.1","5d26aaf4665b0a00174b8f03","E1","batch5","","1199","tol_toboard","","","","tol_peg_3","1199","1199","0","[[0,0,0],[3,2],[1]]","2","[[2,0,0],[1,3],[0]]","10","0","","","","","","6","","","","","","","","",""
"","","","","","single-stim-button","178","417717","0.0-2.0-40.2-0.2","5d26aaf4665b0a00174b8f03","E1","batch5","","935","tol_tohand","","","","tol_peg_2","935","935","0","[[0,0,0],[3,0],[1]]","3","[[2,0,0],[1,3],[0]]","10","0","","","","","","6","","","","","","","","",""
"","","","","","single-stim-button","179","418702","0.0-2.0-40.2-1.2","5d26aaf4665b0a00174b8f03","E1","batch5","","983","tol_toboard","","","","tol_peg_1","983","983","0","[[2,0,0],[3,0],[1]]","3","[[2,0,0],[1,3],[0]]","10","0","","","","","","6","","","","","","","","",""
"","","","","","single-stim-button","180","419565","0.0-2.0-40.3-0.3","5d26aaf4665b0a00174b8f03","E1","batch5","","862","tol_tohand","","","","tol_peg_2","862","862","0","[[2,0,0],[0,0],[1]]","4","[[2,0,0],[1,3],[0]]","10","0","","","","","","6","","","","","","","","",""
"","","","","","single-stim-button","181","420493","0.0-2.0-40.3-1.3","5d26aaf4665b0a00174b8f03","E1","batch5","","927","tol_toboard","","","","tol_peg_1","927","927","0","[[2,3,0],[0,0],[1]]","4","[[2,0,0],[1,3],[0]]","10","0","","","","","","6","","","","","","","","",""
"","","","","","single-stim-button","182","421373","0.0-2.0-40.4-0.4","5d26aaf4665b0a00174b8f03","E1","batch5","","880","tol_tohand","","","","tol_peg_3","880","880","0","[[2,3,0],[0,0],[0]]","5","[[2,0,0],[1,3],[0]]","10","0","","","","","","6","","","","","","","","",""
"","","","","","single-stim-button","183","422334","0.0-2.0-40.4-1.4","5d26aaf4665b0a00174b8f03","E1","batch5","","959","tol_toboard","","","","tol_peg_2","959","959","0","[[2,3,0],[1,0],[0]]","5","[[2,0,0],[1,3],[0]]","10","0","","","","","","6","","","","","","","","",""
"","","","","","single-stim-button","184","423309","0.0-2.0-40.5-0.5","5d26aaf4665b0a00174b8f03","E1","batch5","","975","tol_tohand","","","","tol_peg_1","975","975","0","[[2,0,0],[1,0],[0]]","6","[[2,0,0],[1,3],[0]]","10","0","","","","","","6","","","","","","","","",""
"","","","","","single-stim-button","185","424150","0.0-2.0-40.5-1.5","5d26aaf4665b0a00174b8f03","E1","batch5","","839","tol_toboard","","","","tol_peg_2","839","839","0","[[2,0,0],[1,3],[0]]","6","[[2,0,0],[1,3],[0]]","10","0","","","","","","6","","","","","","","","",""
"","","","","","poldrack-single-stim","186","425154","0.0-2.0-41.0","5d26aaf4665b0a00174b8f03","E1","batch5","","-1","tol_feedback","","","true","","1000","1000","500","","","","","","-1","none","true","5662","10496","","","","","","","","","",""
"","","","","","html-button-response","187","426374","0.0-2.0-42.0","5d26aaf4665b0a00174b8f03","E1","batch5","","1218.699999988079","tol_trial_num","<div class = centerbox><p class = center-block-text>problem <strong>12</strong> out of 25 problems</p></div>","0","","","","","","","","","","","","","","","","","","","","","","","","",""
"","","","","","single-stim-button","188","430460","0.0-2.0-43.0-0.0","5d26aaf4665b0a00174b8f03","E1","batch5","","4085","tol_tohand","","","","tol_peg_1","4085","4085","0","[[1,0,0],[3,0],[0]]","1","[[2,3,0],[0,0],[1]]","11","0","","","","","","4","","","","","","","","",""
"","","","","","single-stim-button","189","431749","0.0-2.0-43.0-1.0","5d26aaf4665b0a00174b8f03","E1","batch5","","1288","tol_toboard","","","","tol_peg_3","1288","1288","0","[[1,0,0],[3,0],[2]]","1","[[2,3,0],[0,0],[1]]","11","0","","","","","","4","","","","","","","","",""
"","","","","","single-stim-button","190","433109","0.0-2.0-43.1-0.1","5d26aaf4665b0a00174b8f03","E1","batch5","","1358","tol_tohand","","","","tol_peg_1","1358","1358","0","[[0,0,0],[3,0],[2]]","2","[[2,3,0],[0,0],[1]]","11","0","","","","","","4","","","","","","","","",""
"","","","","","single-stim-button","191","437710","0.0-2.0-43.1-1.1","5d26aaf4665b0a00174b8f03","E1","batch5","","4600","tol_toboard","","","","tol_peg_1","4600","4600","0","[[1,0,0],[3,0],[2]]","2","[[2,3,0],[0,0],[1]]","11","0","","","","","","4","","","","","","","","",""
"","","","","","single-stim-button","192","438910","0.0-2.0-43.2-0.2","5d26aaf4665b0a00174b8f03","E1","batch5","","1199","tol_tohand","","","","tol_peg_3","1199","1199","0","[[1,0,0],[3,0],[0]]","3","[[2,3,0],[0,0],[1]]","11","0","","","","","","4","","","","","","","","",""
"","","","","","single-stim-button","193","439694","0.0-2.0-43.2-1.2","5d26aaf4665b0a00174b8f03","E1","batch5","","784","tol_toboard","","","","tol_peg_2","784","784","0","[[1,0,0],[3,2],[0]]","3","[[2,3,0],[0,0],[1]]","11","0","","","","","","4","","","","","","","","",""
"","","","","","single-stim-button","194","440701","0.0-2.0-43.3-0.3","5d26aaf4665b0a00174b8f03","E1","batch5","","1006","tol_tohand","","","","tol_peg_1","1006","1006","0","[[0,0,0],[3,2],[0]]","4","[[2,3,0],[0,0],[1]]","11","0","","","","","","4","","","","","","","","",""
"","","","","","single-stim-button","195","441941","0.0-2.0-43.3-1.3","5d26aaf4665b0a00174b8f03","E1","batch5","","1239","tol_toboard","","","","tol_peg_3","1239","1239","0","[[0,0,0],[3,2],[1]]","4","[[2,3,0],[0,0],[1]]","11","0","","","","","","4","","","","","","","","",""
"","","","","","single-stim-button","196","443070","0.0-2.0-43.4-0.4","5d26aaf4665b0a00174b8f03","E1","batch5","","1127","tol_tohand","","","","tol_peg_2","1127","1127","0","[[0,0,0],[3,0],[1]]","5","[[2,3,0],[0,0],[1]]","11","0","","","","","","4","","","","","","","","",""
"","","","","","single-stim-button","197","444157","0.0-2.0-43.4-1.4","5d26aaf4665b0a00174b8f03","E1","batch5","","1087","tol_toboard","","","","tol_peg_1","1087","1087","0","[[2,0,0],[3,0],[1]]","5","[[2,3,0],[0,0],[1]]","11","0","","","","","","4","","","","","","","","",""
"","","","","","single-stim-button","198","446694","0.0-2.0-43.5-0.5","5d26aaf4665b0a00174b8f03","E1","batch5","","2535","tol_tohand","","","","tol_peg_2","2535","2535","0","[[2,0,0],[0,0],[1]]","6","[[2,3,0],[0,0],[1]]","11","0","","","","","","4","","","","","","","","",""
"","","","","","single-stim-button","199","447517","0.0-2.0-43.5-1.5","5d26aaf4665b0a00174b8f03","E1","batch5","","823","tol_toboard","","","","tol_peg_1","823","823","0","[[2,3,0],[0,0],[1]]","6","[[2,3,0],[0,0],[1]]","11","0","","","","","","4","","","","","","","","",""
"","","","","","poldrack-single-stim","200","448522","0.0-2.0-44.0","5d26aaf4665b0a00174b8f03","E1","batch5","","-1","tol_feedback","","","true","","1000","1000","500","","","","","","-1","none","true","4085","11310","","","","","","","","","",""
"","","","","","html-button-response","201","449783","0.0-2.0-45.0","5d26aaf4665b0a00174b8f03","E1","batch5","","1259.300000011921","tol_trial_num","<div class = centerbox><p class = center-block-text>problem <strong>13</strong> out of 25 problems</p></div>","0","","","","","","","","","","","","","","","","","","","","","","","","",""
"","","","","","single-stim-button","202","454117","0.0-2.0-46.0-0.0","5d26aaf4665b0a00174b8f03","E1","batch5","","4333","tol_tohand","","","","tol_peg_2","4333","4333","0","[[1,2,0],[0,0],[0]]","1","[[0,0,0],[2,3],[1]]","12","0","","","","","","4","","","","","","","","",""
"","","","","","single-stim-button","203","455069","0.0-2.0-46.0-1.0","5d26aaf4665b0a00174b8f03","E1","batch5","","951","tol_toboard","","","","tol_peg_3","951","951","0","[[1,2,0],[0,0],[3]]","1","[[0,0,0],[2,3],[1]]","12","0","","","","","","4","","","","","","","","",""
"","","","","","single-stim-button","204","456182","0.0-2.0-46.1-0.1","5d26aaf4665b0a00174b8f03","E1","batch5","","1111","tol_tohand","","","","tol_peg_1","1111","1111","0","[[1,0,0],[0,0],[3]]","2","[[0,0,0],[2,3],[1]]","12","0","","","","","","4","","","","","","","","",""
"","","","","","single-stim-button","205","457046","0.0-2.0-46.1-1.1","5d26aaf4665b0a00174b8f03","E1","batch5","","863","tol_toboard","","","","tol_peg_2","863","863","0","[[1,0,0],[2,0],[3]]","2","[[0,0,0],[2,3],[1]]","12","0","","","","","","4","","","","","","","","",""
"","","","","","single-stim-button","206","457805","0.0-2.0-46.2-0.2","5d26aaf4665b0a00174b8f03","E1","batch5","","759","tol_tohand","","","","tol_peg_3","759","759","0","[[1,0,0],[2,0],[0]]","3","[[0,0,0],[2,3],[1]]","12","0","","","","","","4","","","","","","","","",""
"","","","","","single-stim-button","207","458709","0.0-2.0-46.2-1.2","5d26aaf4665b0a00174b8f03","E1","batch5","","902","tol_toboard","","","","tol_peg_2","902","902","0","[[1,0,0],[2,3],[0]]","3","[[0,0,0],[2,3],[1]]","12","0","","","","","","4","","","","","","","","",""
"","","","","","single-stim-button","208","459757","0.0-2.0-46.3-0.3","5d26aaf4665b0a00174b8f03","E1","batch5","","1048","tol_tohand","","","","tol_peg_1","1048","1048","0","[[0,0,0],[2,3],[0]]","4","[[0,0,0],[2,3],[1]]","12","0","","","","","","4","","","","","","","","",""
"","","","","","single-stim-button","209","460749","0.0-2.0-46.3-1.3","5d26aaf4665b0a00174b8f03","E1","batch5","","991","tol_toboard","","","","tol_peg_3","991","991","0","[[0,0,0],[2,3],[1]]","4","[[0,0,0],[2,3],[1]]","12","0","","","","","","4","","","","","","","","",""
"","","","","","poldrack-single-stim","210","461754","0.0-2.0-47.0","5d26aaf4665b0a00174b8f03","E1","batch5","","-1","tol_feedback","","","true","","1000","1000","500","","","","","","-1","none","true","4333","7251","","","","","","","","","",""
"","","","","","html-button-response","211","464414","0.0-2.0-48.0","5d26aaf4665b0a00174b8f03","E1","batch5","","2658.600000023842","attention_check","<p class = block-text>How many balls are in your board<br></p>","1","true","","","","","","","","","","","","","","","","","","","","","","","",""
"","","","","","html-button-response","212","465502","0.0-2.0-49.0","5d26aaf4665b0a00174b8f03","E1","batch5","","1085.800000011921","tol_trial_num","<div class = centerbox><p class = center-block-text>problem <strong>14</strong> out of 25 problems</p></div>","0","","","","","","","","","","","","","","","","","","","","","","","","",""
"","","","","","single-stim-button","213","470501","0.0-2.0-50.0-0.0","5d26aaf4665b0a00174b8f03","E1","batch5","","4998","tol_tohand","","","","tol_peg_2","4998","4998","0","[[2,1,0],[0,0],[0]]","1","[[1,2,0],[3,0],[0]]","13","0","","","","","","4","","","","","","","","",""
"","","","","","single-stim-button","214","471870","0.0-2.0-50.0-1.0","5d26aaf4665b0a00174b8f03","E1","batch5","","1367","tol_toboard","","","","tol_peg_3","1367","1367","0","[[2,1,0],[0,0],[3]]","1","[[1,2,0],[3,0],[0]]","13","0","","","","","","4","","","","","","","","",""
"","","","","","single-stim-button","215","472924","0.0-2.0-50.1-0.1","5d26aaf4665b0a00174b8f03","E1","batch5","","1054","tol_tohand","","","","tol_peg_1","1054","1054","0","[[2,0,0],[0,0],[3]]","2","[[1,2,0],[3,0],[0]]","13","0","","","","","","4","","","","","","","","",""
"","","","","","single-stim-button","216","473733","0.0-2.0-50.1-1.1","5d26aaf4665b0a00174b8f03","E1","batch5","","808","tol_toboard","","","","tol_peg_2","808","808","0","[[2,0,0],[1,0],[3]]","2","[[1,2,0],[3,0],[0]]","13","0","","","","","","4","","","","","","","","",""
"","","","","","single-stim-button","217","475774","0.0-2.0-50.2-0.2","5d26aaf4665b0a00174b8f03","E1","batch5","","2039","tol_tohand","","","","tol_peg_1","2039","2039","0","[[0,0,0],[1,0],[3]]","3","[[1,2,0],[3,0],[0]]","13","0","","","","","","4","","","","","","","","",""
"","","","","","single-stim-button","218","476374","0.0-2.0-50.2-1.2","5d26aaf4665b0a00174b8f03","E1","batch5","","599","tol_toboard","","","","tol_peg_1","599","599","0","[[2,0,0],[1,0],[3]]","3","[[1,2,0],[3,0],[0]]","13","0","","","","","","4","","","","","","","","",""
"","","","","","single-stim-button","219","477509","0.0-2.0-50.3-0.3","5d26aaf4665b0a00174b8f03","E1","batch5","","1135","tol_tohand","","","","tol_peg_3","1135","1135","0","[[2,0,0],[1,0],[0]]","4","[[1,2,0],[3,0],[0]]","13","0","","","","","","4","","","","","","","","",""
"","","","","","single-stim-button","220","479565","0.0-2.0-50.3-1.3","5d26aaf4665b0a00174b8f03","E1","batch5","","2054","tol_toboard","","","","tol_peg_2","2054","2054","0","[[2,0,0],[1,3],[0]]","4","[[1,2,0],[3,0],[0]]","13","0","","","","","","4","","","","","","","","",""
"","","","","","single-stim-button","221","480216","0.0-2.0-50.4-0.4","5d26aaf4665b0a00174b8f03","E1","batch5","","651","tol_tohand","","","","tol_peg_1","651","651","0","[[0,0,0],[1,3],[0]]","5","[[1,2,0],[3,0],[0]]","13","0","","","","","","4","","","","","","","","",""
"","","","","","single-stim-button","222","481167","0.0-2.0-50.4-1.4","5d26aaf4665b0a00174b8f03","E1","batch5","","949","tol_toboard","","","","tol_peg_3","949","949","0","[[0,0,0],[1,3],[2]]","5","[[1,2,0],[3,0],[0]]","13","0","","","","","","4","","","","","","","","",""
"","","","","","single-stim-button","223","482686","0.0-2.0-50.5-0.5","5d26aaf4665b0a00174b8f03","E1","batch5","","1519","tol_tohand","","","","tol_peg_2","1519","1519","0","[[0,0,0],[1,0],[2]]","6","[[1,2,0],[3,0],[0]]","13","0","","","","","","4","","","","","","","","",""
"","","","","","single-stim-button","224","484276","0.0-2.0-50.5-1.5","5d26aaf4665b0a00174b8f03","E1","batch5","","1589","tol_toboard","","","","tol_peg_1","1589","1589","0","[[3,0,0],[1,0],[2]]","6","[[1,2,0],[3,0],[0]]","13","0","","","","","","4","","","","","","","","",""
"","","","","","single-stim-button","225","487089","0.0-2.0-50.6-0.6","5d26aaf4665b0a00174b8f03","E1","batch5","","2811","tol_tohand","","","","tol_peg_2","2811","2811","0","[[3,0,0],[0,0],[2]]","7","[[1,2,0],[3,0],[0]]","13","0","","","","","","4","","","","","","","","",""
"","","","","","single-stim-button","226","487832","0.0-2.0-50.6-1.6","5d26aaf4665b0a00174b8f03","E1","batch5","","741","tol_toboard","","","","tol_peg_1","741","741","0","[[3,1,0],[0,0],[2]]","7","[[1,2,0],[3,0],[0]]","13","0","","","","","","4","","","","","","","","",""
"","","","","","single-stim-button","227","488871","0.0-2.0-50.7-0.7","5d26aaf4665b0a00174b8f03","E1","batch5","","1037","tol_tohand","","","","tol_peg_3","1037","1037","0","[[3,1,0],[0,0],[0]]","8","[[1,2,0],[3,0],[0]]","13","0","","","","","","4","","","","","","","","",""
"","","","","","single-stim-button","228","489822","0.0-2.0-50.7-1.7","5d26aaf4665b0a00174b8f03","E1","batch5","","950","tol_toboard","","","","tol_peg_2","950","950","0","[[3,1,0],[2,0],[0]]","8","[[1,2,0],[3,0],[0]]","13","0","","","","","","4","","","","","","","","",""
"","","","","","single-stim-button","229","490883","0.0-2.0-50.8-0.8","5d26aaf4665b0a00174b8f03","E1","batch5","","1060","tol_tohand","","","","tol_peg_1","1060","1060","0","[[3,0,0],[2,0],[0]]","9","[[1,2,0],[3,0],[0]]","13","0","","","","","","4","","","","","","","","",""
"","","","","","single-stim-button","230","491677","0.0-2.0-50.8-1.8","5d26aaf4665b0a00174b8f03","E1","batch5","","791","tol_toboard","","","","tol_peg_2","791","791","0","[[3,0,0],[2,1],[0]]","9","[[1,2,0],[3,0],[0]]","13","0","","","","","","4","","","","","","","","",""
"","","","","","single-stim-button","231","492575","0.0-2.0-50.9-0.9","5d26aaf4665b0a00174b8f03","E1","batch5","","896","tol_tohand","","","","tol_peg_1","896","896","0","[[0,0,0],[2,1],[0]]","10","[[1,2,0],[3,0],[0]]","13","0","","","","","","4","","","","","","","","",""
"","","","","","single-stim-button","232","493824","0.0-2.0-50.9-1.9","5d26aaf4665b0a00174b8f03","E1","batch5","","1248","tol_toboard","","","","tol_peg_3","1248","1248","0","[[0,0,0],[2,1],[3]]","10","[[1,2,0],[3,0],[0]]","13","0","","","","","","4","","","","","","","","",""
"","","","","","single-stim-button","233","494892","0.0-2.0-50.10-0.10","5d26aaf4665b0a00174b8f03","E1","batch5","","1067","tol_tohand","","","","tol_peg_2","1067","1067","0","[[0,0,0],[2,0],[3]]","11","[[1,2,0],[3,0],[0]]","13","0","","","","","","4","","","","","","","","",""
"","","","","","single-stim-button","234","495843","0.0-2.0-50.10-1.10","5d26aaf4665b0a00174b8f03","E1","batch5","","950","tol_toboard","","","","tol_peg_1","950","950","0","[[1,0,0],[2,0],[3]]","11","[[1,2,0],[3,0],[0]]","13","0","","","","","","4","","","","","","","","",""
"","","","","","single-stim-button","235","496516","0.0-2.0-50.11-0.11","5d26aaf4665b0a00174b8f03","E1","batch5","","672","tol_tohand","","","","tol_peg_2","672","672","0","[[1,0,0],[0,0],[3]]","12","[[1,2,0],[3,0],[0]]","13","0","","","","","","4","","","","","","","","",""
"","","","","","single-stim-button","236","497378","0.0-2.0-50.11-1.11","5d26aaf4665b0a00174b8f03","E1","batch5","","861","tol_toboard","","","","tol_peg_1","861","861","0","[[1,2,0],[0,0],[3]]","12","[[1,2,0],[3,0],[0]]","13","0","","","","","","4","","","","","","","","",""
"","","","","","single-stim-button","237","498694","0.0-2.0-50.12-0.12","5d26aaf4665b0a00174b8f03","E1","batch5","","1315","tol_tohand","","","","tol_peg_3","1315","1315","0","[[1,2,0],[0,0],[0]]","13","[[1,2,0],[3,0],[0]]","13","0","","","","","","4","","","","","","","","",""
"","","","","","single-stim-button","238","499612","0.0-2.0-50.12-1.12","5d26aaf4665b0a00174b8f03","E1","batch5","","917","tol_toboard","","","","tol_peg_2","917","917","0","[[1,2,0],[3,0],[0]]","13","[[1,2,0],[3,0],[0]]","13","0","","","","","","4","","","","","","","","",""
"","","","","","poldrack-single-stim","239","500617","0.0-2.0-51.0","5d26aaf4665b0a00174b8f03","E1","batch5","","-1","tol_feedback","","","true","","1000","1000","500","","","","","","-1","none","true","4998","20254","","","","","","","","","",""
"","","","","","html-button-response","240","501840","0.0-2.0-52.0","5d26aaf4665b0a00174b8f03","E1","batch5","","1222.0999999940395","tol_trial_num","<div class = centerbox><p class = center-block-text>problem <strong>15</strong> out of 25 problems</p></div>","0","","","","","","","","","","","","","","","","","","","","","","","","",""
"","","","","","single-stim-button","241","504703","0.0-2.0-53.0-0.0","5d26aaf4665b0a00174b8f03","E1","batch5","","2861","tol_tohand","","","","tol_peg_1","2861","2861","0","[[1,0,0],[3,0],[0]]","1","[[2,0,0],[3,0],[1]]","14","0","","","","","","3","","","","","","","","",""
"","","","","","single-stim-button","242","505397","0.0-2.0-53.0-1.0","5d26aaf4665b0a00174b8f03","E1","batch5","","693","tol_toboard","","","","tol_peg_2","693","693","0","[[1,0,0],[3,2],[0]]","1","[[2,0,0],[3,0],[1]]","14","0","","","","","","3","","","","","","","","",""
"","","","","","single-stim-button","243","506278","0.0-2.0-53.1-0.1","5d26aaf4665b0a00174b8f03","E1","batch5","","879","tol_tohand","","","","tol_peg_1","879","879","0","[[0,0,0],[3,2],[0]]","2","[[2,0,0],[3,0],[1]]","14","0","","","","","","3","","","","","","","","",""
"","","","","","single-stim-button","244","507349","0.0-2.0-53.1-1.1","5d26aaf4665b0a00174b8f03","E1","batch5","","1070","tol_toboard","","","","tol_peg_3","1070","1070","0","[[0,0,0],[3,2],[1]]","2","[[2,0,0],[3,0],[1]]","14","0","","","","","","3","","","","","","","","",""
"","","","","","single-stim-button","245","508301","0.0-2.0-53.2-0.2","5d26aaf4665b0a00174b8f03","E1","batch5","","951","tol_tohand","","","","tol_peg_2","951","951","0","[[0,0,0],[3,0],[1]]","3","[[2,0,0],[3,0],[1]]","14","0","","","","","","3","","","","","","","","",""
"","","","","","single-stim-button","246","509476","0.0-2.0-53.2-1.2","5d26aaf4665b0a00174b8f03","E1","batch5","","1175","tol_toboard","","","","tol_peg_1","1175","1175","0","[[2,0,0],[3,0],[1]]","3","[[2,0,0],[3,0],[1]]","14","0","","","","","","3","","","","","","","","",""
"","","","","","poldrack-single-stim","247","510482","0.0-2.0-54.0","5d26aaf4665b0a00174b8f03","E1","batch5","","-1","tol_feedback","","","true","","1000","1000","500","","","","","","-1","none","true","2861","4691","","","","","","","","","",""
"","","","","","html-button-response","248","511942","0.0-2.0-55.0","5d26aaf4665b0a00174b8f03","E1","batch5","","1458.199999988079","tol_trial_num","<div class = centerbox><p class = center-block-text>problem <strong>16</strong> out of 25 problems</p></div>","0","","","","","","","","","","","","","","","","","","","","","","","","",""
"","","","","","single-stim-button","249","515510","0.0-2.0-56.0-0.0","5d26aaf4665b0a00174b8f03","E1","batch5","","3566","tol_tohand","","","","tol_peg_3","3566","3566","0","[[0,0,0],[2,3],[0]]","1","[[2,3,0],[1,0],[0]]","15","0","","","","","","7","","","","","","","","",""
"","","","","","single-stim-button","250","516957","0.0-2.0-56.0-1.0","5d26aaf4665b0a00174b8f03","E1","batch5","","1447","tol_toboard","","","","tol_peg_1","1447","1447","0","[[1,0,0],[2,3],[0]]","1","[[2,3,0],[1,0],[0]]","15","0","","","","","","7","","","","","","","","",""
"","","","","","single-stim-button","251","517926","0.0-2.0-56.1-0.1","5d26aaf4665b0a00174b8f03","E1","batch5","","966","tol_tohand","","","","tol_peg_2","966","966","0","[[1,0,0],[2,0],[0]]","2","[[2,3,0],[1,0],[0]]","15","0","","","","","","7","","","","","","","","",""
"","","","","","single-stim-button","252","519069","0.0-2.0-56.1-1.1","5d26aaf4665b0a00174b8f03","E1","batch5","","1143","tol_toboard","","","","tol_peg_3","1143","1143","0","[[1,0,0],[2,0],[3]]","2","[[2,3,0],[1,0],[0]]","15","0","","","","","","7","","","","","","","","",""
"","","","","","single-stim-button","253","520317","0.0-2.0-56.2-0.2","5d26aaf4665b0a00174b8f03","E1","batch5","","1247","tol_tohand","","","","tol_peg_1","1247","1247","0","[[0,0,0],[2,0],[3]]","3","[[2,3,0],[1,0],[0]]","15","0","","","","","","7","","","","","","","","",""
"","","","","","single-stim-button","254","521573","0.0-2.0-56.2-1.2","5d26aaf4665b0a00174b8f03","E1","batch5","","1255","tol_toboard","","","","tol_peg_2","1255","1255","0","[[0,0,0],[2,1],[3]]","3","[[2,3,0],[1,0],[0]]","15","0","","","","","","7","","","","","","","","",""
"","","","","","single-stim-button","255","522613","0.0-2.0-56.3-0.3","5d26aaf4665b0a00174b8f03","E1","batch5","","1038","tol_tohand","","","","tol_peg_3","1038","1038","0","[[0,0,0],[2,1],[0]]","4","[[2,3,0],[1,0],[0]]","15","0","","","","","","7","","","","","","","","",""
"","","","","","single-stim-button","256","524037","0.0-2.0-56.3-1.3","5d26aaf4665b0a00174b8f03","E1","batch5","","1424","tol_toboard","","","","tol_peg_1","1424","1424","0","[[3,0,0],[2,1],[0]]","4","[[2,3,0],[1,0],[0]]","15","0","","","","","","7","","","","","","","","",""
"","","","","","single-stim-button","257","525110","0.0-2.0-56.4-0.4","5d26aaf4665b0a00174b8f03","E1","batch5","","1071","tol_tohand","","","","tol_peg_2","1071","1071","0","[[3,0,0],[2,0],[0]]","5","[[2,3,0],[1,0],[0]]","15","0","","","","","","7","","","","","","","","",""
"","","","","","single-stim-button","258","526079","0.0-2.0-56.4-1.4","5d26aaf4665b0a00174b8f03","E1","batch5","","968","tol_toboard","","","","tol_peg_3","968","968","0","[[3,0,0],[2,0],[1]]","5","[[2,3,0],[1,0],[0]]","15","0","","","","","","7","","","","","","","","",""
"","","","","","single-stim-button","259","527158","0.0-2.0-56.5-0.5","5d26aaf4665b0a00174b8f03","E1","batch5","","1077","tol_tohand","","","","tol_peg_2","1077","1077","0","[[3,0,0],[0,0],[1]]","6","[[2,3,0],[1,0],[0]]","15","0","","","","","","7","","","","","","","","",""
"","","","","","single-stim-button","260","528685","0.0-2.0-56.5-1.5","5d26aaf4665b0a00174b8f03","E1","batch5","","1525","tol_toboard","","","","tol_peg_1","1525","1525","0","[[3,2,0],[0,0],[1]]","6","[[2,3,0],[1,0],[0]]","15","0","","","","","","7","","","","","","","","",""
"","","","","","single-stim-button","261","529558","0.0-2.0-56.6-0.6","5d26aaf4665b0a00174b8f03","E1","batch5","","872","tol_tohand","","","","tol_peg_1","872","872","0","[[3,0,0],[0,0],[1]]","7","[[2,3,0],[1,0],[0]]","15","0","","","","","","7","","","","","","","","",""
"","","","","","single-stim-button","262","530606","0.0-2.0-56.6-1.6","5d26aaf4665b0a00174b8f03","E1","batch5","","1045","tol_toboard","","","","tol_peg_2","1045","1045","0","[[3,0,0],[2,0],[1]]","7","[[2,3,0],[1,0],[0]]","15","0","","","","","","7","","","","","","","","",""
"","","","","","single-stim-button","263","531599","0.0-2.0-56.7-0.7","5d26aaf4665b0a00174b8f03","E1","batch5","","992","tol_tohand","","","","tol_peg_1","992","992","0","[[0,0,0],[2,0],[1]]","8","[[2,3,0],[1,0],[0]]","15","0","","","","","","7","","","","","","","","",""
"","","","","","single-stim-button","264","532805","0.0-2.0-56.7-1.7","5d26aaf4665b0a00174b8f03","E1","batch5","","1205","tol_toboard","","","","tol_peg_2","1205","1205","0","[[0,0,0],[2,3],[1]]","8","[[2,3,0],[1,0],[0]]","15","0","","","","","","7","","","","","","","","",""
"","","","","","single-stim-button","265","535022","0.0-2.0-56.8-0.8","5d26aaf4665b0a00174b8f03","E1","batch5","","2215","tol_tohand","","","","tol_peg_3","2215","2215","0","[[0,0,0],[2,3],[0]]","9","[[2,3,0],[1,0],[0]]","15","0","","","","","","7","","","","","","","","",""
"","","","","","single-stim-button","266","535934","0.0-2.0-56.8-1.8","5d26aaf4665b0a00174b8f03","E1","batch5","","911","tol_toboard","","","","tol_peg_1","911","911","0","[[1,0,0],[2,3],[0]]","9","[[2,3,0],[1,0],[0]]","15","0","","","","","","7","","","","","","","","",""
"","","","","","single-stim-button","267","536814","0.0-2.0-56.9-0.9","5d26aaf4665b0a00174b8f03","E1","batch5","","879","tol_tohand","","","","tol_peg_2","879","879","0","[[1,0,0],[2,0],[0]]","10","[[2,3,0],[1,0],[0]]","15","0","","","","","","7","","","","","","","","",""
"","","","","","single-stim-button","268","538333","0.0-2.0-56.9-1.9","5d26aaf4665b0a00174b8f03","E1","batch5","","1514","tol_toboard","","","","tol_peg_3","1514","1514","0","[[1,0,0],[2,0],[3]]","10","[[2,3,0],[1,0],[0]]","15","0","","","","","","7","","","","","","","","",""
"","","","","","single-stim-button","269","541421","0.0-2.0-56.10-0.10","5d26aaf4665b0a00174b8f03","E1","batch5","","3087","tol_tohand","","","","tol_peg_2","3087","3087","0","[[1,0,0],[0,0],[3]]","11","[[2,3,0],[1,0],[0]]","15","0","","","","","","7","","","","","","","","",""
"","","","","","single-stim-button","270","542429","0.0-2.0-56.10-1.10","5d26aaf4665b0a00174b8f03","E1","batch5","","1008","tol_toboard","","","","tol_peg_1","1008","1008","0","[[1,2,0],[0,0],[3]]","11","[[2,3,0],[1,0],[0]]","15","0","","","","","","7","","","","","","","","",""
"","","","","","single-stim-button","271","543230","0.0-2.0-56.11-0.11","5d26aaf4665b0a00174b8f03","E1","batch5","","799","tol_tohand","","","","tol_peg_1","799","799","0","[[1,0,0],[0,0],[3]]","12","[[2,3,0],[1,0],[0]]","15","0","","","","","","7","","","","","","","","",""
"","","","","","single-stim-button","272","543646","0.0-2.0-56.11-1.11","5d26aaf4665b0a00174b8f03","E1","batch5","","416","tol_toboard","","","","tol_peg_1","416","416","0","[[1,2,0],[0,0],[3]]","12","[[2,3,0],[1,0],[0]]","15","0","","","","","","7","","","","","","","","",""
"","","","","","single-stim-button","273","546117","0.0-2.0-56.12-0.12","5d26aaf4665b0a00174b8f03","E1","batch5","","2470","tol_tohand","","","","tol_peg_1","2470","2470","0","[[1,0,0],[0,0],[3]]","13","[[2,3,0],[1,0],[0]]","15","0","","","","","","7","","","","","","","","",""
"","","","","","single-stim-button","274","547484","0.0-2.0-56.12-1.12","5d26aaf4665b0a00174b8f03","E1","batch5","","1366","tol_toboard","","","","tol_peg_2","1366","1366","0","[[1,0,0],[2,0],[3]]","13","[[2,3,0],[1,0],[0]]","15","0","","","","","","7","","","","","","","","",""
"","","","","","single-stim-button","275","548672","0.0-2.0-56.13-0.13","5d26aaf4665b0a00174b8f03","E1","batch5","","1187","tol_tohand","","","","tol_peg_1","1187","1187","0","[[0,0,0],[2,0],[3]]","14","[[2,3,0],[1,0],[0]]","15","0","","","","","","7","","","","","","","","",""
"","","","","","single-stim-button","276","549445","0.0-2.0-56.13-1.13","5d26aaf4665b0a00174b8f03","E1","batch5","","772","tol_toboard","","","","tol_peg_2","772","772","0","[[0,0,0],[2,1],[3]]","14","[[2,3,0],[1,0],[0]]","15","0","","","","","","7","","","","","","","","",""
"","","","","","single-stim-button","277","550237","0.0-2.0-56.14-0.14","5d26aaf4665b0a00174b8f03","E1","batch5","","790","tol_tohand","","","","tol_peg_3","790","790","0","[[0,0,0],[2,1],[0]]","15","[[2,3,0],[1,0],[0]]","15","0","","","","","","7","","","","","","","","",""
"","","","","","single-stim-button","278","551664","0.0-2.0-56.14-1.14","5d26aaf4665b0a00174b8f03","E1","batch5","","1426","tol_toboard","","","","tol_peg_1","1426","1426","0","[[3,0,0],[2,1],[0]]","15","[[2,3,0],[1,0],[0]]","15","0","","","","","","7","","","","","","","","",""
"","","","","","single-stim-button","279","552693","0.0-2.0-56.15-0.15","5d26aaf4665b0a00174b8f03","E1","batch5","","1028","tol_tohand","","","","tol_peg_2","1028","1028","0","[[3,0,0],[2,0],[0]]","16","[[2,3,0],[1,0],[0]]","15","0","","","","","","7","","","","","","","","",""
"","","","","","single-stim-button","280","554585","0.0-2.0-56.15-1.15","5d26aaf4665b0a00174b8f03","E1","batch5","","1890","tol_toboard","","","","tol_peg_1","1890","1890","0","[[3,1,0],[2,0],[0]]","16","[[2,3,0],[1,0],[0]]","15","0","","","","","","7","","","","","","","","",""
"","","","","","single-stim-button","281","555585","0.0-2.0-56.16-0.16","5d26aaf4665b0a00174b8f03","E1","batch5","","988","tol_tohand","","","","tol_peg_2","988","988","0","[[3,1,0],[0,0],[0]]","17","[[2,3,0],[1,0],[0]]","15","0","","","","","","7","","","","","","","","",""
"","","","","","single-stim-button","282","556367","0.0-2.0-56.16-1.16","5d26aaf4665b0a00174b8f03","E1","batch5","","780","tol_toboard","","","","tol_peg_3","780","780","0","[[3,1,0],[0,0],[2]]","17","[[2,3,0],[1,0],[0]]","15","0","","","","","","7","","","","","","","","",""
"","","","","","single-stim-button","283","557764","0.0-2.0-56.17-0.17","5d26aaf4665b0a00174b8f03","E1","batch5","","1395","tol_tohand","","","","tol_peg_1","1395","1395","0","[[3,0,0],[0,0],[2]]","18","[[2,3,0],[1,0],[0]]","15","0","","","","","","7","","","","","","","","",""
"","","","","","single-stim-button","284","558655","0.0-2.0-56.17-1.17","5d26aaf4665b0a00174b8f03","E1","batch5","","890","tol_toboard","","","","tol_peg_2","890","890","0","[[3,0,0],[1,0],[2]]","18","[[2,3,0],[1,0],[0]]","15","0","","","","","","7","","","","","","","","",""
"","","","","","single-stim-button","285","559417","0.0-2.0-56.18-0.18","5d26aaf4665b0a00174b8f03","E1","batch5","","761","tol_tohand","","","","tol_peg_1","761","761","0","[[0,0,0],[1,0],[2]]","19","[[2,3,0],[1,0],[0]]","15","0","","","","","","7","","","","","","","","",""
"","","","","","single-stim-button","286","560179","0.0-2.0-56.18-1.18","5d26aaf4665b0a00174b8f03","E1","batch5","","762","tol_toboard","","","","tol_peg_2","762","762","0","[[0,0,0],[1,3],[2]]","19","[[2,3,0],[1,0],[0]]","15","0","","","","","","7","","","","","","","","",""
"","","","","","single-stim-button","287","560844","0.0-2.0-56.19-0.19","5d26aaf4665b0a00174b8f03","E1","batch5","","663","tol_tohand","","","","tol_peg_3","663","663","0","[[0,0,0],[1,3],[0]]","20","[[2,3,0],[1,0],[0]]","15","0","","","","","","7","","","","","","","","",""
"","","","","","single-stim-button","288","561645","0.0-2.0-56.19-1.19","5d26aaf4665b0a00174b8f03","E1","batch5","","800","tol_toboard","","","","tol_peg_1","800","800","0","[[2,0,0],[1,3],[0]]","20","[[2,3,0],[1,0],[0]]","15","0","","","","","","7","","","","","","","","",""
"","","","","","single-stim-button","289","562684","0.0-2.0-56.20-0.20","5d26aaf4665b0a00174b8f03","E1","batch5","","1038","tol_tohand","","","","tol_peg_2","1038","1038","0","[[2,0,0],[1,0],[0]]","21","[[2,3,0],[1,0],[0]]","15","0","","","","","","7","","","","","","","","",""
"","","","","","single-stim-button","290","563428","0.0-2.0-56.20-1.20","5d26aaf4665b0a00174b8f03","E1","batch5","","742","tol_toboard","","","","tol_peg_1","742","742","0","[[2,3,0],[1,0],[0]]","21","[[2,3,0],[1,0],[0]]","15","0","","","","","","7","","","","","","","","",""
"","","","","","poldrack-single-stim","291","564434","0.0-2.0-57.0","5d26aaf4665b0a00174b8f03","E1","batch5","","-1","tol_feedback","","","true","","1000","1000","500","","","","","","-1","none","true","3566","28129","","","","","","","","","",""
"","","","","","html-button-response","292","565268","0.0-2.0-58.0","5d26aaf4665b0a00174b8f03","E1","batch5","","832.5","tol_trial_num","<div class = centerbox><p class = center-block-text>problem <strong>17</strong> out of 25 problems</p></div>","0","","","","","","","","","","","","","","","","","","","","","","","","",""
"","","","","","single-stim-button","293","571308","0.0-2.0-59.0-0.0","5d26aaf4665b0a00174b8f03","E1","batch5","","6037","tol_tohand","","","","tol_peg_2","6037","6037","0","[[1,2,0],[0,0],[0]]","1","[[3,1,0],[2,0],[0]]","16","0","","","","","","5","","","","","","","","",""
"","","","","","single-stim-button","294","572001","0.0-2.0-59.0-1.0","5d26aaf4665b0a00174b8f03","E1","batch5","","692","tol_toboard","","","","tol_peg_3","692","692","0","[[1,2,0],[0,0],[3]]","1","[[3,1,0],[2,0],[0]]","16","0","","","","","","5","","","","","","","","",""
"","","","","","single-stim-button","295","572813","0.0-2.0-59.1-0.1","5d26aaf4665b0a00174b8f03","E1","batch5","","805","tol_tohand","","","","tol_peg_1","805","805","0","[[1,0,0],[0,0],[3]]","2","[[3,1,0],[2,0],[0]]","16","0","","","","","","5","","","","","","","","",""
"","","","","","single-stim-button","296","573803","0.0-2.0-59.1-1.1","5d26aaf4665b0a00174b8f03","E1","batch5","","989","tol_toboard","","","","tol_peg_2","989","989","0","[[1,0,0],[2,0],[3]]","2","[[3,1,0],[2,0],[0]]","16","0","","","","","","5","","","","","","","","",""
"","","","","","single-stim-button","297","574685","0.0-2.0-59.2-0.2","5d26aaf4665b0a00174b8f03","E1","batch5","","880","tol_tohand","","","","tol_peg_1","880","880","0","[[0,0,0],[2,0],[3]]","3","[[3,1,0],[2,0],[0]]","16","0","","","","","","5","","","","","","","","",""
"","","","","","single-stim-button","298","575476","0.0-2.0-59.2-1.2","5d26aaf4665b0a00174b8f03","E1","batch5","","791","tol_toboard","","","","tol_peg_2","791","791","0","[[0,0,0],[2,1],[3]]","3","[[3,1,0],[2,0],[0]]","16","0","","","","","","5","","","","","","","","",""
"","","","","","single-stim-button","299","576149","0.0-2.0-59.3-0.3","5d26aaf4665b0a00174b8f03","E1","batch5","","672","tol_tohand","","","","tol_peg_3","672","672","0","[[0,0,0],[2,1],[0]]","4","[[3,1,0],[2,0],[0]]","16","0","","","","","","5","","","","","","","","",""
"","","","","","single-stim-button","300","577149","0.0-2.0-59.3-1.3","5d26aaf4665b0a00174b8f03","E1","batch5","","999","tol_toboard","","","","tol_peg_1","999","999","0","[[3,0,0],[2,1],[0]]","4","[[3,1,0],[2,0],[0]]","16","0","","","","","","5","","","","","","","","",""
"","","","","","single-stim-button","301","577882","0.0-2.0-59.4-0.4","5d26aaf4665b0a00174b8f03","E1","batch5","","732","tol_tohand","","","","tol_peg_2","732","732","0","[[3,0,0],[2,0],[0]]","5","[[3,1,0],[2,0],[0]]","16","0","","","","","","5","","","","","","","","",""
"","","","","","single-stim-button","302","578764","0.0-2.0-59.4-1.4","5d26aaf4665b0a00174b8f03","E1","batch5","","880","tol_toboard","","","","tol_peg_1","880","880","0","[[3,1,0],[2,0],[0]]","5","[[3,1,0],[2,0],[0]]","16","0","","","","","","5","","","","","","","","",""
"","","","","","poldrack-single-stim","303","579770","0.0-2.0-60.0","5d26aaf4665b0a00174b8f03","E1","batch5","","-1","tol_feedback","","","true","","1000","1000","500","","","","","","-1","none","true","6037","9126","","","","","","","","","",""
"","","","","","html-button-response","304","580981","0.0-2.0-61.0","5d26aaf4665b0a00174b8f03","E1","batch5","","1209.3999999761581","tol_trial_num","<div class = centerbox><p class = center-block-text>problem <strong>18</strong> out of 25 problems</p></div>","0","","","","","","","","","","","","","","","","","","","","","","","","",""
"","","","","","single-stim-button","305","585080","0.0-2.0-62.0-0.0","5d26aaf4665b0a00174b8f03","E1","batch5","","4097","tol_tohand","","","","tol_peg_2","4097","4097","0","[[1,2,0],[0,0],[0]]","1","[[3,0,0],[2,0],[1]]","17","0","","","","","","5","","","","","","","","",""
"","","","","","single-stim-button","306","586040","0.0-2.0-62.0-1.0","5d26aaf4665b0a00174b8f03","E1","batch5","","959","tol_toboard","","","","tol_peg_3","959","959","0","[[1,2,0],[0,0],[3]]","1","[[3,0,0],[2,0],[1]]","17","0","","","","","","5","","","","","","","","",""
"","","","","","single-stim-button","307","586961","0.0-2.0-62.1-0.1","5d26aaf4665b0a00174b8f03","E1","batch5","","920","tol_tohand","","","","tol_peg_1","920","920","0","[[1,0,0],[0,0],[3]]","2","[[3,0,0],[2,0],[1]]","17","0","","","","","","5","","","","","","","","",""
"","","","","","single-stim-button","308","588021","0.0-2.0-62.1-1.1","5d26aaf4665b0a00174b8f03","E1","batch5","","1058","tol_toboard","","","","tol_peg_2","1058","1058","0","[[1,0,0],[2,0],[3]]","2","[[3,0,0],[2,0],[1]]","17","0","","","","","","5","","","","","","","","",""
"","","","","","single-stim-button","309","588714","0.0-2.0-62.2-0.2","5d26aaf4665b0a00174b8f03","E1","batch5","","692","tol_tohand","","","","tol_peg_1","692","692","0","[[0,0,0],[2,0],[3]]","3","[[3,0,0],[2,0],[1]]","17","0","","","","","","5","","","","","","","","",""
"","","","","","single-stim-button","310","589427","0.0-2.0-62.2-1.2","5d26aaf4665b0a00174b8f03","E1","batch5","","712","tol_toboard","","","","tol_peg_2","712","712","0","[[0,0,0],[2,1],[3]]","3","[[3,0,0],[2,0],[1]]","17","0","","","","","","5","","","","","","","","",""
"","","","","","single-stim-button","311","590100","0.0-2.0-62.3-0.3","5d26aaf4665b0a00174b8f03","E1","batch5","","672","tol_tohand","","","","tol_peg_3","672","672","0","[[0,0,0],[2,1],[0]]","4","[[3,0,0],[2,0],[1]]","17","0","","","","","","5","","","","","","","","",""
"","","","","","single-stim-button","312","591466","0.0-2.0-62.3-1.3","5d26aaf4665b0a00174b8f03","E1","batch5","","1366","tol_toboard","","","","tol_peg_1","1366","1366","0","[[3,0,0],[2,1],[0]]","4","[[3,0,0],[2,0],[1]]","17","0","","","","","","5","","","","","","","","",""
"","","","","","single-stim-button","313","592743","0.0-2.0-62.4-0.4","5d26aaf4665b0a00174b8f03","E1","batch5","","1276","tol_tohand","","","","tol_peg_2","1276","1276","0","[[3,0,0],[2,0],[0]]","5","[[3,0,0],[2,0],[1]]","17","0","","","","","","5","","","","","","","","",""
"","","","","","single-stim-button","314","593675","0.0-2.0-62.4-1.4","5d26aaf4665b0a00174b8f03","E1","batch5","","930","tol_toboard","","","","tol_peg_3","930","930","0","[[3,0,0],[2,0],[1]]","5","[[3,0,0],[2,0],[1]]","17","0","","","","","","5","","","","","","","","",""
"","","","","","poldrack-single-stim","315","594682","0.0-2.0-63.0","5d26aaf4665b0a00174b8f03","E1","batch5","","-1","tol_feedback","","","true","","1000","1000","500","","","","","","-1","none","true","4097","7657","","","","","","","","","",""
"","","","","","html-button-response","316","595685","0.0-2.0-64.0","5d26aaf4665b0a00174b8f03","E1","batch5","","1000.8000000119209","tol_trial_num","<div class = centerbox><p class = center-block-text>problem <strong>19</strong> out of 25 problems</p></div>","0","","","","","","","","","","","","","","","","","","","","","","","","",""
"","","","","","single-stim-button","317","599229","0.0-2.0-65.0-0.0","5d26aaf4665b0a00174b8f03","E1","batch5","","3542","tol_tohand","","","","tol_peg_1","3542","3542","0","[[1,0,0],[3,0],[0]]","1","[[0,0,0],[1,2],[3]]","18","0","","","","","","7","","","","","","","","",""
"","","","","","single-stim-button","318","600022","0.0-2.0-65.0-1.0","5d26aaf4665b0a00174b8f03","E1","batch5","","791","tol_toboard","","","","tol_peg_2","791","791","0","[[1,0,0],[3,2],[0]]","1","[[0,0,0],[1,2],[3]]","18","0","","","","","","7","","","","","","","","",""
"","","","","","single-stim-button","319","601150","0.0-2.0-65.1-0.1","5d26aaf4665b0a00174b8f03","E1","batch5","","1126","tol_tohand","","","","tol_peg_1","1126","1126","0","[[0,0,0],[3,2],[0]]","2","[[0,0,0],[1,2],[3]]","18","0","","","","","","7","","","","","","","","",""
"","","","","","single-stim-button","320","602060","0.0-2.0-65.1-1.1","5d26aaf4665b0a00174b8f03","E1","batch5","","910","tol_toboard","","","","tol_peg_3","910","910","0","[[0,0,0],[3,2],[1]]","2","[[0,0,0],[1,2],[3]]","18","0","","","","","","7","","","","","","","","",""
"","","","","","single-stim-button","321","603477","0.0-2.0-65.2-0.2","5d26aaf4665b0a00174b8f03","E1","batch5","","1415","tol_tohand","","","","tol_peg_2","1415","1415","0","[[0,0,0],[3,0],[1]]","3","[[0,0,0],[1,2],[3]]","18","0","","","","","","7","","","","","","","","",""
"","","","","","single-stim-button","322","604476","0.0-2.0-65.2-1.2","5d26aaf4665b0a00174b8f03","E1","batch5","","999","tol_toboard","","","","tol_peg_1","999","999","0","[[2,0,0],[3,0],[1]]","3","[[0,0,0],[1,2],[3]]","18","0","","","","","","7","","","","","","","","",""
"","","","","","single-stim-button","323","605169","0.0-2.0-65.3-0.3","5d26aaf4665b0a00174b8f03","E1","batch5","","692","tol_tohand","","","","tol_peg_2","692","692","0","[[2,0,0],[0,0],[1]]","4","[[0,0,0],[1,2],[3]]","18","0","","","","","","7","","","","","","","","",""
"","","","","","single-stim-button","324","606003","0.0-2.0-65.3-1.3","5d26aaf4665b0a00174b8f03","E1","batch5","","832","tol_toboard","","","","tol_peg_1","832","832","0","[[2,3,0],[0,0],[1]]","4","[[0,0,0],[1,2],[3]]","18","0","","","","","","7","","","","","","","","",""
"","","","","","single-stim-button","325","606754","0.0-2.0-65.4-0.4","5d26aaf4665b0a00174b8f03","E1","batch5","","750","tol_tohand","","","","tol_peg_3","750","750","0","[[2,3,0],[0,0],[0]]","5","[[0,0,0],[1,2],[3]]","18","0","","","","","","7","","","","","","","","",""
"","","","","","single-stim-button","326","607477","0.0-2.0-65.4-1.4","5d26aaf4665b0a00174b8f03","E1","batch5","","722","tol_toboard","","","","tol_peg_2","722","722","0","[[2,3,0],[1,0],[0]]","5","[[0,0,0],[1,2],[3]]","18","0","","","","","","7","","","","","","","","",""
"","","","","","single-stim-button","327","608220","0.0-2.0-65.5-0.5","5d26aaf4665b0a00174b8f03","E1","batch5","","741","tol_tohand","","","","tol_peg_1","741","741","0","[[2,0,0],[1,0],[0]]","6","[[0,0,0],[1,2],[3]]","18","0","","","","","","7","","","","","","","","",""
"","","","","","single-stim-button","328","609250","0.0-2.0-65.5-1.5","5d26aaf4665b0a00174b8f03","E1","batch5","","1029","tol_toboard","","","","tol_peg_3","1029","1029","0","[[2,0,0],[1,0],[3]]","6","[[0,0,0],[1,2],[3]]","18","0","","","","","","7","","","","","","","","",""
"","","","","","single-stim-button","329","610620","0.0-2.0-65.6-0.6","5d26aaf4665b0a00174b8f03","E1","batch5","","1369","tol_tohand","","","","tol_peg_1","1369","1369","0","[[0,0,0],[1,0],[3]]","7","[[0,0,0],[1,2],[3]]","18","0","","","","","","7","","","","","","","","",""
"","","","","","single-stim-button","330","611616","0.0-2.0-65.6-1.6","5d26aaf4665b0a00174b8f03","E1","batch5","","995","tol_toboard","","","","tol_peg_2","995","995","0","[[0,0,0],[1,2],[3]]","7","[[0,0,0],[1,2],[3]]","18","0","","","","","","7","","","","","","","","",""
"","","","","","poldrack-single-stim","331","612618","0.0-2.0-66.0","5d26aaf4665b0a00174b8f03","E1","batch5","","-1","tol_feedback","","","true","","1000","1000","500","","","","","","-1","none","true","3542","9635","","","","","","","","","",""
"","","","","","html-button-response","332","613408","0.0-2.0-67.0","5d26aaf4665b0a00174b8f03","E1","batch5","","788.8000000119209","tol_trial_num","<div class = centerbox><p class = center-block-text>problem <strong>20</strong> out of 25 problems</p></div>","0","","","","","","","","","","","","","","","","","","","","","","","","",""
"","","","","","single-stim-button","333","616201","0.0-2.0-68.0-0.0","5d26aaf4665b0a00174b8f03","E1","batch5","","2791","tol_tohand","","","","tol_peg_1","2791","2791","0","[[1,0,0],[3,0],[0]]","1","[[2,1,0],[0,0],[3]]","19","0","","","","","","5","","","","","","","","",""
"","","","","","single-stim-button","334","617330","0.0-2.0-68.0-1.0","5d26aaf4665b0a00174b8f03","E1","batch5","","1127","tol_toboard","","","","tol_peg_3","1127","1127","0","[[1,0,0],[3,0],[2]]","1","[[2,1,0],[0,0],[3]]","19","0","","","","","","5","","","","","","","","",""
"","","","","","single-stim-button","335","619152","0.0-2.0-68.1-0.1","5d26aaf4665b0a00174b8f03","E1","batch5","","1821","tol_tohand","","","","tol_peg_1","1821","1821","0","[[0,0,0],[3,0],[2]]","2","[[2,1,0],[0,0],[3]]","19","0","","","","","","5","","","","","","","","",""
"","","","","","single-stim-button","336","620052","0.0-2.0-68.1-1.1","5d26aaf4665b0a00174b8f03","E1","batch5","","899","tol_toboard","","","","tol_peg_2","899","899","0","[[0,0,0],[3,1],[2]]","2","[[2,1,0],[0,0],[3]]","19","0","","","","","","5","","","","","","","","",""
"","","","","","single-stim-button","337","621004","0.0-2.0-68.2-0.2","5d26aaf4665b0a00174b8f03","E1","batch5","","950","tol_tohand","","","","tol_peg_3","950","950","0","[[0,0,0],[3,1],[0]]","3","[[2,1,0],[0,0],[3]]","19","0","","","","","","5","","","","","","","","",""
"","","","","","single-stim-button","338","622043","0.0-2.0-68.2-1.2","5d26aaf4665b0a00174b8f03","E1","batch5","","1038","tol_toboard","","","","tol_peg_1","1038","1038","0","[[2,0,0],[3,1],[0]]","3","[[2,1,0],[0,0],[3]]","19","0","","","","","","5","","","","","","","","",""
"","","","","","single-stim-button","339","622974","0.0-2.0-68.3-0.3","5d26aaf4665b0a00174b8f03","E1","batch5","","929","tol_tohand","","","","tol_peg_2","929","929","0","[[2,0,0],[3,0],[0]]","4","[[2,1,0],[0,0],[3]]","19","0","","","","","","5","","","","","","","","",""
"","","","","","single-stim-button","340","624053","0.0-2.0-68.3-1.3","5d26aaf4665b0a00174b8f03","E1","batch5","","1078","tol_toboard","","","","tol_peg_1","1078","1078","0","[[2,1,0],[3,0],[0]]","4","[[2,1,0],[0,0],[3]]","19","0","","","","","","5","","","","","","","","",""
"","","","","","single-stim-button","341","624668","0.0-2.0-68.4-0.4","5d26aaf4665b0a00174b8f03","E1","batch5","","613","tol_tohand","","","","tol_peg_2","613","613","0","[[2,1,0],[0,0],[0]]","5","[[2,1,0],[0,0],[3]]","19","0","","","","","","5","","","","","","","","",""
"","","","","","single-stim-button","342","625548","0.0-2.0-68.4-1.4","5d26aaf4665b0a00174b8f03","E1","batch5","","880","tol_toboard","","","","tol_peg_3","880","880","0","[[2,1,0],[0,0],[3]]","5","[[2,1,0],[0,0],[3]]","19","0","","","","","","5","","","","","","","","",""
"","","","","","poldrack-single-stim","343","626554","0.0-2.0-69.0","5d26aaf4665b0a00174b8f03","E1","batch5","","-1","tol_feedback","","","true","","1000","1000","500","","","","","","-1","none","true","2791","7104","","","","","","","","","",""
"","","","","","html-button-response","344","627613","0.0-2.0-70.0","5d26aaf4665b0a00174b8f03","E1","batch5","","1057.9000000059605","tol_trial_num","<div class = centerbox><p class = center-block-text>problem <strong>21</strong> out of 25 problems</p></div>","0","","","","","","","","","","","","","","","","","","","","","","","","",""
"","","","","","single-stim-button","345","629401","0.0-2.0-71.0-0.0","5d26aaf4665b0a00174b8f03","E1","batch5","","1786","tol_tohand","","","","tol_peg_2","1786","1786","0","[[1,2,0],[0,0],[0]]","1","[[3,2,0],[0,0],[1]]","20","0","","","","","","6","","","","","","","","",""
"","","","","","single-stim-button","346","631064","0.0-2.0-71.0-1.0","5d26aaf4665b0a00174b8f03","E1","batch5","","1662","tol_toboard","","","","tol_peg_3","1662","1662","0","[[1,2,0],[0,0],[3]]","1","[[3,2,0],[0,0],[1]]","20","0","","","","","","6","","","","","","","","",""
"","","","","","single-stim-button","347","632402","0.0-2.0-71.1-0.1","5d26aaf4665b0a00174b8f03","E1","batch5","","1336","tol_tohand","","","","tol_peg_1","1336","1336","0","[[1,0,0],[0,0],[3]]","2","[[3,2,0],[0,0],[1]]","20","0","","","","","","6","","","","","","","","",""
"","","","","","single-stim-button","348","633193","0.0-2.0-71.1-1.1","5d26aaf4665b0a00174b8f03","E1","batch5","","790","tol_toboard","","","","tol_peg_2","790","790","0","[[1,0,0],[2,0],[3]]","2","[[3,2,0],[0,0],[1]]","20","0","","","","","","6","","","","","","","","",""
"","","","","","single-stim-button","349","633916","0.0-2.0-71.2-0.2","5d26aaf4665b0a00174b8f03","E1","batch5","","721","tol_tohand","","","","tol_peg_1","721","721","0","[[0,0,0],[2,0],[3]]","3","[[3,2,0],[0,0],[1]]","20","0","","","","","","6","","","","","","","","",""
"","","","","","single-stim-button","350","634797","0.0-2.0-71.2-1.2","5d26aaf4665b0a00174b8f03","E1","batch5","","880","tol_toboard","","","","tol_peg_2","880","880","0","[[0,0,0],[2,1],[3]]","3","[[3,2,0],[0,0],[1]]","20","0","","","","","","6","","","","","","","","",""
"","","","","","single-stim-button","351","635560","0.0-2.0-71.3-0.3","5d26aaf4665b0a00174b8f03","E1","batch5","","762","tol_tohand","","","","tol_peg_3","762","762","0","[[0,0,0],[2,1],[0]]","4","[[3,2,0],[0,0],[1]]","20","0","","","","","","6","","","","","","","","",""
"","","","","","single-stim-button","352","636857","0.0-2.0-71.3-1.3","5d26aaf4665b0a00174b8f03","E1","batch5","","1296","tol_toboard","","","","tol_peg_1","1296","1296","0","[[3,0,0],[2,1],[0]]","4","[[3,2,0],[0,0],[1]]","20","0","","","","","","6","","","","","","","","",""
"","","","","","single-stim-button","353","637631","0.0-2.0-71.4-0.4","5d26aaf4665b0a00174b8f03","E1","batch5","","772","tol_tohand","","","","tol_peg_2","772","772","0","[[3,0,0],[2,0],[0]]","5","[[3,2,0],[0,0],[1]]","20","0","","","","","","6","","","","","","","","",""
"","","","","","single-stim-button","354","638800","0.0-2.0-71.4-1.4","5d26aaf4665b0a00174b8f03","E1","batch5","","1168","tol_toboard","","","","tol_peg_3","1168","1168","0","[[3,0,0],[2,0],[1]]","5","[[3,2,0],[0,0],[1]]","20","0","","","","","","6","","","","","","","","",""
"","","","","","single-stim-button","355","639542","0.0-2.0-71.5-0.5","5d26aaf4665b0a00174b8f03","E1","batch5","","740","tol_tohand","","","","tol_peg_2","740","740","0","[[3,0,0],[0,0],[1]]","6","[[3,2,0],[0,0],[1]]","20","0","","","","","","6","","","","","","","","",""
