"success","timeout","failed_images","failed_audio","failed_video","trial_type","trial_index","time_elapsed","internal_node_id","subject_id","study_id","session_id","task","rt","stimulus","response","item","answer","correct","spm_correct","spm_rt","view_history","fiar_detect_rt","fiar_detect_correct","total_correct_fiar_detect","post_trial_gap","choices","mouse_click","stim_duration","block_duration","timing_post_trial","current_position","tol_num_moves_made","tol_target","tol_problem_id","tol_rt","key_press","possible_responses","tol_correct","preplanning","tol_rt_per_trial","tol_min_moves"
"true","false","[]","[]","[]","preload","0","2775","0.0-0.0","5d29187bd96c80001769ec41","B2","batch2","","","","","","","","","","","","","","","","","","","","","","","","","","","","","",""
"true","","","","","fullscreen","1","11014","0.0-1.0-0.0","5d29187bd96c80001769ec41","B2","batch2","","","","","","","","","","","","","","","","","","","","","","","","","","","","","",""
"true","","","","","fullscreen","2","14750","0.0-2.0-0.0","5d29187bd96c80001769ec41","B2","batch2","spm_fullscreen","","","","","","","","","","","","","","","","","","","","","","","","","","","","",""
"","","","","","html-button-response","3","26054","0.0-2.0-1.0","5d29187bd96c80001769ec41","B2","batch2","","11297.5","<p class = block-text><b>Instructions</b> <br>This is a widely used intelligence test in research. <br>In this test, a figure with a missing piece will be presented.<br>Below the figure are alternative pieces to complete the figure, only one of which is correct.<br> Different figures might involve different principles for obtaining the missing piece<br>Your job is to select the most logical piece to complete the figure.</p>","0","","","","","","","","","","","","","","","","","","","","","","","","","",""
"","","","","","html-keyboard-response","4","26863","0.0-2.0-2.0-0.0","5d29187bd96c80001769ec41","B2","batch2","spm_show_trial_num","null","<p class=block-text>Trial 1 out of 60</p>","null","","","","","","","","","","","","","","","","","","","","","","","","","",""
"","","","","","image-button-response","5","31286","0.0-2.0-2.0-1.0","5d29187bd96c80001769ec41","B2","batch2","spm_respsonse","4386.400000002235","img/question_1_1.jpeg","3","mat_01","4","1","1","4386.400000002235","","","","","","","","","","","","","","","","","","","","",""
"","","","","","html-keyboard-response","6","32351","0.0-2.0-2.0-0.1","5d29187bd96c80001769ec41","B2","batch2","spm_show_trial_num","null","<p class=block-text>Trial 2 out of 60</p>","null","","","","","","","","","","","","","","","","","","","","","","","","","",""
"","","","","","image-button-response","7","35732","0.0-2.0-2.0-1.1","5d29187bd96c80001769ec41","B2","batch2","spm_respsonse","3374.300000000745","img/question_1_2.jpeg","4","mat_02","5","1","1","3374.300000000745","","","","","","","","","","","","","","","","","","","","",""
"","","","","","html-keyboard-response","8","36799","0.0-2.0-2.0-0.2","5d29187bd96c80001769ec41","B2","batch2","spm_show_trial_num","null","<p class=block-text>Trial 3 out of 60</p>","null","","","","","","","","","","","","","","","","","","","","","","","","","",""
"","","","","","image-button-response","9","40848","0.0-2.0-2.0-1.2","5d29187bd96c80001769ec41","B2","batch2","spm_respsonse","4042.099999997765","img/question_1_3.jpeg","0","mat_03","1","1","1","4042.099999997765","","","","","","","","","","","","","","","","","","","","",""
"","","","","","html-keyboard-response","10","41911","0.0-2.0-2.0-0.3","5d29187bd96c80001769ec41","B2","batch2","spm_show_trial_num","null","<p class=block-text>Trial 4 out of 60</p>","null","","","","","","","","","","","","","","","","","","","","","","","","","",""
"","","","","","image-button-response","11","44771","0.0-2.0-2.0-1.3","5d29187bd96c80001769ec41","B2","batch2","spm_respsonse","2853.89999999851","img/question_1_4.jpeg","1","mat_04","2","1","1","2853.89999999851","","","","","","","","","","","","","","","","","","","","",""
"","","","","","html-keyboard-response","12","45839","0.0-2.0-2.0-0.4","5d29187bd96c80001769ec41","B2","batch2","spm_show_trial_num","null","<p class=block-text>Trial 5 out of 60</p>","null","","","","","","","","","","","","","","","","","","","","","","","","","",""
"","","","","","image-button-response","13","51372","0.0-2.0-2.0-1.4","5d29187bd96c80001769ec41","B2","batch2","spm_respsonse","5525.699999999255","img/question_1_5.jpeg","5","mat_05","6","1","1","5525.699999999255","","","","","","","","","","","","","","","","","","","","",""
"","","","","","html-keyboard-response","14","52438","0.0-2.0-2.0-0.5","5d29187bd96c80001769ec41","B2","batch2","spm_show_trial_num","null","<p class=block-text>Trial 6 out of 60</p>","null","","","","","","","","","","","","","","","","","","","","","","","","","",""
"","","","","","image-button-response","15","58226","0.0-2.0-2.0-1.5","5d29187bd96c80001769ec41","B2","batch2","spm_respsonse","5781.900000002235","img/question_1_6.jpeg","2","mat_06","3","1","1","5781.900000002235","","","","","","","","","","","","","","","","","","","","",""
"","","","","","html-keyboard-response","16","59287","0.0-2.0-2.0-0.6","5d29187bd96c80001769ec41","B2","batch2","spm_show_trial_num","null","<p class=block-text>Trial 7 out of 60</p>","null","","","","","","","","","","","","","","","","","","","","","","","","","",""
"","","","","","image-button-response","17","64561","0.0-2.0-2.0-1.6","5d29187bd96c80001769ec41","B2","batch2","spm_respsonse","5267.400000002235","img/question_1_7.jpeg","5","mat_07","6","1","1","5267.400000002235","","","","","","","","","","","","","","","","","","","","",""
"","","","","","html-keyboard-response","18","65622","0.0-2.0-2.0-0.7","5d29187bd96c80001769ec41","B2","batch2","spm_show_trial_num","null","<p class=block-text>Trial 8 out of 60</p>","null","","","","","","","","","","","","","","","","","","","","","","","","","",""
"","","","","","image-button-response","19","73156","0.0-2.0-2.0-1.7","5d29187bd96c80001769ec41","B2","batch2","spm_respsonse","7527","img/question_1_8.jpeg","1","mat_08","2","1","1","7527","","","","","","","","","","","","","","","","","","","","",""
"","","","","","html-keyboard-response","20","74222","0.0-2.0-2.0-0.8","5d29187bd96c80001769ec41","B2","batch2","spm_show_trial_num","null","<p class=block-text>Trial 9 out of 60</p>","null","","","","","","","","","","","","","","","","","","","","","","","","","",""
"","","","","","image-button-response","21","79669","0.0-2.0-2.0-1.8","5d29187bd96c80001769ec41","B2","batch2","spm_respsonse","5438.89999999851","img/question_1_9.jpeg","0","mat_09","1","1","1","5438.89999999851","","","","","","","","","","","","","","","","","","","","",""
"","","","","","html-keyboard-response","22","80734","0.0-2.0-2.0-0.9","5d29187bd96c80001769ec41","B2","batch2","spm_show_trial_num","null","<p class=block-text>Trial 10 out of 60</p>","null","","","","","","","","","","","","","","","","","","","","","","","","","",""
"","","","","","image-button-response","23","89091","0.0-2.0-2.0-1.9","5d29187bd96c80001769ec41","B2","batch2","spm_respsonse","8353.300000000745","img/question_1_10.jpeg","2","mat_10","3","1","1","8353.300000000745","","","","","","","","","","","","","","","","","","","","",""
"","","","","","html-keyboard-response","24","90158","0.0-2.0-2.0-0.10","5d29187bd96c80001769ec41","B2","batch2","spm_show_trial_num","null","<p class=block-text>Trial 11 out of 60</p>","null","","","","","","","","","","","","","","","","","","","","","","","","","",""
"","","","","","image-button-response","25","98115","0.0-2.0-2.0-1.10","5d29187bd96c80001769ec41","B2","batch2","spm_respsonse","7950.39999999851","img/question_1_11.jpeg","3","mat_11","4","1","1","7950.39999999851","","","","","","","","","","","","","","","","","","","","",""
"","","","","","html-keyboard-response","26","99183","0.0-2.0-2.0-0.11","5d29187bd96c80001769ec41","B2","batch2","spm_show_trial_num","null","<p class=block-text>Trial 12 out of 60</p>","null","","","","","","","","","","","","","","","","","","","","","","","","","",""
"","","","","","image-button-response","27","106686","0.0-2.0-2.0-1.11","5d29187bd96c80001769ec41","B2","batch2","spm_respsonse","7494.900000002235","img/question_1_12.jpeg","4","mat_12","5","1","1","7494.900000002235","","","","","","","","","","","","","","","","","","","","",""
"","","","","","html-keyboard-response","28","107750","0.0-2.0-2.0-0.12","5d29187bd96c80001769ec41","B2","batch2","spm_show_trial_num","null","<p class=block-text>Trial 13 out of 60</p>","null","","","","","","","","","","","","","","","","","","","","","","","","","",""
"","","","","","image-button-response","29","111261","0.0-2.0-2.0-1.12","5d29187bd96c80001769ec41","B2","batch2","spm_respsonse","3503.199999999255","img/question_2_1.jpeg","1","mat_13","2","1","1","3503.199999999255","","","","","","","","","","","","","","","","","","","","",""
"","","","","","html-keyboard-response","30","112326","0.0-2.0-2.0-0.13","5d29187bd96c80001769ec41","B2","batch2","spm_show_trial_num","null","<p class=block-text>Trial 14 out of 60</p>","null","","","","","","","","","","","","","","","","","","","","","","","","","",""
"","","","","","image-button-response","31","119636","0.0-2.0-2.0-1.13","5d29187bd96c80001769ec41","B2","batch2","spm_respsonse","7302","img/question_2_2.jpeg","5","mat_14","6","1","1","7302","","","","","","","","","","","","","","","","","","","","",""
"","","","","","html-keyboard-response","32","120702","0.0-2.0-2.0-0.14","5d29187bd96c80001769ec41","B2","batch2","spm_show_trial_num","null","<p class=block-text>Trial 15 out of 60</p>","null","","","","","","","","","","","","","","","","","","","","","","","","","",""
"","","","","","image-button-response","33","123728","0.0-2.0-2.0-1.14","5d29187bd96c80001769ec41","B2","batch2","spm_respsonse","3018.599999997765","img/question_2_3.jpeg","0","mat_15","1","1","1","3018.599999997765","","","","","","","","","","","","","","","","","","","","",""
"","","","","","html-keyboard-response","34","124790","0.0-2.0-2.0-0.15","5d29187bd96c80001769ec41","B2","batch2","spm_show_trial_num","null","<p class=block-text>Trial 16 out of 60</p>","null","","","","","","","","","","","","","","","","","","","","","","","","","",""
"","","","","","image-button-response","35","128648","0.0-2.0-2.0-1.15","5d29187bd96c80001769ec41","B2","batch2","spm_respsonse","3850.39999999851","img/question_2_4.jpeg","1","mat_16","2","1","1","3850.39999999851","","","","","","","","","","","","","","","","","","","","",""
"","","","","","html-keyboard-response","36","129711","0.0-2.0-2.0-0.16","5d29187bd96c80001769ec41","B2","batch2","spm_show_trial_num","null","<p class=block-text>Trial 17 out of 60</p>","null","","","","","","","","","","","","","","","","","","","","","","","","","",""
"","","","","","image-button-response","37","134677","0.0-2.0-2.0-1.16","5d29187bd96c80001769ec41","B2","batch2","spm_respsonse","4959.5","img/question_2_5.jpeg","0","mat_17","1","1","1","4959.5","","","","","","","","","","","","","","","","","","","","",""
"","","","","","html-keyboard-response","38","135742","0.0-2.0-2.0-0.17","5d29187bd96c80001769ec41","B2","batch2","spm_show_trial_num","null","<p class=block-text>Trial 18 out of 60</p>","null","","","","","","","","","","","","","","","","","","","","","","","","","",""
"","","","","","image-button-response","39","140729","0.0-2.0-2.0-1.17","5d29187bd96c80001769ec41","B2","batch2","spm_respsonse","4979.199999999255","img/question_2_6.jpeg","2","mat_18","3","1","1","4979.199999999255","","","","","","","","","","","","","","","","","","","","",""
"","","","","","html-keyboard-response","40","141792","0.0-2.0-2.0-0.18","5d29187bd96c80001769ec41","B2","batch2","spm_show_trial_num","null","<p class=block-text>Trial 19 out of 60</p>","null","","","","","","","","","","","","","","","","","","","","","","","","","",""
"","","","","","image-button-response","41","148079","0.0-2.0-2.0-1.18","5d29187bd96c80001769ec41","B2","batch2","spm_respsonse","6280","img/question_2_7.jpeg","4","mat_19","5","1","1","6280","","","","","","","","","","","","","","","","","","","","",""
"","","","","","html-keyboard-response","42","149142","0.0-2.0-2.0-0.19","5d29187bd96c80001769ec41","B2","batch2","spm_show_trial_num","null","<p class=block-text>Trial 20 out of 60</p>","null","","","","","","","","","","","","","","","","","","","","","","","","","",""
"","","","","","image-button-response","43","155763","0.0-2.0-2.0-1.19","5d29187bd96c80001769ec41","B2","batch2","spm_respsonse","6613.10000000149","img/question_2_8.jpeg","5","mat_20","6","1","1","6613.10000000149","","","","","","","","","","","","","","","","","","","","",""
"","","","","","html-keyboard-response","44","156822","0.0-2.0-2.0-0.20","5d29187bd96c80001769ec41","B2","batch2","spm_show_trial_num","null","<p class=block-text>Trial 21 out of 60</p>","null","","","","","","","","","","","","","","","","","","","","","","","","","",""
"","","","","","image-button-response","45","161539","0.0-2.0-2.0-1.20","5d29187bd96c80001769ec41","B2","batch2","spm_respsonse","4708.900000002235","img/question_2_9.jpeg","3","mat_21","4","1","1","4708.900000002235","","","","","","","","","","","","","","","","","","","","",""
"","","","","","html-keyboard-response","46","162606","0.0-2.0-2.0-0.21","5d29187bd96c80001769ec41","B2","batch2","spm_show_trial_num","null","<p class=block-text>Trial 22 out of 60</p>","null","","","","","","","","","","","","","","","","","","","","","","","","","",""
"","","","","","image-button-response","47","171429","0.0-2.0-2.0-1.21","5d29187bd96c80001769ec41","B2","batch2","spm_respsonse","8815.89999999851","img/question_2_10.jpeg","2","mat_22","3","1","1","8815.89999999851","","","","","","","","","","","","","","","","","","","","",""
"","","","","","html-keyboard-response","48","172494","0.0-2.0-2.0-0.22","5d29187bd96c80001769ec41","B2","batch2","spm_show_trial_num","null","<p class=block-text>Trial 23 out of 60</p>","null","","","","","","","","","","","","","","","","","","","","","","","","","",""
"","","","","","image-button-response","49","179056","0.0-2.0-2.0-1.22","5d29187bd96c80001769ec41","B2","batch2","spm_respsonse","6555.10000000149","img/question_2_11.jpeg","3","mat_23","4","1","1","6555.10000000149","","","","","","","","","","","","","","","","","","","","",""
"","","","","","html-keyboard-response","50","180118","0.0-2.0-2.0-0.23","5d29187bd96c80001769ec41","B2","batch2","spm_show_trial_num","null","<p class=block-text>Trial 24 out of 60</p>","null","","","","","","","","","","","","","","","","","","","","","","","","","",""
"","","","","","image-button-response","51","228368","0.0-2.0-2.0-1.23","5d29187bd96c80001769ec41","B2","batch2","spm_respsonse","48242.599999997765","img/question_2_12.jpeg","5","mat_24","5","0","0","48242.599999997765","","","","","","","","","","","","","","","","","","","","",""
"","","","","","html-button-response","52","230959","0.0-2.0-3.0","5d29187bd96c80001769ec41","B2","batch2","attention_check","2333","<p class = block-text>Attention check: Please choose 1<br></p>","0","","","true","","","","","","","","","","","","","","","","","","","","","","",""
"","","","","","html-keyboard-response","53","231767","0.0-2.0-4.0-0.0","5d29187bd96c80001769ec41","B2","batch2","spm_show_trial_num","null","<p class=block-text>Trial 25 out of 60</p>","null","","","","","","","","","","","","","","","","","","","","","","","","","",""
"","","","","","image-button-response","54","240862","0.0-2.0-4.0-1.0","5d29187bd96c80001769ec41","B2","batch2","spm_respsonse","9086.60000000149","img/question_3_1.jpeg","7","mat_25","8","1","1","9086.60000000149","","","","","","","","","","","","","","","","","","","","",""
"","","","","","html-keyboard-response","55","241926","0.0-2.0-4.0-0.1","5d29187bd96c80001769ec41","B2","batch2","spm_show_trial_num","null","<p class=block-text>Trial 26 out of 60</p>","null","","","","","","","","","","","","","","","","","","","","","","","","","",""
"","","","","","image-button-response","56","249650","0.0-2.0-4.0-1.1","5d29187bd96c80001769ec41","B2","batch2","spm_respsonse","7716.5","img/question_3_2.jpeg","1","mat_26","2","1","1","7716.5","","","","","","","","","","","","","","","","","","","","",""
"","","","","","html-keyboard-response","57","250711","0.0-2.0-4.0-0.2","5d29187bd96c80001769ec41","B2","batch2","spm_show_trial_num","null","<p class=block-text>Trial 27 out of 60</p>","null","","","","","","","","","","","","","","","","","","","","","","","","","",""
"","","","","","image-button-response","58","257528","0.0-2.0-4.0-1.2","5d29187bd96c80001769ec41","B2","batch2","spm_respsonse","6809","img/question_3_3.jpeg","1","mat_27","3","0","0","6809","","","","","","","","","","","","","","","","","","","","",""
"","","","","","html-keyboard-response","59","258591","0.0-2.0-4.0-0.3","5d29187bd96c80001769ec41","B2","batch2","spm_show_trial_num","null","<p class=block-text>Trial 28 out of 60</p>","null","","","","","","","","","","","","","","","","","","","","","","","","","",""
"","","","","","image-button-response","60","275939","0.0-2.0-4.0-1.3","5d29187bd96c80001769ec41","B2","batch2","spm_respsonse","17340.60000000149","img/question_3_4.jpeg","7","mat_28","8","1","1","17340.60000000149","","","","","","","","","","","","","","","","","","","","",""
"","","","","","html-keyboard-response","61","277002","0.0-2.0-4.0-0.4","5d29187bd96c80001769ec41","B2","batch2","spm_show_trial_num","null","<p class=block-text>Trial 29 out of 60</p>","null","","","","","","","","","","","","","","","","","","","","","","","","","",""
"","","","","","image-button-response","62","289736","0.0-2.0-4.0-1.4","5d29187bd96c80001769ec41","B2","batch2","spm_respsonse","12725.300000000745","img/question_3_5.jpeg","6","mat_29","7","1","1","12725.300000000745","","","","","","","","","","","","","","","","","","","","",""
"","","","","","html-keyboard-response","63","290798","0.0-2.0-4.0-0.5","5d29187bd96c80001769ec41","B2","batch2","spm_show_trial_num","null","<p class=block-text>Trial 30 out of 60</p>","null","","","","","","","","","","","","","","","","","","","","","","","","","",""
"","","","","","image-button-response","64","299542","0.0-2.0-4.0-1.5","5d29187bd96c80001769ec41","B2","batch2","spm_respsonse","8736.599999997765","img/question_3_6.jpeg","3","mat_30","4","1","1","8736.599999997765","","","","","","","","","","","","","","","","","","","","",""
"","","","","","html-keyboard-response","65","300606","0.0-2.0-4.0-0.6","5d29187bd96c80001769ec41","B2","batch2","spm_show_trial_num","null","<p class=block-text>Trial 31 out of 60</p>","null","","","","","","","","","","","","","","","","","","","","","","","","","",""
"","","","","","image-button-response","66","306510","0.0-2.0-4.0-1.6","5d29187bd96c80001769ec41","B2","batch2","spm_respsonse","5895.89999999851","img/question_3_7.jpeg","4","mat_31","5","1","1","5895.89999999851","","","","","","","","","","","","","","","","","","","","",""
"","","","","","html-keyboard-response","67","307575","0.0-2.0-4.0-0.7","5d29187bd96c80001769ec41","B2","batch2","spm_show_trial_num","null","<p class=block-text>Trial 32 out of 60</p>","null","","","","","","","","","","","","","","","","","","","","","","","","","",""
"","","","","","image-button-response","68","340161","0.0-2.0-4.0-1.7","5d29187bd96c80001769ec41","B2","batch2","spm_respsonse","32579.29999999702","img/question_3_8.jpeg","0","mat_32","1","1","1","32579.29999999702","","","","","","","","","","","","","","","","","","","","",""
"","","","","","html-keyboard-response","69","341222","0.0-2.0-4.0-0.8","5d29187bd96c80001769ec41","B2","batch2","spm_show_trial_num","null","<p class=block-text>Trial 33 out of 60</p>","null","","","","","","","","","","","","","","","","","","","","","","","","","",""
"","","","","","image-button-response","70","351032","0.0-2.0-4.0-1.8","5d29187bd96c80001769ec41","B2","batch2","spm_respsonse","9801.599999997765","img/question_3_9.jpeg","6","mat_33","7","1","1","9801.599999997765","","","","","","","","","","","","","","","","","","","","",""
"","","","","","html-keyboard-response","71","352094","0.0-2.0-4.0-0.9","5d29187bd96c80001769ec41","B2","batch2","spm_show_trial_num","null","<p class=block-text>Trial 34 out of 60</p>","null","","","","","","","","","","","","","","","","","","","","","","","","","",""
"","","","","","image-button-response","72","364156","0.0-2.0-4.0-1.9","5d29187bd96c80001769ec41","B2","batch2","spm_respsonse","12053.199999999255","img/question_3_10.jpeg","5","mat_34","6","1","1","12053.199999999255","","","","","","","","","","","","","","","","","","","","",""
"","","","","","html-keyboard-response","73","365222","0.0-2.0-4.0-0.10","5d29187bd96c80001769ec41","B2","batch2","spm_show_trial_num","null","<p class=block-text>Trial 35 out of 60</p>","null","","","","","","","","","","","","","","","","","","","","","","","","","",""
"","","","","","image-button-response","74","419285","0.0-2.0-4.0-1.10","5d29187bd96c80001769ec41","B2","batch2","spm_respsonse","54056","img/question_3_11.jpeg","0","mat_35","1","1","1","54056","","","","","","","","","","","","","","","","","","","","",""
"","","","","","html-keyboard-response","75","420351","0.0-2.0-4.0-0.11","5d29187bd96c80001769ec41","B2","batch2","spm_show_trial_num","null","<p class=block-text>Trial 36 out of 60</p>","null","","","","","","","","","","","","","","","","","","","","","","","","","",""
"","","","","","image-button-response","76","443369","0.0-2.0-4.0-1.11","5d29187bd96c80001769ec41","B2","batch2","spm_respsonse","23011.199999999255","img/question_3_12.jpeg","1","mat_36","2","1","1","23011.199999999255","","","","","","","","","","","","","","","","","","","","",""
"","","","","","html-keyboard-response","77","444431","0.0-2.0-4.0-0.12","5d29187bd96c80001769ec41","B2","batch2","spm_show_trial_num","null","<p class=block-text>Trial 37 out of 60</p>","null","","","","","","","","","","","","","","","","","","","","","","","","","",""
"","","","","","image-button-response","78","451330","0.0-2.0-4.0-1.12","5d29187bd96c80001769ec41","B2","batch2","spm_respsonse","6891.699999999255","img/question_4_1.jpeg","2","mat_37","3","1","1","6891.699999999255","","","","","","","","","","","","","","","","","","","","",""
"","","","","","html-keyboard-response","79","452390","0.0-2.0-4.0-0.13","5d29187bd96c80001769ec41","B2","batch2","spm_show_trial_num","null","<p class=block-text>Trial 38 out of 60</p>","null","","","","","","","","","","","","","","","","","","","","","","","","","",""
"","","","","","image-button-response","80","467366","0.0-2.0-4.0-1.13","5d29187bd96c80001769ec41","B2","batch2","spm_respsonse","14967.89999999851","img/question_4_2.jpeg","3","mat_38","4","1","1","14967.89999999851","","","","","","","","","","","","","","","","","","","","",""
"","","","","","html-keyboard-response","81","468430","0.0-2.0-4.0-0.14","5d29187bd96c80001769ec41","B2","batch2","spm_show_trial_num","null","<p class=block-text>Trial 39 out of 60</p>","null","","","","","","","","","","","","","","","","","","","","","","","","","",""
"","","","","","image-button-response","82","477082","0.0-2.0-4.0-1.14","5d29187bd96c80001769ec41","B2","batch2","spm_respsonse","8644","img/question_4_3.jpeg","2","mat_39","3","1","1","8644","","","","","","","","","","","","","","","","","","","","",""
"","","","","","html-keyboard-response","83","478142","0.0-2.0-4.0-0.15","5d29187bd96c80001769ec41","B2","batch2","spm_show_trial_num","null","<p class=block-text>Trial 40 out of 60</p>","null","","","","","","","","","","","","","","","","","","","","","","","","","",""
"","","","","","image-button-response","84","487087","0.0-2.0-4.0-1.15","5d29187bd96c80001769ec41","B2","batch2","spm_respsonse","8936.599999997765","img/question_4_4.jpeg","6","mat_40","7","1","1","8936.599999997765","","","","","","","","","","","","","","","","","","","","",""
"","","","","","html-keyboard-response","85","488150","0.0-2.0-4.0-0.16","5d29187bd96c80001769ec41","B2","batch2","spm_show_trial_num","null","<p class=block-text>Trial 41 out of 60</p>","null","","","","","","","","","","","","","","","","","","","","","","","","","",""
"","","","","","image-button-response","86","499792","0.0-2.0-4.0-1.16","5d29187bd96c80001769ec41","B2","batch2","spm_respsonse","11633.900000002235","img/question_4_5.jpeg","7","mat_41","8","1","1","11633.900000002235","","","","","","","","","","","","","","","","","","","","",""
"","","","","","html-keyboard-response","87","500854","0.0-2.0-4.0-0.17","5d29187bd96c80001769ec41","B2","batch2","spm_show_trial_num","null","<p class=block-text>Trial 42 out of 60</p>","null","","","","","","","","","","","","","","","","","","","","","","","","","",""
"","","","","","image-button-response","88","525636","0.0-2.0-4.0-1.17","5d29187bd96c80001769ec41","B2","batch2","spm_respsonse","24774.60000000149","img/question_4_6.jpeg","5","mat_42","6","1","1","24774.60000000149","","","","","","","","","","","","","","","","","","","","",""
"","","","","","html-keyboard-response","89","526702","0.0-2.0-4.0-0.18","5d29187bd96c80001769ec41","B2","batch2","spm_show_trial_num","null","<p class=block-text>Trial 43 out of 60</p>","null","","","","","","","","","","","","","","","","","","","","","","","","","",""
"","","","","","image-button-response","90","557256","0.0-2.0-4.0-1.18","5d29187bd96c80001769ec41","B2","batch2","spm_respsonse","30545.89999999851","img/question_4_7.jpeg","4","mat_43","5","1","1","30545.89999999851","","","","","","","","","","","","","","","","","","","","",""
"","","","","","html-keyboard-response","91","558318","0.0-2.0-4.0-0.19","5d29187bd96c80001769ec41","B2","batch2","spm_show_trial_num","null","<p class=block-text>Trial 44 out of 60</p>","null","","","","","","","","","","","","","","","","","","","","","","","","","",""
"","","","","","image-button-response","92","583401","0.0-2.0-4.0-1.19","5d29187bd96c80001769ec41","B2","batch2","spm_respsonse","25077.300000000745","img/question_4_8.jpeg","3","mat_44","4","1","1","25077.300000000745","","","","","","","","","","","","","","","","","","","","",""
"","","","","","html-keyboard-response","93","584462","0.0-2.0-4.0-0.20","5d29187bd96c80001769ec41","B2","batch2","spm_show_trial_num","null","<p class=block-text>Trial 45 out of 60</p>","null","","","","","","","","","","","","","","","","","","","","","","","","","",""
"","","","","","image-button-response","94","628088","0.0-2.0-4.0-1.20","5d29187bd96c80001769ec41","B2","batch2","spm_respsonse","43618","img/question_4_9.jpeg","0","mat_45","1","1","1","43618","","","","","","","","","","","","","","","","","","","","",""
"","","","","","html-keyboard-response","95","629150","0.0-2.0-4.0-0.21","5d29187bd96c80001769ec41","B2","batch2","spm_show_trial_num","null","<p class=block-text>Trial 46 out of 60</p>","null","","","","","","","","","","","","","","","","","","","","","","","","","",""
"","","","","","image-button-response","96","646471","0.0-2.0-4.0-1.21","5d29187bd96c80001769ec41","B2","batch2","spm_respsonse","17312.699999999255","img/question_4_10.jpeg","1","mat_46","2","1","1","17312.699999999255","","","","","","","","","","","","","","","","","","","","",""
"","","","","","html-keyboard-response","97","647535","0.0-2.0-4.0-0.22","5d29187bd96c80001769ec41","B2","batch2","spm_show_trial_num","null","<p class=block-text>Trial 47 out of 60</p>","null","","","","","","","","","","","","","","","","","","","","","","","","","",""
"","","","","","image-button-response","98","722076","0.0-2.0-4.0-1.22","5d29187bd96c80001769ec41","B2","batch2","spm_respsonse","74533.39999999851","img/question_4_11.jpeg","1","mat_47","5","0","0","74533.39999999851","","","","","","","","","","","","","","","","","","","","",""
"","","","","","html-keyboard-response","99","723142","0.0-2.0-4.0-0.23","5d29187bd96c80001769ec41","B2","batch2","spm_show_trial_num","null","<p class=block-text>Trial 48 out of 60</p>","null","","","","","","","","","","","","","","","","","","","","","","","","","",""
"","","","","","image-button-response","100","757577","0.0-2.0-4.0-1.23","5d29187bd96c80001769ec41","B2","batch2","spm_respsonse","34427","img/question_4_12.jpeg","7","mat_48","6","0","0","34427","","","","","","","","","","","","","","","","","","","","",""
"","","","","","html-keyboard-response","101","758638","0.0-2.0-4.0-0.24","5d29187bd96c80001769ec41","B2","batch2","spm_show_trial_num","null","<p class=block-text>Trial 49 out of 60</p>","null","","","","","","","","","","","","","","","","","","","","","","","","","",""
"","","","","","image-button-response","102","782058","0.0-2.0-4.0-1.24","5d29187bd96c80001769ec41","B2","batch2","spm_respsonse","23412.29999999702","img/question_5_1.jpeg","6","mat_49","7","1","1","23412.29999999702","","","","","","","","","","","","","","","","","","","","",""
"","","","","","html-keyboard-response","103","783118","0.0-2.0-4.0-0.25","5d29187bd96c80001769ec41","B2","batch2","spm_show_trial_num","null","<p class=block-text>Trial 50 out of 60</p>","null","","","","","","","","","","","","","","","","","","","","","","","","","",""
"","","","","","image-button-response","104","841773","0.0-2.0-4.0-1.25","5d29187bd96c80001769ec41","B2","batch2","spm_respsonse","58646.900000002235","img/question_5_2.jpeg","5","mat_50","6","1","1","58646.900000002235","","","","","","","","","","","","","","","","","","","","",""
"","","","","","html-keyboard-response","105","842838","0.0-2.0-4.0-0.26","5d29187bd96c80001769ec41","B2","batch2","spm_show_trial_num","null","<p class=block-text>Trial 51 out of 60</p>","null","","","","","","","","","","","","","","","","","","","","","","","","","",""
"","","","","","image-button-response","106","868561","0.0-2.0-4.0-1.26","5d29187bd96c80001769ec41","B2","batch2","spm_respsonse","25718.199999999255","img/question_5_3.jpeg","7","mat_51","8","1","1","25718.199999999255","","","","","","","","","","","","","","","","","","","","",""
"","","","","","html-keyboard-response","107","869622","0.0-2.0-4.0-0.27","5d29187bd96c80001769ec41","B2","batch2","spm_show_trial_num","null","<p class=block-text>Trial 52 out of 60</p>","null","","","","","","","","","","","","","","","","","","","","","","","","","",""
"","","","","","image-button-response","108","916089","0.0-2.0-4.0-1.27","5d29187bd96c80001769ec41","B2","batch2","spm_respsonse","46458.599999997765","img/question_5_4.jpeg","7","mat_52","2","0","0","46458.599999997765","","","","","","","","","","","","","","","","","","","","",""
"","","","","","html-keyboard-response","109","917151","0.0-2.0-4.0-0.28","5d29187bd96c80001769ec41","B2","batch2","spm_show_trial_num","null","<p class=block-text>Trial 53 out of 60</p>","null","","","","","","","","","","","","","","","","","","","","","","","","","",""
"","","","","","image-button-response","110","939439","0.0-2.0-4.0-1.28","5d29187bd96c80001769ec41","B2","batch2","spm_respsonse","22280.60000000149","img/question_5_5.jpeg","0","mat_53","1","1","1","22280.60000000149","","","","","","","","","","","","","","","","","","","","",""
"","","","","","html-keyboard-response","111","940502","0.0-2.0-4.0-0.29","5d29187bd96c80001769ec41","B2","batch2","spm_show_trial_num","null","<p class=block-text>Trial 54 out of 60</p>","null","","","","","","","","","","","","","","","","","","","","","","","","","",""
"","","","","","image-button-response","112","974141","0.0-2.0-4.0-1.29","5d29187bd96c80001769ec41","B2","batch2","spm_respsonse","33631.29999999702","img/question_5_6.jpeg","4","mat_54","5","1","1","33631.29999999702","","","","","","","","","","","","","","","","","","","","",""
"","","","","","html-keyboard-response","113","975207","0.0-2.0-4.0-0.30","5d29187bd96c80001769ec41","B2","batch2","spm_show_trial_num","null","<p class=block-text>Trial 55 out of 60</p>","null","","","","","","","","","","","","","","","","","","","","","","","","","",""
"","","","","","image-button-response","114","1002377","0.0-2.0-4.0-1.30","5d29187bd96c80001769ec41","B2","batch2","spm_respsonse","27163.199999999255","img/question_5_7.jpeg","0","mat_55","1","1","1","27163.199999999255","","","","","","","","","","","","","","","","","","","","",""
"","","","","","html-keyboard-response","115","1003439","0.0-2.0-4.0-0.31","5d29187bd96c80001769ec41","B2","batch2","spm_show_trial_num","null","<p class=block-text>Trial 56 out of 60</p>","null","","","","","","","","","","","","","","","","","","","","","","","","","",""
"","","","","","image-button-response","116","1059718","0.0-2.0-4.0-1.31","5d29187bd96c80001769ec41","B2","batch2","spm_respsonse","56271.599999997765","img/question_5_8.jpeg","5","mat_56","6","1","1","56271.599999997765","","","","","","","","","","","","","","","","","","","","",""
"","","","","","html-keyboard-response","117","1060782","0.0-2.0-4.0-0.32","5d29187bd96c80001769ec41","B2","batch2","spm_show_trial_num","null","<p class=block-text>Trial 57 out of 60</p>","null","","","","","","","","","","","","","","","","","","","","","","","","","",""
"","","","","","image-button-response","118","1144541","0.0-2.0-4.0-1.32","5d29187bd96c80001769ec41","B2","batch2","spm_respsonse","83751","img/question_5_9.jpeg","2","mat_57","3","1","1","83751","","","","","","","","","","","","","","","","","","","","",""
"","","","","","html-keyboard-response","119","1145606","0.0-2.0-4.0-0.33","5d29187bd96c80001769ec41","B2","batch2","spm_show_trial_num","null","<p class=block-text>Trial 58 out of 60</p>","null","","","","","","","","","","","","","","","","","","","","","","","","","",""
"","","","","","image-button-response","120","1174715","0.0-2.0-4.0-1.33","5d29187bd96c80001769ec41","B2","batch2","spm_respsonse","29100.800000000745","img/question_5_10.jpeg","6","mat_58","2","0","0","29100.800000000745","","","","","","","","","","","","","","","","","","","","",""
"","","","","","html-keyboard-response","121","1175782","0.0-2.0-4.0-0.34","5d29187bd96c80001769ec41","B2","batch2","spm_show_trial_num","null","<p class=block-text>Trial 59 out of 60</p>","null","","","","","","","","","","","","","","","","","","","","","","","","","",""
"","","","","","image-button-response","122","1206116","0.0-2.0-4.0-1.34","5d29187bd96c80001769ec41","B2","batch2","spm_respsonse","30326.699999999255","img/question_5_11.jpeg","0","mat_59","4","0","0","30326.699999999255","","","","","","","","","","","","","","","","","","","","",""
"","","","","","html-keyboard-response","123","1207183","0.0-2.0-4.0-0.35","5d29187bd96c80001769ec41","B2","batch2","spm_show_trial_num","null","<p class=block-text>Trial 60 out of 60</p>","null","","","","","","","","","","","","","","","","","","","","","","","","","",""
"","","","","","image-button-response","124","1263683","0.0-2.0-4.0-1.35","5d29187bd96c80001769ec41","B2","batch2","spm_respsonse","56492.099999997765","img/question_5_12.jpeg","1","mat_60","5","0","0","56492.099999997765","","","","","","","","","","","","","","","","","","","","",""
"","","","","","html-button-response","125","1266132","0.0-2.0-5.0","5d29187bd96c80001769ec41","B2","batch2","spm_goodbye","2195.699999999255","<p class= block-text>This concludes the Standard Progressive Matrix game. Thank you for your responses!<br> When you are ready, click the button continue</p>","0","","","","","","","","","","","","","","","","","","","","","","","","","",""
"true","","","","","fullscreen","126","1269734","0.0-3.0-0.0","5d29187bd96c80001769ec41","B2","batch2","","","","","","","","","","","","","","","","","","","","","","","","","","","","","",""
"","","","","","instructions","127","1289734","0.0-3.0-1.0-0.0","5d29187bd96c80001769ec41","B2","batch2","","19996.89999999851","","","","","","","","[{""page_index"":0,""viewing_time"":8759.89999999851},{""page_index"":1,""viewing_time"":6568.10000000149},{""page_index"":0,""viewing_time"":2728.2999999970198},{""page_index"":1,""viewing_time"":1939.300000000745}]","","","","","","","","","","","","","","","","","","","",""
"","","","","","html-button-response","128","1291392","0.0-3.0-1.0-1.0-0.0","5d29187bd96c80001769ec41","B2","batch2","pattern_enter_quiz","1654.300000000745","<p class=block-text> Let's answer a few questions <br>","0","","","","","","","","","","","","","","","","","","","","","","","","","",""
"","","","","","html-button-response","129","1295190","0.0-3.0-1.0-1.0-1.0","5d29187bd96c80001769ec41","B2","batch2","pattern_quiz","3794.10000000149","<p class = block-text>True or False: You will have as much time as you want to make each choice. <br></p>","1","","","true","","","","","","","","","","","","","","","","","","","","","","",""
"","","","","","html-button-response","130","1296973","0.0-3.0-1.0-1.0-2.0","5d29187bd96c80001769ec41","B2","batch2","pattern_quiz_feedback","1776.5","<p class = block-text>Correct! You should make your choice <strong> as fast as you can</strong>.</p>","0","","","","","","","","","","","","","","","","","","","","","","","","","",""
"","","","","","html-button-response","131","1301060","0.0-3.0-1.0-1.0-3.0","5d29187bd96c80001769ec41","B2","batch2","pattern_quiz","4082.300000000745","<p class = block-text>True or False: You will look for 4 pieces in black or white color connected in a row either horizontally, vertically or diagonally. <br></p>","0","","","true","","","","","","","","","","","","","","","","","","","","","","",""
"","","","","","html-button-response","132","1302134","0.0-3.0-1.0-1.0-4.0","5d29187bd96c80001769ec41","B2","batch2","pattern_quiz_feedback","1069.300000000745","<p class = block-text>Correct! </p>","0","","","","","","","","","","","","","","","","","","","","","","","","","",""
"","","","","","html-button-response","133","1303947","0.0-3.0-2.0","5d29187bd96c80001769ec41","B2","batch2","pattern_enter_practice","1805.5","<p class=block-text> Now that you've understood the game, let's do a few practice trials before we start!<br> <br>","0","","","","","","","","","","","","","","","","","","","","","","","","","",""
"","","","","","image-keyboard-response","134","1305516","0.0-3.0-3.0-0.0","5d29187bd96c80001769ec41","B2","batch2","pattern_practice","1562.5","stim/prac_no_16_1.png","j","","j","true","","","","","","","","","","","","","","","","","","","","","","",""
"","","","","","html-keyboard-response","135","1306526","0.0-3.0-3.0-1.0","5d29187bd96c80001769ec41","B2","batch2","pattern_feedback","null","<p style=""font-size:30px;color:green;"">Correct!</p>","null","","","","","","","","","","","","","","","","","","","","","","","","","",""
"","","","","","image-keyboard-response","136","1307957","0.0-3.0-3.0-0.1","5d29187bd96c80001769ec41","B2","batch2","pattern_practice","1426.4000000022352","stim/prac_no_18_1.png","j","","j","true","","","","","","","","","","","","","","","","","","","","","","",""
"","","","","","html-keyboard-response","137","1308967","0.0-3.0-3.0-1.1","5d29187bd96c80001769ec41","B2","batch2","pattern_feedback","null","<p style=""font-size:30px;color:green;"">Correct!</p>","null","","","","","","","","","","","","","","","","","","","","","","","","","",""
"","","","","","image-keyboard-response","138","1310153","0.0-3.0-3.0-0.2","5d29187bd96c80001769ec41","B2","batch2","pattern_practice","1182.1000000014901","stim/prac_yes_16_ver_w1.png","f","","f","true","","","","","","","","","","","","","","","","","","","","","","",""
"","","","","","html-keyboard-response","139","1311159","0.0-3.0-3.0-1.2","5d29187bd96c80001769ec41","B2","batch2","pattern_feedback","null","<p style=""font-size:30px;color:green;"">Correct!</p>","null","","","","","","","","","","","","","","","","","","","","","","","","","",""
"","","","","","image-keyboard-response","140","1311906","0.0-3.0-3.0-0.3","5d29187bd96c80001769ec41","B2","batch2","pattern_practice","743.3000000007451","stim/prac_yes_20_dia_b1.png","f","","f","true","","","","","","","","","","","","","","","","","","","","","","",""
"","","","","","html-keyboard-response","141","1312918","0.0-3.0-3.0-1.3","5d29187bd96c80001769ec41","B2","batch2","pattern_feedback","null","<p style=""font-size:30px;color:green;"">Correct!</p>","null","","","","","","","","","","","","","","","","","","","","","","","","","",""
"","","","","","image-keyboard-response","142","1313536","0.0-3.0-3.0-0.4","5d29187bd96c80001769ec41","B2","batch2","pattern_practice","613.6999999992549","stim/prac_yes_18_hor_w1.png","j","","f","false","","","","","","","","","","","","","","","","","","","","","","",""
"","","","","","html-keyboard-response","143","1314544","0.0-3.0-3.0-1.4","5d29187bd96c80001769ec41","B2","batch2","pattern_feedback","null","<p style=""font-size:30px;color:red;"">Wrong.</p>","null","","","","","","","","","","","","","","","","","","","","","","","","","",""
"","","","","","html-button-response","144","1318594","0.0-3.0-4.0","5d29187bd96c80001769ec41","B2","batch2","pattern_enter_official_trials","4032.5","<p class=block-text> Good job! You are done with practice trials!<br>
        You responded correctly on 80% of the trials.<br>
        Press the button below to start official trials. Now you won't see any feedback about your response</p>","0","","","","","","","","","","","","","","","","","","","","","","","","","",""
"","","","","","html-keyboard-response","145","1319398","0.0-3.0-5.0-0.0","5d29187bd96c80001769ec41","B2","batch2","pattern_show_trial_num","null","<p class=block-text>Trial 1 out of 78</p>","null","","","","","","","","","","","","","","","","","","","","","","","","","",""
"","","","","","image-keyboard-response","146","1320997","0.0-3.0-5.0-1.0","5d29187bd96c80001769ec41","B2","batch2","pattern_response","1592.8999999985099","stim/yes_26_dia_w2_w.png","f","pattern_50","f","true","","","","1592.8999999985099","true","1","","","","","","","","","","","","","","","","",""
"","","","","","html-keyboard-response","147","1322310","0.0-3.0-5.0-0.1","5d29187bd96c80001769ec41","B2","batch2","pattern_show_trial_num","null","<p class=block-text>Trial 2 out of 78</p>","null","","","","","","","","","","","","","","","","","","","","","","","","","",""
"","","","","","image-keyboard-response","148","1324573","0.0-3.0-5.0-1.1","5d29187bd96c80001769ec41","B2","batch2","pattern_response","2257.300000000745","stim/yes_63_dia_b1.png","f","pattern_78","f","true","","","","2257.300000000745","true","2","","","","","","","","","","","","","","","","",""
"","","","","","html-keyboard-response","149","1325886","0.0-3.0-5.0-0.2","5d29187bd96c80001769ec41","B2","batch2","pattern_show_trial_num","null","<p class=block-text>Trial 3 out of 78</p>","null","","","","","","","","","","","","","","","","","","","","","","","","","",""
"","","","","","image-keyboard-response","150","1327261","0.0-3.0-5.0-1.2","5d29187bd96c80001769ec41","B2","batch2","pattern_response","1369.2000000029802","stim/no_18_1_b.png","j","pattern_05","j","true","","","","1369.2000000029802","true","3","","","","","","","","","","","","","","","","",""
"","","","","","html-keyboard-response","151","1328574","0.0-3.0-5.0-0.3","5d29187bd96c80001769ec41","B2","batch2","pattern_show_trial_num","null","<p class=block-text>Trial 4 out of 78</p>","null","","","","","","","","","","","","","","","","","","","","","","","","","",""
"","","","","","image-keyboard-response","152","1330484","0.0-3.0-5.0-1.3","5d29187bd96c80001769ec41","B2","batch2","pattern_response","1904.9000000022352","stim/no_43_2_b.png","j","pattern_23","j","true","","","","1904.9000000022352","true","4","","","","","","","","","","","","","","","","",""
"","","","","","html-keyboard-response","153","1331798","0.0-3.0-5.0-0.4","5d29187bd96c80001769ec41","B2","batch2","pattern_show_trial_num","null","<p class=block-text>Trial 5 out of 78</p>","null","","","","","","","","","","","","","","","","","","","","","","","","","",""
"","","","","","image-keyboard-response","154","1333213","0.0-3.0-5.0-1.4","5d29187bd96c80001769ec41","B2","batch2","pattern_response","1409.5","stim/yes_53_ver_b1_b.png","f","pattern_74","f","true","","","","1409.5","true","5","","","","","","","","","","","","","","","","",""
"","","","","","html-keyboard-response","155","1334526","0.0-3.0-5.0-0.5","5d29187bd96c80001769ec41","B2","batch2","pattern_show_trial_num","null","<p class=block-text>Trial 6 out of 78</p>","null","","","","","","","","","","","","","","","","","","","","","","","","","",""
"","","","","","image-keyboard-response","156","1335402","0.0-3.0-5.0-1.5","5d29187bd96c80001769ec41","B2","batch2","pattern_response","871","stim/yes_46_ver_b1_b.png","f","pattern_68","f","true","","","","871","true","6","","","","","","","","","","","","","","","","",""
"","","","","","html-keyboard-response","157","1336718","0.0-3.0-5.0-0.6","5d29187bd96c80001769ec41","B2","batch2","pattern_show_trial_num","null","<p class=block-text>Trial 7 out of 78</p>","null","","","","","","","","","","","","","","","","","","","","","","","","","",""
"","","","","","image-keyboard-response","158","1339071","0.0-3.0-5.0-1.6","5d29187bd96c80001769ec41","B2","batch2","pattern_response","2347.89999999851","stim/no_25_1_b.png","j","pattern_09","j","true","","","","2347.89999999851","true","7","","","","","","","","","","","","","","","","",""
"","","","","","html-keyboard-response","159","1340383","0.0-3.0-5.0-0.7","5d29187bd96c80001769ec41","B2","batch2","pattern_show_trial_num","null","<p class=block-text>Trial 8 out of 78</p>","null","","","","","","","","","","","","","","","","","","","","","","","","","",""
"","","","","","image-keyboard-response","160","1341351","0.0-3.0-5.0-1.7","5d29187bd96c80001769ec41","B2","batch2","pattern_response","963.3000000007451","stim/yes_15_dia_b1u_b.png","f","pattern_44","f","true","","","","963.3000000007451","true","8","","","","","","","","","","","","","","","","",""
"","","","","","html-keyboard-response","161","1342662","0.0-3.0-5.0-0.8","5d29187bd96c80001769ec41","B2","batch2","pattern_show_trial_num","null","<p class=block-text>Trial 9 out of 78</p>","null","","","","","","","","","","","","","","","","","","","","","","","","","",""
"","","","","","image-keyboard-response","162","1345239","0.0-3.0-5.0-1.8","5d29187bd96c80001769ec41","B2","batch2","pattern_response","2573.199999999255","stim/yes_58_dia_w1_w.png","j","pattern_76","f","false","","","","2573.199999999255","false","8","","","","","","","","","","","","","","","","",""
"","","","","","html-keyboard-response","163","1346550","0.0-3.0-5.0-0.9","5d29187bd96c80001769ec41","B2","batch2","pattern_show_trial_num","null","<p class=block-text>Trial 10 out of 78</p>","null","","","","","","","","","","","","","","","","","","","","","","","","","",""
"","","","","","image-keyboard-response","164","1347458","0.0-3.0-5.0-1.9","5d29187bd96c80001769ec41","B2","batch2","pattern_response","902.3000000007451","stim/yes_33_dia_w1_w.png","f","pattern_56","f","true","","","","902.3000000007451","true","9","","","","","","","","","","","","","","","","",""
"","","","","","html-keyboard-response","165","1348774","0.0-3.0-5.0-0.10","5d29187bd96c80001769ec41","B2","batch2","pattern_show_trial_num","null","<p class=block-text>Trial 11 out of 78</p>","null","","","","","","","","","","","","","","","","","","","","","","","","","",""
"","","","","","image-keyboard-response","166","1350586","0.0-3.0-5.0-1.10","5d29187bd96c80001769ec41","B2","batch2","pattern_response","1807.800000000745","stim/yes_42_dia_w1_w.png","j","pattern_64","f","false","","","","1807.800000000745","false","9","","","","","","","","","","","","","","","","",""
"","","","","","html-keyboard-response","167","1351902","0.0-3.0-5.0-0.11","5d29187bd96c80001769ec41","B2","batch2","pattern_show_trial_num","null","<p class=block-text>Trial 12 out of 78</p>","null","","","","","","","","","","","","","","","","","","","","","","","","","",""
"","","","","","image-keyboard-response","168","1354067","0.0-3.0-5.0-1.11","5d29187bd96c80001769ec41","B2","batch2","pattern_response","2159.300000000745","stim/no_58_1_w.png","j","pattern_35","j","true","","","","2159.300000000745","true","10","","","","","","","","","","","","","","","","",""
"","","","","","html-keyboard-response","169","1355382","0.0-3.0-5.0-0.12","5d29187bd96c80001769ec41","B2","batch2","pattern_show_trial_num","null","<p class=block-text>Trial 13 out of 78</p>","null","","","","","","","","","","","","","","","","","","","","","","","","","",""
"","","","","","image-keyboard-response","170","1356067","0.0-3.0-5.0-1.12","5d29187bd96c80001769ec41","B2","batch2","pattern_response","680.6999999992549","stim/yes_70_ver_b1.png","f","pattern_80","f","true","","","","680.6999999992549","true","11","","","","","","","","","","","","","","","","",""
"","","","","","html-keyboard-response","171","1357383","0.0-3.0-5.0-0.13","5d29187bd96c80001769ec41","B2","batch2","pattern_show_trial_num","null","<p class=block-text>Trial 14 out of 78</p>","null","","","","","","","","","","","","","","","","","","","","","","","","","",""
"","","","","","image-keyboard-response","172","1359402","0.0-3.0-5.0-1.13","5d29187bd96c80001769ec41","B2","batch2","pattern_response","2014.300000000745","stim/no_37_2_w.png","j","pattern_19","j","true","","","","2014.300000000745","true","12","","","","","","","","","","","","","","","","",""
"","","","","","html-keyboard-response","173","1360710","0.0-3.0-5.0-0.14","5d29187bd96c80001769ec41","B2","batch2","pattern_show_trial_num","null","<p class=block-text>Trial 15 out of 78</p>","null","","","","","","","","","","","","","","","","","","","","","","","","","",""
"","","","","","image-keyboard-response","174","1363013","0.0-3.0-5.0-1.14","5d29187bd96c80001769ec41","B2","batch2","pattern_response","2297.7999999970198","stim/no_51_1.png","j","pattern_31","j","true","","","","2297.7999999970198","true","13","","","","","","","","","","","","","","","","",""
"","","","","","html-keyboard-response","175","1364327","0.0-3.0-5.0-0.15","5d29187bd96c80001769ec41","B2","batch2","pattern_show_trial_num","null","<p class=block-text>Trial 16 out of 78</p>","null","","","","","","","","","","","","","","","","","","","","","","","","","",""
"","","","","","image-keyboard-response","176","1365022","0.0-3.0-5.0-1.15","5d29187bd96c80001769ec41","B2","batch2","pattern_response","689.3000000007451","stim/yes_12_hor_w1_w.png","f","pattern_42","f","true","","","","689.3000000007451","true","14","","","","","","","","","","","","","","","","",""
"","","","","","html-keyboard-response","177","1366334","0.0-3.0-5.0-0.16","5d29187bd96c80001769ec41","B2","batch2","pattern_show_trial_num","null","<p class=block-text>Trial 17 out of 78</p>","null","","","","","","","","","","","","","","","","","","","","","","","","","",""
"","","","","","image-keyboard-response","178","1367223","0.0-3.0-5.0-1.16","5d29187bd96c80001769ec41","B2","batch2","pattern_response","885.4000000022352","stim/yes_30_ver_b1_b.png","f","pattern_54","f","true","","","","885.4000000022352","true","15","","","","","","","","","","","","","","","","",""
"","","","","","html-keyboard-response","179","1368534","0.0-3.0-5.0-0.17","5d29187bd96c80001769ec41","B2","batch2","pattern_show_trial_num","null","<p class=block-text>Trial 18 out of 78</p>","null","","","","","","","","","","","","","","","","","","","","","","","","","",""
"","","","","","image-keyboard-response","180","1369617","0.0-3.0-5.0-1.17","5d29187bd96c80001769ec41","B2","batch2","pattern_response","1079","stim/no_22_1_b.png","j","pattern_07","j","true","","","","1079","true","16","","","","","","","","","","","","","","","","",""
"","","","","","html-keyboard-response","181","1370966","0.0-3.0-5.0-0.18","5d29187bd96c80001769ec41","B2","batch2","pattern_show_trial_num","null","<p class=block-text>Trial 19 out of 78</p>","null","","","","","","","","","","","","","","","","","","","","","","","","","",""
"","","","","","image-keyboard-response","182","1371651","0.0-3.0-5.0-1.18","5d29187bd96c80001769ec41","B2","batch2","pattern_response","680.1999999992549","stim/no_15_1_w.png","j","pattern_03","j","true","","","","680.1999999992549","true","17","","","","","","","","","","","","","","","","",""
"","","","","","html-keyboard-response","183","1372966","0.0-3.0-5.0-0.19","5d29187bd96c80001769ec41","B2","batch2","pattern_show_trial_num","null","<p class=block-text>Trial 20 out of 78</p>","null","","","","","","","","","","","","","","","","","","","","","","","","","",""
"","","","","","image-keyboard-response","184","1375310","0.0-3.0-5.0-1.19","5d29187bd96c80001769ec41","B2","batch2","pattern_response","2340","stim/no_49_2_b.png","j","pattern_29","j","true","","","","2340","true","18","","","","","","","","","","","","","","","","",""
"","","","","","html-keyboard-response","185","1376622","0.0-3.0-5.0-0.20","5d29187bd96c80001769ec41","B2","batch2","pattern_show_trial_num","null","<p class=block-text>Trial 21 out of 78</p>","null","","","","","","","","","","","","","","","","","","","","","","","","","",""
"","","","","","image-keyboard-response","186","1378400","0.0-3.0-5.0-1.20","5d29187bd96c80001769ec41","B2","batch2","pattern_response","1773.1000000014901","stim/no_39_1_w.png","j","pattern_21","j","true","","","","1773.1000000014901","true","19","","","","","","","","","","","","","","","","",""
"","","","","","html-keyboard-response","187","1379711","0.0-3.0-5.0-0.21","5d29187bd96c80001769ec41","B2","batch2","pattern_show_trial_num","null","<p class=block-text>Trial 22 out of 78</p>","null","","","","","","","","","","","","","","","","","","","","","","","","","",""
"","","","","","image-keyboard-response","188","1382077","0.0-3.0-5.0-1.21","5d29187bd96c80001769ec41","B2","batch2","pattern_response","2362.7999999970198","stim/no_28_2.png","j","pattern_11","j","true","","","","2362.7999999970198","true","20","","","","","","","","","","","","","","","","",""
"","","","","","html-keyboard-response","189","1383390","0.0-3.0-5.0-0.22","5d29187bd96c80001769ec41","B2","batch2","pattern_show_trial_num","null","<p class=block-text>Trial 23 out of 78</p>","null","","","","","","","","","","","","","","","","","","","","","","","","","",""
"","","","","","image-keyboard-response","190","1385731","0.0-3.0-5.0-1.22","5d29187bd96c80001769ec41","B2","batch2","pattern_response","2336","stim/no_67_1.png","j","pattern_39","j","true","","","","2336","true","21","","","","","","","","","","","","","","","","",""
"","","","","","html-keyboard-response","191","1387046","0.0-3.0-5.0-0.23","5d29187bd96c80001769ec41","B2","batch2","pattern_show_trial_num","null","<p class=block-text>Trial 24 out of 78</p>","null","","","","","","","","","","","","","","","","","","","","","","","","","",""
"","","","","","image-keyboard-response","192","1389753","0.0-3.0-5.0-1.23","5d29187bd96c80001769ec41","B2","batch2","pattern_response","2701.7999999970198","stim/no_33_1_b.png","j","pattern_15","j","true","","","","2701.7999999970198","true","22","","","","","","","","","","","","","","","","",""
"","","","","","html-keyboard-response","193","1391062","0.0-3.0-5.0-0.24","5d29187bd96c80001769ec41","B2","batch2","pattern_show_trial_num","null","<p class=block-text>Trial 25 out of 78</p>","null","","","","","","","","","","","","","","","","","","","","","","","","","",""
"","","","","","image-keyboard-response","194","1391792","0.0-3.0-5.0-1.24","5d29187bd96c80001769ec41","B2","batch2","pattern_response","724.3000000007451","stim/yes_29_hor_b1_b.png","f","pattern_52","f","true","","","","724.3000000007451","true","23","","","","","","","","","","","","","","","","",""
"","","","","","html-keyboard-response","195","1393103","0.0-3.0-5.0-0.25","5d29187bd96c80001769ec41","B2","batch2","pattern_show_trial_num","null","<p class=block-text>Trial 26 out of 78</p>","null","","","","","","","","","","","","","","","","","","","","","","","","","",""
"","","","","","image-keyboard-response","196","1393888","0.0-3.0-5.0-1.25","5d29187bd96c80001769ec41","B2","batch2","pattern_response","780.6000000014901","stim/yes_39_hor_w1_w.png","f","pattern_62","f","true","","","","780.6000000014901","true","24","","","","","","","","","","","","","","","","",""
"","","","","","html-keyboard-response","197","1395198","0.0-3.0-5.0-0.26","5d29187bd96c80001769ec41","B2","batch2","pattern_show_trial_num","null","<p class=block-text>Trial 27 out of 78</p>","null","","","","","","","","","","","","","","","","","","","","","","","","","",""
"","","","","","image-keyboard-response","198","1396808","0.0-3.0-5.0-1.26","5d29187bd96c80001769ec41","B2","batch2","pattern_response","1606.1000000014901","stim/no_30_1_b.png","j","pattern_13","j","true","","","","1606.1000000014901","true","25","","","","","","","","","","","","","","","","",""
"","","","","","html-keyboard-response","199","1398118","0.0-3.0-5.0-0.27","5d29187bd96c80001769ec41","B2","batch2","pattern_show_trial_num","null","<p class=block-text>Trial 28 out of 78</p>","null","","","","","","","","","","","","","","","","","","","","","","","","","",""
"","","","","","image-keyboard-response","200","1401064","0.0-3.0-5.0-1.27","5d29187bd96c80001769ec41","B2","batch2","pattern_response","2940.89999999851","stim/no_53_1_b.png","j","pattern_33","j","true","","","","2940.89999999851","true","26","","","","","","","","","","","","","","","","",""
"","","","","","html-keyboard-response","201","1402375","0.0-3.0-5.0-0.28","5d29187bd96c80001769ec41","B2","batch2","pattern_show_trial_num","null","<p class=block-text>Trial 29 out of 78</p>","null","","","","","","","","","","","","","","","","","","","","","","","","","",""
"","","","","","image-keyboard-response","202","1403055","0.0-3.0-5.0-1.28","5d29187bd96c80001769ec41","B2","batch2","pattern_response","674.8000000007451","stim/yes_17_ver_b1_b.png","f","pattern_46","f","true","","","","674.8000000007451","true","27","","","","","","","","","","","","","","","","",""
"","","","","","html-keyboard-response","203","1404366","0.0-3.0-5.0-0.29","5d29187bd96c80001769ec41","B2","batch2","pattern_show_trial_num","null","<p class=block-text>Trial 30 out of 78</p>","null","","","","","","","","","","","","","","","","","","","","","","","","","",""
"","","","","","image-keyboard-response","204","1405109","0.0-3.0-5.0-1.29","5d29187bd96c80001769ec41","B2","batch2","pattern_response","740.3000000007451","stim/yes_49_hor_w1_b.png","f","pattern_70","f","true","","","","740.3000000007451","true","28","","","","","","","","","","","","","","","","",""
"","","","","","html-keyboard-response","205","1406423","0.0-3.0-5.0-0.30","5d29187bd96c80001769ec41","B2","batch2","pattern_show_trial_num","null","<p class=block-text>Trial 31 out of 78</p>","null","","","","","","","","","","","","","","","","","","","","","","","","","",""
"","","","","","image-keyboard-response","206","1408578","0.0-3.0-5.0-1.30","5d29187bd96c80001769ec41","B2","batch2","pattern_response","2150.800000000745","stim/yes_44_ver_w1_w.png","f","pattern_66","f","true","","","","2150.800000000745","true","29","","","","","","","","","","","","","","","","",""
"","","","","","html-keyboard-response","207","1409887","0.0-3.0-5.0-0.31","5d29187bd96c80001769ec41","B2","batch2","pattern_show_trial_num","null","<p class=block-text>Trial 32 out of 78</p>","null","","","","","","","","","","","","","","","","","","","","","","","","","",""
"","","","","","image-keyboard-response","208","1410624","0.0-3.0-5.0-1.31","5d29187bd96c80001769ec41","B2","batch2","pattern_response","732.1999999992549","stim/yes_23_ver_b1.png","f","pattern_48","f","true","","","","732.1999999992549","true","30","","","","","","","","","","","","","","","","",""
"","","","","","html-keyboard-response","209","1411934","0.0-3.0-5.0-0.32","5d29187bd96c80001769ec41","B2","batch2","pattern_show_trial_num","null","<p class=block-text>Trial 33 out of 78</p>","null","","","","","","","","","","","","","","","","","","","","","","","","","",""
"","","","","","image-keyboard-response","210","1413032","0.0-3.0-5.0-1.32","5d29187bd96c80001769ec41","B2","batch2","pattern_response","1093.6000000014901","stim/no_12_1.png","j","pattern_01","j","true","","","","1093.6000000014901","true","31","","","","","","","","","","","","","","","","",""
"","","","","","html-keyboard-response","211","1414343","0.0-3.0-5.0-0.33","5d29187bd96c80001769ec41","B2","batch2","pattern_show_trial_num","null","<p class=block-text>Trial 34 out of 78</p>","null","","","","","","","","","","","","","","","","","","","","","","","","","",""
"","","","","","image-keyboard-response","212","1416209","0.0-3.0-5.0-1.33","5d29187bd96c80001769ec41","B2","batch2","pattern_response","1862","stim/no_47_1_b.png","j","pattern_27","j","true","","","","1862","true","32","","","","","","","","","","","","","","","","",""
"","","","","","html-keyboard-response","213","1417519","0.0-3.0-5.0-0.34","5d29187bd96c80001769ec41","B2","batch2","pattern_show_trial_num","null","<p class=block-text>Trial 35 out of 78</p>","null","","","","","","","","","","","","","","","","","","","","","","","","","",""
"","","","","","image-keyboard-response","214","1418786","0.0-3.0-5.0-1.34","5d29187bd96c80001769ec41","B2","batch2","pattern_response","1262.699999999255","stim/yes_51_dia_b1.png","f","pattern_72","f","true","","","","1262.699999999255","true","33","","","","","","","","","","","","","","","","",""
"","","","","","html-keyboard-response","215","1420103","0.0-3.0-5.0-0.35","5d29187bd96c80001769ec41","B2","batch2","pattern_show_trial_num","null","<p class=block-text>Trial 36 out of 78</p>","null","","","","","","","","","","","","","","","","","","","","","","","","","",""
"","","","","","image-keyboard-response","216","1421940","0.0-3.0-5.0-1.35","5d29187bd96c80001769ec41","B2","batch2","pattern_response","1832.0999999977648","stim/no_45_1_w.png","j","pattern_25","j","true","","","","1832.0999999977648","true","34","","","","","","","","","","","","","","","","",""
"","","","","","html-keyboard-response","217","1423254","0.0-3.0-5.0-0.36","5d29187bd96c80001769ec41","B2","batch2","pattern_show_trial_num","null","<p class=block-text>Trial 37 out of 78</p>","null","","","","","","","","","","","","","","","","","","","","","","","","","",""
"","","","","","image-keyboard-response","218","1425717","0.0-3.0-5.0-1.36","5d29187bd96c80001769ec41","B2","batch2","pattern_response","2459","stim/no_36_1_b.png","j","pattern_17","j","true","","","","2459","true","35","","","","","","","","","","","","","","","","",""
"","","","","","html-keyboard-response","219","1427030","0.0-3.0-5.0-0.37","5d29187bd96c80001769ec41","B2","batch2","pattern_show_trial_num","null","<p class=block-text>Trial 38 out of 78</p>","null","","","","","","","","","","","","","","","","","","","","","","","","","",""
"","","","","","image-keyboard-response","220","1427793","0.0-3.0-5.0-1.37","5d29187bd96c80001769ec41","B2","batch2","pattern_response","757.6999999992549","stim/yes_36_ver_w1_w.png","f","pattern_58","f","true","","","","757.6999999992549","true","36","","","","","","","","","","","","","","","","",""
"","","","","","html-keyboard-response","221","1429103","0.0-3.0-5.0-0.38","5d29187bd96c80001769ec41","B2","batch2","pattern_show_trial_num","null","<p class=block-text>Trial 39 out of 78</p>","null","","","","","","","","","","","","","","","","","","","","","","","","","",""
"","","","","","image-keyboard-response","222","1429734","0.0-3.0-5.0-1.38","5d29187bd96c80001769ec41","B2","batch2","pattern_response","626.7999999970198","stim/yes_37_hor_w1_w.png","f","pattern_60","f","true","","","","626.7999999970198","true","37","","","","","","","","","","","","","","","","",""
"","","","","","image-keyboard-response","223","1431651","0.0-3.0-6.0","5d29187bd96c80001769ec41","B2","batch2","attention_check","1409.5","stim/empty_board.png","j","","j","true","","","","","","","500","[""f"",""j""]","","","","","","","","","","","","","","",""
"","","","","","html-keyboard-response","224","1432462","0.0-3.0-7.0-0.0","5d29187bd96c80001769ec41","B2","batch2","pattern_show_trial_num","null","<p class=block-text>Trial 40 out of 78</p>","null","","","","","","","","","","","","","","","","","","","","","","","","","",""
"","","","","","image-keyboard-response","225","1434574","0.0-3.0-7.0-1.0","5d29187bd96c80001769ec41","B2","batch2","pattern_response","2106.800000000745","stim/yes_55_hor_w1_w.png","f","pattern_75","f","true","","","","2106.800000000745","true","38","","","","","","","","","","","","","","","","",""
"","","","","","html-keyboard-response","226","1435886","0.0-3.0-7.0-0.1","5d29187bd96c80001769ec41","B2","batch2","pattern_show_trial_num","null","<p class=block-text>Trial 41 out of 78</p>","null","","","","","","","","","","","","","","","","","","","","","","","","","",""
"","","","","","image-keyboard-response","227","1438302","0.0-3.0-7.0-1.1","5d29187bd96c80001769ec41","B2","batch2","pattern_response","2411.699999999255","stim/no_46_1_b.png","j","pattern_26","j","true","","","","2411.699999999255","true","39","","","","","","","","","","","","","","","","",""
"","","","","","html-keyboard-response","228","1439614","0.0-3.0-7.0-0.2","5d29187bd96c80001769ec41","B2","batch2","pattern_show_trial_num","null","<p class=block-text>Trial 42 out of 78</p>","null","","","","","","","","","","","","","","","","","","","","","","","","","",""
"","","","","","image-keyboard-response","229","1441290","0.0-3.0-7.0-1.2","5d29187bd96c80001769ec41","B2","batch2","pattern_response","1670.4000000022352","stim/yes_37_dia_w1.png","f","pattern_59","f","true","","","","1670.4000000022352","true","40","","","","","","","","","","","","","","","","",""
"","","","","","html-keyboard-response","230","1442606","0.0-3.0-7.0-0.3","5d29187bd96c80001769ec41","B2","batch2","pattern_show_trial_num","null","<p class=block-text>Trial 43 out of 78</p>","null","","","","","","","","","","","","","","","","","","","","","","","","","",""
"","","","","","image-keyboard-response","231","1443203","0.0-3.0-7.0-1.3","5d29187bd96c80001769ec41","B2","batch2","pattern_response","592.5","stim/yes_14_hor_b1_w.png","f","pattern_43","f","true","","","","592.5","true","41","","","","","","","","","","","","","","","","",""
"","","","","","html-keyboard-response","232","1444518","0.0-3.0-7.0-0.4","5d29187bd96c80001769ec41","B2","batch2","pattern_show_trial_num","null","<p class=block-text>Trial 44 out of 78</p>","null","","","","","","","","","","","","","","","","","","","","","","","","","",""
"","","","","","image-keyboard-response","233","1445668","0.0-3.0-7.0-1.4","5d29187bd96c80001769ec41","B2","batch2","pattern_response","1146.300000000745","stim/yes_52_ver_w1.png","f","pattern_73","f","true","","","","1146.300000000745","true","42","","","","","","","","","","","","","","","","",""
"","","","","","html-keyboard-response","234","1446982","0.0-3.0-7.0-0.5","5d29187bd96c80001769ec41","B2","batch2","pattern_show_trial_num","null","<p class=block-text>Trial 45 out of 78</p>","null","","","","","","","","","","","","","","","","","","","","","","","","","",""
"","","","","","image-keyboard-response","235","1450019","0.0-3.0-7.0-1.5","5d29187bd96c80001769ec41","B2","batch2","pattern_response","3032.199999999255","stim/yes_40_dia_b1_b.png","j","pattern_63","f","false","","","","3032.199999999255","false","42","","","","","","","","","","","","","","","","",""
"","","","","","html-keyboard-response","236","1451335","0.0-3.0-7.0-0.6","5d29187bd96c80001769ec41","B2","batch2","pattern_show_trial_num","null","<p class=block-text>Trial 46 out of 78</p>","null","","","","","","","","","","","","","","","","","","","","","","","","","",""
"","","","","","image-keyboard-response","237","1453184","0.0-3.0-7.0-1.6","5d29187bd96c80001769ec41","B2","batch2","pattern_response","1843.6000000014901","stim/no_34_1_b.png","j","pattern_16","j","true","","","","1843.6000000014901","true","43","","","","","","","","","","","","","","","","",""
"","","","","","html-keyboard-response","238","1454494","0.0-3.0-7.0-0.7","5d29187bd96c80001769ec41","B2","batch2","pattern_show_trial_num","null","<p class=block-text>Trial 47 out of 78</p>","null","","","","","","","","","","","","","","","","","","","","","","","","","",""
"","","","","","image-keyboard-response","239","1455966","0.0-3.0-7.0-1.7","5d29187bd96c80001769ec41","B2","batch2","pattern_response","1467.1000000014901","stim/no_13_2_b.png","j","pattern_02","j","true","","","","1467.1000000014901","true","44","","","","","","","","","","","","","","","","",""
"","","","","","html-keyboard-response","240","1457278","0.0-3.0-7.0-0.8","5d29187bd96c80001769ec41","B2","batch2","pattern_show_trial_num","null","<p class=block-text>Trial 48 out of 78</p>","null","","","","","","","","","","","","","","","","","","","","","","","","","",""
"","","","","","image-keyboard-response","241","1460464","0.0-3.0-7.0-1.8","5d29187bd96c80001769ec41","B2","batch2","pattern_response","3181.400000002235","stim/no_62_1_w.png","j","pattern_36","j","true","","","","3181.400000002235","true","45","","","","","","","","","","","","","","","","",""
"","","","","","html-keyboard-response","242","1461774","0.0-3.0-7.0-0.9","5d29187bd96c80001769ec41","B2","batch2","pattern_show_trial_num","null","<p class=block-text>Trial 49 out of 78</p>","null","","","","","","","","","","","","","","","","","","","","","","","","","",""
"","","","","","image-keyboard-response","243","1462671","0.0-3.0-7.0-1.9","5d29187bd96c80001769ec41","B2","batch2","pattern_response","891.8000000007451","stim/yes_22_ver_w1.png","f","pattern_47","f","true","","","","891.8000000007451","true","46","","","","","","","","","","","","","","","","",""
"","","","","","html-keyboard-response","244","1463983","0.0-3.0-7.0-0.10","5d29187bd96c80001769ec41","B2","batch2","pattern_show_trial_num","null","<p class=block-text>Trial 50 out of 78</p>","null","","","","","","","","","","","","","","","","","","","","","","","","","",""
"","","","","","image-keyboard-response","245","1464961","0.0-3.0-7.0-1.10","5d29187bd96c80001769ec41","B2","batch2","pattern_response","973.8999999985099","stim/yes_31_hor_b1.png","f","pattern_55","f","true","","","","973.8999999985099","true","47","","","","","","","","","","","","","","","","",""
"","","","","","html-keyboard-response","246","1466270","0.0-3.0-7.0-0.11","5d29187bd96c80001769ec41","B2","batch2","pattern_show_trial_num","null","<p class=block-text>Trial 51 out of 78</p>","null","","","","","","","","","","","","","","","","","","","","","","","","","",""
"","","","","","image-keyboard-response","247","1466892","0.0-3.0-7.0-1.11","5d29187bd96c80001769ec41","B2","batch2","pattern_response","617.5","stim/yes_25_hor_b1_b.png","f","pattern_49","f","true","","","","617.5","true","48","","","","","","","","","","","","","","","","",""
"","","","","","html-keyboard-response","248","1468207","0.0-3.0-7.0-0.12","5d29187bd96c80001769ec41","B2","batch2","pattern_show_trial_num","null","<p class=block-text>Trial 52 out of 78</p>","null","","","","","","","","","","","","","","","","","","","","","","","","","",""
"","","","","","image-keyboard-response","249","1468919","0.0-3.0-7.0-1.12","5d29187bd96c80001769ec41","B2","batch2","pattern_response","708","stim/yes_28_ver_b1.png","f","pattern_51","f","true","","","","708","true","49","","","","","","","","","","","","","","","","",""
"","","","","","html-keyboard-response","250","1470231","0.0-3.0-7.0-0.13","5d29187bd96c80001769ec41","B2","batch2","pattern_show_trial_num","null","<p class=block-text>Trial 53 out of 78</p>","null","","","","","","","","","","","","","","","","","","","","","","","","","",""
"","","","","","image-keyboard-response","251","1472431","0.0-3.0-7.0-1.13","5d29187bd96c80001769ec41","B2","batch2","pattern_response","2196","stim/no_36_2_w.png","j","pattern_18","j","true","","","","2196","true","50","","","","","","","","","","","","","","","","",""
"","","","","","html-keyboard-response","252","1473742","0.0-3.0-7.0-0.14","5d29187bd96c80001769ec41","B2","batch2","pattern_show_trial_num","null","<p class=block-text>Trial 54 out of 78</p>","null","","","","","","","","","","","","","","","","","","","","","","","","","",""
"","","","","","image-keyboard-response","253","1476618","0.0-3.0-7.0-1.14","5d29187bd96c80001769ec41","B2","batch2","pattern_response","2872.400000002235","stim/no_44_1.png","j","pattern_24","j","true","","","","2872.400000002235","true","51","","","","","","","","","","","","","","","","",""
"","","","","","html-keyboard-response","254","1477935","0.0-3.0-7.0-0.15","5d29187bd96c80001769ec41","B2","batch2","pattern_show_trial_num","null","<p class=block-text>Trial 55 out of 78</p>","null","","","","","","","","","","","","","","","","","","","","","","","","","",""
"","","","","","image-keyboard-response","255","1479341","0.0-3.0-7.0-1.15","5d29187bd96c80001769ec41","B2","batch2","pattern_response","1400.800000000745","stim/no_32_1_w.png","j","pattern_14","j","true","","","","1400.800000000745","true","52","","","","","","","","","","","","","","","","",""
"","","","","","html-keyboard-response","256","1480654","0.0-3.0-7.0-0.16","5d29187bd96c80001769ec41","B2","batch2","pattern_show_trial_num","null","<p class=block-text>Trial 56 out of 78</p>","null","","","","","","","","","","","","","","","","","","","","","","","","","",""
"","","","","","image-keyboard-response","257","1482892","0.0-3.0-7.0-1.16","5d29187bd96c80001769ec41","B2","batch2","pattern_response","2232.900000002235","stim/no_42_1_w.png","j","pattern_22","j","true","","","","2232.900000002235","true","53","","","","","","","","","","","","","","","","",""
"","","","","","html-keyboard-response","258","1484206","0.0-3.0-7.0-0.17","5d29187bd96c80001769ec41","B2","batch2","pattern_show_trial_num","null","<p class=block-text>Trial 57 out of 78</p>","null","","","","","","","","","","","","","","","","","","","","","","","","","",""
"","","","","","image-keyboard-response","259","1487348","0.0-3.0-7.0-1.17","5d29187bd96c80001769ec41","B2","batch2","pattern_response","3136.89999999851","stim/no_48_1_w.png","j","pattern_28","j","true","","","","3136.89999999851","true","54","","","","","","","","","","","","","","","","",""
"","","","","","html-keyboard-response","260","1488662","0.0-3.0-7.0-0.18","5d29187bd96c80001769ec41","B2","batch2","pattern_show_trial_num","null","<p class=block-text>Trial 58 out of 78</p>","null","","","","","","","","","","","","","","","","","","","","","","","","","",""
"","","","","","image-keyboard-response","261","1489950","0.0-3.0-7.0-1.18","5d29187bd96c80001769ec41","B2","batch2","pattern_response","1283.1000000014901","stim/yes_43_ver_w1_w.png","f","pattern_65","f","true","","","","1283.1000000014901","true","55","","","","","","","","","","","","","","","","",""
"","","","","","html-keyboard-response","262","1491263","0.0-3.0-7.0-0.19","5d29187bd96c80001769ec41","B2","batch2","pattern_show_trial_num","null","<p class=block-text>Trial 59 out of 78</p>","null","","","","","","","","","","","","","","","","","","","","","","","","","",""
"","","","","","image-keyboard-response","263","1492012","0.0-3.0-7.0-1.19","5d29187bd96c80001769ec41","B2","batch2","pattern_response","744.9000000022352","stim/yes_17_dia_w1.png","f","pattern_45","f","true","","","","744.9000000022352","true","56","","","","","","","","","","","","","","","","",""
"","","","","","html-keyboard-response","264","1493326","0.0-3.0-7.0-0.20","5d29187bd96c80001769ec41","B2","batch2","pattern_show_trial_num","null","<p class=block-text>Trial 60 out of 78</p>","null","","","","","","","","","","","","","","","","","","","","","","","","","",""
"","","","","","image-keyboard-response","265","1494491","0.0-3.0-7.0-1.20","5d29187bd96c80001769ec41","B2","batch2","pattern_response","1161.1000000014901","stim/yes_45_hor_b2_b.png","f","pattern_67","f","true","","","","1161.1000000014901","true","57","","","","","","","","","","","","","","","","",""
"","","","","","html-keyboard-response","266","1495806","0.0-3.0-7.0-0.21","5d29187bd96c80001769ec41","B2","batch2","pattern_show_trial_num","null","<p class=block-text>Trial 61 out of 78</p>","null","","","","","","","","","","","","","","","","","","","","","","","","","",""
"","","","","","image-keyboard-response","267","1497880","0.0-3.0-7.0-1.21","5d29187bd96c80001769ec41","B2","batch2","pattern_response","2069.900000002235","stim/yes_50_dia_w1.png","j","pattern_71","f","false","","","","2069.900000002235","false","57","","","","","","","","","","","","","","","","",""
"","","","","","html-keyboard-response","268","1499191","0.0-3.0-7.0-0.22","5d29187bd96c80001769ec41","B2","batch2","pattern_show_trial_num","null","<p class=block-text>Trial 62 out of 78</p>","null","","","","","","","","","","","","","","","","","","","","","","","","","",""
"","","","","","image-keyboard-response","269","1500231","0.0-3.0-7.0-1.22","5d29187bd96c80001769ec41","B2","batch2","pattern_response","1034.5999999977648","stim/yes_29_ver_w1.png","f","pattern_53","f","true","","","","1034.5999999977648","true","58","","","","","","","","","","","","","","","","",""
"","","","","","html-keyboard-response","270","1501543","0.0-3.0-7.0-0.23","5d29187bd96c80001769ec41","B2","batch2","pattern_show_trial_num","null","<p class=block-text>Trial 63 out of 78</p>","null","","","","","","","","","","","","","","","","","","","","","","","","","",""
"","","","","","image-keyboard-response","271","1502703","0.0-3.0-7.0-1.23","5d29187bd96c80001769ec41","B2","batch2","pattern_response","1156.0999999977648","stim/no_17_1_w.png","j","pattern_04","j","true","","","","1156.0999999977648","true","59","","","","","","","","","","","","","","","","",""
"","","","","","html-keyboard-response","272","1504015","0.0-3.0-7.0-0.24","5d29187bd96c80001769ec41","B2","batch2","pattern_show_trial_num","null","<p class=block-text>Trial 64 out of 78</p>","null","","","","","","","","","","","","","","","","","","","","","","","","","",""
"","","","","","image-keyboard-response","273","1505439","0.0-3.0-7.0-1.24","5d29187bd96c80001769ec41","B2","batch2","pattern_response","1420.199999999255","stim/yes_35_dia_b1.png","f","pattern_57","f","true","","","","1420.199999999255","true","60","","","","","","","","","","","","","","","","",""
"","","","","","html-keyboard-response","274","1506750","0.0-3.0-7.0-0.25","5d29187bd96c80001769ec41","B2","batch2","pattern_show_trial_num","null","<p class=block-text>Trial 65 out of 78</p>","null","","","","","","","","","","","","","","","","","","","","","","","","","",""
"","","","","","image-keyboard-response","275","1510646","0.0-3.0-7.0-1.25","5d29187bd96c80001769ec41","B2","batch2","pattern_response","3890.39999999851","stim/no_70_2.png","j","pattern_40","j","true","","","","3890.39999999851","true","61","","","","","","","","","","","","","","","","",""
"","","","","","html-keyboard-response","276","1511958","0.0-3.0-7.0-0.26","5d29187bd96c80001769ec41","B2","batch2","pattern_show_trial_num","null","<p class=block-text>Trial 66 out of 78</p>","null","","","","","","","","","","","","","","","","","","","","","","","","","",""
"","","","","","image-keyboard-response","277","1514561","0.0-3.0-7.0-1.26","5d29187bd96c80001769ec41","B2","batch2","pattern_response","2597.800000000745","stim/no_52_1.png","j","pattern_32","j","true","","","","2597.800000000745","true","62","","","","","","","","","","","","","","","","",""
"","","","","","html-keyboard-response","278","1515870","0.0-3.0-7.0-0.27","5d29187bd96c80001769ec41","B2","batch2","pattern_show_trial_num","null","<p class=block-text>Trial 67 out of 78</p>","null","","","","","","","","","","","","","","","","","","","","","","","","","",""
"","","","","","image-keyboard-response","279","1518710","0.0-3.0-7.0-1.27","5d29187bd96c80001769ec41","B2","batch2","pattern_response","2801.2999999970198","stim/yes_60_ver_b1_b.png","f","pattern_77","f","true","","","","2801.2999999970198","true","63","","","","","","","","","","","","","","","","",""
"","","","","","html-keyboard-response","280","1520022","0.0-3.0-7.0-0.28","5d29187bd96c80001769ec41","B2","batch2","pattern_show_trial_num","null","<p class=block-text>Trial 68 out of 78</p>","null","","","","","","","","","","","","","","","","","","","","","","","","","",""
"","","","","","image-keyboard-response","281","1522270","0.0-3.0-7.0-1.28","5d29187bd96c80001769ec41","B2","batch2","pattern_response","2243.2000000029802","stim/no_29_1_b.png","j","pattern_12","j","true","","","","2243.2000000029802","true","64","","","","","","","","","","","","","","","","",""
"","","","","","html-keyboard-response","282","1523583","0.0-3.0-7.0-0.29","5d29187bd96c80001769ec41","B2","batch2","pattern_show_trial_num","null","<p class=block-text>Trial 69 out of 78</p>","null","","","","","","","","","","","","","","","","","","","","","","","","","",""
"","","","","","image-keyboard-response","283","1525131","0.0-3.0-7.0-1.29","5d29187bd96c80001769ec41","B2","batch2","pattern_response","1543.9000000022352","stim/no_20_1_w.png","j","pattern_06","j","true","","","","1543.9000000022352","true","65","","","","","","","","","","","","","","","","",""
"","","","","","html-keyboard-response","284","1526446","0.0-3.0-7.0-0.30","5d29187bd96c80001769ec41","B2","batch2","pattern_show_trial_num","null","<p class=block-text>Trial 70 out of 78</p>","null","","","","","","","","","","","","","","","","","","","","","","","","","",""
"","","","","","image-keyboard-response","285","1528719","0.0-3.0-7.0-1.30","5d29187bd96c80001769ec41","B2","batch2","pattern_response","2269.699999999255","stim/no_23_1.png","j","pattern_08","j","true","","","","2269.699999999255","true","66","","","","","","","","","","","","","","","","",""
"","","","","","html-keyboard-response","286","1530031","0.0-3.0-7.0-0.31","5d29187bd96c80001769ec41","B2","batch2","pattern_show_trial_num","null","<p class=block-text>Trial 71 out of 78</p>","null","","","","","","","","","","","","","","","","","","","","","","","","","",""
"","","","","","image-keyboard-response","287","1533630","0.0-3.0-7.0-1.31","5d29187bd96c80001769ec41","B2","batch2","pattern_response","3595.300000000745","stim/yes_48_dia_w1_w.png","j","pattern_69","f","false","","","","3595.300000000745","false","66","","","","","","","","","","","","","","","","",""
"","","","","","html-keyboard-response","288","1534943","0.0-3.0-7.0-0.32","5d29187bd96c80001769ec41","B2","batch2","pattern_show_trial_num","null","<p class=block-text>Trial 72 out of 78</p>","null","","","","","","","","","","","","","","","","","","","","","","","","","",""
"","","","","","image-keyboard-response","289","1536398","0.0-3.0-7.0-1.32","5d29187bd96c80001769ec41","B2","batch2","pattern_response","1450.199999999255","stim/no_26_1_w.png","j","pattern_10","j","true","","","","1450.199999999255","true","67","","","","","","","","","","","","","","","","",""
"","","","","","html-keyboard-response","290","1537710","0.0-3.0-7.0-0.33","5d29187bd96c80001769ec41","B2","batch2","pattern_show_trial_num","null","<p class=block-text>Trial 73 out of 78</p>","null","","","","","","","","","","","","","","","","","","","","","","","","","",""
"","","","","","image-keyboard-response","291","1538776","0.0-3.0-7.0-1.33","5d29187bd96c80001769ec41","B2","batch2","pattern_response","1062.300000000745","stim/yes_38_hor_b1_b.png","f","pattern_61","f","true","","","","1062.300000000745","true","68","","","","","","","","","","","","","","","","",""
"","","","","","html-keyboard-response","292","1540087","0.0-3.0-7.0-0.34","5d29187bd96c80001769ec41","B2","batch2","pattern_show_trial_num","null","<p class=block-text>Trial 74 out of 78</p>","null","","","","","","","","","","","","","","","","","","","","","","","","","",""
"","","","","","image-keyboard-response","293","1543841","0.0-3.0-7.0-1.34","5d29187bd96c80001769ec41","B2","batch2","pattern_response","3750","stim/no_55_1_w.png","j","pattern_34","j","true","","","","3750","true","69","","","","","","","","","","","","","","","","",""
"","","","","","html-keyboard-response","294","1545150","0.0-3.0-7.0-0.35","5d29187bd96c80001769ec41","B2","batch2","pattern_show_trial_num","null","<p class=block-text>Trial 75 out of 78</p>","null","","","","","","","","","","","","","","","","","","","","","","","","","",""
"","","","","","image-keyboard-response","295","1547862","0.0-3.0-7.0-1.35","5d29187bd96c80001769ec41","B2","batch2","pattern_response","2706.2000000029802","stim/no_38_1_b.png","j","pattern_20","j","true","","","","2706.2000000029802","true","70","","","","","","","","","","","","","","","","",""
"","","","","","html-keyboard-response","296","1549174","0.0-3.0-7.0-0.36","5d29187bd96c80001769ec41","B2","batch2","pattern_show_trial_num","null","<p class=block-text>Trial 76 out of 78</p>","null","","","","","","","","","","","","","","","","","","","","","","","","","",""
"","","","","","image-keyboard-response","297","1551429","0.0-3.0-7.0-1.36","5d29187bd96c80001769ec41","B2","batch2","pattern_response","2250.300000000745","stim/yes_67_hor_b1.png","f","pattern_79","f","true","","","","2250.300000000745","true","71","","","","","","","","","","","","","","","","",""
"","","","","","html-keyboard-response","298","1552742","0.0-3.0-7.0-0.37","5d29187bd96c80001769ec41","B2","batch2","pattern_show_trial_num","null","<p class=block-text>Trial 77 out of 78</p>","null","","","","","","","","","","","","","","","","","","","","","","","","","",""
"","","","","","image-keyboard-response","299","1555817","0.0-3.0-7.0-1.37","5d29187bd96c80001769ec41","B2","batch2","pattern_response","3069.599999997765","stim/no_50_1.png","j","pattern_30","j","true","","","","3069.599999997765","true","72","","","","","","","","","","","","","","","","",""
"","","","","","html-keyboard-response","300","1557126","0.0-3.0-7.0-0.38","5d29187bd96c80001769ec41","B2","batch2","pattern_show_trial_num","null","<p class=block-text>Trial 78 out of 78</p>","null","","","","","","","","","","","","","","","","","","","","","","","","","",""
"","","","","","image-keyboard-response","301","1561806","0.0-3.0-7.0-1.38","5d29187bd96c80001769ec41","B2","batch2","pattern_response","4674.29999999702","stim/no_65_1_b.png","j","pattern_38","j","true","","","","4674.29999999702","true","73","","","","","","","","","","","","","","","","",""
"","","","","","html-button-response","302","1566950","0.0-3.0-8.0","5d29187bd96c80001769ec41","B2","batch2","","4635.5","<p class = block-text>This concludes the 4-in-a-row detection game.Thank you for your responses!<br>
            You responded correctly on 94% of the trials.<br>
            When you are ready, press ""Continue"" button to continue </p>","0","","","","","","","","","","","","","","","","","","","","","","","","","",""
"true","","","","","fullscreen","303","1570230","0.0-4.0-0.0","5d29187bd96c80001769ec41","B2","batch2","","","","","","","","","","","","","","","","","","","","","","","","","","","","","",""
"","","","","","instructions","304","1613875","0.0-4.0-1.0-0.0-0.0","5d29187bd96c80001769ec41","B2","batch2","tol-instructions","43643.29999999702","","","","","","","","[{""page_index"":0,""viewing_time"":10758.099999997765},{""page_index"":1,""viewing_time"":5556.300000000745},{""page_index"":2,""viewing_time"":2738.300000000745},{""page_index"":3,""viewing_time"":9911.5},{""page_index"":4,""viewing_time"":3783.099999997765},{""page_index"":5,""viewing_time"":8777.5},{""page_index"":6,""viewing_time"":2117.7000000029802}]","","","","","","","","","","","","","","","","","","","",""
"","","","","","html-button-response","305","1615076","0.0-4.0-1.0-1.0-0.0","5d29187bd96c80001769ec41","B2","batch2","tol_enter_quiz","1197.3999999985099","<p class=block-text> Let's answer a few questions <br>","0","","","","","","","","","","","","","","","","","","","","","","","","","",""
"","","","","","html-button-response","306","1618318","0.0-4.0-1.0-1.0-1.0","5d29187bd96c80001769ec41","B2","batch2","tol_quiz","3236.89999999851","<p class = block-text>True or False: You can only move the ball on top of a peg. <br></p>","0","","","true","","","","","","","","","","","","","","","","","","","","","","",""
"","","","","","html-button-response","307","1619520","0.0-4.0-1.0-1.0-2.0","5d29187bd96c80001769ec41","B2","batch2","tol_quiz_feedback","1182.7000000029802","<p class = block-text>Correct! You can only move the ball on top of a peg.</p>","0","","","","","","","","","","","","","","","","","","","","","","","","","",""
"","","","","","html-button-response","308","1621913","0.0-4.0-1.0-1.0-3.0","5d29187bd96c80001769ec41","B2","batch2","tol_quiz","2390","<p class = block-text>True or False: You should try to match your board with the target board with fewest moves possible. <br></p>","0","","","true","","","","","","","","","","","","","","","","","","","","","","",""
"","","","","","html-button-response","309","1622750","0.0-4.0-1.0-1.0-4.0","5d29187bd96c80001769ec41","B2","batch2","tol_quiz_feedback","832.6999999992549","<p class = block-text>Correct! </p>","0","","","","","","","","","","","","","","","","","","","","","","","","","",""
"","","","","","html-button-response","310","1623893","0.0-4.0-2.0","5d29187bd96c80001769ec41","B2","batch2","","1139.699999999255","<p class=block-text> Now that you've understood the game, let's practice a few easier examples before we start!<br> <br>","0","","","","","","","","","","","","","","","","","","","","","","","","","",""
"","","","","","single-stim-button","311","1626017","0.0-4.0-3.0-0.0","5d29187bd96c80001769ec41","B2","batch2","tol_practice","2117","","","","","","","","","","","","","","tol_peg_2","2117","2117","0","[[1,2,0],[0,0],[0]]","1","[[1,2,0],[0,0],[3]]","practice","2117","","","","","",""
"","","","","","single-stim-button","312","1628396","0.0-4.0-3.0-1.0","5d29187bd96c80001769ec41","B2","batch2","tol_practice","2375","","","","","","","","","","","","","","tol_peg_3","2375","2375","0","[[1,2,0],[0,0],[3]]","1","[[1,2,0],[0,0],[3]]","practice","2375","","","","","",""
"","","","","","poldrack-single-stim","313","1629407","0.0-4.0-4.0","5d29187bd96c80001769ec41","B2","batch2","tol_feedback","-1","","","","","true","","","","","","","","","","1000","1000","500","","","","","","-1","none","true","","0",""
"","","","","","single-stim-button","314","1632495","0.0-4.0-5.0-0.0","5d29187bd96c80001769ec41","B2","batch2","tol_practice","3085","","","","","","","","","","","","","","tol_peg_1","3085","3085","0","[[1,0,0],[3,0],[0]]","2","[[0,0,0],[3,1],[2]]","practice","3085","","","","","",""
"","","","","","single-stim-button","315","1633707","0.0-4.0-5.0-1.0","5d29187bd96c80001769ec41","B2","batch2","tol_practice","1209","","","","","","","","","","","","","","tol_peg_3","1209","1209","0","[[1,0,0],[3,0],[2]]","2","[[0,0,0],[3,1],[2]]","practice","1209","","","","","",""
"","","","","","single-stim-button","316","1634918","0.0-4.0-5.1-0.1","5d29187bd96c80001769ec41","B2","batch2","tol_practice","1208","","","","","","","","","","","","","","tol_peg_1","1208","1208","0","[[0,0,0],[3,0],[2]]","3","[[0,0,0],[3,1],[2]]","practice","1208","","","","","",""
"","","","","","single-stim-button","317","1636396","0.0-4.0-5.1-1.1","5d29187bd96c80001769ec41","B2","batch2","tol_practice","1475","","","","","","","","","","","","","","tol_peg_2","1475","1475","0","[[0,0,0],[3,1],[2]]","3","[[0,0,0],[3,1],[2]]","practice","1475","","","","","",""
"","","","","","poldrack-single-stim","318","1637407","0.0-4.0-6.0","5d29187bd96c80001769ec41","B2","batch2","tol_feedback","-1","","","","","true","","","","","","","","","","1000","1000","500","","","","","","-1","none","true","","0",""
"","","","","","single-stim-button","319","1640711","0.0-4.0-7.0-0.0","5d29187bd96c80001769ec41","B2","batch2","tol_practice","3301","","","","","","","","","","","","","","tol_peg_2","3301","3301","0","[[1,2,0],[0,0],[0]]","4","[[1,0,0],[2,0],[3]]","practice","3301","","","","","",""
"","","","","","single-stim-button","320","1642229","0.0-4.0-7.0-1.0","5d29187bd96c80001769ec41","B2","batch2","tol_practice","1516","","","","","","","","","","","","","","tol_peg_3","1516","1516","0","[[1,2,0],[0,0],[3]]","4","[[1,0,0],[2,0],[3]]","practice","1516","","","","","",""
"","","","","","single-stim-button","321","1643372","0.0-4.0-7.1-0.1","5d29187bd96c80001769ec41","B2","batch2","tol_practice","1139","","","","","","","","","","","","","","tol_peg_1","1139","1139","0","[[1,0,0],[0,0],[3]]","5","[[1,0,0],[2,0],[3]]","practice","1139","","","","","",""
"","","","","","single-stim-button","322","1644237","0.0-4.0-7.1-1.1","5d29187bd96c80001769ec41","B2","batch2","tol_practice","862","","","","","","","","","","","","","","tol_peg_2","862","862","0","[[1,0,0],[2,0],[3]]","5","[[1,0,0],[2,0],[3]]","practice","862","","","","","",""
"","","","","","poldrack-single-stim","323","1645247","0.0-4.0-8.0","5d29187bd96c80001769ec41","B2","batch2","tol_feedback","-1","","","","","true","","","","","","","","","","1000","1000","500","","","","","","-1","none","true","","0",""
"","","","","","html-button-response","324","1648482","0.0-4.0-9.0","5d29187bd96c80001769ec41","B2","batch2","tol_instruction","3231.60000000149","<div class = centerbox><p class = center-block-text>Great job! You are done with practice trials<br>You are about to start official trials.<br> <br> Problem <strong>1</strong> out of 25 problems</p></div>","0","","","","","","","","","","","","","","","","","","","","","","","","","",""
"","","","","","single-stim-button","325","1654571","0.0-4.0-10.0-0.0","5d29187bd96c80001769ec41","B2","batch2","tol_tohand","5082","","","","","","","","","","","","","","tol_peg_1","5082","5082","0","[[1,0,0],[3,0],[0]]","1","[[1,3,0],[2,0],[0]]","0","0","","","","","","3"
"","","","","","single-stim-button","326","1656246","0.0-4.0-10.0-1.0","5d29187bd96c80001769ec41","B2","batch2","tol_toboard","1671","","","","","","","","","","","","","","tol_peg_3","1671","1671","0","[[1,0,0],[3,0],[2]]","1","[[1,3,0],[2,0],[0]]","0","0","","","","","","3"
"","","","","","single-stim-button","327","1657339","0.0-4.0-10.1-0.1","5d29187bd96c80001769ec41","B2","batch2","tol_tohand","1089","","","","","","","","","","","","","","tol_peg_2","1089","1089","0","[[1,0,0],[0,0],[2]]","2","[[1,3,0],[2,0],[0]]","0","0","","","","","","3"
"","","","","","single-stim-button","328","1658493","0.0-4.0-10.1-1.1","5d29187bd96c80001769ec41","B2","batch2","tol_toboard","1150","","","","","","","","","","","","","","tol_peg_1","1150","1150","0","[[1,3,0],[0,0],[2]]","2","[[1,3,0],[2,0],[0]]","0","0","","","","","","3"
"","","","","","single-stim-button","329","1659654","0.0-4.0-10.2-0.2","5d29187bd96c80001769ec41","B2","batch2","tol_tohand","1159","","","","","","","","","","","","","","tol_peg_3","1159","1159","0","[[1,3,0],[0,0],[0]]","3","[[1,3,0],[2,0],[0]]","0","0","","","","","","3"
"","","","","","single-stim-button","330","1660807","0.0-4.0-10.2-1.2","5d29187bd96c80001769ec41","B2","batch2","tol_toboard","1150","","","","","","","","","","","","","","tol_peg_2","1150","1150","0","[[1,3,0],[2,0],[0]]","3","[[1,3,0],[2,0],[0]]","0","0","","","","","","3"
"","","","","","poldrack-single-stim","331","1661814","0.0-4.0-11.0","5d29187bd96c80001769ec41","B2","batch2","tol_feedback","-1","","","","","true","","","","","","","","","","1000","1000","500","","","","","","-1","none","true","5082","7330",""
"","","","","","html-button-response","332","1662856","0.0-4.0-12.0","5d29187bd96c80001769ec41","B2","batch2","tol_trial_num","1037.3999999985099","<div class = centerbox><p class = center-block-text>problem <strong>2</strong> out of 25 problems</p></div>","0","","","","","","","","","","","","","","","","","","","","","","","","","",""
"","","","","","single-stim-button","333","1666019","0.0-4.0-13.0-0.0","5d29187bd96c80001769ec41","B2","batch2","tol_tohand","3159","","","","","","","","","","","","","","tol_peg_1","3159","3159","0","[[1,0,0],[3,0],[0]]","1","[[2,1,3],[0,0],[0]]","1","0","","","","","","5"
"","","","","","single-stim-button","334","1668581","0.0-4.0-13.0-1.0","5d29187bd96c80001769ec41","B2","batch2","tol_toboard","2558","","","","","","","","","","","","","","tol_peg_3","2558","2558","0","[[1,0,0],[3,0],[2]]","1","[[2,1,3],[0,0],[0]]","1","0","","","","","","5"
"","","","","","single-stim-button","335","1669830","0.0-4.0-13.1-0.1","5d29187bd96c80001769ec41","B2","batch2","tol_tohand","1246","","","","","","","","","","","","","","tol_peg_1","1246","1246","0","[[0,0,0],[3,0],[2]]","2","[[2,1,3],[0,0],[0]]","1","0","","","","","","5"
"","","","","","single-stim-button","336","1671584","0.0-4.0-13.1-1.1","5d29187bd96c80001769ec41","B2","batch2","tol_toboard","1752","","","","","","","","","","","","","","tol_peg_2","1752","1752","0","[[0,0,0],[3,1],[2]]","2","[[2,1,3],[0,0],[0]]","1","0","","","","","","5"
"","","","","","single-stim-button","337","1672648","0.0-4.0-13.2-0.2","5d29187bd96c80001769ec41","B2","batch2","tol_tohand","1060","","","","","","","","","","","","","","tol_peg_3","1060","1060","0","[[0,0,0],[3,1],[0]]","3","[[2,1,3],[0,0],[0]]","1","0","","","","","","5"
"","","","","","single-stim-button","338","1674361","0.0-4.0-13.2-1.2","5d29187bd96c80001769ec41","B2","batch2","tol_toboard","1711","","","","","","","","","","","","","","tol_peg_1","1711","1711","0","[[2,0,0],[3,1],[0]]","3","[[2,1,3],[0,0],[0]]","1","0","","","","","","5"
"","","","","","single-stim-button","339","1675524","0.0-4.0-13.3-0.3","5d29187bd96c80001769ec41","B2","batch2","tol_tohand","1160","","","","","","","","","","","","","","tol_peg_2","1160","1160","0","[[2,0,0],[3,0],[0]]","4","[[2,1,3],[0,0],[0]]","1","0","","","","","","5"
"","","","","","single-stim-button","340","1676943","0.0-4.0-13.3-1.3","5d29187bd96c80001769ec41","B2","batch2","tol_toboard","1416","","","","","","","","","","","","","","tol_peg_1","1416","1416","0","[[2,1,0],[3,0],[0]]","4","[[2,1,3],[0,0],[0]]","1","0","","","","","","5"
"","","","","","single-stim-button","341","1678086","0.0-4.0-13.4-0.4","5d29187bd96c80001769ec41","B2","batch2","tol_tohand","1139","","","","","","","","","","","","","","tol_peg_2","1139","1139","0","[[2,1,0],[0,0],[0]]","5","[[2,1,3],[0,0],[0]]","1","0","","","","","","5"
"","","","","","single-stim-button","342","1679691","0.0-4.0-13.4-1.4","5d29187bd96c80001769ec41","B2","batch2","tol_toboard","1603","","","","","","","","","","","","","","tol_peg_1","1603","1603","0","[[2,1,3],[0,0],[0]]","5","[[2,1,3],[0,0],[0]]","1","0","","","","","","5"
"","","","","","poldrack-single-stim","343","1680702","0.0-4.0-14.0","5d29187bd96c80001769ec41","B2","batch2","tol_feedback","-1","","","","","true","","","","","","","","","","1000","1000","500","","","","","","-1","none","true","3159","7764",""
"","","","","","html-button-response","344","1682025","0.0-4.0-15.0","5d29187bd96c80001769ec41","B2","batch2","tol_trial_num","1319.699999999255","<div class = centerbox><p class = center-block-text>problem <strong>3</strong> out of 25 problems</p></div>","0","","","","","","","","","","","","","","","","","","","","","","","","","",""
"","","","","","single-stim-button","345","1691050","0.0-4.0-16.0-0.0","5d29187bd96c80001769ec41","B2","batch2","tol_tohand","9021","","","","","","","","","","","","","","tol_peg_1","9021","9021","0","[[2,0,0],[0,0],[1]]","1","[[1,2,0],[3,0],[0]]","2","0","","","","","","4"
"","","","","","single-stim-button","346","1693039","0.0-4.0-16.0-1.0","5d29187bd96c80001769ec41","B2","batch2","tol_toboard","1986","","","","","","","","","","","","","","tol_peg_2","1986","1986","0","[[2,0,0],[3,0],[1]]","1","[[1,2,0],[3,0],[0]]","2","0","","","","","","4"
