"success","timeout","failed_images","failed_audio","failed_video","trial_type","trial_index","time_elapsed","internal_node_id","subject_id","study_id","session_id","view_history","rt","task","stimulus","response","correct","mouse_click","stim_duration","block_duration","timing_post_trial","current_position","tol_num_moves_made","tol_target","tol_problem_id","tol_rt","key_press","possible_responses","tol_correct","preplanning","tol_rt_per_trial","tol_min_moves","item","answer","spm_correct","spm_rt","fiar_detect_rt","fiar_detect_correct","total_correct_fiar_detect","post_trial_gap","choices"
"true","false","[]","[]","[]","preload","0","7958","0.0-0.0","5d2df745da13f60018d14b64","E1","batch5","","","","","","","","","","","","","","","","","","","","","","","","","","","","","",""
"true","","","","","fullscreen","1","19449","0.0-1.0-0.0","5d2df745da13f60018d14b64","E1","batch5","","","","","","","","","","","","","","","","","","","","","","","","","","","","","",""
"true","","","","","fullscreen","2","22778","0.0-2.0-0.0","5d2df745da13f60018d14b64","E1","batch5","","","","","","","","","","","","","","","","","","","","","","","","","","","","","",""
"","","","","","instructions","3","125244","0.0-2.0-1.0-0.0-0.0","5d2df745da13f60018d14b64","E1","batch5","[{""page_index"":0,""viewing_time"":11609.90000000014},{""page_index"":1,""viewing_time"":4539.699999999953},{""page_index"":2,""viewing_time"":2480.5999999998603},{""page_index"":3,""viewing_time"":8706.100000000093},{""page_index"":4,""viewing_time"":5165},{""page_index"":5,""viewing_time"":5465.699999999953},{""page_index"":6,""viewing_time"":64494.60000000009}]","102462.6000000001","tol-instructions","","","","","","","","","","","","","","","","","","","","","","","","","","",""
"","","","","","html-button-response","4","126405","0.0-2.0-1.0-1.0-0.0","5d2df745da13f60018d14b64","E1","batch5","","1155.5999999998603","tol_enter_quiz","<p class=block-text> Let's answer a few questions <br>","0","","","","","","","","","","","","","","","","","","","","","","","","",""
"","","","","","html-button-response","5","130811","0.0-2.0-1.0-1.0-1.0","5d2df745da13f60018d14b64","E1","batch5","","4398.40000000014","tol_quiz","<p class = block-text>True or False: You can only move the ball on top of a peg. <br></p>","0","true","","","","","","","","","","","","","","","","","","","","","","","",""
"","","","","","html-button-response","6","132198","0.0-2.0-1.0-1.0-2.0","5d2df745da13f60018d14b64","E1","batch5","","1380.8000000000466","tol_quiz_feedback","<p class = block-text>Correct! You can only move the ball on top of a peg.</p>","0","","","","","","","","","","","","","","","","","","","","","","","","",""
"","","","","","html-button-response","7","134852","0.0-2.0-1.0-1.0-3.0","5d2df745da13f60018d14b64","E1","batch5","","2652","tol_quiz","<p class = block-text>True or False: You should try to match your board with the target board with fewest moves possible. <br></p>","0","true","","","","","","","","","","","","","","","","","","","","","","","",""
"","","","","","html-button-response","8","135952","0.0-2.0-1.0-1.0-4.0","5d2df745da13f60018d14b64","E1","batch5","","1095.6999999999534","tol_quiz_feedback","<p class = block-text>Correct! </p>","0","","","","","","","","","","","","","","","","","","","","","","","","",""
"","","","","","html-button-response","9","138132","0.0-2.0-2.0","5d2df745da13f60018d14b64","E1","batch5","","2175.3000000000466","","<p class=block-text> Now that you've understood the game, let's practice a few easier examples before we start!<br> <br>","0","","","","","","","","","","","","","","","","","","","","","","","","",""
"","","","","","single-stim-button","10","141333","0.0-2.0-3.0-0.0","5d2df745da13f60018d14b64","E1","batch5","","3193","tol_practice","","","","tol_peg_2","3193","3193","0","[[1,2,0],[0,0],[0]]","1","[[1,2,0],[0,0],[3]]","practice","3193","","","","","","","","","","","","","","",""
"","","","","","single-stim-button","11","143685","0.0-2.0-3.0-1.0","5d2df745da13f60018d14b64","E1","batch5","","2347","tol_practice","","","","tol_peg_3","2347","2347","0","[[1,2,0],[0,0],[3]]","1","[[1,2,0],[0,0],[3]]","practice","2347","","","","","","","","","","","","","","",""
"","","","","","poldrack-single-stim","12","144692","0.0-2.0-4.0","5d2df745da13f60018d14b64","E1","batch5","","-1","tol_feedback","","","true","","1000","1000","500","","","","","","-1","none","true","","0","","","","","","","","","",""
"","","","","","single-stim-button","13","150369","0.0-2.0-5.0-0.0","5d2df745da13f60018d14b64","E1","batch5","","5674","tol_practice","","","","tol_peg_1","5674","5674","0","[[1,0,0],[3,0],[0]]","2","[[0,0,0],[3,1],[2]]","practice","5674","","","","","","","","","","","","","","",""
"","","","","","single-stim-button","14","151827","0.0-2.0-5.0-1.0","5d2df745da13f60018d14b64","E1","batch5","","1454","tol_practice","","","","tol_peg_3","1454","1454","0","[[1,0,0],[3,0],[2]]","2","[[0,0,0],[3,1],[2]]","practice","1454","","","","","","","","","","","","","","",""
"","","","","","single-stim-button","15","154293","0.0-2.0-5.1-0.1","5d2df745da13f60018d14b64","E1","batch5","","2461","tol_practice","","","","tol_peg_1","2461","2461","0","[[0,0,0],[3,0],[2]]","3","[[0,0,0],[3,1],[2]]","practice","2461","","","","","","","","","","","","","","",""
"","","","","","single-stim-button","16","155433","0.0-2.0-5.1-1.1","5d2df745da13f60018d14b64","E1","batch5","","1137","tol_practice","","","","tol_peg_2","1137","1137","0","[[0,0,0],[3,1],[2]]","3","[[0,0,0],[3,1],[2]]","practice","1137","","","","","","","","","","","","","","",""
"","","","","","poldrack-single-stim","17","156438","0.0-2.0-6.0","5d2df745da13f60018d14b64","E1","batch5","","-1","tol_feedback","","","true","","1000","1000","500","","","","","","-1","none","true","","0","","","","","","","","","",""
"","","","","","single-stim-button","18","168773","0.0-2.0-7.0-0.0","5d2df745da13f60018d14b64","E1","batch5","","12333","tol_practice","","","","tol_peg_2","12333","12333","0","[[1,2,0],[0,0],[0]]","4","[[1,0,0],[2,0],[3]]","practice","12333","","","","","","","","","","","","","","",""
"","","","","","single-stim-button","19","170161","0.0-2.0-7.0-1.0","5d2df745da13f60018d14b64","E1","batch5","","1384","tol_practice","","","","tol_peg_3","1384","1384","0","[[1,2,0],[0,0],[3]]","4","[[1,0,0],[2,0],[3]]","practice","1384","","","","","","","","","","","","","","",""
"","","","","","single-stim-button","20","171905","0.0-2.0-7.1-0.1","5d2df745da13f60018d14b64","E1","batch5","","1741","tol_practice","","","","tol_peg_1","1741","1741","0","[[1,0,0],[0,0],[3]]","5","[[1,0,0],[2,0],[3]]","practice","1741","","","","","","","","","","","","","","",""
"","","","","","single-stim-button","21","172907","0.0-2.0-7.1-1.1","5d2df745da13f60018d14b64","E1","batch5","","998","tol_practice","","","","tol_peg_2","998","998","0","[[1,0,0],[2,0],[3]]","5","[[1,0,0],[2,0],[3]]","practice","998","","","","","","","","","","","","","","",""
"","","","","","poldrack-single-stim","22","173912","0.0-2.0-8.0","5d2df745da13f60018d14b64","E1","batch5","","-1","tol_feedback","","","true","","1000","1000","500","","","","","","-1","none","true","","0","","","","","","","","","",""
"","","","","","html-button-response","23","177539","0.0-2.0-9.0","5d2df745da13f60018d14b64","E1","batch5","","3624.3000000000466","tol_instruction","<div class = centerbox><p class = center-block-text>Great job! You are done with practice trials<br>You are about to start official trials.<br> <br> Problem <strong>1</strong> out of 25 problems</p></div>","0","","","","","","","","","","","","","","","","","","","","","","","","",""
"","","","","","single-stim-button","24","185233","0.0-2.0-10.0-0.0","5d2df745da13f60018d14b64","E1","batch5","","6688","tol_tohand","","","","tol_peg_2","6688","6688","0","[[1,2,0],[0,0],[0]]","1","[[1,3,0],[2,0],[0]]","0","0","","","","","","3","","","","","","","","",""
"","","","","","single-stim-button","25","186562","0.0-2.0-10.0-1.0","5d2df745da13f60018d14b64","E1","batch5","","1324","tol_toboard","","","","tol_peg_3","1324","1324","0","[[1,2,0],[0,0],[3]]","1","[[1,3,0],[2,0],[0]]","0","0","","","","","","3","","","","","","","","",""
"","","","","","single-stim-button","26","187938","0.0-2.0-10.1-0.1","5d2df745da13f60018d14b64","E1","batch5","","1373","tol_tohand","","","","tol_peg_1","1373","1373","0","[[1,0,0],[0,0],[3]]","2","[[1,3,0],[2,0],[0]]","0","0","","","","","","3","","","","","","","","",""
"","","","","","single-stim-button","27","189237","0.0-2.0-10.1-1.1","5d2df745da13f60018d14b64","E1","batch5","","1295","tol_toboard","","","","tol_peg_2","1295","1295","0","[[1,0,0],[2,0],[3]]","2","[[1,3,0],[2,0],[0]]","0","0","","","","","","3","","","","","","","","",""
"","","","","","single-stim-button","28","190406","0.0-2.0-10.2-0.2","5d2df745da13f60018d14b64","E1","batch5","","1167","tol_tohand","","","","tol_peg_3","1167","1167","0","[[1,0,0],[2,0],[0]]","3","[[1,3,0],[2,0],[0]]","0","0","","","","","","3","","","","","","","","",""
"","","","","","single-stim-button","29","191666","0.0-2.0-10.2-1.2","5d2df745da13f60018d14b64","E1","batch5","","1257","tol_toboard","","","","tol_peg_1","1257","1257","0","[[1,3,0],[2,0],[0]]","3","[[1,3,0],[2,0],[0]]","0","0","","","","","","3","","","","","","","","",""
"","","","","","poldrack-single-stim","30","192671","0.0-2.0-11.0","5d2df745da13f60018d14b64","E1","batch5","","-1","tol_feedback","","","true","","1000","1000","500","","","","","","-1","none","true","6688","9228","","","","","","","","","",""
"","","","","","html-button-response","31","194133","0.0-2.0-12.0","5d2df745da13f60018d14b64","E1","batch5","","1458","tol_trial_num","<div class = centerbox><p class = center-block-text>problem <strong>2</strong> out of 25 problems</p></div>","0","","","","","","","","","","","","","","","","","","","","","","","","",""
"","","","","","single-stim-button","32","199222","0.0-2.0-13.0-0.0","5d2df745da13f60018d14b64","E1","batch5","","5087","tol_tohand","","","","tol_peg_1","5087","5087","0","[[1,0,0],[3,0],[0]]","1","[[2,1,3],[0,0],[0]]","1","0","","","","","","5","","","","","","","","",""
"","","","","","single-stim-button","33","205128","0.0-2.0-13.0-1.0","5d2df745da13f60018d14b64","E1","batch5","","5903","tol_toboard","","","","tol_peg_3","5903","5903","0","[[1,0,0],[3,0],[2]]","1","[[2,1,3],[0,0],[0]]","1","0","","","","","","5","","","","","","","","",""
"","","","","","single-stim-button","34","214856","0.0-2.0-13.1-0.1","5d2df745da13f60018d14b64","E1","batch5","","9725","tol_tohand","","","","tol_peg_1","9725","9725","0","[[0,0,0],[3,0],[2]]","2","[[2,1,3],[0,0],[0]]","1","0","","","","","","5","","","","","","","","",""
"","","","","","single-stim-button","35","216998","0.0-2.0-13.1-1.1","5d2df745da13f60018d14b64","E1","batch5","","2138","tol_toboard","","","","tol_peg_2","2138","2138","0","[[0,0,0],[3,1],[2]]","2","[[2,1,3],[0,0],[0]]","1","0","","","","","","5","","","","","","","","",""
"","","","","","single-stim-button","36","218345","0.0-2.0-13.2-0.2","5d2df745da13f60018d14b64","E1","batch5","","1344","tol_tohand","","","","tol_peg_3","1344","1344","0","[[0,0,0],[3,1],[0]]","3","[[2,1,3],[0,0],[0]]","1","0","","","","","","5","","","","","","","","",""
"","","","","","single-stim-button","37","219822","0.0-2.0-13.2-1.2","5d2df745da13f60018d14b64","E1","batch5","","1475","tol_toboard","","","","tol_peg_1","1475","1475","0","[[2,0,0],[3,1],[0]]","3","[[2,1,3],[0,0],[0]]","1","0","","","","","","5","","","","","","","","",""
"","","","","","single-stim-button","38","221210","0.0-2.0-13.3-0.3","5d2df745da13f60018d14b64","E1","batch5","","1385","tol_tohand","","","","tol_peg_2","1385","1385","0","[[2,0,0],[3,0],[0]]","4","[[2,1,3],[0,0],[0]]","1","0","","","","","","5","","","","","","","","",""
"","","","","","single-stim-button","39","222429","0.0-2.0-13.3-1.3","5d2df745da13f60018d14b64","E1","batch5","","1217","tol_toboard","","","","tol_peg_1","1217","1217","0","[[2,1,0],[3,0],[0]]","4","[[2,1,3],[0,0],[0]]","1","0","","","","","","5","","","","","","","","",""
"","","","","","single-stim-button","40","223400","0.0-2.0-13.4-0.4","5d2df745da13f60018d14b64","E1","batch5","","968","tol_tohand","","","","tol_peg_2","968","968","0","[[2,1,0],[0,0],[0]]","5","[[2,1,3],[0,0],[0]]","1","0","","","","","","5","","","","","","","","",""
"","","","","","single-stim-button","41","224421","0.0-2.0-13.4-1.4","5d2df745da13f60018d14b64","E1","batch5","","1018","tol_toboard","","","","tol_peg_1","1018","1018","0","[[2,1,3],[0,0],[0]]","5","[[2,1,3],[0,0],[0]]","1","0","","","","","","5","","","","","","","","",""
"","","","","","poldrack-single-stim","42","225431","0.0-2.0-14.0","5d2df745da13f60018d14b64","E1","batch5","","-1","tol_feedback","","","true","","1000","1000","500","","","","","","-1","none","true","5087","18509","","","","","","","","","",""
"","","","","","html-button-response","43","226968","0.0-2.0-15.0","5d2df745da13f60018d14b64","E1","batch5","","1534.2000000001863","tol_trial_num","<div class = centerbox><p class = center-block-text>problem <strong>3</strong> out of 25 problems</p></div>","0","","","","","","","","","","","","","","","","","","","","","","","","",""
"","","","","","single-stim-button","44","239858","0.0-2.0-16.0-0.0","5d2df745da13f60018d14b64","E1","batch5","","12886","tol_tohand","","","","tol_peg_1","12886","12886","0","[[2,0,0],[0,0],[1]]","1","[[1,2,0],[3,0],[0]]","2","0","","","","","","4","","","","","","","","",""
"","","","","","single-stim-button","45","241195","0.0-2.0-16.0-1.0","5d2df745da13f60018d14b64","E1","batch5","","1334","tol_toboard","","","","tol_peg_2","1334","1334","0","[[2,0,0],[3,0],[1]]","1","[[1,2,0],[3,0],[0]]","2","0","","","","","","4","","","","","","","","",""
"","","","","","single-stim-button","46","243129","0.0-2.0-16.1-0.1","5d2df745da13f60018d14b64","E1","batch5","","1931","tol_tohand","","","","tol_peg_1","1931","1931","0","[[0,0,0],[3,0],[1]]","2","[[1,2,0],[3,0],[0]]","2","0","","","","","","4","","","","","","","","",""
"","","","","","single-stim-button","47","245062","0.0-2.0-16.1-1.1","5d2df745da13f60018d14b64","E1","batch5","","1928","tol_toboard","","","","tol_peg_2","1928","1928","0","[[0,0,0],[3,2],[1]]","2","[[1,2,0],[3,0],[0]]","2","0","","","","","","4","","","","","","","","",""
"","","","","","single-stim-button","48","245974","0.0-2.0-16.2-0.2","5d2df745da13f60018d14b64","E1","batch5","","909","tol_tohand","","","","tol_peg_3","909","909","0","[[0,0,0],[3,2],[0]]","3","[[1,2,0],[3,0],[0]]","2","0","","","","","","4","","","","","","","","",""
"","","","","","single-stim-button","49","247916","0.0-2.0-16.2-1.2","5d2df745da13f60018d14b64","E1","batch5","","1939","tol_toboard","","","","tol_peg_1","1939","1939","0","[[1,0,0],[3,2],[0]]","3","[[1,2,0],[3,0],[0]]","2","0","","","","","","4","","","","","","","","",""
"","","","","","single-stim-button","50","249155","0.0-2.0-16.3-0.3","5d2df745da13f60018d14b64","E1","batch5","","1236","tol_tohand","","","","tol_peg_2","1236","1236","0","[[1,0,0],[3,0],[0]]","4","[[1,2,0],[3,0],[0]]","2","0","","","","","","4","","","","","","","","",""
"","","","","","single-stim-button","51","250394","0.0-2.0-16.3-1.3","5d2df745da13f60018d14b64","E1","batch5","","1236","tol_toboard","","","","tol_peg_1","1236","1236","0","[[1,2,0],[3,0],[0]]","4","[[1,2,0],[3,0],[0]]","2","0","","","","","","4","","","","","","","","",""
"","","","","","poldrack-single-stim","52","251398","0.0-2.0-17.0","5d2df745da13f60018d14b64","E1","batch5","","-1","tol_feedback","","","true","","1000","1000","500","","","","","","-1","none","true","12886","16962","","","","","","","","","",""
"","","","","","html-button-response","53","255006","0.0-2.0-18.0","5d2df745da13f60018d14b64","E1","batch5","","3605.6999999999534","tol_trial_num","<div class = centerbox><p class = center-block-text>problem <strong>4</strong> out of 25 problems</p></div>","0","","","","","","","","","","","","","","","","","","","","","","","","",""
"","","","","","single-stim-button","54","259573","0.0-2.0-19.0-0.0","5d2df745da13f60018d14b64","E1","batch5","","4564","tol_tohand","","","","tol_peg_2","4564","4564","0","[[3,0,0],[2,0],[0]]","1","[[3,0,0],[1,0],[2]]","3","0","","","","","","3","","","","","","","","",""
"","","","","","single-stim-button","55","260565","0.0-2.0-19.0-1.0","5d2df745da13f60018d14b64","E1","batch5","","989","tol_toboard","","","","tol_peg_1","989","989","0","[[3,1,0],[2,0],[0]]","1","[[3,0,0],[1,0],[2]]","3","0","","","","","","3","","","","","","","","",""
"","","","","","single-stim-button","56","261576","0.0-2.0-19.1-0.1","5d2df745da13f60018d14b64","E1","batch5","","1009","tol_tohand","","","","tol_peg_2","1009","1009","0","[[3,1,0],[0,0],[0]]","2","[[3,0,0],[1,0],[2]]","3","0","","","","","","3","","","","","","","","",""
"","","","","","single-stim-button","57","262607","0.0-2.0-19.1-1.1","5d2df745da13f60018d14b64","E1","batch5","","1028","tol_toboard","","","","tol_peg_3","1028","1028","0","[[3,1,0],[0,0],[2]]","2","[[3,0,0],[1,0],[2]]","3","0","","","","","","3","","","","","","","","",""
"","","","","","single-stim-button","58","263746","0.0-2.0-19.2-0.2","5d2df745da13f60018d14b64","E1","batch5","","1134","tol_tohand","","","","tol_peg_1","1134","1134","0","[[3,0,0],[0,0],[2]]","3","[[3,0,0],[1,0],[2]]","3","0","","","","","","3","","","","","","","","",""
"","","","","","single-stim-button","59","264850","0.0-2.0-19.2-1.2","5d2df745da13f60018d14b64","E1","batch5","","1100","tol_toboard","","","","tol_peg_2","1100","1100","0","[[3,0,0],[1,0],[2]]","3","[[3,0,0],[1,0],[2]]","3","0","","","","","","3","","","","","","","","",""
"","","","","","poldrack-single-stim","60","265855","0.0-2.0-20.0","5d2df745da13f60018d14b64","E1","batch5","","-1","tol_feedback","","","true","","1000","1000","500","","","","","","-1","none","true","4564","6707","","","","","","","","","",""
"","","","","","html-button-response","61","267394","0.0-2.0-21.0","5d2df745da13f60018d14b64","E1","batch5","","1535.9000000001397","tol_trial_num","<div class = centerbox><p class = center-block-text>problem <strong>5</strong> out of 25 problems</p></div>","0","","","","","","","","","","","","","","","","","","","","","","","","",""
"","","","","","single-stim-button","62","283323","0.0-2.0-22.0-0.0","5d2df745da13f60018d14b64","E1","batch5","","15927","tol_tohand","","","","tol_peg_1","15927","15927","0","[[0,0,0],[2,0],[3]]","1","[[0,0,0],[1,2],[3]]","4","0","","","","","","7","","","","","","","","",""
"","","","","","single-stim-button","63","285583","0.0-2.0-22.0-1.0","5d2df745da13f60018d14b64","E1","batch5","","2256","tol_toboard","","","","tol_peg_2","2256","2256","0","[[0,0,0],[2,1],[3]]","1","[[0,0,0],[1,2],[3]]","4","0","","","","","","7","","","","","","","","",""
"","","","","","single-stim-button","64","287020","0.0-2.0-22.1-0.1","5d2df745da13f60018d14b64","E1","batch5","","1434","tol_tohand","","","","tol_peg_3","1434","1434","0","[[0,0,0],[2,1],[0]]","2","[[0,0,0],[1,2],[3]]","4","0","","","","","","7","","","","","","","","",""
"","","","","","single-stim-button","65","288834","0.0-2.0-22.1-1.1","5d2df745da13f60018d14b64","E1","batch5","","1812","tol_toboard","","","","tol_peg_1","1812","1812","0","[[3,0,0],[2,1],[0]]","2","[[0,0,0],[1,2],[3]]","4","0","","","","","","7","","","","","","","","",""
"","","","","","single-stim-button","66","296189","0.0-2.0-22.2-0.2","5d2df745da13f60018d14b64","E1","batch5","","7352","tol_tohand","","","","tol_peg_2","7352","7352","0","[[3,0,0],[2,0],[0]]","3","[[0,0,0],[1,2],[3]]","4","0","","","","","","7","","","","","","","","",""
"","","","","","single-stim-button","67","297973","0.0-2.0-22.2-1.2","5d2df745da13f60018d14b64","E1","batch5","","1781","tol_toboard","","","","tol_peg_1","1781","1781","0","[[3,1,0],[2,0],[0]]","3","[[0,0,0],[1,2],[3]]","4","0","","","","","","7","","","","","","","","",""
"","","","","","single-stim-button","68","299717","0.0-2.0-22.3-0.3","5d2df745da13f60018d14b64","E1","batch5","","1742","tol_tohand","","","","tol_peg_2","1742","1742","0","[[3,1,0],[0,0],[0]]","4","[[0,0,0],[1,2],[3]]","4","0","","","","","","7","","","","","","","","",""
"","","","","","single-stim-button","69","300907","0.0-2.0-22.3-1.3","5d2df745da13f60018d14b64","E1","batch5","","1187","tol_toboard","","","","tol_peg_3","1187","1187","0","[[3,1,0],[0,0],[2]]","4","[[0,0,0],[1,2],[3]]","4","0","","","","","","7","","","","","","","","",""
"","","","","","single-stim-button","70","302077","0.0-2.0-22.4-0.4","5d2df745da13f60018d14b64","E1","batch5","","1167","tol_tohand","","","","tol_peg_1","1167","1167","0","[[3,0,0],[0,0],[2]]","5","[[0,0,0],[1,2],[3]]","4","0","","","","","","7","","","","","","","","",""
"","","","","","single-stim-button","71","303355","0.0-2.0-22.4-1.4","5d2df745da13f60018d14b64","E1","batch5","","1276","tol_toboard","","","","tol_peg_2","1276","1276","0","[[3,0,0],[1,0],[2]]","5","[[0,0,0],[1,2],[3]]","4","0","","","","","","7","","","","","","","","",""
"","","","","","single-stim-button","72","304426","0.0-2.0-22.5-0.5","5d2df745da13f60018d14b64","E1","batch5","","1068","tol_tohand","","","","tol_peg_3","1068","1068","0","[[3,0,0],[1,0],[0]]","6","[[0,0,0],[1,2],[3]]","4","0","","","","","","7","","","","","","","","",""
"","","","","","single-stim-button","73","305496","0.0-2.0-22.5-1.5","5d2df745da13f60018d14b64","E1","batch5","","1067","tol_toboard","","","","tol_peg_2","1067","1067","0","[[3,0,0],[1,2],[0]]","6","[[0,0,0],[1,2],[3]]","4","0","","","","","","7","","","","","","","","",""
"","","","","","single-stim-button","74","306498","0.0-2.0-22.6-0.6","5d2df745da13f60018d14b64","E1","batch5","","999","tol_tohand","","","","tol_peg_1","999","999","0","[[0,0,0],[1,2],[0]]","7","[[0,0,0],[1,2],[3]]","4","0","","","","","","7","","","","","","","","",""
"","","","","","single-stim-button","75","307687","0.0-2.0-22.6-1.6","5d2df745da13f60018d14b64","E1","batch5","","1187","tol_toboard","","","","tol_peg_3","1187","1187","0","[[0,0,0],[1,2],[3]]","7","[[0,0,0],[1,2],[3]]","4","0","","","","","","7","","","","","","","","",""
"","","","","","poldrack-single-stim","76","308691","0.0-2.0-23.0","5d2df745da13f60018d14b64","E1","batch5","","-1","tol_feedback","","","true","","1000","1000","500","","","","","","-1","none","true","15927","29689","","","","","","","","","",""
"","","","","","html-button-response","77","311159","0.0-2.0-24.0","5d2df745da13f60018d14b64","E1","batch5","","2465.1999999999534","tol_trial_num","<div class = centerbox><p class = center-block-text>problem <strong>6</strong> out of 25 problems</p></div>","0","","","","","","","","","","","","","","","","","","","","","","","","",""
"","","","","","single-stim-button","78","331122","0.0-2.0-25.0-0.0","5d2df745da13f60018d14b64","E1","batch5","","19960","tol_tohand","","","","tol_peg_3","19960","19960","0","[[0,0,0],[1,2],[0]]","1","[[1,0,0],[2,3],[0]]","5","0","","","","","","6","","","","","","","","",""
"","","","","","single-stim-button","79","332925","0.0-2.0-25.0-1.0","5d2df745da13f60018d14b64","E1","batch5","","1800","tol_toboard","","","","tol_peg_1","1800","1800","0","[[3,0,0],[1,2],[0]]","1","[[1,0,0],[2,3],[0]]","5","0","","","","","","6","","","","","","","","",""
"","","","","","single-stim-button","80","334164","0.0-2.0-25.1-0.1","5d2df745da13f60018d14b64","E1","batch5","","1236","tol_tohand","","","","tol_peg_2","1236","1236","0","[[3,0,0],[1,0],[0]]","2","[[1,0,0],[2,3],[0]]","5","0","","","","","","6","","","","","","","","",""
"","","","","","single-stim-button","81","337608","0.0-2.0-25.1-1.1","5d2df745da13f60018d14b64","E1","batch5","","3442","tol_toboard","","","","tol_peg_3","3442","3442","0","[[3,0,0],[1,0],[2]]","2","[[1,0,0],[2,3],[0]]","5","0","","","","","","6","","","","","","","","",""
"","","","","","single-stim-button","82","340397","0.0-2.0-25.2-0.2","5d2df745da13f60018d14b64","E1","batch5","","2785","tol_tohand","","","","tol_peg_2","2785","2785","0","[[3,0,0],[0,0],[2]]","3","[[1,0,0],[2,3],[0]]","5","0","","","","","","6","","","","","","","","",""
"","","","","","single-stim-button","83","343942","0.0-2.0-25.2-1.2","5d2df745da13f60018d14b64","E1","batch5","","3543","tol_toboard","","","","tol_peg_1","3543","3543","0","[[3,1,0],[0,0],[2]]","3","[[1,0,0],[2,3],[0]]","5","0","","","","","","6","","","","","","","","",""
"","","","","","single-stim-button","84","345657","0.0-2.0-25.3-0.3","5d2df745da13f60018d14b64","E1","batch5","","1712","tol_tohand","","","","tol_peg_3","1712","1712","0","[[3,1,0],[0,0],[0]]","4","[[1,0,0],[2,3],[0]]","5","0","","","","","","6","","","","","","","","",""
"","","","","","single-stim-button","85","346648","0.0-2.0-25.3-1.3","5d2df745da13f60018d14b64","E1","batch5","","988","tol_toboard","","","","tol_peg_2","988","988","0","[[3,1,0],[2,0],[0]]","4","[[1,0,0],[2,3],[0]]","5","0","","","","","","6","","","","","","","","",""
"","","","","","single-stim-button","86","349482","0.0-2.0-25.4-0.4","5d2df745da13f60018d14b64","E1","batch5","","2831","tol_tohand","","","","tol_peg_1","2831","2831","0","[[3,0,0],[2,0],[0]]","5","[[1,0,0],[2,3],[0]]","5","0","","","","","","6","","","","","","","","",""
"","","","","","single-stim-button","87","354379","0.0-2.0-25.4-1.4","5d2df745da13f60018d14b64","E1","batch5","","4894","tol_toboard","","","","tol_peg_3","4894","4894","0","[[3,0,0],[2,0],[1]]","5","[[1,0,0],[2,3],[0]]","5","0","","","","","","6","","","","","","","","",""
"","","","","","single-stim-button","88","355390","0.0-2.0-25.5-0.5","5d2df745da13f60018d14b64","E1","batch5","","1008","tol_tohand","","","","tol_peg_1","1008","1008","0","[[0,0,0],[2,0],[1]]","6","[[1,0,0],[2,3],[0]]","5","0","","","","","","6","","","","","","","","",""
"","","","","","single-stim-button","89","356560","0.0-2.0-25.5-1.5","5d2df745da13f60018d14b64","E1","batch5","","1168","tol_toboard","","","","tol_peg_2","1168","1168","0","[[0,0,0],[2,3],[1]]","6","[[1,0,0],[2,3],[0]]","5","0","","","","","","6","","","","","","","","",""
"","","","","","single-stim-button","90","357422","0.0-2.0-25.6-0.6","5d2df745da13f60018d14b64","E1","batch5","","860","tol_tohand","","","","tol_peg_3","860","860","0","[[0,0,0],[2,3],[0]]","7","[[1,0,0],[2,3],[0]]","5","0","","","","","","6","","","","","","","","",""
"","","","","","single-stim-button","91","358443","0.0-2.0-25.6-1.6","5d2df745da13f60018d14b64","E1","batch5","","1019","tol_toboard","","","","tol_peg_1","1019","1019","0","[[1,0,0],[2,3],[0]]","7","[[1,0,0],[2,3],[0]]","5","0","","","","","","6","","","","","","","","",""
"","","","","","poldrack-single-stim","92","359448","0.0-2.0-26.0","5d2df745da13f60018d14b64","E1","batch5","","-1","tol_feedback","","","true","","1000","1000","500","","","","","","-1","none","true","19960","30392","","","","","","","","","",""
"","","","","","html-button-response","93","361453","0.0-2.0-27.0","5d2df745da13f60018d14b64","E1","batch5","","2002.1999999999534","tol_trial_num","<div class = centerbox><p class = center-block-text>problem <strong>7</strong> out of 25 problems</p></div>","0","","","","","","","","","","","","","","","","","","","","","","","","",""
"","","","","","single-stim-button","94","369205","0.0-2.0-28.0-0.0","5d2df745da13f60018d14b64","E1","batch5","","7749","tol_tohand","","","","tol_peg_3","7749","7749","0","[[2,1,0],[0,0],[0]]","1","[[1,2,0],[3,0],[0]]","6","0","","","","","","5","","","","","","","","",""
"","","","","","single-stim-button","95","370414","0.0-2.0-28.0-1.0","5d2df745da13f60018d14b64","E1","batch5","","1207","tol_toboard","","","","tol_peg_2","1207","1207","0","[[2,1,0],[3,0],[0]]","1","[[1,2,0],[3,0],[0]]","6","0","","","","","","5","","","","","","","","",""
"","","","","","single-stim-button","96","372099","0.0-2.0-28.1-0.1","5d2df745da13f60018d14b64","E1","batch5","","1682","tol_tohand","","","","tol_peg_1","1682","1682","0","[[2,0,0],[3,0],[0]]","2","[[1,2,0],[3,0],[0]]","6","0","","","","","","5","","","","","","","","",""
"","","","","","single-stim-button","97","373438","0.0-2.0-28.1-1.1","5d2df745da13f60018d14b64","E1","batch5","","1336","tol_toboard","","","","tol_peg_3","1336","1336","0","[[2,0,0],[3,0],[1]]","2","[[1,2,0],[3,0],[0]]","6","0","","","","","","5","","","","","","","","",""
"","","","","","single-stim-button","98","374250","0.0-2.0-28.2-0.2","5d2df745da13f60018d14b64","E1","batch5","","810","tol_tohand","","","","tol_peg_1","810","810","0","[[0,0,0],[3,0],[1]]","3","[[1,2,0],[3,0],[0]]","6","0","","","","","","5","","","","","","","","",""
"","","","","","single-stim-button","99","375727","0.0-2.0-28.2-1.2","5d2df745da13f60018d14b64","E1","batch5","","1474","tol_toboard","","","","tol_peg_2","1474","1474","0","[[0,0,0],[3,2],[1]]","3","[[1,2,0],[3,0],[0]]","6","0","","","","","","5","","","","","","","","",""
"","","","","","single-stim-button","100","376679","0.0-2.0-28.3-0.3","5d2df745da13f60018d14b64","E1","batch5","","950","tol_tohand","","","","tol_peg_3","950","950","0","[[0,0,0],[3,2],[0]]","4","[[1,2,0],[3,0],[0]]","6","0","","","","","","5","","","","","","","","",""
"","","","","","single-stim-button","101","377869","0.0-2.0-28.3-1.3","5d2df745da13f60018d14b64","E1","batch5","","1188","tol_toboard","","","","tol_peg_1","1188","1188","0","[[1,0,0],[3,2],[0]]","4","[[1,2,0],[3,0],[0]]","6","0","","","","","","5","","","","","","","","",""
"","","","","","single-stim-button","102","378890","0.0-2.0-28.4-0.4","5d2df745da13f60018d14b64","E1","batch5","","1017","tol_tohand","","","","tol_peg_2","1017","1017","0","[[1,0,0],[3,0],[0]]","5","[[1,2,0],[3,0],[0]]","6","0","","","","","","5","","","","","","","","",""
"","","","","","single-stim-button","103","380158","0.0-2.0-28.4-1.4","5d2df745da13f60018d14b64","E1","batch5","","1265","tol_toboard","","","","tol_peg_1","1265","1265","0","[[1,2,0],[3,0],[0]]","5","[[1,2,0],[3,0],[0]]","6","0","","","","","","5","","","","","","","","",""
"","","","","","poldrack-single-stim","104","381163","0.0-2.0-29.0","5d2df745da13f60018d14b64","E1","batch5","","-1","tol_feedback","","","true","","1000","1000","500","","","","","","-1","none","true","7749","12208","","","","","","","","","",""
"","","","","","html-button-response","105","383771","0.0-2.0-30.0","5d2df745da13f60018d14b64","E1","batch5","","2605.100000000093","tol_trial_num","<div class = centerbox><p class = center-block-text>problem <strong>8</strong> out of 25 problems</p></div>","0","","","","","","","","","","","","","","","","","","","","","","","","",""
"","","","","","single-stim-button","106","395475","0.0-2.0-31.0-0.0","5d2df745da13f60018d14b64","E1","batch5","","11701","tol_tohand","","","","tol_peg_3","11701","11701","0","[[0,0,0],[2,3],[0]]","1","[[1,2,0],[3,0],[0]]","7","0","","","","","","4","","","","","","","","",""
"","","","","","single-stim-button","107","397210","0.0-2.0-31.0-1.0","5d2df745da13f60018d14b64","E1","batch5","","1732","tol_toboard","","","","tol_peg_1","1732","1732","0","[[1,0,0],[2,3],[0]]","1","[[1,2,0],[3,0],[0]]","7","0","","","","","","4","","","","","","","","",""
"","","","","","single-stim-button","108","398181","0.0-2.0-31.1-0.1","5d2df745da13f60018d14b64","E1","batch5","","969","tol_tohand","","","","tol_peg_2","969","969","0","[[1,0,0],[2,0],[0]]","2","[[1,2,0],[3,0],[0]]","7","0","","","","","","4","","","","","","","","",""
"","","","","","single-stim-button","109","399252","0.0-2.0-31.1-1.1","5d2df745da13f60018d14b64","E1","batch5","","1069","tol_toboard","","","","tol_peg_3","1069","1069","0","[[1,0,0],[2,0],[3]]","2","[[1,2,0],[3,0],[0]]","7","0","","","","","","4","","","","","","","","",""
"","","","","","single-stim-button","110","400164","0.0-2.0-31.2-0.2","5d2df745da13f60018d14b64","E1","batch5","","909","tol_tohand","","","","tol_peg_2","909","909","0","[[1,0,0],[0,0],[3]]","3","[[1,2,0],[3,0],[0]]","7","0","","","","","","4","","","","","","","","",""
"","","","","","single-stim-button","111","401244","0.0-2.0-31.2-1.2","5d2df745da13f60018d14b64","E1","batch5","","1078","tol_toboard","","","","tol_peg_1","1078","1078","0","[[1,2,0],[0,0],[3]]","3","[[1,2,0],[3,0],[0]]","7","0","","","","","","4","","","","","","","","",""
"","","","","","single-stim-button","112","402107","0.0-2.0-31.3-0.3","5d2df745da13f60018d14b64","E1","batch5","","859","tol_tohand","","","","tol_peg_3","859","859","0","[[1,2,0],[0,0],[0]]","4","[[1,2,0],[3,0],[0]]","7","0","","","","","","4","","","","","","","","",""
"","","","","","single-stim-button","113","403148","0.0-2.0-31.3-1.3","5d2df745da13f60018d14b64","E1","batch5","","1038","tol_toboard","","","","tol_peg_2","1038","1038","0","[[1,2,0],[3,0],[0]]","4","[[1,2,0],[3,0],[0]]","7","0","","","","","","4","","","","","","","","",""
"","","","","","poldrack-single-stim","114","404153","0.0-2.0-32.0","5d2df745da13f60018d14b64","E1","batch5","","-1","tol_feedback","","","true","","1000","1000","500","","","","","","-1","none","true","11701","14438","","","","","","","","","",""
"","","","","","html-button-response","115","405296","0.0-2.0-33.0","5d2df745da13f60018d14b64","E1","batch5","","1140.4000000001397","tol_trial_num","<div class = centerbox><p class = center-block-text>problem <strong>9</strong> out of 25 problems</p></div>","0","","","","","","","","","","","","","","","","","","","","","","","","",""
"","","","","","single-stim-button","116","417702","0.0-2.0-34.0-0.0","5d2df745da13f60018d14b64","E1","batch5","","12403","tol_tohand","","","","tol_peg_3","12403","12403","0","[[3,2,0],[0,0],[0]]","1","[[2,1,0],[3,0],[0]]","8","0","","","","","","6","","","","","","","","",""
"","","","","","single-stim-button","117","419030","0.0-2.0-34.0-1.0","5d2df745da13f60018d14b64","E1","batch5","","1325","tol_toboard","","","","tol_peg_2","1325","1325","0","[[3,2,0],[1,0],[0]]","1","[[2,1,0],[3,0],[0]]","8","0","","","","","","6","","","","","","","","",""
"","","","","","single-stim-button","118","420050","0.0-2.0-34.1-0.1","5d2df745da13f60018d14b64","E1","batch5","","1018","tol_tohand","","","","tol_peg_1","1018","1018","0","[[3,0,0],[1,0],[0]]","2","[[2,1,0],[3,0],[0]]","8","0","","","","","","6","","","","","","","","",""
"","","","","","single-stim-button","119","423670","0.0-2.0-34.1-1.1","5d2df745da13f60018d14b64","E1","batch5","","3617","tol_toboard","","","","tol_peg_2","3617","3617","0","[[3,0,0],[1,2],[0]]","2","[[2,1,0],[3,0],[0]]","8","0","","","","","","6","","","","","","","","",""
"","","","","","single-stim-button","120","424711","0.0-2.0-34.2-0.2","5d2df745da13f60018d14b64","E1","batch5","","1038","tol_tohand","","","","tol_peg_1","1038","1038","0","[[0,0,0],[1,2],[0]]","3","[[2,1,0],[3,0],[0]]","8","0","","","","","","6","","","","","","","","",""
"","","","","","single-stim-button","121","425771","0.0-2.0-34.2-1.2","5d2df745da13f60018d14b64","E1","batch5","","1058","tol_toboard","","","","tol_peg_3","1058","1058","0","[[0,0,0],[1,2],[3]]","3","[[2,1,0],[3,0],[0]]","8","0","","","","","","6","","","","","","","","",""
"","","","","","single-stim-button","122","426694","0.0-2.0-34.3-0.3","5d2df745da13f60018d14b64","E1","batch5","","920","tol_tohand","","","","tol_peg_2","920","920","0","[[0,0,0],[1,0],[3]]","4","[[2,1,0],[3,0],[0]]","8","0","","","","","","6","","","","","","","","",""
"","","","","","single-stim-button","123","427844","0.0-2.0-34.3-1.3","5d2df745da13f60018d14b64","E1","batch5","","1147","tol_toboard","","","","tol_peg_1","1147","1147","0","[[2,0,0],[1,0],[3]]","4","[[2,1,0],[3,0],[0]]","8","0","","","","","","6","","","","","","","","",""
"","","","","","single-stim-button","124","428924","0.0-2.0-34.4-0.4","5d2df745da13f60018d14b64","E1","batch5","","1078","tol_tohand","","","","tol_peg_2","1078","1078","0","[[2,0,0],[0,0],[3]]","5","[[2,1,0],[3,0],[0]]","8","0","","","","","","6","","","","","","","","",""
"","","","","","single-stim-button","125","429975","0.0-2.0-34.4-1.4","5d2df745da13f60018d14b64","E1","batch5","","1048","tol_toboard","","","","tol_peg_1","1048","1048","0","[[2,1,0],[0,0],[3]]","5","[[2,1,0],[3,0],[0]]","8","0","","","","","","6","","","","","","","","",""
"","","","","","single-stim-button","126","430926","0.0-2.0-34.5-0.5","5d2df745da13f60018d14b64","E1","batch5","","948","tol_tohand","","","","tol_peg_3","948","948","0","[[2,1,0],[0,0],[0]]","6","[[2,1,0],[3,0],[0]]","8","0","","","","","","6","","","","","","","","",""
"","","","","","single-stim-button","127","431878","0.0-2.0-34.5-1.5","5d2df745da13f60018d14b64","E1","batch5","","949","tol_toboard","","","","tol_peg_2","949","949","0","[[2,1,0],[3,0],[0]]","6","[[2,1,0],[3,0],[0]]","8","0","","","","","","6","","","","","","","","",""
"","","","","","poldrack-single-stim","128","432883","0.0-2.0-35.0","5d2df745da13f60018d14b64","E1","batch5","","-1","tol_feedback","","","true","","1000","1000","500","","","","","","-1","none","true","12403","17405","","","","","","","","","",""
"","","","","","html-button-response","129","434336","0.0-2.0-36.0","5d2df745da13f60018d14b64","E1","batch5","","1450.8000000000466","tol_trial_num","<div class = centerbox><p class = center-block-text>problem <strong>10</strong> out of 25 problems</p></div>","0","","","","","","","","","","","","","","","","","","","","","","","","",""
"","","","","","single-stim-button","130","438217","0.0-2.0-37.0-0.0","5d2df745da13f60018d14b64","E1","batch5","","3877","tol_tohand","","","","tol_peg_2","3877","3877","0","[[3,0,0],[0,0],[2]]","1","[[3,0,0],[2,1],[0]]","9","0","","","","","","3","","","","","","","","",""
"","","","","","single-stim-button","131","439416","0.0-2.0-37.0-1.0","5d2df745da13f60018d14b64","E1","batch5","","1196","tol_toboard","","","","tol_peg_1","1196","1196","0","[[3,1,0],[0,0],[2]]","1","[[3,0,0],[2,1],[0]]","9","0","","","","","","3","","","","","","","","",""
"","","","","","single-stim-button","132","440249","0.0-2.0-37.1-0.1","5d2df745da13f60018d14b64","E1","batch5","","830","tol_tohand","","","","tol_peg_3","830","830","0","[[3,1,0],[0,0],[0]]","2","[[3,0,0],[2,1],[0]]","9","0","","","","","","3","","","","","","","","",""
"","","","","","single-stim-button","133","441250","0.0-2.0-37.1-1.1","5d2df745da13f60018d14b64","E1","batch5","","999","tol_toboard","","","","tol_peg_2","999","999","0","[[3,1,0],[2,0],[0]]","2","[[3,0,0],[2,1],[0]]","9","0","","","","","","3","","","","","","","","",""
"","","","","","single-stim-button","134","442192","0.0-2.0-37.2-0.2","5d2df745da13f60018d14b64","E1","batch5","","939","tol_tohand","","","","tol_peg_1","939","939","0","[[3,0,0],[2,0],[0]]","3","[[3,0,0],[2,1],[0]]","9","0","","","","","","3","","","","","","","","",""
"","","","","","single-stim-button","135","443204","0.0-2.0-37.2-1.2","5d2df745da13f60018d14b64","E1","batch5","","1009","tol_toboard","","","","tol_peg_2","1009","1009","0","[[3,0,0],[2,1],[0]]","3","[[3,0,0],[2,1],[0]]","9","0","","","","","","3","","","","","","","","",""
"","","","","","poldrack-single-stim","136","444208","0.0-2.0-38.0","5d2df745da13f60018d14b64","E1","batch5","","-1","tol_feedback","","","true","","1000","1000","500","","","","","","-1","none","true","3877","5646","","","","","","","","","",""
"","","","","","html-button-response","137","445483","0.0-2.0-39.0","5d2df745da13f60018d14b64","E1","batch5","","1272.6000000000931","tol_trial_num","<div class = centerbox><p class = center-block-text>problem <strong>11</strong> out of 25 problems</p></div>","0","","","","","","","","","","","","","","","","","","","","","","","","",""
"","","","","","single-stim-button","138","449379","0.0-2.0-40.0-0.0","5d2df745da13f60018d14b64","E1","batch5","","3893","tol_tohand","","","","tol_peg_1","3893","3893","0","[[1,0,0],[3,0],[0]]","1","[[2,0,0],[1,3],[0]]","10","0","","","","","","6","","","","","","","","",""
"","","","","","single-stim-button","139","458274","0.0-2.0-40.0-1.0","5d2df745da13f60018d14b64","E1","batch5","","8893","tol_toboard","","","","tol_peg_2","8893","8893","0","[[1,0,0],[3,2],[0]]","1","[[2,0,0],[1,3],[0]]","10","0","","","","","","6","","","","","","","","",""
"","","","","","single-stim-button","140","459126","0.0-2.0-40.1-0.1","5d2df745da13f60018d14b64","E1","batch5","","849","tol_tohand","","","","tol_peg_1","849","849","0","[[0,0,0],[3,2],[0]]","2","[[2,0,0],[1,3],[0]]","10","0","","","","","","6","","","","","","","","",""
"","","","","","single-stim-button","141","460931","0.0-2.0-40.1-1.1","5d2df745da13f60018d14b64","E1","batch5","","1801","tol_toboard","","","","tol_peg_3","1801","1801","0","[[0,0,0],[3,2],[1]]","2","[[2,0,0],[1,3],[0]]","10","0","","","","","","6","","","","","","","","",""
"","","","","","single-stim-button","142","461893","0.0-2.0-40.2-0.2","5d2df745da13f60018d14b64","E1","batch5","","960","tol_tohand","","","","tol_peg_2","960","960","0","[[0,0,0],[3,0],[1]]","3","[[2,0,0],[1,3],[0]]","10","0","","","","","","6","","","","","","","","",""
"","","","","","single-stim-button","143","463092","0.0-2.0-40.2-1.2","5d2df745da13f60018d14b64","E1","batch5","","1196","tol_toboard","","","","tol_peg_1","1196","1196","0","[[2,0,0],[3,0],[1]]","3","[[2,0,0],[1,3],[0]]","10","0","","","","","","6","","","","","","","","",""
"","","","","","single-stim-button","144","464727","0.0-2.0-40.3-0.3","5d2df745da13f60018d14b64","E1","batch5","","1633","tol_tohand","","","","tol_peg_2","1633","1633","0","[[2,0,0],[0,0],[1]]","4","[[2,0,0],[1,3],[0]]","10","0","","","","","","6","","","","","","","","",""
"","","","","","single-stim-button","145","465688","0.0-2.0-40.3-1.3","5d2df745da13f60018d14b64","E1","batch5","","959","tol_toboard","","","","tol_peg_1","959","959","0","[[2,3,0],[0,0],[1]]","4","[[2,0,0],[1,3],[0]]","10","0","","","","","","6","","","","","","","","",""
"","","","","","single-stim-button","146","466879","0.0-2.0-40.4-0.4","5d2df745da13f60018d14b64","E1","batch5","","1187","tol_tohand","","","","tol_peg_3","1187","1187","0","[[2,3,0],[0,0],[0]]","5","[[2,0,0],[1,3],[0]]","10","0","","","","","","6","","","","","","","","",""
"","","","","","single-stim-button","147","467840","0.0-2.0-40.4-1.4","5d2df745da13f60018d14b64","E1","batch5","","959","tol_toboard","","","","tol_peg_2","959","959","0","[[2,3,0],[1,0],[0]]","5","[[2,0,0],[1,3],[0]]","10","0","","","","","","6","","","","","","","","",""
"","","","","","single-stim-button","148","468662","0.0-2.0-40.5-0.5","5d2df745da13f60018d14b64","E1","batch5","","819","tol_tohand","","","","tol_peg_1","819","819","0","[[2,0,0],[1,0],[0]]","6","[[2,0,0],[1,3],[0]]","10","0","","","","","","6","","","","","","","","",""
"","","","","","single-stim-button","149","469496","0.0-2.0-40.5-1.5","5d2df745da13f60018d14b64","E1","batch5","","831","tol_toboard","","","","tol_peg_2","831","831","0","[[2,0,0],[1,3],[0]]","6","[[2,0,0],[1,3],[0]]","10","0","","","","","","6","","","","","","","","",""
"","","","","","poldrack-single-stim","150","470501","0.0-2.0-41.0","5d2df745da13f60018d14b64","E1","batch5","","-1","tol_feedback","","","true","","1000","1000","500","","","","","","-1","none","true","3893","9341","","","","","","","","","",""
"","","","","","html-button-response","151","471854","0.0-2.0-42.0","5d2df745da13f60018d14b64","E1","batch5","","1350.0999999998603","tol_trial_num","<div class = centerbox><p class = center-block-text>problem <strong>12</strong> out of 25 problems</p></div>","0","","","","","","","","","","","","","","","","","","","","","","","","",""
"","","","","","single-stim-button","152","475746","0.0-2.0-43.0-0.0","5d2df745da13f60018d14b64","E1","batch5","","3889","tol_tohand","","","","tol_peg_1","3889","3889","0","[[1,0,0],[3,0],[0]]","1","[[2,3,0],[0,0],[1]]","11","0","","","","","","4","","","","","","","","",""
"","","","","","single-stim-button","153","476698","0.0-2.0-43.0-1.0","5d2df745da13f60018d14b64","E1","batch5","","950","tol_toboard","","","","tol_peg_2","950","950","0","[[1,0,0],[3,2],[0]]","1","[[2,3,0],[0,0],[1]]","11","0","","","","","","4","","","","","","","","",""
"","","","","","single-stim-button","154","477600","0.0-2.0-43.1-0.1","5d2df745da13f60018d14b64","E1","batch5","","899","tol_tohand","","","","tol_peg_1","899","899","0","[[0,0,0],[3,2],[0]]","2","[[2,3,0],[0,0],[1]]","11","0","","","","","","4","","","","","","","","",""
"","","","","","single-stim-button","155","478503","0.0-2.0-43.1-1.1","5d2df745da13f60018d14b64","E1","batch5","","900","tol_toboard","","","","tol_peg_3","900","900","0","[[0,0,0],[3,2],[1]]","2","[[2,3,0],[0,0],[1]]","11","0","","","","","","4","","","","","","","","",""
"","","","","","single-stim-button","156","479275","0.0-2.0-43.2-0.2","5d2df745da13f60018d14b64","E1","batch5","","770","tol_tohand","","","","tol_peg_2","770","770","0","[[0,0,0],[3,0],[1]]","3","[[2,3,0],[0,0],[1]]","11","0","","","","","","4","","","","","","","","",""
"","","","","","single-stim-button","157","480217","0.0-2.0-43.2-1.2","5d2df745da13f60018d14b64","E1","batch5","","940","tol_toboard","","","","tol_peg_1","940","940","0","[[2,0,0],[3,0],[1]]","3","[[2,3,0],[0,0],[1]]","11","0","","","","","","4","","","","","","","","",""
"","","","","","single-stim-button","158","480980","0.0-2.0-43.3-0.3","5d2df745da13f60018d14b64","E1","batch5","","761","tol_tohand","","","","tol_peg_2","761","761","0","[[2,0,0],[0,0],[1]]","4","[[2,3,0],[0,0],[1]]","11","0","","","","","","4","","","","","","","","",""
"","","","","","single-stim-button","159","481822","0.0-2.0-43.3-1.3","5d2df745da13f60018d14b64","E1","batch5","","840","tol_toboard","","","","tol_peg_1","840","840","0","[[2,3,0],[0,0],[1]]","4","[[2,3,0],[0,0],[1]]","11","0","","","","","","4","","","","","","","","",""
"","","","","","poldrack-single-stim","160","482826","0.0-2.0-44.0","5d2df745da13f60018d14b64","E1","batch5","","-1","tol_feedback","","","true","","1000","1000","500","","","","","","-1","none","true","3889","6319","","","","","","","","","",""
"","","","","","html-button-response","161","497617","0.0-2.0-45.0","5d2df745da13f60018d14b64","E1","batch5","","14789.600000000093","tol_trial_num","<div class = centerbox><p class = center-block-text>problem <strong>13</strong> out of 25 problems</p></div>","0","","","","","","","","","","","","","","","","","","","","","","","","",""
"","","","","","single-stim-button","162","510507","0.0-2.0-46.0-0.0","5d2df745da13f60018d14b64","E1","batch5","","12886","tol_tohand","","","","tol_peg_2","12886","12886","0","[[1,2,0],[0,0],[0]]","1","[[0,0,0],[2,3],[1]]","12","0","","","","","","4","","","","","","","","",""
"","","","","","single-stim-button","163","511448","0.0-2.0-46.0-1.0","5d2df745da13f60018d14b64","E1","batch5","","940","tol_toboard","","","","tol_peg_3","940","940","0","[[1,2,0],[0,0],[3]]","1","[[0,0,0],[2,3],[1]]","12","0","","","","","","4","","","","","","","","",""
"","","","","","single-stim-button","164","512440","0.0-2.0-46.1-0.1","5d2df745da13f60018d14b64","E1","batch5","","989","tol_tohand","","","","tol_peg_1","989","989","0","[[1,0,0],[0,0],[3]]","2","[[0,0,0],[2,3],[1]]","12","0","","","","","","4","","","","","","","","",""
"","","","","","single-stim-button","165","513610","0.0-2.0-46.1-1.1","5d2df745da13f60018d14b64","E1","batch5","","1168","tol_toboard","","","","tol_peg_2","1168","1168","0","[[1,0,0],[2,0],[3]]","2","[[0,0,0],[2,3],[1]]","12","0","","","","","","4","","","","","","","","",""
"","","","","","single-stim-button","166","514522","0.0-2.0-46.2-0.2","5d2df745da13f60018d14b64","E1","batch5","","909","tol_tohand","","","","tol_peg_3","909","909","0","[[1,0,0],[2,0],[0]]","3","[[0,0,0],[2,3],[1]]","12","0","","","","","","4","","","","","","","","",""
"","","","","","single-stim-button","167","515574","0.0-2.0-46.2-1.2","5d2df745da13f60018d14b64","E1","batch5","","1050","tol_toboard","","","","tol_peg_2","1050","1050","0","[[1,0,0],[2,3],[0]]","3","[[0,0,0],[2,3],[1]]","12","0","","","","","","4","","","","","","","","",""
"","","","","","single-stim-button","168","516474","0.0-2.0-46.3-0.3","5d2df745da13f60018d14b64","E1","batch5","","897","tol_tohand","","","","tol_peg_1","897","897","0","[[0,0,0],[2,3],[0]]","4","[[0,0,0],[2,3],[1]]","12","0","","","","","","4","","","","","","","","",""
"","","","","","single-stim-button","169","517604","0.0-2.0-46.3-1.3","5d2df745da13f60018d14b64","E1","batch5","","1128","tol_toboard","","","","tol_peg_3","1128","1128","0","[[0,0,0],[2,3],[1]]","4","[[0,0,0],[2,3],[1]]","12","0","","","","","","4","","","","","","","","",""
"","","","","","poldrack-single-stim","170","518608","0.0-2.0-47.0","5d2df745da13f60018d14b64","E1","batch5","","-1","tol_feedback","","","true","","1000","1000","500","","","","","","-1","none","true","12886","15681","","","","","","","","","",""
"","","","","","html-button-response","171","520893","0.0-2.0-48.0","5d2df745da13f60018d14b64","E1","batch5","","2283.100000000093","attention_check","<p class = block-text>How many balls are in your board<br></p>","1","true","","","","","","","","","","","","","","","","","","","","","","","",""
"","","","","","html-button-response","172","522231","0.0-2.0-49.0","5d2df745da13f60018d14b64","E1","batch5","","1335.3000000000466","tol_trial_num","<div class = centerbox><p class = center-block-text>problem <strong>14</strong> out of 25 problems</p></div>","0","","","","","","","","","","","","","","","","","","","","","","","","",""
"","","","","","single-stim-button","173","526543","0.0-2.0-50.0-0.0","5d2df745da13f60018d14b64","E1","batch5","","4309","tol_tohand","","","","tol_peg_1","4309","4309","0","[[2,0,0],[3,0],[0]]","1","[[1,2,0],[3,0],[0]]","13","0","","","","","","4","","","","","","","","",""
"","","","","","single-stim-button","174","527475","0.0-2.0-50.0-1.0","5d2df745da13f60018d14b64","E1","batch5","","929","tol_toboard","","","","tol_peg_3","929","929","0","[[2,0,0],[3,0],[1]]","1","[[1,2,0],[3,0],[0]]","13","0","","","","","","4","","","","","","","","",""
"","","","","","single-stim-button","175","528268","0.0-2.0-50.1-0.1","5d2df745da13f60018d14b64","E1","batch5","","791","tol_tohand","","","","tol_peg_1","791","791","0","[[0,0,0],[3,0],[1]]","2","[[1,2,0],[3,0],[0]]","13","0","","","","","","4","","","","","","","","",""
"","","","","","single-stim-button","176","529497","0.0-2.0-50.1-1.1","5d2df745da13f60018d14b64","E1","batch5","","1226","tol_toboard","","","","tol_peg_2","1226","1226","0","[[0,0,0],[3,2],[1]]","2","[[1,2,0],[3,0],[0]]","13","0","","","","","","4","","","","","","","","",""
"","","","","","single-stim-button","177","530409","0.0-2.0-50.2-0.2","5d2df745da13f60018d14b64","E1","batch5","","910","tol_tohand","","","","tol_peg_3","910","910","0","[[0,0,0],[3,2],[0]]","3","[[1,2,0],[3,0],[0]]","13","0","","","","","","4","","","","","","","","",""
"","","","","","single-stim-button","178","531787","0.0-2.0-50.2-1.2","5d2df745da13f60018d14b64","E1","batch5","","1376","tol_toboard","","","","tol_peg_1","1376","1376","0","[[1,0,0],[3,2],[0]]","3","[[1,2,0],[3,0],[0]]","13","0","","","","","","4","","","","","","","","",""
"","","","","","single-stim-button","179","532749","0.0-2.0-50.3-0.3","5d2df745da13f60018d14b64","E1","batch5","","959","tol_tohand","","","","tol_peg_2","959","959","0","[[1,0,0],[3,0],[0]]","4","[[1,2,0],[3,0],[0]]","13","0","","","","","","4","","","","","","","","",""
"","","","","","single-stim-button","180","533691","0.0-2.0-50.3-1.3","5d2df745da13f60018d14b64","E1","batch5","","939","tol_toboard","","","","tol_peg_1","939","939","0","[[1,2,0],[3,0],[0]]","4","[[1,2,0],[3,0],[0]]","13","0","","","","","","4","","","","","","","","",""
"","","","","","poldrack-single-stim","181","534695","0.0-2.0-51.0","5d2df745da13f60018d14b64","E1","batch5","","-1","tol_feedback","","","true","","1000","1000","500","","","","","","-1","none","true","4309","6969","","","","","","","","","",""
"","","","","","html-button-response","182","536258","0.0-2.0-52.0","5d2df745da13f60018d14b64","E1","batch5","","1560.0999999998603","tol_trial_num","<div class = centerbox><p class = center-block-text>problem <strong>15</strong> out of 25 problems</p></div>","0","","","","","","","","","","","","","","","","","","","","","","","","",""
"","","","","","single-stim-button","183","538390","0.0-2.0-53.0-0.0","5d2df745da13f60018d14b64","E1","batch5","","2129","tol_tohand","","","","tol_peg_1","2129","2129","0","[[1,0,0],[3,0],[0]]","1","[[2,0,0],[3,0],[1]]","14","0","","","","","","3","","","","","","","","",""
"","","","","","single-stim-button","184","539212","0.0-2.0-53.0-1.0","5d2df745da13f60018d14b64","E1","batch5","","820","tol_toboard","","","","tol_peg_2","820","820","0","[[1,0,0],[3,2],[0]]","1","[[2,0,0],[3,0],[1]]","14","0","","","","","","3","","","","","","","","",""
"","","","","","single-stim-button","185","539926","0.0-2.0-53.1-0.1","5d2df745da13f60018d14b64","E1","batch5","","711","tol_tohand","","","","tol_peg_1","711","711","0","[[0,0,0],[3,2],[0]]","2","[[2,0,0],[3,0],[1]]","14","0","","","","","","3","","","","","","","","",""
"","","","","","single-stim-button","186","542673","0.0-2.0-53.1-1.1","5d2df745da13f60018d14b64","E1","batch5","","2744","tol_toboard","","","","tol_peg_3","2744","2744","0","[[0,0,0],[3,2],[1]]","2","[[2,0,0],[3,0],[1]]","14","0","","","","","","3","","","","","","","","",""
"","","","","","single-stim-button","187","543614","0.0-2.0-53.2-0.2","5d2df745da13f60018d14b64","E1","batch5","","937","tol_tohand","","","","tol_peg_2","937","937","0","[[0,0,0],[3,0],[1]]","3","[[2,0,0],[3,0],[1]]","14","0","","","","","","3","","","","","","","","",""
"","","","","","single-stim-button","188","544624","0.0-2.0-53.2-1.2","5d2df745da13f60018d14b64","E1","batch5","","1009","tol_toboard","","","","tol_peg_1","1009","1009","0","[[2,0,0],[3,0],[1]]","3","[[2,0,0],[3,0],[1]]","14","0","","","","","","3","","","","","","","","",""
"","","","","","poldrack-single-stim","189","545629","0.0-2.0-54.0","5d2df745da13f60018d14b64","E1","batch5","","-1","tol_feedback","","","true","","1000","1000","500","","","","","","-1","none","true","2129","3777","","","","","","","","","",""
"","","","","","html-button-response","190","546979","0.0-2.0-55.0","5d2df745da13f60018d14b64","E1","batch5","","1347.0999999998603","tol_trial_num","<div class = centerbox><p class = center-block-text>problem <strong>16</strong> out of 25 problems</p></div>","0","","","","","","","","","","","","","","","","","","","","","","","","",""
"","","","","","single-stim-button","191","573661","0.0-2.0-56.0-0.0","5d2df745da13f60018d14b64","E1","batch5","","26679","tol_tohand","","","","tol_peg_2","26679","26679","0","[[0,0,0],[2,0],[1]]","1","[[2,3,0],[1,0],[0]]","15","0","","","","","","7","","","","","","","","",""
"","","","","","single-stim-button","192","574702","0.0-2.0-56.0-1.0","5d2df745da13f60018d14b64","E1","batch5","","1036","tol_toboard","","","","tol_peg_1","1036","1036","0","[[3,0,0],[2,0],[1]]","1","[[2,3,0],[1,0],[0]]","15","0","","","","","","7","","","","","","","","",""
"","","","","","single-stim-button","193","577983","0.0-2.0-56.1-0.1","5d2df745da13f60018d14b64","E1","batch5","","3279","tol_tohand","","","","tol_peg_3","3279","3279","0","[[3,0,0],[2,0],[0]]","2","[[2,3,0],[1,0],[0]]","15","0","","","","","","7","","","","","","","","",""
"","","","","","single-stim-button","194","579549","0.0-2.0-56.1-1.1","5d2df745da13f60018d14b64","E1","batch5","","1563","tol_toboard","","","","tol_peg_1","1563","1563","0","[[3,1,0],[2,0],[0]]","2","[[2,3,0],[1,0],[0]]","15","0","","","","","","7","","","","","","","","",""
"","","","","","single-stim-button","195","580431","0.0-2.0-56.2-0.2","5d2df745da13f60018d14b64","E1","batch5","","879","tol_tohand","","","","tol_peg_2","879","879","0","[[3,1,0],[0,0],[0]]","3","[[2,3,0],[1,0],[0]]","15","0","","","","","","7","","","","","","","","",""
"","","","","","single-stim-button","196","581492","0.0-2.0-56.2-1.2","5d2df745da13f60018d14b64","E1","batch5","","1059","tol_toboard","","","","tol_peg_3","1059","1059","0","[[3,1,0],[0,0],[2]]","3","[[2,3,0],[1,0],[0]]","15","0","","","","","","7","","","","","","","","",""
"","","","","","single-stim-button","197","582682","0.0-2.0-56.3-0.3","5d2df745da13f60018d14b64","E1","batch5","","1186","tol_tohand","","","","tol_peg_1","1186","1186","0","[[3,0,0],[0,0],[2]]","4","[[2,3,0],[1,0],[0]]","15","0","","","","","","7","","","","","","","","",""
"","","","","","single-stim-button","198","584228","0.0-2.0-56.3-1.3","5d2df745da13f60018d14b64","E1","batch5","","1544","tol_toboard","","","","tol_peg_2","1544","1544","0","[[3,0,0],[1,0],[2]]","4","[[2,3,0],[1,0],[0]]","15","0","","","","","","7","","","","","","","","",""
"","","","","","single-stim-button","199","585725","0.0-2.0-56.4-0.4","5d2df745da13f60018d14b64","E1","batch5","","1494","tol_tohand","","","","tol_peg_1","1494","1494","0","[[0,0,0],[1,0],[2]]","5","[[2,3,0],[1,0],[0]]","15","0","","","","","","7","","","","","","","","",""
"","","","","","single-stim-button","200","586756","0.0-2.0-56.4-1.4","5d2df745da13f60018d14b64","E1","batch5","","1029","tol_toboard","","","","tol_peg_2","1029","1029","0","[[0,0,0],[1,3],[2]]","5","[[2,3,0],[1,0],[0]]","15","0","","","","","","7","","","","","","","","",""
"","","","","","single-stim-button","201","587490","0.0-2.0-56.5-0.5","5d2df745da13f60018d14b64","E1","batch5","","731","tol_tohand","","","","tol_peg_3","731","731","0","[[0,0,0],[1,3],[0]]","6","[[2,3,0],[1,0],[0]]","15","0","","","","","","7","","","","","","","","",""
"","","","","","single-stim-button","202","588352","0.0-2.0-56.5-1.5","5d2df745da13f60018d14b64","E1","batch5","","860","tol_toboard","","","","tol_peg_1","860","860","0","[[2,0,0],[1,3],[0]]","6","[[2,3,0],[1,0],[0]]","15","0","","","","","","7","","","","","","","","",""
"","","","","","single-stim-button","203","589036","0.0-2.0-56.6-0.6","5d2df745da13f60018d14b64","E1","batch5","","681","tol_tohand","","","","tol_peg_2","681","681","0","[[2,0,0],[1,0],[0]]","7","[[2,3,0],[1,0],[0]]","15","0","","","","","","7","","","","","","","","",""
"","","","","","single-stim-button","204","589938","0.0-2.0-56.6-1.6","5d2df745da13f60018d14b64","E1","batch5","","899","tol_toboard","","","","tol_peg_1","899","899","0","[[2,3,0],[1,0],[0]]","7","[[2,3,0],[1,0],[0]]","15","0","","","","","","7","","","","","","","","",""
"","","","","","poldrack-single-stim","205","590943","0.0-2.0-57.0","5d2df745da13f60018d14b64","E1","batch5","","-1","tol_feedback","","","true","","1000","1000","500","","","","","","-1","none","true","26679","34929","","","","","","","","","",""
"","","","","","html-button-response","206","592939","0.0-2.0-58.0","5d2df745da13f60018d14b64","E1","batch5","","1993.4000000001397","tol_trial_num","<div class = centerbox><p class = center-block-text>problem <strong>17</strong> out of 25 problems</p></div>","0","","","","","","","","","","","","","","","","","","","","","","","","",""
"","","","","","single-stim-button","207","595344","0.0-2.0-59.0-0.0","5d2df745da13f60018d14b64","E1","batch5","","2401","tol_tohand","","","","tol_peg_1","2401","2401","0","[[1,0,0],[3,0],[0]]","1","[[3,1,0],[2,0],[0]]","16","0","","","","","","5","","","","","","","","",""
"","","","","","single-stim-button","208","601192","0.0-2.0-59.0-1.0","5d2df745da13f60018d14b64","E1","batch5","","5845","tol_toboard","","","","tol_peg_3","5845","5845","0","[[1,0,0],[3,0],[2]]","1","[[3,1,0],[2,0],[0]]","16","0","","","","","","5","","","","","","","","",""
"","","","","","single-stim-button","209","604776","0.0-2.0-59.1-0.1","5d2df745da13f60018d14b64","E1","batch5","","3581","tol_tohand","","","","tol_peg_2","3581","3581","0","[[1,0,0],[0,0],[2]]","2","[[3,1,0],[2,0],[0]]","16","0","","","","","","5","","","","","","","","",""
"","","","","","single-stim-button","210","606164","0.0-2.0-59.1-1.1","5d2df745da13f60018d14b64","E1","batch5","","1385","tol_toboard","","","","tol_peg_1","1385","1385","0","[[1,3,0],[0,0],[2]]","2","[[3,1,0],[2,0],[0]]","16","0","","","","","","5","","","","","","","","",""
"","","","","","single-stim-button","211","607671","0.0-2.0-59.2-0.2","5d2df745da13f60018d14b64","E1","batch5","","1504","tol_tohand","","","","tol_peg_3","1504","1504","0","[[1,3,0],[0,0],[0]]","3","[[3,1,0],[2,0],[0]]","16","0","","","","","","5","","","","","","","","",""
"","","","","","single-stim-button","212","609187","0.0-2.0-59.2-1.2","5d2df745da13f60018d14b64","E1","batch5","","1514","tol_toboard","","","","tol_peg_2","1514","1514","0","[[1,3,0],[2,0],[0]]","3","[[3,1,0],[2,0],[0]]","16","0","","","","","","5","","","","","","","","",""
"","","","","","single-stim-button","213","610049","0.0-2.0-59.3-0.3","5d2df745da13f60018d14b64","E1","batch5","","860","tol_tohand","","","","tol_peg_1","860","860","0","[[1,0,0],[2,0],[0]]","4","[[3,1,0],[2,0],[0]]","16","0","","","","","","5","","","","","","","","",""
"","","","","","single-stim-button","214","611606","0.0-2.0-59.3-1.3","5d2df745da13f60018d14b64","E1","batch5","","1554","tol_toboard","","","","tol_peg_3","1554","1554","0","[[1,0,0],[2,0],[3]]","4","[[3,1,0],[2,0],[0]]","16","0","","","","","","5","","","","","","","","",""
"","","","","","single-stim-button","215","612687","0.0-2.0-59.4-0.4","5d2df745da13f60018d14b64","E1","batch5","","1078","tol_tohand","","","","tol_peg_1","1078","1078","0","[[0,0,0],[2,0],[3]]","5","[[3,1,0],[2,0],[0]]","16","0","","","","","","5","","","","","","","","",""
"","","","","","single-stim-button","216","613460","0.0-2.0-59.4-1.4","5d2df745da13f60018d14b64","E1","batch5","","770","tol_toboard","","","","tol_peg_2","770","770","0","[[0,0,0],[2,1],[3]]","5","[[3,1,0],[2,0],[0]]","16","0","","","","","","5","","","","","","","","",""
"","","","","","single-stim-button","217","614273","0.0-2.0-59.5-0.5","5d2df745da13f60018d14b64","E1","batch5","","810","tol_tohand","","","","tol_peg_3","810","810","0","[[0,0,0],[2,1],[0]]","6","[[3,1,0],[2,0],[0]]","16","0","","","","","","5","","","","","","","","",""
"","","","","","single-stim-button","218","615512","0.0-2.0-59.5-1.5","5d2df745da13f60018d14b64","E1","batch5","","1237","tol_toboard","","","","tol_peg_1","1237","1237","0","[[3,0,0],[2,1],[0]]","6","[[3,1,0],[2,0],[0]]","16","0","","","","","","5","","","","","","","","",""
"","","","","","single-stim-button","219","616443","0.0-2.0-59.6-0.6","5d2df745da13f60018d14b64","E1","batch5","","930","tol_tohand","","","","tol_peg_2","930","930","0","[[3,0,0],[2,0],[0]]","7","[[3,1,0],[2,0],[0]]","16","0","","","","","","5","","","","","","","","",""
"","","","","","single-stim-button","220","617494","0.0-2.0-59.6-1.6","5d2df745da13f60018d14b64","E1","batch5","","1048","tol_toboard","","","","tol_peg_1","1048","1048","0","[[3,1,0],[2,0],[0]]","7","[[3,1,0],[2,0],[0]]","16","0","","","","","","5","","","","","","","","",""
"","","","","","poldrack-single-stim","221","618499","0.0-2.0-60.0","5d2df745da13f60018d14b64","E1","batch5","","-1","tol_feedback","","","true","","1000","1000","500","","","","","","-1","none","true","2401","11164","","","","","","","","","",""
"","","","","","html-button-response","222","619714","0.0-2.0-61.0","5d2df745da13f60018d14b64","E1","batch5","","1212.6999999999534","tol_trial_num","<div class = centerbox><p class = center-block-text>problem <strong>18</strong> out of 25 problems</p></div>","0","","","","","","","","","","","","","","","","","","","","","","","","",""
"","","","","","single-stim-button","223","628484","0.0-2.0-62.0-0.0","5d2df745da13f60018d14b64","E1","batch5","","8767","tol_tohand","","","","tol_peg_2","8767","8767","0","[[1,2,0],[0,0],[0]]","1","[[3,0,0],[2,0],[1]]","17","0","","","","","","5","","","","","","","","",""
"","","","","","single-stim-button","224","629833","0.0-2.0-62.0-1.0","5d2df745da13f60018d14b64","E1","batch5","","1346","tol_toboard","","","","tol_peg_3","1346","1346","0","[[1,2,0],[0,0],[3]]","1","[[3,0,0],[2,0],[1]]","17","0","","","","","","5","","","","","","","","",""
"","","","","","single-stim-button","225","631686","0.0-2.0-62.1-0.1","5d2df745da13f60018d14b64","E1","batch5","","1850","tol_tohand","","","","tol_peg_1","1850","1850","0","[[1,0,0],[0,0],[3]]","2","[[3,0,0],[2,0],[1]]","17","0","","","","","","5","","","","","","","","",""
"","","","","","single-stim-button","226","632569","0.0-2.0-62.1-1.1","5d2df745da13f60018d14b64","E1","batch5","","880","tol_toboard","","","","tol_peg_2","880","880","0","[[1,0,0],[2,0],[3]]","2","[[3,0,0],[2,0],[1]]","17","0","","","","","","5","","","","","","","","",""
"","","","","","single-stim-button","227","633470","0.0-2.0-62.2-0.2","5d2df745da13f60018d14b64","E1","batch5","","899","tol_tohand","","","","tol_peg_1","899","899","0","[[0,0,0],[2,0],[3]]","3","[[3,0,0],[2,0],[1]]","17","0","","","","","","5","","","","","","","","",""
"","","","","","single-stim-button","228","634779","0.0-2.0-62.2-1.2","5d2df745da13f60018d14b64","E1","batch5","","1306","tol_toboard","","","","tol_peg_2","1306","1306","0","[[0,0,0],[2,1],[3]]","3","[[3,0,0],[2,0],[1]]","17","0","","","","","","5","","","","","","","","",""
"","","","","","single-stim-button","229","635691","0.0-2.0-62.3-0.3","5d2df745da13f60018d14b64","E1","batch5","","910","tol_tohand","","","","tol_peg_3","910","910","0","[[0,0,0],[2,1],[0]]","4","[[3,0,0],[2,0],[1]]","17","0","","","","","","5","","","","","","","","",""
"","","","","","single-stim-button","230","636861","0.0-2.0-62.3-1.3","5d2df745da13f60018d14b64","E1","batch5","","1167","tol_toboard","","","","tol_peg_1","1167","1167","0","[[3,0,0],[2,1],[0]]","4","[[3,0,0],[2,0],[1]]","17","0","","","","","","5","","","","","","","","",""
"","","","","","single-stim-button","231","637794","0.0-2.0-62.4-0.4","5d2df745da13f60018d14b64","E1","batch5","","929","tol_tohand","","","","tol_peg_2","929","929","0","[[3,0,0],[2,0],[0]]","5","[[3,0,0],[2,0],[1]]","17","0","","","","","","5","","","","","","","","",""
"","","","","","single-stim-button","232","639111","0.0-2.0-62.4-1.4","5d2df745da13f60018d14b64","E1","batch5","","1316","tol_toboard","","","","tol_peg_3","1316","1316","0","[[3,0,0],[2,0],[1]]","5","[[3,0,0],[2,0],[1]]","17","0","","","","","","5","","","","","","","","",""
"","","","","","poldrack-single-stim","233","640116","0.0-2.0-63.0","5d2df745da13f60018d14b64","E1","batch5","","-1","tol_feedback","","","true","","1000","1000","500","","","","","","-1","none","true","8767","13355","","","","","","","","","",""
"","","","","","html-button-response","234","641488","0.0-2.0-64.0","5d2df745da13f60018d14b64","E1","batch5","","1370","tol_trial_num","<div class = centerbox><p class = center-block-text>problem <strong>19</strong> out of 25 problems</p></div>","0","","","","","","","","","","","","","","","","","","","","","","","","",""
"","","","","","single-stim-button","235","643580","0.0-2.0-65.0-0.0","5d2df745da13f60018d14b64","E1","batch5","","2089","tol_tohand","","","","tol_peg_2","2089","2089","0","[[1,2,0],[0,0],[0]]","1","[[0,0,0],[1,2],[3]]","18","0","","","","","","7","","","","","","","","",""
"","","","","","single-stim-button","236","645573","0.0-2.0-65.0-1.0","5d2df745da13f60018d14b64","E1","batch5","","1990","tol_toboard","","","","tol_peg_3","1990","1990","0","[[1,2,0],[0,0],[3]]","1","[[0,0,0],[1,2],[3]]","18","0","","","","","","7","","","","","","","","",""
"","","","","","single-stim-button","237","646654","0.0-2.0-65.1-0.1","5d2df745da13f60018d14b64","E1","batch5","","1078","tol_tohand","","","","tol_peg_1","1078","1078","0","[[1,0,0],[0,0],[3]]","2","[[0,0,0],[1,2],[3]]","18","0","","","","","","7","","","","","","","","",""
"","","","","","single-stim-button","238","649022","0.0-2.0-65.1-1.1","5d2df745da13f60018d14b64","E1","batch5","","2366","tol_toboard","","","","tol_peg_2","2366","2366","0","[[1,0,0],[2,0],[3]]","2","[[0,0,0],[1,2],[3]]","18","0","","","","","","7","","","","","","","","",""
"","","","","","single-stim-button","239","662757","0.0-2.0-65.2-0.2","5d2df745da13f60018d14b64","E1","batch5","","13733","tol_tohand","","","","tol_peg_3","13733","13733","0","[[1,0,0],[2,0],[0]]","3","[[0,0,0],[1,2],[3]]","18","0","","","","","","7","","","","","","","","",""
"","","","","","single-stim-button","240","664005","0.0-2.0-65.2-1.2","5d2df745da13f60018d14b64","E1","batch5","","1245","tol_toboard","","","","tol_peg_2","1245","1245","0","[[1,0,0],[2,3],[0]]","3","[[0,0,0],[1,2],[3]]","18","0","","","","","","7","","","","","","","","",""
"","","","","","single-stim-button","241","664751","0.0-2.0-65.3-0.3","5d2df745da13f60018d14b64","E1","batch5","","743","tol_tohand","","","","tol_peg_1","743","743","0","[[0,0,0],[2,3],[0]]","4","[[0,0,0],[1,2],[3]]","18","0","","","","","","7","","","","","","","","",""
"","","","","","single-stim-button","242","666048","0.0-2.0-65.3-1.3","5d2df745da13f60018d14b64","E1","batch5","","1295","tol_toboard","","","","tol_peg_3","1295","1295","0","[[0,0,0],[2,3],[1]]","4","[[0,0,0],[1,2],[3]]","18","0","","","","","","7","","","","","","","","",""
"","","","","","single-stim-button","243","667307","0.0-2.0-65.4-0.4","5d2df745da13f60018d14b64","E1","batch5","","1256","tol_tohand","","","","tol_peg_2","1256","1256","0","[[0,0,0],[2,0],[1]]","5","[[0,0,0],[1,2],[3]]","18","0","","","","","","7","","","","","","","","",""
"","","","","","single-stim-button","244","669131","0.0-2.0-65.4-1.4","5d2df745da13f60018d14b64","E1","batch5","","1822","tol_toboard","","","","tol_peg_1","1822","1822","0","[[3,0,0],[2,0],[1]]","5","[[0,0,0],[1,2],[3]]","18","0","","","","","","7","","","","","","","","",""
"","","","","","single-stim-button","245","670757","0.0-2.0-65.5-0.5","5d2df745da13f60018d14b64","E1","batch5","","1623","tol_tohand","","","","tol_peg_2","1623","1623","0","[[3,0,0],[0,0],[1]]","6","[[0,0,0],[1,2],[3]]","18","0","","","","","","7","","","","","","","","",""
"","","","","","single-stim-button","246","671897","0.0-2.0-65.5-1.5","5d2df745da13f60018d14b64","E1","batch5","","1138","tol_toboard","","","","tol_peg_1","1138","1138","0","[[3,2,0],[0,0],[1]]","6","[[0,0,0],[1,2],[3]]","18","0","","","","","","7","","","","","","","","",""
"","","","","","single-stim-button","247","672898","0.0-2.0-65.6-0.6","5d2df745da13f60018d14b64","E1","batch5","","998","tol_tohand","","","","tol_peg_3","998","998","0","[[3,2,0],[0,0],[0]]","7","[[0,0,0],[1,2],[3]]","18","0","","","","","","7","","","","","","","","",""
"","","","","","single-stim-button","248","673850","0.0-2.0-65.6-1.6","5d2df745da13f60018d14b64","E1","batch5","","950","tol_toboard","","","","tol_peg_2","950","950","0","[[3,2,0],[1,0],[0]]","7","[[0,0,0],[1,2],[3]]","18","0","","","","","","7","","","","","","","","",""
"","","","","","single-stim-button","249","674623","0.0-2.0-65.7-0.7","5d2df745da13f60018d14b64","E1","batch5","","770","tol_tohand","","","","tol_peg_1","770","770","0","[[3,0,0],[1,0],[0]]","8","[[0,0,0],[1,2],[3]]","18","0","","","","","","7","","","","","","","","",""
"","","","","","single-stim-button","250","675714","0.0-2.0-65.7-1.7","5d2df745da13f60018d14b64","E1","batch5","","1089","tol_toboard","","","","tol_peg_2","1089","1089","0","[[3,0,0],[1,2],[0]]","8","[[0,0,0],[1,2],[3]]","18","0","","","","","","7","","","","","","","","",""
"","","","","","single-stim-button","251","677319","0.0-2.0-65.8-0.8","5d2df745da13f60018d14b64","E1","batch5","","1602","tol_tohand","","","","tol_peg_1","1602","1602","0","[[0,0,0],[1,2],[0]]","9","[[0,0,0],[1,2],[3]]","18","0","","","","","","7","","","","","","","","",""
"","","","","","single-stim-button","252","679144","0.0-2.0-65.8-1.8","5d2df745da13f60018d14b64","E1","batch5","","1822","tol_toboard","","","","tol_peg_3","1822","1822","0","[[0,0,0],[1,2],[3]]","9","[[0,0,0],[1,2],[3]]","18","0","","","","","","7","","","","","","","","",""
"","","","","","poldrack-single-stim","253","680148","0.0-2.0-66.0","5d2df745da13f60018d14b64","E1","batch5","","-1","tol_feedback","","","true","","1000","1000","500","","","","","","-1","none","true","2089","23892","","","","","","","","","",""
"","","","","","html-button-response","254","682187","0.0-2.0-67.0","5d2df745da13f60018d14b64","E1","batch5","","2036.5","tol_trial_num","<div class = centerbox><p class = center-block-text>problem <strong>20</strong> out of 25 problems</p></div>","0","","","","","","","","","","","","","","","","","","","","","","","","",""
"","","","","","single-stim-button","255","684824","0.0-2.0-68.0-0.0","5d2df745da13f60018d14b64","E1","batch5","","2634","tol_tohand","","","","tol_peg_2","2634","2634","0","[[1,2,0],[0,0],[0]]","1","[[2,1,0],[0,0],[3]]","19","0","","","","","","5","","","","","","","","",""
"","","","","","single-stim-button","256","689708","0.0-2.0-68.0-1.0","5d2df745da13f60018d14b64","E1","batch5","","4881","tol_toboard","","","","tol_peg_2","4881","4881","0","[[1,2,0],[3,0],[0]]","1","[[2,1,0],[0,0],[3]]","19","0","","","","","","5","","","","","","","","",""
"","","","","","single-stim-button","257","692871","0.0-2.0-68.1-0.1","5d2df745da13f60018d14b64","E1","batch5","","3160","tol_tohand","","","","tol_peg_1","3160","3160","0","[[1,0,0],[3,0],[0]]","2","[[2,1,0],[0,0],[3]]","19","0","","","","","","5","","","","","","","","",""
"","","","","","single-stim-button","258","694020","0.0-2.0-68.1-1.1","5d2df745da13f60018d14b64","E1","batch5","","1146","tol_toboard","","","","tol_peg_2","1146","1146","0","[[1,0,0],[3,2],[0]]","2","[[2,1,0],[0,0],[3]]","19","0","","","","","","5","","","","","","","","",""
"","","","","","single-stim-button","259","695239","0.0-2.0-68.2-0.2","5d2df745da13f60018d14b64","E1","batch5","","1217","tol_tohand","","","","tol_peg_1","1217","1217","0","[[0,0,0],[3,2],[0]]","3","[[2,1,0],[0,0],[3]]","19","0","","","","","","5","","","","","","","","",""
"","","","","","single-stim-button","260","696361","0.0-2.0-68.2-1.2","5d2df745da13f60018d14b64","E1","batch5","","1118","tol_toboard","","","","tol_peg_3","1118","1118","0","[[0,0,0],[3,2],[1]]","3","[[2,1,0],[0,0],[3]]","19","0","","","","","","5","","","","","","","","",""
"","","","","","single-stim-button","261","697183","0.0-2.0-68.3-0.3","5d2df745da13f60018d14b64","E1","batch5","","819","tol_tohand","","","","tol_peg_2","819","819","0","[[0,0,0],[3,0],[1]]","4","[[2,1,0],[0,0],[3]]","19","0","","","","","","5","","","","","","","","",""
"","","","","","single-stim-button","262","698323","0.0-2.0-68.3-1.3","5d2df745da13f60018d14b64","E1","batch5","","1137","tol_toboard","","","","tol_peg_1","1137","1137","0","[[2,0,0],[3,0],[1]]","4","[[2,1,0],[0,0],[3]]","19","0","","","","","","5","","","","","","","","",""
"","","","","","single-stim-button","263","699225","0.0-2.0-68.4-0.4","5d2df745da13f60018d14b64","E1","batch5","","900","tol_tohand","","","","tol_peg_3","900","900","0","[[2,0,0],[3,0],[0]]","5","[[2,1,0],[0,0],[3]]","19","0","","","","","","5","","","","","","","","",""
"","","","","","single-stim-button","264","700216","0.0-2.0-68.4-1.4","5d2df745da13f60018d14b64","E1","batch5","","988","tol_toboard","","","","tol_peg_1","988","988","0","[[2,1,0],[3,0],[0]]","5","[[2,1,0],[0,0],[3]]","19","0","","","","","","5","","","","","","","","",""
"","","","","","single-stim-button","265","701079","0.0-2.0-68.5-0.5","5d2df745da13f60018d14b64","E1","batch5","","860","tol_tohand","","","","tol_peg_2","860","860","0","[[2,1,0],[0,0],[0]]","6","[[2,1,0],[0,0],[3]]","19","0","","","","","","5","","","","","","","","",""
"","","","","","single-stim-button","266","701901","0.0-2.0-68.5-1.5","5d2df745da13f60018d14b64","E1","batch5","","819","tol_toboard","","","","tol_peg_3","819","819","0","[[2,1,0],[0,0],[3]]","6","[[2,1,0],[0,0],[3]]","19","0","","","","","","5","","","","","","","","",""
"","","","","","poldrack-single-stim","267","702907","0.0-2.0-69.0","5d2df745da13f60018d14b64","E1","batch5","","-1","tol_feedback","","","true","","1000","1000","500","","","","","","-1","none","true","2634","9590","","","","","","","","","",""
"","","","","","html-button-response","268","704290","0.0-2.0-70.0","5d2df745da13f60018d14b64","E1","batch5","","1381.3999999999069","tol_trial_num","<div class = centerbox><p class = center-block-text>problem <strong>21</strong> out of 25 problems</p></div>","0","","","","","","","","","","","","","","","","","","","","","","","","",""
"","","","","","single-stim-button","269","715678","0.0-2.0-71.0-0.0","5d2df745da13f60018d14b64","E1","batch5","","11385","tol_tohand","","","","tol_peg_2","11385","11385","0","[[1,2,0],[0,0],[0]]","1","[[3,2,0],[0,0],[1]]","20","0","","","","","","6","","","","","","","","",""
"","","","","","single-stim-button","270","717066","0.0-2.0-71.0-1.0","5d2df745da13f60018d14b64","E1","batch5","","1385","tol_toboard","","","","tol_peg_3","1385","1385","0","[[1,2,0],[0,0],[3]]","1","[[3,2,0],[0,0],[1]]","20","0","","","","","","6","","","","","","","","",""
"","","","","","single-stim-button","271","719769","0.0-2.0-71.1-0.1","5d2df745da13f60018d14b64","E1","batch5","","2700","tol_tohand","","","","tol_peg_1","2700","2700","0","[[1,0,0],[0,0],[3]]","2","[[3,2,0],[0,0],[1]]","20","0","","","","","","6","","","","","","","","",""
"","","","","","single-stim-button","272","721356","0.0-2.0-71.1-1.1","5d2df745da13f60018d14b64","E1","batch5","","1583","tol_toboard","","","","tol_peg_2","1583","1583","0","[[1,0,0],[2,0],[3]]","2","[[3,2,0],[0,0],[1]]","20","0","","","","","","6","","","","","","","","",""
"","","","","","single-stim-button","273","722089","0.0-2.0-71.2-0.2","5d2df745da13f60018d14b64","E1","batch5","","729","tol_tohand","","","","tol_peg_1","729","729","0","[[0,0,0],[2,0],[3]]","3","[[3,2,0],[0,0],[1]]","20","0","","","","","","6","","","","","","","","",""
"","","","","","single-stim-button","274","723109","0.0-2.0-71.2-1.2","5d2df745da13f60018d14b64","E1","batch5","","1018","tol_toboard","","","","tol_peg_2","1018","1018","0","[[0,0,0],[2,1],[3]]","3","[[3,2,0],[0,0],[1]]","20","0","","","","","","6","","","","","","","","",""
"","","","","","single-stim-button","275","723834","0.0-2.0-71.3-0.3","5d2df745da13f60018d14b64","E1","batch5","","722","tol_tohand","","","","tol_peg_3","722","722","0","[[0,0,0],[2,1],[0]]","4","[[3,2,0],[0,0],[1]]","20","0","","","","","","6","","","","","","","","",""
"","","","","","single-stim-button","276","725082","0.0-2.0-71.3-1.3","5d2df745da13f60018d14b64","E1","batch5","","1246","tol_toboard","","","","tol_peg_1","1246","1246","0","[[3,0,0],[2,1],[0]]","4","[[3,2,0],[0,0],[1]]","20","0","","","","","","6","","","","","","","","",""
"","","","","","single-stim-button","277","725866","0.0-2.0-71.4-0.4","5d2df745da13f60018d14b64","E1","batch5","","782","tol_tohand","","","","tol_peg_2","782","782","0","[[3,0,0],[2,0],[0]]","5","[[3,2,0],[0,0],[1]]","20","0","","","","","","6","","","","","","","","",""
"","","","","","single-stim-button","278","727085","0.0-2.0-71.4-1.4","5d2df745da13f60018d14b64","E1","batch5","","1216","tol_toboard","","","","tol_peg_3","1216","1216","0","[[3,0,0],[2,0],[1]]","5","[[3,2,0],[0,0],[1]]","20","0","","","","","","6","","","","","","","","",""
"","","","","","single-stim-button","279","727808","0.0-2.0-71.5-0.5","5d2df745da13f60018d14b64","E1","batch5","","720","tol_tohand","","","","tol_peg_2","720","720","0","[[3,0,0],[0,0],[1]]","6","[[3,2,0],[0,0],[1]]","20","0","","","","","","6","","","","","","","","",""
"","","","","","single-stim-button","280","728801","0.0-2.0-71.5-1.5","5d2df745da13f60018d14b64","E1","batch5","","989","tol_toboard","","","","tol_peg_1","989","989","0","[[3,2,0],[0,0],[1]]","6","[[3,2,0],[0,0],[1]]","20","0","","","","","","6","","","","","","","","",""
"","","","","","poldrack-single-stim","281","729805","0.0-2.0-72.0","5d2df745da13f60018d14b64","E1","batch5","","-1","tol_feedback","","","true","","1000","1000","500","","","","","","-1","none","true","11385","17038","","","","","","","","","",""
"","","","","","html-button-response","282","730921","0.0-2.0-73.0","5d2df745da13f60018d14b64","E1","batch5","","1112.3999999999069","tol_trial_num","<div class = centerbox><p class = center-block-text>problem <strong>22</strong> out of 25 problems</p></div>","0","","","","","","","","","","","","","","","","","","","","","","","","",""
"","","","","","single-stim-button","283","736577","0.0-2.0-74.0-0.0","5d2df745da13f60018d14b64","E1","batch5","","5654","tol_tohand","","","","tol_peg_2","5654","5654","0","[[1,0,0],[2,0],[0]]","1","[[0,0,0],[1,2],[3]]","21","0","","","","","","6","","","","","","","","",""
"","","","","","single-stim-button","284","737470","0.0-2.0-74.0-1.0","5d2df745da13f60018d14b64","E1","batch5","","890","tol_toboard","","","","tol_peg_1","890","890","0","[[1,3,0],[2,0],[0]]","1","[[0,0,0],[1,2],[3]]","21","0","","","","","","6","","","","","","","","",""
"","","","","","single-stim-button","285","738501","0.0-2.0-74.1-0.1","5d2df745da13f60018d14b64","E1","batch5","","1029","tol_tohand","","","","tol_peg_2","1029","1029","0","[[1,3,0],[0,0],[0]]","2","[[0,0,0],[1,2],[3]]","21","0","","","","","","6","","","","","","","","",""
"","","","","","single-stim-button","286","746422","0.0-2.0-74.1-1.1","5d2df745da13f60018d14b64","E1","batch5","","7919","tol_toboard","","","","tol_peg_3","7919","7919","0","[[1,3,0],[0,0],[2]]","2","[[0,0,0],[1,2],[3]]","21","0","","","","","","6","","","","","","","","",""
"","","","","","single-stim-button","287","753054","0.0-2.0-74.2-0.2","5d2df745da13f60018d14b64","E1","batch5","","6629","tol_tohand","","","","tol_peg_1","6629","6629","0","[[1,0,0],[0,0],[2]]","3","[[0,0,0],[1,2],[3]]","21","0","","","","","","6","","","","","","","","",""
"","","","","","single-stim-button","288","754124","0.0-2.0-74.2-1.2","5d2df745da13f60018d14b64","E1","batch5","","1066","tol_toboard","","","","tol_peg_2","1066","1066","0","[[1,0,0],[3,0],[2]]","3","[[0,0,0],[1,2],[3]]","21","0","","","","","","6","","","","","","","","",""
"","","","","","single-stim-button","289","773036","0.0-2.0-74.3-0.3","5d2df745da13f60018d14b64","E1","batch5","","18910","tol_tohand","","","","tol_peg_3","18910","18910","0","[[1,0,0],[3,0],[0]]","4","[[0,0,0],[1,2],[3]]","21","0","","","","","","6","","","","","","","","",""
"","","","","","single-stim-button","290","774522","0.0-2.0-74.3-1.3","5d2df745da13f60018d14b64","E1","batch5","","1483","tol_toboard","","","","tol_peg_1","1483","1483","0","[[1,2,0],[3,0],[0]]","4","[[0,0,0],[1,2],[3]]","21","0","","","","","","6","","","","","","","","",""
"","","","","","single-stim-button","291","776128","0.0-2.0-74.4-0.4","5d2df745da13f60018d14b64","E1","batch5","","1603","tol_tohand","","","","tol_peg_2","1603","1603","0","[[1,2,0],[0,0],[0]]","5","[[0,0,0],[1,2],[3]]","21","0","","","","","","6","","","","","","","","",""
"","","","","","single-stim-button","292","777189","0.0-2.0-74.4-1.4","5d2df745da13f60018d14b64","E1","batch5","","1058","tol_toboard","","","","tol_peg_3","1058","1058","0","[[1,2,0],[0,0],[3]]","5","[[0,0,0],[1,2],[3]]","21","0","","","","","","6","","","","","","","","",""
"","","","","","single-stim-button","293","778537","0.0-2.0-74.5-0.5","5d2df745da13f60018d14b64","E1","batch5","","1345","tol_tohand","","","","tol_peg_1","1345","1345","0","[[1,0,0],[0,0],[3]]","6","[[0,0,0],[1,2],[3]]","21","0","","","","","","6","","","","","","","","",""
"","","","","","single-stim-button","294","779598","0.0-2.0-74.5-1.5","5d2df745da13f60018d14b64","E1","batch5","","1058","tol_toboard","","","","tol_peg_2","1058","1058","0","[[1,0,0],[2,0],[3]]","6","[[0,0,0],[1,2],[3]]","21","0","","","","","","6","","","","","","","","",""
"","","","","","single-stim-button","295","782570","0.0-2.0-74.6-0.6","5d2df745da13f60018d14b64","E1","batch5","","2969","tol_tohand","","","","tol_peg_1","2969","2969","0","[[0,0,0],[2,0],[3]]","7","[[0,0,0],[1,2],[3]]","21","0","","","","","","6","","","","","","","","",""
"","","","","","single-stim-button","296","783818","0.0-2.0-74.6-1.6","5d2df745da13f60018d14b64","E1","batch5","","1246","tol_toboard","","","","tol_peg_2","1246","1246","0","[[0,0,0],[2,1],[3]]","7","[[0,0,0],[1,2],[3]]","21","0","","","","","","6","","","","","","","","",""
"","","","","","single-stim-button","297","784562","0.0-2.0-74.7-0.7","5d2df745da13f60018d14b64","E1","batch5","","741","tol_tohand","","","","tol_peg_3","741","741","0","[[0,0,0],[2,1],[0]]","8","[[0,0,0],[1,2],[3]]","21","0","","","","","","6","","","","","","","","",""
"","","","","","single-stim-button","298","785603","0.0-2.0-74.7-1.7","5d2df745da13f60018d14b64","E1","batch5","","1039","tol_toboard","","","","tol_peg_1","1039","1039","0","[[3,0,0],[2,1],[0]]","8","[[0,0,0],[1,2],[3]]","21","0","","","","","","6","","","","","","","","",""
"","","","","","single-stim-button","299","786822","0.0-2.0-74.8-0.8","5d2df745da13f60018d14b64","E1","batch5","","1216","tol_tohand","","","","tol_peg_2","1216","1216","0","[[3,0,0],[2,0],[0]]","9","[[0,0,0],[1,2],[3]]","21","0","","","","","","6","","","","","","","","",""
"","","","","","single-stim-button","300","787863","0.0-2.0-74.8-1.8","5d2df745da13f60018d14b64","E1","batch5","","1039","tol_toboard","","","","tol_peg_3","1039","1039","0","[[3,0,0],[2,0],[1]]","9","[[0,0,0],[1,2],[3]]","21","0","","","","","","6","","","","","","","","",""
"","","","","","single-stim-button","301","788607","0.0-2.0-74.9-0.9","5d2df745da13f60018d14b64","E1","batch5","","741","tol_tohand","","","","tol_peg_2","741","741","0","[[3,0,0],[0,0],[1]]","10","[[0,0,0],[1,2],[3]]","21","0","","","","","","6","","","","","","","","",""
"","","","","","single-stim-button","302","789419","0.0-2.0-74.9-1.9","5d2df745da13f60018d14b64","E1","batch5","","810","tol_toboard","","","","tol_peg_1","810","810","0","[[3,2,0],[0,0],[1]]","10","[[0,0,0],[1,2],[3]]","21","0","","","","","","6","","","","","","","","",""
"","","","","","single-stim-button","303","790194","0.0-2.0-74.10-0.10","5d2df745da13f60018d14b64","E1","batch5","","771","tol_tohand","","","","tol_peg_3","771","771","0","[[3,2,0],[0,0],[0]]","11","[[0,0,0],[1,2],[3]]","21","0","","","","","","6","","","","","","","","",""
"","","","","","single-stim-button","304","791045","0.0-2.0-74.10-1.10","5d2df745da13f60018d14b64","E1","batch5","","849","tol_toboard","","","","tol_peg_2","849","849","0","[[3,2,0],[1,0],[0]]","11","[[0,0,0],[1,2],[3]]","21","0","","","","","","6","","","","","","","","",""
"","","","","","single-stim-button","305","791808","0.0-2.0-74.11-0.11","5d2df745da13f60018d14b64","E1","batch5","","761","tol_tohand","","","","tol_peg_1","761","761","0","[[3,0,0],[1,0],[0]]","12","[[0,0,0],[1,2],[3]]","21","0","","","","","","6","","","","","","","","",""
"","","","","","single-stim-button","306","792811","0.0-2.0-74.11-1.11","5d2df745da13f60018d14b64","E1","batch5","","999","tol_toboard","","","","tol_peg_2","999","999","0","[[3,0,0],[1,2],[0]]","12","[[0,0,0],[1,2],[3]]","21","0","","","","","","6","","","","","","","","",""
"","","","","","single-stim-button","307","793554","0.0-2.0-74.12-0.12","5d2df745da13f60018d14b64","E1","batch5","","740","tol_tohand","","","","tol_peg_1","740","740","0","[[0,0,0],[1,2],[0]]","13","[[0,0,0],[1,2],[3]]","21","0","","","","","","6","","","","","","","","",""
"","","","","","single-stim-button","308","794674","0.0-2.0-74.12-1.12","5d2df745da13f60018d14b64","E1","batch5","","1117","tol_toboard","","","","tol_peg_3","1117","1117","0","[[0,0,0],[1,2],[3]]","13","[[0,0,0],[1,2],[3]]","21","0","","","","","","6","","","","","","","","",""
"","","","","","poldrack-single-stim","309","795679","0.0-2.0-75.0","5d2df745da13f60018d14b64","E1","batch5","","-1","tol_feedback","","","true","","1000","1000","500","","","","","","-1","none","true","5654","43109","","","","","","","","","",""
"","","","","","html-button-response","310","797142","0.0-2.0-76.0","5d2df745da13f60018d14b64","E1","batch5","","1460","tol_trial_num","<div class = centerbox><p class = center-block-text>problem <strong>23</strong> out of 25 problems</p></div>","0","","","","","","","","","","","","","","","","","","","","","","","","",""
"","","","","","single-stim-button","311","801265","0.0-2.0-77.0-0.0","5d2df745da13f60018d14b64","E1","batch5","","4120","tol_tohand","","","","tol_peg_1","4120","4120","0","[[1,0,0],[3,0],[0]]","1","[[1,3,2],[0,0],[0]]","22","0","","","","","","3","","","","","","","","",""
"","","","","","single-stim-button","312","802415","0.0-2.0-77.0-1.0","5d2df745da13f60018d14b64","E1","batch5","","1147","tol_toboard","","","","tol_peg_3","1147","1147","0","[[1,0,0],[3,0],[2]]","1","[[1,3,2],[0,0],[0]]","22","0","","","","","","3","","","","","","","","",""
"","","","","","single-stim-button","313","803308","0.0-2.0-77.1-0.1","5d2df745da13f60018d14b64","E1","batch5","","890","tol_tohand","","","","tol_peg_2","890","890","0","[[1,0,0],[0,0],[2]]","2","[[1,3,2],[0,0],[0]]","22","0","","","","","","3","","","","","","","","",""
"","","","","","single-stim-button","314","804259","0.0-2.0-77.1-1.1","5d2df745da13f60018d14b64","E1","batch5","","948","tol_toboard","","","","tol_peg_1","948","948","0","[[1,3,0],[0,0],[2]]","2","[[1,3,2],[0,0],[0]]","22","0","","","","","","3","","","","","","","","",""
"","","","","","single-stim-button","315","805212","0.0-2.0-77.2-0.2","5d2df745da13f60018d14b64","E1","batch5","","950","tol_tohand","","","","tol_peg_3","950","950","0","[[1,3,0],[0,0],[0]]","3","[[1,3,2],[0,0],[0]]","22","0","","","","","","3","","","","","","","","",""
"","","","","","single-stim-button","316","806113","0.0-2.0-77.2-1.2","5d2df745da13f60018d14b64","E1","batch5","","898","tol_toboard","","","","tol_peg_1","898","898","0","[[1,3,2],[0,0],[0]]","3","[[1,3,2],[0,0],[0]]","22","0","","","","","","3","","","","","","","","",""
"","","","","","poldrack-single-stim","317","807119","0.0-2.0-78.0","5d2df745da13f60018d14b64","E1","batch5","","-1","tol_feedback","","","true","","1000","1000","500","","","","","","-1","none","true","4120","5960","","","","","","","","","",""
"","","","","","html-button-response","318","808442","0.0-2.0-79.0","5d2df745da13f60018d14b64","E1","batch5","","1320.8999999999069","tol_trial_num","<div class = centerbox><p class = center-block-text>problem <strong>24</strong> out of 25 problems</p></div>","0","","","","","","","","","","","","","","","","","","","","","","","","",""
"","","","","","single-stim-button","319","815476","0.0-2.0-80.0-0.0","5d2df745da13f60018d14b64","E1","batch5","","7031","tol_tohand","","","","tol_peg_3","7031","7031","0","[[0,0,0],[2,3],[0]]","1","[[2,0,0],[3,0],[1]]","23","0","","","","","","7","","","","","","","","",""
"","","","","","single-stim-button","320","824498","0.0-2.0-80.0-1.0","5d2df745da13f60018d14b64","E1","batch5","","9019","tol_toboard","","","","tol_peg_1","9019","9019","0","[[1,0,0],[2,3],[0]]","1","[[2,0,0],[3,0],[1]]","23","0","","","","","","7","","","","","","","","",""
"","","","","","single-stim-button","321","827072","0.0-2.0-80.1-0.1","5d2df745da13f60018d14b64","E1","batch5","","2570","tol_tohand","","","","tol_peg_2","2570","2570","0","[[1,0,0],[2,0],[0]]","2","[[2,0,0],[3,0],[1]]","23","0","","","","","","7","","","","","","","","",""
"","","","","","single-stim-button","322","829669","0.0-2.0-80.1-1.1","5d2df745da13f60018d14b64","E1","batch5","","2595","tol_toboard","","","","tol_peg_1","2595","2595","0","[[1,3,0],[2,0],[0]]","2","[[2,0,0],[3,0],[1]]","23","0","","","","","","7","","","","","","","","",""
"","","","","","single-stim-button","323","830521","0.0-2.0-80.2-0.2","5d2df745da13f60018d14b64","E1","batch5","","849","tol_tohand","","","","tol_peg_2","849","849","0","[[1,3,0],[0,0],[0]]","3","[[2,0,0],[3,0],[1]]","23","0","","","","","","7","","","","","","","","",""
"","","","","","single-stim-button","324","831731","0.0-2.0-80.2-1.2","5d2df745da13f60018d14b64","E1","batch5","","1207","tol_toboard","","","","tol_peg_3","1207","1207","0","[[1,3,0],[0,0],[2]]","3","[[2,0,0],[3,0],[1]]","23","0","","","","","","7","","","","","","","","",""
"","","","","","single-stim-button","325","832573","0.0-2.0-80.3-0.3","5d2df745da13f60018d14b64","E1","batch5","","840","tol_tohand","","","","tol_peg_1","840","840","0","[[1,0,0],[0,0],[2]]","4","[[2,0,0],[3,0],[1]]","23","0","","","","","","7","","","","","","","","",""
"","","","","","single-stim-button","326","834050","0.0-2.0-80.3-1.3","5d2df745da13f60018d14b64","E1","batch5","","1474","tol_toboard","","","","tol_peg_2","1474","1474","0","[[1,0,0],[3,0],[2]]","4","[[2,0,0],[3,0],[1]]","23","0","","","","","","7","","","","","","","","",""
"","","","","","single-stim-button","327","835191","0.0-2.0-80.4-0.4","5d2df745da13f60018d14b64","E1","batch5","","1137","tol_tohand","","","","tol_peg_3","1137","1137","0","[[1,0,0],[3,0],[0]]","5","[[2,0,0],[3,0],[1]]","23","0","","","","","","7","","","","","","","","",""
"","","","","","single-stim-button","328","836747","0.0-2.0-80.4-1.4","5d2df745da13f60018d14b64","E1","batch5","","1553","tol_toboard","","","","tol_peg_2","1553","1553","0","[[1,0,0],[3,2],[0]]","5","[[2,0,0],[3,0],[1]]","23","0","","","","","","7","","","","","","","","",""
"","","","","","single-stim-button","329","837599","0.0-2.0-80.5-0.5","5d2df745da13f60018d14b64","E1","batch5","","849","tol_tohand","","","","tol_peg_1","849","849","0","[[0,0,0],[3,2],[0]]","6","[[2,0,0],[3,0],[1]]","23","0","","","","","","7","","","","","","","","",""
"","","","","","single-stim-button","330","838453","0.0-2.0-80.5-1.5","5d2df745da13f60018d14b64","E1","batch5","","850","tol_toboard","","","","tol_peg_3","850","850","0","[[0,0,0],[3,2],[1]]","6","[[2,0,0],[3,0],[1]]","23","0","","","","","","7","","","","","","","","",""
"","","","","","single-stim-button","331","839226","0.0-2.0-80.6-0.6","5d2df745da13f60018d14b64","E1","batch5","","771","tol_tohand","","","","tol_peg_2","771","771","0","[[0,0,0],[3,0],[1]]","7","[[2,0,0],[3,0],[1]]","23","0","","","","","","7","","","","","","","","",""
"","","","","","single-stim-button","332","840494","0.0-2.0-80.6-1.6","5d2df745da13f60018d14b64","E1","batch5","","1266","tol_toboard","","","","tol_peg_1","1266","1266","0","[[2,0,0],[3,0],[1]]","7","[[2,0,0],[3,0],[1]]","23","0","","","","","","7","","","","","","","","",""
"","","","","","poldrack-single-stim","333","841500","0.0-2.0-81.0","5d2df745da13f60018d14b64","E1","batch5","","-1","tol_feedback","","","true","","1000","1000","500","","","","","","-1","none","true","7031","14047","","","","","","","","","",""
"","","","","","html-button-response","334","843131","0.0-2.0-82.0","5d2df745da13f60018d14b64","E1","batch5","","1628.5","tol_trial_num","<div class = centerbox><p class = center-block-text>problem <strong>25</strong> out of 25 problems</p></div>","0","","","","","","","","","","","","","","","","","","","","","","","","",""
"","","","","","single-stim-button","335","853591","0.0-2.0-83.0-0.0","5d2df745da13f60018d14b64","E1","batch5","","10457","tol_tohand","","","","tol_peg_2","10457","10457","0","[[1,2,0],[0,0],[0]]","1","[[3,0,0],[1,0],[2]]","24","0","","","","","","7","","","","","","","","",""
"","","","","","single-stim-button","336","854889","0.0-2.0-83.0-1.0","5d2df745da13f60018d14b64","E1","batch5","","1294","tol_toboard","","","","tol_peg_3","1294","1294","0","[[1,2,0],[0,0],[3]]","1","[[3,0,0],[1,0],[2]]","24","0","","","","","","7","","","","","","","","",""
"","","","","","single-stim-button","337","867679","0.0-2.0-83.1-0.1","5d2df745da13f60018d14b64","E1","batch5","","12787","tol_tohand","","","","tol_peg_1","12787","12787","0","[[1,0,0],[0,0],[3]]","2","[[3,0,0],[1,0],[2]]","24","0","","","","","","7","","","","","","","","",""
"","","","","","single-stim-button","338","870682","0.0-2.0-83.1-1.1","5d2df745da13f60018d14b64","E1","batch5","","3000","tol_toboard","","","","tol_peg_2","3000","3000","0","[[1,0,0],[2,0],[3]]","2","[[3,0,0],[1,0],[2]]","24","0","","","","","","7","","","","","","","","",""
"","","","","","single-stim-button","339","873717","0.0-2.0-83.2-0.2","5d2df745da13f60018d14b64","E1","batch5","","3032","tol_tohand","","","","tol_peg_1","3032","3032","0","[[0,0,0],[2,0],[3]]","3","[[3,0,0],[1,0],[2]]","24","0","","","","","","7","","","","","","","","",""
"","","","","","single-stim-button","340","875719","0.0-2.0-83.2-1.2","5d2df745da13f60018d14b64","E1","batch5","","1999","tol_toboard","","","","tol_peg_2","1999","1999","0","[[0,0,0],[2,1],[3]]","3","[[3,0,0],[1,0],[2]]","24","0","","","","","","7","","","","","","","","",""
"","","","","","single-stim-button","341","876542","0.0-2.0-83.3-0.3","5d2df745da13f60018d14b64","E1","batch5","","820","tol_tohand","","","","tol_peg_3","820","820","0","[[0,0,0],[2,1],[0]]","4","[[3,0,0],[1,0],[2]]","24","0","","","","","","7","","","","","","","","",""
"","","","","","single-stim-button","342","877602","0.0-2.0-83.3-1.3","5d2df745da13f60018d14b64","E1","batch5","","1058","tol_toboard","","","","tol_peg_1","1058","1058","0","[[3,0,0],[2,1],[0]]","4","[[3,0,0],[1,0],[2]]","24","0","","","","","","7","","","","","","","","",""
"","","","","","single-stim-button","343","878921","0.0-2.0-83.4-0.4","5d2df745da13f60018d14b64","E1","batch5","","1316","tol_tohand","","","","tol_peg_2","1316","1316","0","[[3,0,0],[2,0],[0]]","5","[[3,0,0],[1,0],[2]]","24","0","","","","","","7","","","","","","","","",""
"","","","","","single-stim-button","344","879982","0.0-2.0-83.4-1.4","5d2df745da13f60018d14b64","E1","batch5","","1058","tol_toboard","","","","tol_peg_3","1058","1058","0","[[3,0,0],[2,0],[1]]","5","[[3,0,0],[1,0],[2]]","24","0","","","","","","7","","","","","","","","",""
"","","","","","single-stim-button","345","880804","0.0-2.0-83.5-0.5","5d2df745da13f60018d14b64","E1","batch5","","820","tol_tohand","","","","tol_peg_2","820","820","0","[[3,0,0],[0,0],[1]]","6","[[3,0,0],[1,0],[2]]","24","0","","","","","","7","","","","","","","","",""
"","","","","","single-stim-button","346","881578","0.0-2.0-83.5-1.5","5d2df745da13f60018d14b64","E1","batch5","","771","tol_toboard","","","","tol_peg_1","771","771","0","[[3,2,0],[0,0],[1]]","6","[[3,0,0],[1,0],[2]]","24","0","","","","","","7","","","","","","","","",""
"","","","","","single-stim-button","347","882331","0.0-2.0-83.6-0.6","5d2df745da13f60018d14b64","E1","batch5","","750","tol_tohand","","","","tol_peg_3","750","750","0","[[3,2,0],[0,0],[0]]","7","[[3,0,0],[1,0],[2]]","24","0","","","","","","7","","","","","","","","",""
"","","","","","single-stim-button","348","883372","0.0-2.0-83.6-1.6","5d2df745da13f60018d14b64","E1","batch5","","1039","tol_toboard","","","","tol_peg_2","1039","1039","0","[[3,2,0],[1,0],[0]]","7","[[3,0,0],[1,0],[2]]","24","0","","","","","","7","","","","","","","","",""
"","","","","","single-stim-button","349","884195","0.0-2.0-83.7-0.7","5d2df745da13f60018d14b64","E1","batch5","","820","tol_tohand","","","","tol_peg_1","820","820","0","[[3,0,0],[1,0],[0]]","8","[[3,0,0],[1,0],[2]]","24","0","","","","","","7","","","","","","","","",""
"","","","","","single-stim-button","350","885751","0.0-2.0-83.7-1.7","5d2df745da13f60018d14b64","E1","batch5","","1554","tol_toboard","","","","tol_peg_3","1554","1554","0","[[3,0,0],[1,0],[2]]","8","[[3,0,0],[1,0],[2]]","24","0","","","","","","7","","","","","","","","",""
"","","","","","poldrack-single-stim","351","886756","0.0-2.0-84.0","5d2df745da13f60018d14b64","E1","batch5","","-1","tol_feedback","","","true","","1000","1000","500","","","","","","-1","none","true","10457","30802","","","","","","","","","",""
"","","","","","html-button-response","352","888483","0.0-2.0-85.0","5d2df745da13f60018d14b64","E1","batch5","","1724.1000000000931","tol-goodbye","<p class= block-text>This concludes the Tower of London Task. Thank you for your responses!<br> Click the button below to continue</p>","0","","","","","","","","","","","","","","","","","","","","","","","","",""
"true","","","","","fullscreen","353","891787","0.0-3.0-0.0","5d2df745da13f60018d14b64","E1","batch5","","","spm_fullscreen","","","","","","","","","","","","","","","","","","","","","","","","","","",""
