"success","timeout","failed_images","failed_audio","failed_video","trial_type","trial_index","time_elapsed","internal_node_id","subject_id","study_id","session_id","task","rt","stimulus","response","item","answer","correct","spm_correct","spm_rt","view_history","mouse_click","stim_duration","block_duration","timing_post_trial","current_position","tol_num_moves_made","tol_target","tol_problem_id","tol_rt","key_press","possible_responses","tol_correct","preplanning","tol_rt_per_trial","tol_min_moves","fiar_detect_rt","fiar_detect_correct","total_correct_fiar_detect","post_trial_gap","choices"
"true","false","[]","[]","[]","preload","0","701","0.0-0.0","5d305152b2cfe00019231a2a","F1","batch6","","","","","","","","","","","","","","","","","","","","","","","","","","","","","",""
"true","","","","","fullscreen","1","23276","0.0-1.0-0.0","5d305152b2cfe00019231a2a","F1","batch6","","","","","","","","","","","","","","","","","","","","","","","","","","","","","",""
"true","","","","","fullscreen","2","28736","0.0-2.0-0.0","5d305152b2cfe00019231a2a","F1","batch6","spm_fullscreen","","","","","","","","","","","","","","","","","","","","","","","","","","","","",""
"","","","","","html-button-response","3","39616","0.0-2.0-1.0","5d305152b2cfe00019231a2a","F1","batch6","","10878.299999952316","<p class = block-text><b>Instructions</b> <br>This is a widely used intelligence test in research. <br>In this test, a figure with a missing piece will be presented.<br>Below the figure are alternative pieces to complete the figure, only one of which is correct.<br> Different figures might involve different principles for obtaining the missing piece<br>Your job is to select the most logical piece to complete the figure.</p>","0","","","","","","","","","","","","","","","","","","","","","","","","","",""
"","","","","","html-keyboard-response","4","40421","0.0-2.0-2.0-0.0","5d305152b2cfe00019231a2a","F1","batch6","spm_show_trial_num","null","<p class=block-text>Trial 1 out of 60</p>","null","","","","","","","","","","","","","","","","","","","","","","","","","",""
"","","","","","image-button-response","5","56826","0.0-2.0-2.0-1.0","5d305152b2cfe00019231a2a","F1","batch6","spm_respsonse","16399.700000047684","img/question_1_1.jpeg","3","mat_01","4","1","1","16399.700000047684","","","","","","","","","","","","","","","","","","","","",""
"","","","","","html-keyboard-response","6","57891","0.0-2.0-2.0-0.1","5d305152b2cfe00019231a2a","F1","batch6","spm_show_trial_num","null","<p class=block-text>Trial 2 out of 60</p>","null","","","","","","","","","","","","","","","","","","","","","","","","","",""
"","","","","","image-button-response","7","61200","0.0-2.0-2.0-1.1","5d305152b2cfe00019231a2a","F1","batch6","spm_respsonse","3305.600000143051","img/question_1_2.jpeg","4","mat_02","5","1","1","3305.600000143051","","","","","","","","","","","","","","","","","","","","",""
"","","","","","html-keyboard-response","8","62261","0.0-2.0-2.0-0.2","5d305152b2cfe00019231a2a","F1","batch6","spm_show_trial_num","null","<p class=block-text>Trial 3 out of 60</p>","null","","","","","","","","","","","","","","","","","","","","","","","","","",""
"","","","","","image-button-response","9","77642","0.0-2.0-2.0-1.2","5d305152b2cfe00019231a2a","F1","batch6","spm_respsonse","15376.5","img/question_1_3.jpeg","0","mat_03","1","1","1","15376.5","","","","","","","","","","","","","","","","","","","","",""
"","","","","","html-keyboard-response","10","78718","0.0-2.0-2.0-0.3","5d305152b2cfe00019231a2a","F1","batch6","spm_show_trial_num","null","<p class=block-text>Trial 4 out of 60</p>","null","","","","","","","","","","","","","","","","","","","","","","","","","",""
"","","","","","image-button-response","11","89070","0.0-2.0-2.0-1.3","5d305152b2cfe00019231a2a","F1","batch6","spm_respsonse","10348","img/question_1_4.jpeg","1","mat_04","2","1","1","10348","","","","","","","","","","","","","","","","","","","","",""
"","","","","","html-keyboard-response","12","90140","0.0-2.0-2.0-0.4","5d305152b2cfe00019231a2a","F1","batch6","spm_show_trial_num","null","<p class=block-text>Trial 5 out of 60</p>","null","","","","","","","","","","","","","","","","","","","","","","","","","",""
"","","","","","image-button-response","13","101192","0.0-2.0-2.0-1.4","5d305152b2cfe00019231a2a","F1","batch6","spm_respsonse","11047.599999904633","img/question_1_5.jpeg","5","mat_05","6","1","1","11047.599999904633","","","","","","","","","","","","","","","","","","","","",""
"","","","","","html-keyboard-response","14","102245","0.0-2.0-2.0-0.5","5d305152b2cfe00019231a2a","F1","batch6","spm_show_trial_num","null","<p class=block-text>Trial 6 out of 60</p>","null","","","","","","","","","","","","","","","","","","","","","","","","","",""
"","","","","","image-button-response","15","119838","0.0-2.0-2.0-1.5","5d305152b2cfe00019231a2a","F1","batch6","spm_respsonse","17588.900000095367","img/question_1_6.jpeg","2","mat_06","3","1","1","17588.900000095367","","","","","","","","","","","","","","","","","","","","",""
"","","","","","html-keyboard-response","16","120906","0.0-2.0-2.0-0.6","5d305152b2cfe00019231a2a","F1","batch6","spm_show_trial_num","null","<p class=block-text>Trial 7 out of 60</p>","null","","","","","","","","","","","","","","","","","","","","","","","","","",""
"","","","","","image-button-response","17","132086","0.0-2.0-2.0-1.6","5d305152b2cfe00019231a2a","F1","batch6","spm_respsonse","11175.699999809265","img/question_1_7.jpeg","5","mat_07","6","1","1","11175.699999809265","","","","","","","","","","","","","","","","","","","","",""
"","","","","","html-keyboard-response","18","133141","0.0-2.0-2.0-0.7","5d305152b2cfe00019231a2a","F1","batch6","spm_show_trial_num","null","<p class=block-text>Trial 8 out of 60</p>","null","","","","","","","","","","","","","","","","","","","","","","","","","",""
"","","","","","image-button-response","19","143472","0.0-2.0-2.0-1.7","5d305152b2cfe00019231a2a","F1","batch6","spm_respsonse","10326.399999856949","img/question_1_8.jpeg","1","mat_08","2","1","1","10326.399999856949","","","","","","","","","","","","","","","","","","","","",""
"","","","","","html-keyboard-response","20","144548","0.0-2.0-2.0-0.8","5d305152b2cfe00019231a2a","F1","batch6","spm_show_trial_num","null","<p class=block-text>Trial 9 out of 60</p>","null","","","","","","","","","","","","","","","","","","","","","","","","","",""
"","","","","","image-button-response","21","165464","0.0-2.0-2.0-1.8","5d305152b2cfe00019231a2a","F1","batch6","spm_respsonse","20911.89999985695","img/question_1_9.jpeg","0","mat_09","1","1","1","20911.89999985695","","","","","","","","","","","","","","","","","","","","",""
"","","","","","html-keyboard-response","22","166531","0.0-2.0-2.0-0.9","5d305152b2cfe00019231a2a","F1","batch6","spm_show_trial_num","null","<p class=block-text>Trial 10 out of 60</p>","null","","","","","","","","","","","","","","","","","","","","","","","","","",""
"","","","","","image-button-response","23","198802","0.0-2.0-2.0-1.9","5d305152b2cfe00019231a2a","F1","batch6","spm_respsonse","32267","img/question_1_10.jpeg","2","mat_10","3","1","1","32267","","","","","","","","","","","","","","","","","","","","",""
"","","","","","html-keyboard-response","24","199876","0.0-2.0-2.0-0.10","5d305152b2cfe00019231a2a","F1","batch6","spm_show_trial_num","null","<p class=block-text>Trial 11 out of 60</p>","null","","","","","","","","","","","","","","","","","","","","","","","","","",""
"","","","","","image-button-response","25","215029","0.0-2.0-2.0-1.10","5d305152b2cfe00019231a2a","F1","batch6","spm_respsonse","15150","img/question_1_11.jpeg","3","mat_11","4","1","1","15150","","","","","","","","","","","","","","","","","","","","",""
"","","","","","html-keyboard-response","26","216094","0.0-2.0-2.0-0.11","5d305152b2cfe00019231a2a","F1","batch6","spm_show_trial_num","null","<p class=block-text>Trial 12 out of 60</p>","null","","","","","","","","","","","","","","","","","","","","","","","","","",""
"","","","","","image-button-response","27","265450","0.0-2.0-2.0-1.11","5d305152b2cfe00019231a2a","F1","batch6","spm_respsonse","49351.89999985695","img/question_1_12.jpeg","4","mat_12","5","1","1","49351.89999985695","","","","","","","","","","","","","","","","","","","","",""
"","","","","","html-keyboard-response","28","266518","0.0-2.0-2.0-0.12","5d305152b2cfe00019231a2a","F1","batch6","spm_show_trial_num","null","<p class=block-text>Trial 13 out of 60</p>","null","","","","","","","","","","","","","","","","","","","","","","","","","",""
"","","","","","image-button-response","29","273430","0.0-2.0-2.0-1.12","5d305152b2cfe00019231a2a","F1","batch6","spm_respsonse","6908.200000047684","img/question_2_1.jpeg","1","mat_13","2","1","1","6908.200000047684","","","","","","","","","","","","","","","","","","","","",""
"","","","","","html-keyboard-response","30","274501","0.0-2.0-2.0-0.13","5d305152b2cfe00019231a2a","F1","batch6","spm_show_trial_num","null","<p class=block-text>Trial 14 out of 60</p>","null","","","","","","","","","","","","","","","","","","","","","","","","","",""
"","","","","","image-button-response","31","289158","0.0-2.0-2.0-1.13","5d305152b2cfe00019231a2a","F1","batch6","spm_respsonse","14653.700000047684","img/question_2_2.jpeg","5","mat_14","6","1","1","14653.700000047684","","","","","","","","","","","","","","","","","","","","",""
"","","","","","html-keyboard-response","32","290221","0.0-2.0-2.0-0.14","5d305152b2cfe00019231a2a","F1","batch6","spm_show_trial_num","null","<p class=block-text>Trial 15 out of 60</p>","null","","","","","","","","","","","","","","","","","","","","","","","","","",""
"","","","","","image-button-response","33","303447","0.0-2.0-2.0-1.14","5d305152b2cfe00019231a2a","F1","batch6","spm_respsonse","13223.599999904633","img/question_2_3.jpeg","0","mat_15","1","1","1","13223.599999904633","","","","","","","","","","","","","","","","","","","","",""
"","","","","","html-keyboard-response","34","304501","0.0-2.0-2.0-0.15","5d305152b2cfe00019231a2a","F1","batch6","spm_show_trial_num","null","<p class=block-text>Trial 16 out of 60</p>","null","","","","","","","","","","","","","","","","","","","","","","","","","",""
"","","","","","image-button-response","35","319345","0.0-2.0-2.0-1.15","5d305152b2cfe00019231a2a","F1","batch6","spm_respsonse","14840.799999952316","img/question_2_4.jpeg","1","mat_16","2","1","1","14840.799999952316","","","","","","","","","","","","","","","","","","","","",""
"","","","","","html-keyboard-response","36","320422","0.0-2.0-2.0-0.16","5d305152b2cfe00019231a2a","F1","batch6","spm_show_trial_num","null","<p class=block-text>Trial 17 out of 60</p>","null","","","","","","","","","","","","","","","","","","","","","","","","","",""
"","","","","","image-button-response","37","334069","0.0-2.0-2.0-1.16","5d305152b2cfe00019231a2a","F1","batch6","spm_respsonse","13643.299999952316","img/question_2_5.jpeg","0","mat_17","1","1","1","13643.299999952316","","","","","","","","","","","","","","","","","","","","",""
"","","","","","html-keyboard-response","38","335140","0.0-2.0-2.0-0.17","5d305152b2cfe00019231a2a","F1","batch6","spm_show_trial_num","null","<p class=block-text>Trial 18 out of 60</p>","null","","","","","","","","","","","","","","","","","","","","","","","","","",""
"","","","","","image-button-response","39","351029","0.0-2.0-2.0-1.17","5d305152b2cfe00019231a2a","F1","batch6","spm_respsonse","15885.600000143051","img/question_2_6.jpeg","2","mat_18","3","1","1","15885.600000143051","","","","","","","","","","","","","","","","","","","","",""
"","","","","","html-keyboard-response","40","352093","0.0-2.0-2.0-0.18","5d305152b2cfe00019231a2a","F1","batch6","spm_show_trial_num","null","<p class=block-text>Trial 19 out of 60</p>","null","","","","","","","","","","","","","","","","","","","","","","","","","",""
"","","","","","image-button-response","41","369318","0.0-2.0-2.0-1.18","5d305152b2cfe00019231a2a","F1","batch6","spm_respsonse","17220.200000047684","img/question_2_7.jpeg","4","mat_19","5","1","1","17220.200000047684","","","","","","","","","","","","","","","","","","","","",""
"","","","","","html-keyboard-response","42","370377","0.0-2.0-2.0-0.19","5d305152b2cfe00019231a2a","F1","batch6","spm_show_trial_num","null","<p class=block-text>Trial 20 out of 60</p>","null","","","","","","","","","","","","","","","","","","","","","","","","","",""
"","","","","","image-button-response","43","391862","0.0-2.0-2.0-1.19","5d305152b2cfe00019231a2a","F1","batch6","spm_respsonse","21480.89999985695","img/question_2_8.jpeg","5","mat_20","6","1","1","21480.89999985695","","","","","","","","","","","","","","","","","","","","",""
"","","","","","html-keyboard-response","44","392922","0.0-2.0-2.0-0.20","5d305152b2cfe00019231a2a","F1","batch6","spm_show_trial_num","null","<p class=block-text>Trial 21 out of 60</p>","null","","","","","","","","","","","","","","","","","","","","","","","","","",""
"","","","","","image-button-response","45","407020","0.0-2.0-2.0-1.20","5d305152b2cfe00019231a2a","F1","batch6","spm_respsonse","14094.099999904633","img/question_2_9.jpeg","3","mat_21","4","1","1","14094.099999904633","","","","","","","","","","","","","","","","","","","","",""
"","","","","","html-keyboard-response","46","408082","0.0-2.0-2.0-0.21","5d305152b2cfe00019231a2a","F1","batch6","spm_show_trial_num","null","<p class=block-text>Trial 22 out of 60</p>","null","","","","","","","","","","","","","","","","","","","","","","","","","",""
"","","","","","image-button-response","47","429866","0.0-2.0-2.0-1.21","5d305152b2cfe00019231a2a","F1","batch6","spm_respsonse","21779.599999904633","img/question_2_10.jpeg","2","mat_22","3","1","1","21779.599999904633","","","","","","","","","","","","","","","","","","","","",""
"","","","","","html-keyboard-response","48","430918","0.0-2.0-2.0-0.22","5d305152b2cfe00019231a2a","F1","batch6","spm_show_trial_num","null","<p class=block-text>Trial 23 out of 60</p>","null","","","","","","","","","","","","","","","","","","","","","","","","","",""
"","","","","","image-button-response","49","457750","0.0-2.0-2.0-1.22","5d305152b2cfe00019231a2a","F1","batch6","spm_respsonse","26828.10000014305","img/question_2_11.jpeg","3","mat_23","4","1","1","26828.10000014305","","","","","","","","","","","","","","","","","","","","",""
"","","","","","html-keyboard-response","50","458813","0.0-2.0-2.0-0.23","5d305152b2cfe00019231a2a","F1","batch6","spm_show_trial_num","null","<p class=block-text>Trial 24 out of 60</p>","null","","","","","","","","","","","","","","","","","","","","","","","","","",""
"","","","","","image-button-response","51","552523","0.0-2.0-2.0-1.23","5d305152b2cfe00019231a2a","F1","batch6","spm_respsonse","93708.90000009537","img/question_2_12.jpeg","4","mat_24","5","1","1","93708.90000009537","","","","","","","","","","","","","","","","","","","","",""
"","","","","","html-button-response","52","556521","0.0-2.0-3.0","5d305152b2cfe00019231a2a","F1","batch6","attention_check","3736.7000000476837","<p class = block-text>Attention check: Please choose 1<br></p>","0","","","true","","","","","","","","","","","","","","","","","","","","","","",""
"","","","","","html-keyboard-response","53","557330","0.0-2.0-4.0-0.0","5d305152b2cfe00019231a2a","F1","batch6","spm_show_trial_num","null","<p class=block-text>Trial 25 out of 60</p>","null","","","","","","","","","","","","","","","","","","","","","","","","","",""
"","","","","","image-button-response","54","591237","0.0-2.0-4.0-1.0","5d305152b2cfe00019231a2a","F1","batch6","spm_respsonse","33903.59999990463","img/question_3_1.jpeg","7","mat_25","8","1","1","33903.59999990463","","","","","","","","","","","","","","","","","","","","",""
"","","","","","html-keyboard-response","55","592312","0.0-2.0-4.0-0.1","5d305152b2cfe00019231a2a","F1","batch6","spm_show_trial_num","null","<p class=block-text>Trial 26 out of 60</p>","null","","","","","","","","","","","","","","","","","","","","","","","","","",""
"","","","","","image-button-response","56","603259","0.0-2.0-4.0-1.1","5d305152b2cfe00019231a2a","F1","batch6","spm_respsonse","10943.100000143051","img/question_3_2.jpeg","1","mat_26","2","1","1","10943.100000143051","","","","","","","","","","","","","","","","","","","","",""
"","","","","","html-keyboard-response","57","604329","0.0-2.0-4.0-0.2","5d305152b2cfe00019231a2a","F1","batch6","spm_show_trial_num","null","<p class=block-text>Trial 27 out of 60</p>","null","","","","","","","","","","","","","","","","","","","","","","","","","",""
"","","","","","image-button-response","58","616385","0.0-2.0-4.0-1.2","5d305152b2cfe00019231a2a","F1","batch6","spm_respsonse","12052.399999856949","img/question_3_3.jpeg","2","mat_27","3","1","1","12052.399999856949","","","","","","","","","","","","","","","","","","","","",""
"","","","","","html-keyboard-response","59","617438","0.0-2.0-4.0-0.3","5d305152b2cfe00019231a2a","F1","batch6","spm_show_trial_num","null","<p class=block-text>Trial 28 out of 60</p>","null","","","","","","","","","","","","","","","","","","","","","","","","","",""
"","","","","","image-button-response","60","632247","0.0-2.0-4.0-1.3","5d305152b2cfe00019231a2a","F1","batch6","spm_respsonse","14805.400000095367","img/question_3_4.jpeg","7","mat_28","8","1","1","14805.400000095367","","","","","","","","","","","","","","","","","","","","",""
"","","","","","html-keyboard-response","61","633313","0.0-2.0-4.0-0.4","5d305152b2cfe00019231a2a","F1","batch6","spm_show_trial_num","null","<p class=block-text>Trial 29 out of 60</p>","null","","","","","","","","","","","","","","","","","","","","","","","","","",""
"","","","","","image-button-response","62","650903","0.0-2.0-4.0-1.4","5d305152b2cfe00019231a2a","F1","batch6","spm_respsonse","17585.799999952316","img/question_3_5.jpeg","6","mat_29","7","1","1","17585.799999952316","","","","","","","","","","","","","","","","","","","","",""
"","","","","","html-keyboard-response","63","651969","0.0-2.0-4.0-0.5","5d305152b2cfe00019231a2a","F1","batch6","spm_show_trial_num","null","<p class=block-text>Trial 30 out of 60</p>","null","","","","","","","","","","","","","","","","","","","","","","","","","",""
"","","","","","image-button-response","64","700215","0.0-2.0-4.0-1.5","5d305152b2cfe00019231a2a","F1","batch6","spm_respsonse","48242.59999990463","img/question_3_6.jpeg","3","mat_30","4","1","1","48242.59999990463","","","","","","","","","","","","","","","","","","","","",""
"","","","","","html-keyboard-response","65","701281","0.0-2.0-4.0-0.6","5d305152b2cfe00019231a2a","F1","batch6","spm_show_trial_num","null","<p class=block-text>Trial 31 out of 60</p>","null","","","","","","","","","","","","","","","","","","","","","","","","","",""
"","","","","","image-button-response","66","720839","0.0-2.0-4.0-1.6","5d305152b2cfe00019231a2a","F1","batch6","spm_respsonse","19554.5","img/question_3_7.jpeg","4","mat_31","5","1","1","19554.5","","","","","","","","","","","","","","","","","","","","",""
"","","","","","html-keyboard-response","67","721905","0.0-2.0-4.0-0.7","5d305152b2cfe00019231a2a","F1","batch6","spm_show_trial_num","null","<p class=block-text>Trial 32 out of 60</p>","null","","","","","","","","","","","","","","","","","","","","","","","","","",""
"","","","","","image-button-response","68","747435","0.0-2.0-4.0-1.7","5d305152b2cfe00019231a2a","F1","batch6","spm_respsonse","25528.299999952316","img/question_3_8.jpeg","3","mat_32","1","0","0","25528.299999952316","","","","","","","","","","","","","","","","","","","","",""
"","","","","","html-keyboard-response","69","748501","0.0-2.0-4.0-0.8","5d305152b2cfe00019231a2a","F1","batch6","spm_show_trial_num","null","<p class=block-text>Trial 33 out of 60</p>","null","","","","","","","","","","","","","","","","","","","","","","","","","",""
"","","","","","image-button-response","70","770723","0.0-2.0-4.0-1.8","5d305152b2cfe00019231a2a","F1","batch6","spm_respsonse","22217.700000047684","img/question_3_9.jpeg","6","mat_33","7","1","1","22217.700000047684","","","","","","","","","","","","","","","","","","","","",""
"","","","","","html-keyboard-response","71","771797","0.0-2.0-4.0-0.9","5d305152b2cfe00019231a2a","F1","batch6","spm_show_trial_num","null","<p class=block-text>Trial 34 out of 60</p>","null","","","","","","","","","","","","","","","","","","","","","","","","","",""
"","","","","","image-button-response","72","794387","0.0-2.0-4.0-1.9","5d305152b2cfe00019231a2a","F1","batch6","spm_respsonse","22586.200000047684","img/question_3_10.jpeg","7","mat_34","6","0","0","22586.200000047684","","","","","","","","","","","","","","","","","","","","",""
"","","","","","html-keyboard-response","73","795454","0.0-2.0-4.0-0.10","5d305152b2cfe00019231a2a","F1","batch6","spm_show_trial_num","null","<p class=block-text>Trial 35 out of 60</p>","null","","","","","","","","","","","","","","","","","","","","","","","","","",""
"","","","","","image-button-response","74","857793","0.0-2.0-4.0-1.10","5d305152b2cfe00019231a2a","F1","batch6","spm_respsonse","62335.5","img/question_3_11.jpeg","0","mat_35","1","1","1","62335.5","","","","","","","","","","","","","","","","","","","","",""
"","","","","","html-keyboard-response","75","858861","0.0-2.0-4.0-0.11","5d305152b2cfe00019231a2a","F1","batch6","spm_show_trial_num","null","<p class=block-text>Trial 36 out of 60</p>","null","","","","","","","","","","","","","","","","","","","","","","","","","",""
"","","","","","image-button-response","76","888947","0.0-2.0-4.0-1.11","5d305152b2cfe00019231a2a","F1","batch6","spm_respsonse","30082.10000014305","img/question_3_12.jpeg","1","mat_36","2","1","1","30082.10000014305","","","","","","","","","","","","","","","","","","","","",""
"","","","","","html-keyboard-response","77","890018","0.0-2.0-4.0-0.12","5d305152b2cfe00019231a2a","F1","batch6","spm_show_trial_num","null","<p class=block-text>Trial 37 out of 60</p>","null","","","","","","","","","","","","","","","","","","","","","","","","","",""
"","","","","","image-button-response","78","901935","0.0-2.0-4.0-1.12","5d305152b2cfe00019231a2a","F1","batch6","spm_respsonse","11913.400000095367","img/question_4_1.jpeg","2","mat_37","3","1","1","11913.400000095367","","","","","","","","","","","","","","","","","","","","",""
"","","","","","html-keyboard-response","79","903002","0.0-2.0-4.0-0.13","5d305152b2cfe00019231a2a","F1","batch6","spm_show_trial_num","null","<p class=block-text>Trial 38 out of 60</p>","null","","","","","","","","","","","","","","","","","","","","","","","","","",""
"","","","","","image-button-response","80","919502","0.0-2.0-4.0-1.13","5d305152b2cfe00019231a2a","F1","batch6","spm_respsonse","16497.099999904633","img/question_4_2.jpeg","3","mat_38","4","1","1","16497.099999904633","","","","","","","","","","","","","","","","","","","","",""
"","","","","","html-keyboard-response","81","920563","0.0-2.0-4.0-0.14","5d305152b2cfe00019231a2a","F1","batch6","spm_show_trial_num","null","<p class=block-text>Trial 39 out of 60</p>","null","","","","","","","","","","","","","","","","","","","","","","","","","",""
"","","","","","image-button-response","82","936306","0.0-2.0-4.0-1.14","5d305152b2cfe00019231a2a","F1","batch6","spm_respsonse","15739.799999952316","img/question_4_3.jpeg","2","mat_39","3","1","1","15739.799999952316","","","","","","","","","","","","","","","","","","","","",""
"","","","","","html-keyboard-response","83","937359","0.0-2.0-4.0-0.15","5d305152b2cfe00019231a2a","F1","batch6","spm_show_trial_num","null","<p class=block-text>Trial 40 out of 60</p>","null","","","","","","","","","","","","","","","","","","","","","","","","","",""
"","","","","","image-button-response","84","972361","0.0-2.0-4.0-1.15","5d305152b2cfe00019231a2a","F1","batch6","spm_respsonse","34997.799999952316","img/question_4_4.jpeg","6","mat_40","7","1","1","34997.799999952316","","","","","","","","","","","","","","","","","","","","",""
"","","","","","html-keyboard-response","85","973427","0.0-2.0-4.0-0.16","5d305152b2cfe00019231a2a","F1","batch6","spm_show_trial_num","null","<p class=block-text>Trial 41 out of 60</p>","null","","","","","","","","","","","","","","","","","","","","","","","","","",""
"","","","","","image-button-response","86","989729","0.0-2.0-4.0-1.16","5d305152b2cfe00019231a2a","F1","batch6","spm_respsonse","16298.5","img/question_4_5.jpeg","7","mat_41","8","1","1","16298.5","","","","","","","","","","","","","","","","","","","","",""
"","","","","","html-keyboard-response","87","990795","0.0-2.0-4.0-0.17","5d305152b2cfe00019231a2a","F1","batch6","spm_show_trial_num","null","<p class=block-text>Trial 42 out of 60</p>","null","","","","","","","","","","","","","","","","","","","","","","","","","",""
"","","","","","image-button-response","88","1011049","0.0-2.0-4.0-1.17","5d305152b2cfe00019231a2a","F1","batch6","spm_respsonse","20249.699999809265","img/question_4_6.jpeg","5","mat_42","6","1","1","20249.699999809265","","","","","","","","","","","","","","","","","","","","",""
"","","","","","html-keyboard-response","89","1012126","0.0-2.0-4.0-0.18","5d305152b2cfe00019231a2a","F1","batch6","spm_show_trial_num","null","<p class=block-text>Trial 43 out of 60</p>","null","","","","","","","","","","","","","","","","","","","","","","","","","",""
"","","","","","image-button-response","90","1046980","0.0-2.0-4.0-1.18","5d305152b2cfe00019231a2a","F1","batch6","spm_respsonse","34850.799999952316","img/question_4_7.jpeg","4","mat_43","5","1","1","34850.799999952316","","","","","","","","","","","","","","","","","","","","",""
"","","","","","html-keyboard-response","91","1048046","0.0-2.0-4.0-0.19","5d305152b2cfe00019231a2a","F1","batch6","spm_show_trial_num","null","<p class=block-text>Trial 44 out of 60</p>","null","","","","","","","","","","","","","","","","","","","","","","","","","",""
"","","","","","image-button-response","92","1061782","0.0-2.0-4.0-1.19","5d305152b2cfe00019231a2a","F1","batch6","spm_respsonse","13731.900000095367","img/question_4_8.jpeg","3","mat_44","4","1","1","13731.900000095367","","","","","","","","","","","","","","","","","","","","",""
"","","","","","html-keyboard-response","93","1062845","0.0-2.0-4.0-0.20","5d305152b2cfe00019231a2a","F1","batch6","spm_show_trial_num","null","<p class=block-text>Trial 45 out of 60</p>","null","","","","","","","","","","","","","","","","","","","","","","","","","",""
"","","","","","image-button-response","94","1082710","0.0-2.0-4.0-1.20","5d305152b2cfe00019231a2a","F1","batch6","spm_respsonse","19861.5","img/question_4_9.jpeg","0","mat_45","1","1","1","19861.5","","","","","","","","","","","","","","","","","","","","",""
"","","","","","html-keyboard-response","95","1083782","0.0-2.0-4.0-0.21","5d305152b2cfe00019231a2a","F1","batch6","spm_show_trial_num","null","<p class=block-text>Trial 46 out of 60</p>","null","","","","","","","","","","","","","","","","","","","","","","","","","",""
"","","","","","image-button-response","96","1147838","0.0-2.0-4.0-1.21","5d305152b2cfe00019231a2a","F1","batch6","spm_respsonse","64052.40000009537","img/question_4_10.jpeg","1","mat_46","2","1","1","64052.40000009537","","","","","","","","","","","","","","","","","","","","",""
"","","","","","html-keyboard-response","97","1148897","0.0-2.0-4.0-0.22","5d305152b2cfe00019231a2a","F1","batch6","spm_show_trial_num","null","<p class=block-text>Trial 47 out of 60</p>","null","","","","","","","","","","","","","","","","","","","","","","","","","",""
"","","","","","image-button-response","98","1203796","0.0-2.0-4.0-1.22","5d305152b2cfe00019231a2a","F1","batch6","spm_respsonse","54895.5","img/question_4_11.jpeg","4","mat_47","5","1","1","54895.5","","","","","","","","","","","","","","","","","","","","",""
"","","","","","html-keyboard-response","99","1204861","0.0-2.0-4.0-0.23","5d305152b2cfe00019231a2a","F1","batch6","spm_show_trial_num","null","<p class=block-text>Trial 48 out of 60</p>","null","","","","","","","","","","","","","","","","","","","","","","","","","",""
"","","","","","image-button-response","100","1230562","0.0-2.0-4.0-1.23","5d305152b2cfe00019231a2a","F1","batch6","spm_respsonse","25697.200000047684","img/question_4_12.jpeg","6","mat_48","6","0","0","25697.200000047684","","","","","","","","","","","","","","","","","","","","",""
"","","","","","html-keyboard-response","101","1231626","0.0-2.0-4.0-0.24","5d305152b2cfe00019231a2a","F1","batch6","spm_show_trial_num","null","<p class=block-text>Trial 49 out of 60</p>","null","","","","","","","","","","","","","","","","","","","","","","","","","",""
"","","","","","image-button-response","102","1274646","0.0-2.0-4.0-1.24","5d305152b2cfe00019231a2a","F1","batch6","spm_respsonse","43016.699999809265","img/question_5_1.jpeg","6","mat_49","7","1","1","43016.699999809265","","","","","","","","","","","","","","","","","","","","",""
"","","","","","html-keyboard-response","103","1275719","0.0-2.0-4.0-0.25","5d305152b2cfe00019231a2a","F1","batch6","spm_show_trial_num","null","<p class=block-text>Trial 50 out of 60</p>","null","","","","","","","","","","","","","","","","","","","","","","","","","",""
"","","","","","image-button-response","104","1328030","0.0-2.0-4.0-1.25","5d305152b2cfe00019231a2a","F1","batch6","spm_respsonse","52307.5","img/question_5_2.jpeg","5","mat_50","6","1","1","52307.5","","","","","","","","","","","","","","","","","","","","",""
"","","","","","html-keyboard-response","105","1329095","0.0-2.0-4.0-0.26","5d305152b2cfe00019231a2a","F1","batch6","spm_show_trial_num","null","<p class=block-text>Trial 51 out of 60</p>","null","","","","","","","","","","","","","","","","","","","","","","","","","",""
"","","","","","image-button-response","106","1384798","0.0-2.0-4.0-1.26","5d305152b2cfe00019231a2a","F1","batch6","spm_respsonse","55699.299999952316","img/question_5_3.jpeg","4","mat_51","8","0","0","55699.299999952316","","","","","","","","","","","","","","","","","","","","",""
"","","","","","html-keyboard-response","107","1385876","0.0-2.0-4.0-0.27","5d305152b2cfe00019231a2a","F1","batch6","spm_show_trial_num","null","<p class=block-text>Trial 52 out of 60</p>","null","","","","","","","","","","","","","","","","","","","","","","","","","",""
"","","","","","image-button-response","108","1411990","0.0-2.0-4.0-1.27","5d305152b2cfe00019231a2a","F1","batch6","spm_respsonse","26109.900000095367","img/question_5_4.jpeg","2","mat_52","2","0","0","26109.900000095367","","","","","","","","","","","","","","","","","","","","",""
"","","","","","html-keyboard-response","109","1413063","0.0-2.0-4.0-0.28","5d305152b2cfe00019231a2a","F1","batch6","spm_show_trial_num","null","<p class=block-text>Trial 53 out of 60</p>","null","","","","","","","","","","","","","","","","","","","","","","","","","",""
"","","","","","image-button-response","110","1448167","0.0-2.0-4.0-1.28","5d305152b2cfe00019231a2a","F1","batch6","spm_respsonse","35100.60000014305","img/question_5_5.jpeg","6","mat_53","1","0","0","35100.60000014305","","","","","","","","","","","","","","","","","","","","",""
"","","","","","html-keyboard-response","111","1449237","0.0-2.0-4.0-0.29","5d305152b2cfe00019231a2a","F1","batch6","spm_show_trial_num","null","<p class=block-text>Trial 54 out of 60</p>","null","","","","","","","","","","","","","","","","","","","","","","","","","",""
"","","","","","image-button-response","112","1490857","0.0-2.0-4.0-1.29","5d305152b2cfe00019231a2a","F1","batch6","spm_respsonse","41616.10000014305","img/question_5_6.jpeg","4","mat_54","5","1","1","41616.10000014305","","","","","","","","","","","","","","","","","","","","",""
"","","","","","html-keyboard-response","113","1491922","0.0-2.0-4.0-0.30","5d305152b2cfe00019231a2a","F1","batch6","spm_show_trial_num","null","<p class=block-text>Trial 55 out of 60</p>","null","","","","","","","","","","","","","","","","","","","","","","","","","",""
"","","","","","image-button-response","114","1548012","0.0-2.0-4.0-1.30","5d305152b2cfe00019231a2a","F1","batch6","spm_respsonse","56085.700000047684","img/question_5_7.jpeg","2","mat_55","1","0","0","56085.700000047684","","","","","","","","","","","","","","","","","","","","",""
"","","","","","html-keyboard-response","115","1549077","0.0-2.0-4.0-0.31","5d305152b2cfe00019231a2a","F1","batch6","spm_show_trial_num","null","<p class=block-text>Trial 56 out of 60</p>","null","","","","","","","","","","","","","","","","","","","","","","","","","",""
"","","","","","image-button-response","116","1594205","0.0-2.0-4.0-1.31","5d305152b2cfe00019231a2a","F1","batch6","spm_respsonse","45124.5","img/question_5_8.jpeg","1","mat_56","6","0","0","45124.5","","","","","","","","","","","","","","","","","","","","",""
"","","","","","html-keyboard-response","117","1595269","0.0-2.0-4.0-0.32","5d305152b2cfe00019231a2a","F1","batch6","spm_show_trial_num","null","<p class=block-text>Trial 57 out of 60</p>","null","","","","","","","","","","","","","","","","","","","","","","","","","",""
"","","","","","image-button-response","118","1623315","0.0-2.0-4.0-1.32","5d305152b2cfe00019231a2a","F1","batch6","spm_respsonse","28043","img/question_5_9.jpeg","7","mat_57","3","0","0","28043","","","","","","","","","","","","","","","","","","","","",""
"","","","","","html-keyboard-response","119","1624375","0.0-2.0-4.0-0.33","5d305152b2cfe00019231a2a","F1","batch6","spm_show_trial_num","null","<p class=block-text>Trial 58 out of 60</p>","null","","","","","","","","","","","","","","","","","","","","","","","","","",""
"","","","","","image-button-response","120","1646675","0.0-2.0-4.0-1.33","5d305152b2cfe00019231a2a","F1","batch6","spm_respsonse","22298.900000095367","img/question_5_10.jpeg","6","mat_58","2","0","0","22298.900000095367","","","","","","","","","","","","","","","","","","","","",""
"","","","","","html-keyboard-response","121","1647734","0.0-2.0-4.0-0.34","5d305152b2cfe00019231a2a","F1","batch6","spm_show_trial_num","null","<p class=block-text>Trial 59 out of 60</p>","null","","","","","","","","","","","","","","","","","","","","","","","","","",""
"","","","","","image-button-response","122","1669865","0.0-2.0-4.0-1.34","5d305152b2cfe00019231a2a","F1","batch6","spm_respsonse","22127.200000047684","img/question_5_11.jpeg","4","mat_59","4","0","0","22127.200000047684","","","","","","","","","","","","","","","","","","","","",""
"","","","","","html-keyboard-response","123","1670922","0.0-2.0-4.0-0.35","5d305152b2cfe00019231a2a","F1","batch6","spm_show_trial_num","null","<p class=block-text>Trial 60 out of 60</p>","null","","","","","","","","","","","","","","","","","","","","","","","","","",""
"","","","","","image-button-response","124","1712763","0.0-2.0-4.0-1.35","5d305152b2cfe00019231a2a","F1","batch6","spm_respsonse","41837.200000047684","img/question_5_12.jpeg","6","mat_60","5","0","0","41837.200000047684","","","","","","","","","","","","","","","","","","","","",""
"","","","","","html-button-response","125","1714987","0.0-2.0-5.0","5d305152b2cfe00019231a2a","F1","batch6","spm_goodbye","1970.4000000953674","<p class= block-text>This concludes the Standard Progressive Matrix game. Thank you for your responses!<br> When you are ready, click the button continue</p>","0","","","","","","","","","","","","","","","","","","","","","","","","","",""
"true","","","","","fullscreen","126","1719798","0.0-3.0-0.0","5d305152b2cfe00019231a2a","F1","batch6","","","","","","","","","","","","","","","","","","","","","","","","","","","","","",""
"","","","","","instructions","127","1802641","0.0-3.0-1.0-0.0-0.0","5d305152b2cfe00019231a2a","F1","batch6","tol-instructions","82841.59999990463","","","","","","","","[{""page_index"":0,""viewing_time"":27091.5},{""page_index"":1,""viewing_time"":6326.099999904633},{""page_index"":2,""viewing_time"":9165.799999952316},{""page_index"":3,""viewing_time"":14742},{""page_index"":4,""viewing_time"":8136.100000143051},{""page_index"":5,""viewing_time"":11477.699999809265},{""page_index"":6,""viewing_time"":5902.100000143051}]","","","","","","","","","","","","","","","","","","","",""
"","","","","","html-button-response","128","1804405","0.0-3.0-1.0-1.0-0.0","5d305152b2cfe00019231a2a","F1","batch6","tol_enter_quiz","1763.2999999523163","<p class=block-text> Let's answer a few questions <br>","0","","","","","","","","","","","","","","","","","","","","","","","","","",""
"","","","","","html-button-response","129","1813119","0.0-3.0-1.0-1.0-1.0","5d305152b2cfe00019231a2a","F1","batch6","tol_quiz","8713.299999952316","<p class = block-text>True or False: You can only move the ball on top of a peg. <br></p>","0","","","true","","","","","","","","","","","","","","","","","","","","","","",""
"","","","","","html-button-response","130","1814581","0.0-3.0-1.0-1.0-2.0","5d305152b2cfe00019231a2a","F1","batch6","tol_quiz_feedback","1460.7999999523163","<p class = block-text>Correct! You can only move the ball on top of a peg.</p>","0","","","","","","","","","","","","","","","","","","","","","","","","","",""
"","","","","","html-button-response","131","1818071","0.0-3.0-1.0-1.0-3.0","5d305152b2cfe00019231a2a","F1","batch6","tol_quiz","3489.0999999046326","<p class = block-text>True or False: You should try to match your board with the target board with fewest moves possible. <br></p>","0","","","true","","","","","","","","","","","","","","","","","","","","","","",""
"","","","","","html-button-response","132","1818961","0.0-3.0-1.0-1.0-4.0","5d305152b2cfe00019231a2a","F1","batch6","tol_quiz_feedback","889.5999999046326","<p class = block-text>Correct! </p>","0","","","","","","","","","","","","","","","","","","","","","","","","","",""
"","","","","","html-button-response","133","1827691","0.0-3.0-2.0","5d305152b2cfe00019231a2a","F1","batch6","","8728.700000047684","<p class=block-text> Now that you've understood the game, let's practice a few easier examples before we start!<br> <br>","0","","","","","","","","","","","","","","","","","","","","","","","","","",""
"","","","","","single-stim-button","134","1831827","0.0-3.0-3.0-0.0","5d305152b2cfe00019231a2a","F1","batch6","tol_practice","4134","","","","","","","","","tol_peg_2","4134","4134","0","[[1,2,0],[0,0],[0]]","1","[[1,2,0],[0,0],[3]]","practice","4134","","","","","","","","","","",""
"","","","","","single-stim-button","135","1833816","0.0-3.0-3.0-1.0","5d305152b2cfe00019231a2a","F1","batch6","tol_practice","1988","","","","","","","","","tol_peg_3","1988","1988","0","[[1,2,0],[0,0],[3]]","1","[[1,2,0],[0,0],[3]]","practice","1988","","","","","","","","","","",""
"","","","","","poldrack-single-stim","136","1834830","0.0-3.0-4.0","5d305152b2cfe00019231a2a","F1","batch6","tol_feedback","-1","","","","","true","","","","","1000","1000","500","","","","","","-1","none","true","","0","","","","","",""
"","","","","","single-stim-button","137","1841819","0.0-3.0-5.0-0.0","5d305152b2cfe00019231a2a","F1","batch6","tol_practice","6988","","","","","","","","","tol_peg_1","6988","6988","0","[[1,0,0],[3,0],[0]]","2","[[0,0,0],[3,1],[2]]","practice","6988","","","","","","","","","","",""
"","","","","","single-stim-button","138","1843495","0.0-3.0-5.0-1.0","5d305152b2cfe00019231a2a","F1","batch6","tol_practice","1675","","","","","","","","","tol_peg_3","1675","1675","0","[[1,0,0],[3,0],[2]]","2","[[0,0,0],[3,1],[2]]","practice","1675","","","","","","","","","","",""
"","","","","","single-stim-button","139","1845259","0.0-3.0-5.1-0.1","5d305152b2cfe00019231a2a","F1","batch6","tol_practice","1763","","","","","","","","","tol_peg_1","1763","1763","0","[[0,0,0],[3,0],[2]]","3","[[0,0,0],[3,1],[2]]","practice","1763","","","","","","","","","","",""
"","","","","","single-stim-button","140","1846781","0.0-3.0-5.1-1.1","5d305152b2cfe00019231a2a","F1","batch6","tol_practice","1521","","","","","","","","","tol_peg_2","1521","1521","0","[[0,0,0],[3,1],[2]]","3","[[0,0,0],[3,1],[2]]","practice","1521","","","","","","","","","","",""
"","","","","","poldrack-single-stim","141","1847798","0.0-3.0-6.0","5d305152b2cfe00019231a2a","F1","batch6","tol_feedback","-1","","","","","true","","","","","1000","1000","500","","","","","","-1","none","true","","0","","","","","",""
"","","","","","single-stim-button","142","1854497","0.0-3.0-7.0-0.0","5d305152b2cfe00019231a2a","F1","batch6","tol_practice","6698","","","","","","","","","tol_peg_2","6698","6698","0","[[1,2,0],[0,0],[0]]","4","[[1,0,0],[2,0],[3]]","practice","6698","","","","","","","","","","",""
"","","","","","single-stim-button","143","1857059","0.0-3.0-7.0-1.0","5d305152b2cfe00019231a2a","F1","batch6","tol_practice","2561","","","","","","","","","tol_peg_3","2561","2561","0","[[1,2,0],[0,0],[3]]","4","[[1,0,0],[2,0],[3]]","practice","2561","","","","","","","","","","",""
"","","","","","single-stim-button","144","1858225","0.0-3.0-7.1-0.1","5d305152b2cfe00019231a2a","F1","batch6","tol_practice","1165","","","","","","","","","tol_peg_1","1165","1165","0","[[1,0,0],[0,0],[3]]","5","[[1,0,0],[2,0],[3]]","practice","1165","","","","","","","","","","",""
"","","","","","single-stim-button","145","1859493","0.0-3.0-7.1-1.1","5d305152b2cfe00019231a2a","F1","batch6","tol_practice","1267","","","","","","","","","tol_peg_2","1267","1267","0","[[1,0,0],[2,0],[3]]","5","[[1,0,0],[2,0],[3]]","practice","1267","","","","","","","","","","",""
"","","","","","poldrack-single-stim","146","1860502","0.0-3.0-8.0","5d305152b2cfe00019231a2a","F1","batch6","tol_feedback","-1","","","","","true","","","","","1000","1000","500","","","","","","-1","none","true","","0","","","","","",""
"","","","","","html-button-response","147","1865219","0.0-3.0-9.0","5d305152b2cfe00019231a2a","F1","batch6","tol_instruction","4716.5","<div class = centerbox><p class = center-block-text>Great job! You are done with practice trials<br>You are about to start official trials.<br> <br> Problem <strong>1</strong> out of 25 problems</p></div>","0","","","","","","","","","","","","","","","","","","","","","","","","","",""
"","","","","","single-stim-button","148","1877455","0.0-3.0-10.0-0.0","5d305152b2cfe00019231a2a","F1","batch6","tol_tohand","11219","","","","","","","","","tol_peg_2","11219","11219","0","[[1,2,0],[0,0],[0]]","1","[[1,3,0],[2,0],[0]]","0","0","","","","","","3","","","","",""
"","","","","","single-stim-button","149","1878925","0.0-3.0-10.0-1.0","5d305152b2cfe00019231a2a","F1","batch6","tol_toboard","1469","","","","","","","","","tol_peg_3","1469","1469","0","[[1,2,0],[0,0],[3]]","1","[[1,3,0],[2,0],[0]]","0","0","","","","","","3","","","","",""
"","","","","","single-stim-button","150","1880027","0.0-3.0-10.1-0.1","5d305152b2cfe00019231a2a","F1","batch6","tol_tohand","1101","","","","","","","","","tol_peg_1","1101","1101","0","[[1,0,0],[0,0],[3]]","2","[[1,3,0],[2,0],[0]]","0","0","","","","","","3","","","","",""
"","","","","","single-stim-button","151","1881707","0.0-3.0-10.1-1.1","5d305152b2cfe00019231a2a","F1","batch6","tol_toboard","1679","","","","","","","","","tol_peg_2","1679","1679","0","[[1,0,0],[2,0],[3]]","2","[[1,3,0],[2,0],[0]]","0","0","","","","","","3","","","","",""
"","","","","","single-stim-button","152","1883205","0.0-3.0-10.2-0.2","5d305152b2cfe00019231a2a","F1","batch6","tol_tohand","1497","","","","","","","","","tol_peg_3","1497","1497","0","[[1,0,0],[2,0],[0]]","3","[[1,3,0],[2,0],[0]]","0","0","","","","","","3","","","","",""
"","","","","","single-stim-button","153","1884939","0.0-3.0-10.2-1.2","5d305152b2cfe00019231a2a","F1","batch6","tol_toboard","1733","","","","","","","","","tol_peg_1","1733","1733","0","[[1,3,0],[2,0],[0]]","3","[[1,3,0],[2,0],[0]]","0","0","","","","","","3","","","","",""
"","","","","","poldrack-single-stim","154","1885955","0.0-3.0-11.0","5d305152b2cfe00019231a2a","F1","batch6","tol_feedback","-1","","","","","true","","","","","1000","1000","500","","","","","","-1","none","true","11219","13817","","","","","",""
"","","","","","html-button-response","155","1887557","0.0-3.0-12.0","5d305152b2cfe00019231a2a","F1","batch6","tol_trial_num","1601.0999999046326","<div class = centerbox><p class = center-block-text>problem <strong>2</strong> out of 25 problems</p></div>","0","","","","","","","","","","","","","","","","","","","","","","","","","",""
"","","","","","single-stim-button","156","1898608","0.0-3.0-13.0-0.0","5d305152b2cfe00019231a2a","F1","batch6","tol_tohand","11050","","","","","","","","","tol_peg_2","11050","11050","0","[[1,2,0],[0,0],[0]]","1","[[2,1,3],[0,0],[0]]","1","0","","","","","","5","","","","",""
"","","","","","single-stim-button","157","1900469","0.0-3.0-13.0-1.0","5d305152b2cfe00019231a2a","F1","batch6","tol_toboard","1860","","","","","","","","","tol_peg_3","1860","1860","0","[[1,2,0],[0,0],[3]]","1","[[2,1,3],[0,0],[0]]","1","0","","","","","","5","","","","",""
"","","","","","single-stim-button","158","1902333","0.0-3.0-13.1-0.1","5d305152b2cfe00019231a2a","F1","batch6","tol_tohand","1864","","","","","","","","","tol_peg_1","1864","1864","0","[[1,0,0],[0,0],[3]]","2","[[2,1,3],[0,0],[0]]","1","0","","","","","","5","","","","",""
"","","","","","single-stim-button","159","1910491","0.0-3.0-13.1-1.1","5d305152b2cfe00019231a2a","F1","batch6","tol_toboard","8157","","","","","","","","","tol_peg_1","8157","8157","0","[[1,2,0],[0,0],[3]]","2","[[2,1,3],[0,0],[0]]","1","0","","","","","","5","","","","",""
"","","","","","single-stim-button","160","1914219","0.0-3.0-13.2-0.2","5d305152b2cfe00019231a2a","F1","batch6","tol_tohand","3728","","","","","","","","","tol_peg_3","3728","3728","0","[[1,2,0],[0,0],[0]]","3","[[2,1,3],[0,0],[0]]","1","0","","","","","","5","","","","",""
"","","","","","single-stim-button","161","1914711","0.0-3.0-13.2-1.2","5d305152b2cfe00019231a2a","F1","batch6","tol_toboard","492","","","","","","","","","tol_peg_2","492","492","0","[[1,2,0],[3,0],[0]]","3","[[2,1,3],[0,0],[0]]","1","0","","","","","","5","","","","",""
"","","","","","single-stim-button","162","1915347","0.0-3.0-13.3-0.3","5d305152b2cfe00019231a2a","F1","batch6","tol_tohand","636","","","","","","","","","tol_peg_1","636","636","0","[[1,0,0],[3,0],[0]]","4","[[2,1,3],[0,0],[0]]","1","0","","","","","","5","","","","",""
"","","","","","single-stim-button","163","1917393","0.0-3.0-13.3-1.3","5d305152b2cfe00019231a2a","F1","batch6","tol_toboard","2046","","","","","","","","","tol_peg_3","2046","2046","0","[[1,0,0],[3,0],[2]]","4","[[2,1,3],[0,0],[0]]","1","0","","","","","","5","","","","",""
"","","","","","single-stim-button","164","1918807","0.0-3.0-13.4-0.4","5d305152b2cfe00019231a2a","F1","batch6","tol_tohand","1414","","","","","","","","","tol_peg_1","1414","1414","0","[[0,0,0],[3,0],[2]]","5","[[2,1,3],[0,0],[0]]","1","0","","","","","","5","","","","",""
"","","","","","single-stim-button","165","1921017","0.0-3.0-13.4-1.4","5d305152b2cfe00019231a2a","F1","batch6","tol_toboard","2210","","","","","","","","","tol_peg_2","2210","2210","0","[[0,0,0],[3,1],[2]]","5","[[2,1,3],[0,0],[0]]","1","0","","","","","","5","","","","",""
"","","","","","single-stim-button","166","1921677","0.0-3.0-13.5-0.5","5d305152b2cfe00019231a2a","F1","batch6","tol_tohand","660","","","","","","","","","tol_peg_3","660","660","0","[[0,0,0],[3,1],[0]]","6","[[2,1,3],[0,0],[0]]","1","0","","","","","","5","","","","",""
"","","","","","single-stim-button","167","1922845","0.0-3.0-13.5-1.5","5d305152b2cfe00019231a2a","F1","batch6","tol_toboard","1168","","","","","","","","","tol_peg_1","1168","1168","0","[[2,0,0],[3,1],[0]]","6","[[2,1,3],[0,0],[0]]","1","0","","","","","","5","","","","",""
"","","","","","single-stim-button","168","1927725","0.0-3.0-13.6-0.6","5d305152b2cfe00019231a2a","F1","batch6","tol_tohand","4879","","","","","","","","","tol_peg_2","4879","4879","0","[[2,0,0],[3,0],[0]]","7","[[2,1,3],[0,0],[0]]","1","0","","","","","","5","","","","",""
"","","","","","single-stim-button","169","1929167","0.0-3.0-13.6-1.6","5d305152b2cfe00019231a2a","F1","batch6","tol_toboard","1442","","","","","","","","","tol_peg_1","1442","1442","0","[[2,1,0],[3,0],[0]]","7","[[2,1,3],[0,0],[0]]","1","0","","","","","","5","","","","",""
"","","","","","single-stim-button","170","1929743","0.0-3.0-13.7-0.7","5d305152b2cfe00019231a2a","F1","batch6","tol_tohand","576","","","","","","","","","tol_peg_2","576","576","0","[[2,1,0],[0,0],[0]]","8","[[2,1,3],[0,0],[0]]","1","0","","","","","","5","","","","",""
"","","","","","single-stim-button","171","1930559","0.0-3.0-13.7-1.7","5d305152b2cfe00019231a2a","F1","batch6","tol_toboard","815","","","","","","","","","tol_peg_1","815","815","0","[[2,1,3],[0,0],[0]]","8","[[2,1,3],[0,0],[0]]","1","0","","","","","","5","","","","",""
"","","","","","poldrack-single-stim","172","1931563","0.0-3.0-14.0","5d305152b2cfe00019231a2a","F1","batch6","tol_feedback","-1","","","","","true","","","","","1000","1000","500","","","","","","-1","none","true","11050","24807","","","","","",""
"","","","","","html-button-response","173","1932549","0.0-3.0-15.0","5d305152b2cfe00019231a2a","F1","batch6","tol_trial_num","984.5","<div class = centerbox><p class = center-block-text>problem <strong>3</strong> out of 25 problems</p></div>","0","","","","","","","","","","","","","","","","","","","","","","","","","",""
"","","","","","single-stim-button","174","1952011","0.0-3.0-16.0-0.0","5d305152b2cfe00019231a2a","F1","batch6","tol_tohand","19461","","","","","","","","","tol_peg_3","19461","19461","0","[[2,3,0],[0,0],[0]]","1","[[1,2,0],[3,0],[0]]","2","0","","","","","","4","","","","",""
"","","","","","single-stim-button","175","1952881","0.0-3.0-16.0-1.0","5d305152b2cfe00019231a2a","F1","batch6","tol_toboard","869","","","","","","","","","tol_peg_2","869","869","0","[[2,3,0],[1,0],[0]]","1","[[1,2,0],[3,0],[0]]","2","0","","","","","","4","","","","",""
"","","","","","single-stim-button","176","1954351","0.0-3.0-16.1-0.1","5d305152b2cfe00019231a2a","F1","batch6","tol_tohand","1470","","","","","","","","","tol_peg_1","1470","1470","0","[[2,0,0],[1,0],[0]]","2","[[1,2,0],[3,0],[0]]","2","0","","","","","","4","","","","",""
"","","","","","single-stim-button","177","1962779","0.0-3.0-16.1-1.1","5d305152b2cfe00019231a2a","F1","batch6","tol_toboard","8426","","","","","","","","","tol_peg_1","8426","8426","0","[[2,3,0],[1,0],[0]]","2","[[1,2,0],[3,0],[0]]","2","0","","","","","","4","","","","",""
"","","","","","single-stim-button","178","1963857","0.0-3.0-16.2-0.2","5d305152b2cfe00019231a2a","F1","batch6","tol_tohand","1077","","","","","","","","","tol_peg_2","1077","1077","0","[[2,3,0],[0,0],[0]]","3","[[1,2,0],[3,0],[0]]","2","0","","","","","","4","","","","",""
"","","","","","single-stim-button","179","1964815","0.0-3.0-16.2-1.2","5d305152b2cfe00019231a2a","F1","batch6","tol_toboard","957","","","","","","","","","tol_peg_3","957","957","0","[[2,3,0],[0,0],[1]]","3","[[1,2,0],[3,0],[0]]","2","0","","","","","","4","","","","",""
"","","","","","single-stim-button","180","1966837","0.0-3.0-16.3-0.3","5d305152b2cfe00019231a2a","F1","batch6","tol_tohand","2022","","","","","","","","","tol_peg_1","2022","2022","0","[[2,0,0],[0,0],[1]]","4","[[1,2,0],[3,0],[0]]","2","0","","","","","","4","","","","",""
"","","","","","single-stim-button","181","1968025","0.0-3.0-16.3-1.3","5d305152b2cfe00019231a2a","F1","batch6","tol_toboard","1187","","","","","","","","","tol_peg_2","1187","1187","0","[[2,0,0],[3,0],[1]]","4","[[1,2,0],[3,0],[0]]","2","0","","","","","","4","","","","",""
"","","","","","single-stim-button","182","1968987","0.0-3.0-16.4-0.4","5d305152b2cfe00019231a2a","F1","batch6","tol_tohand","961","","","","","","","","","tol_peg_1","961","961","0","[[0,0,0],[3,0],[1]]","5","[[1,2,0],[3,0],[0]]","2","0","","","","","","4","","","","",""
"","","","","","single-stim-button","183","1969507","0.0-3.0-16.4-1.4","5d305152b2cfe00019231a2a","F1","batch6","tol_toboard","519","","","","","","","","","tol_peg_2","519","519","0","[[0,0,0],[3,2],[1]]","5","[[1,2,0],[3,0],[0]]","2","0","","","","","","4","","","","",""
"","","","","","single-stim-button","184","1970035","0.0-3.0-16.5-0.5","5d305152b2cfe00019231a2a","F1","batch6","tol_tohand","528","","","","","","","","","tol_peg_3","528","528","0","[[0,0,0],[3,2],[0]]","6","[[1,2,0],[3,0],[0]]","2","0","","","","","","4","","","","",""
"","","","","","single-stim-button","185","1971073","0.0-3.0-16.5-1.5","5d305152b2cfe00019231a2a","F1","batch6","tol_toboard","1037","","","","","","","","","tol_peg_1","1037","1037","0","[[1,0,0],[3,2],[0]]","6","[[1,2,0],[3,0],[0]]","2","0","","","","","","4","","","","",""
"","","","","","single-stim-button","186","1972989","0.0-3.0-16.6-0.6","5d305152b2cfe00019231a2a","F1","batch6","tol_tohand","1915","","","","","","","","","tol_peg_2","1915","1915","0","[[1,0,0],[3,0],[0]]","7","[[1,2,0],[3,0],[0]]","2","0","","","","","","4","","","","",""
"","","","","","single-stim-button","187","1974271","0.0-3.0-16.6-1.6","5d305152b2cfe00019231a2a","F1","batch6","tol_toboard","1281","","","","","","","","","tol_peg_1","1281","1281","0","[[1,2,0],[3,0],[0]]","7","[[1,2,0],[3,0],[0]]","2","0","","","","","","4","","","","",""
"","","","","","poldrack-single-stim","188","1975272","0.0-3.0-17.0","5d305152b2cfe00019231a2a","F1","batch6","tol_feedback","-1","","","","","true","","","","","1000","1000","500","","","","","","-1","none","true","19461","27434","","","","","",""
"","","","","","html-button-response","189","1976290","0.0-3.0-18.0","5d305152b2cfe00019231a2a","F1","batch6","tol_trial_num","1017.1000001430511","<div class = centerbox><p class = center-block-text>problem <strong>4</strong> out of 25 problems</p></div>","0","","","","","","","","","","","","","","","","","","","","","","","","","",""
"","","","","","single-stim-button","190","1984691","0.0-3.0-19.0-0.0","5d305152b2cfe00019231a2a","F1","batch6","tol_tohand","8399","","","","","","","","","tol_peg_2","8399","8399","0","[[3,0,0],[2,0],[0]]","1","[[3,0,0],[1,0],[2]]","3","0","","","","","","3","","","","",""
"","","","","","single-stim-button","191","1985681","0.0-3.0-19.0-1.0","5d305152b2cfe00019231a2a","F1","batch6","tol_toboard","989","","","","","","","","","tol_peg_1","989","989","0","[[3,1,0],[2,0],[0]]","1","[[3,0,0],[1,0],[2]]","3","0","","","","","","3","","","","",""
"","","","","","single-stim-button","192","1986411","0.0-3.0-19.1-0.1","5d305152b2cfe00019231a2a","F1","batch6","tol_tohand","729","","","","","","","","","tol_peg_2","729","729","0","[[3,1,0],[0,0],[0]]","2","[[3,0,0],[1,0],[2]]","3","0","","","","","","3","","","","",""
"","","","","","single-stim-button","193","1987643","0.0-3.0-19.1-1.1","5d305152b2cfe00019231a2a","F1","batch6","tol_toboard","1231","","","","","","","","","tol_peg_3","1231","1231","0","[[3,1,0],[0,0],[2]]","2","[[3,0,0],[1,0],[2]]","3","0","","","","","","3","","","","",""
"","","","","","single-stim-button","194","1988403","0.0-3.0-19.2-0.2","5d305152b2cfe00019231a2a","F1","batch6","tol_tohand","759","","","","","","","","","tol_peg_1","759","759","0","[[3,0,0],[0,0],[2]]","3","[[3,0,0],[1,0],[2]]","3","0","","","","","","3","","","","",""
"","","","","","single-stim-button","195","1989260","0.0-3.0-19.2-1.2","5d305152b2cfe00019231a2a","F1","batch6","tol_toboard","857","","","","","","","","","tol_peg_2","857","857","0","[[3,0,0],[1,0],[2]]","3","[[3,0,0],[1,0],[2]]","3","0","","","","","","3","","","","",""
"","","","","","poldrack-single-stim","196","1990266","0.0-3.0-20.0","5d305152b2cfe00019231a2a","F1","batch6","tol_feedback","-1","","","","","true","","","","","1000","1000","500","","","","","","-1","none","true","8399","9887","","","","","",""
"","","","","","html-button-response","197","1991156","0.0-3.0-21.0","5d305152b2cfe00019231a2a","F1","batch6","tol_trial_num","889.4000000953674","<div class = centerbox><p class = center-block-text>problem <strong>5</strong> out of 25 problems</p></div>","0","","","","","","","","","","","","","","","","","","","","","","","","","",""
"","","","","","single-stim-button","198","2045459","0.0-3.0-22.0-0.0","5d305152b2cfe00019231a2a","F1","batch6","tol_tohand","54301","","","","","","","","","tol_peg_3","54301","54301","0","[[1,0,0],[2,0],[0]]","1","[[0,0,0],[1,2],[3]]","4","0","","","","","","7","","","","",""
"","","","","","single-stim-button","199","2046787","0.0-3.0-22.0-1.0","5d305152b2cfe00019231a2a","F1","batch6","tol_toboard","1327","","","","","","","","","tol_peg_1","1327","1327","0","[[1,3,0],[2,0],[0]]","1","[[0,0,0],[1,2],[3]]","4","0","","","","","","7","","","","",""
"","","","","","single-stim-button","200","2047451","0.0-3.0-22.1-0.1","5d305152b2cfe00019231a2a","F1","batch6","tol_tohand","664","","","","","","","","","tol_peg_2","664","664","0","[[1,3,0],[0,0],[0]]","2","[[0,0,0],[1,2],[3]]","4","0","","","","","","7","","","","",""
"","","","","","single-stim-button","201","2048627","0.0-3.0-22.1-1.1","5d305152b2cfe00019231a2a","F1","batch6","tol_toboard","1175","","","","","","","","","tol_peg_3","1175","1175","0","[[1,3,0],[0,0],[2]]","2","[[0,0,0],[1,2],[3]]","4","0","","","","","","7","","","","",""
"","","","","","single-stim-button","202","2052135","0.0-3.0-22.2-0.2","5d305152b2cfe00019231a2a","F1","batch6","tol_tohand","3508","","","","","","","","","tol_peg_1","3508","3508","0","[[1,0,0],[0,0],[2]]","3","[[0,0,0],[1,2],[3]]","4","0","","","","","","7","","","","",""
"","","","","","single-stim-button","203","2054630","0.0-3.0-22.2-1.2","5d305152b2cfe00019231a2a","F1","batch6","tol_toboard","2495","","","","","","","","","tol_peg_2","2495","2495","0","[[1,0,0],[3,0],[2]]","3","[[0,0,0],[1,2],[3]]","4","0","","","","","","7","","","","",""
"","","","","","single-stim-button","204","2055855","0.0-3.0-22.3-0.3","5d305152b2cfe00019231a2a","F1","batch6","tol_tohand","1223","","","","","","","","","tol_peg_1","1223","1223","0","[[0,0,0],[3,0],[2]]","4","[[0,0,0],[1,2],[3]]","4","0","","","","","","7","","","","",""
"","","","","","single-stim-button","205","2056511","0.0-3.0-22.3-1.3","5d305152b2cfe00019231a2a","F1","batch6","tol_toboard","655","","","","","","","","","tol_peg_2","655","655","0","[[0,0,0],[3,1],[2]]","4","[[0,0,0],[1,2],[3]]","4","0","","","","","","7","","","","",""
"","","","","","single-stim-button","206","2058098","0.0-3.0-22.4-0.4","5d305152b2cfe00019231a2a","F1","batch6","tol_tohand","1587","","","","","","","","","tol_peg_2","1587","1587","0","[[0,0,0],[3,0],[2]]","5","[[0,0,0],[1,2],[3]]","4","0","","","","","","7","","","","",""
"","","","","","single-stim-button","207","2060333","0.0-3.0-22.4-1.4","5d305152b2cfe00019231a2a","F1","batch6","tol_toboard","2235","","","","","","","","","tol_peg_1","2235","2235","0","[[1,0,0],[3,0],[2]]","5","[[0,0,0],[1,2],[3]]","4","0","","","","","","7","","","","",""
"","","","","","single-stim-button","208","2061077","0.0-3.0-22.5-0.5","5d305152b2cfe00019231a2a","F1","batch6","tol_tohand","743","","","","","","","","","tol_peg_3","743","743","0","[[1,0,0],[3,0],[0]]","6","[[0,0,0],[1,2],[3]]","4","0","","","","","","7","","","","",""
"","","","","","single-stim-button","209","2061871","0.0-3.0-22.5-1.5","5d305152b2cfe00019231a2a","F1","batch6","tol_toboard","793","","","","","","","","","tol_peg_1","793","793","0","[[1,2,0],[3,0],[0]]","6","[[0,0,0],[1,2],[3]]","4","0","","","","","","7","","","","",""
"","","","","","single-stim-button","210","2065893","0.0-3.0-22.6-0.6","5d305152b2cfe00019231a2a","F1","batch6","tol_tohand","4021","","","","","","","","","tol_peg_2","4021","4021","0","[[1,2,0],[0,0],[0]]","7","[[0,0,0],[1,2],[3]]","4","0","","","","","","7","","","","",""
"","","","","","single-stim-button","211","2066445","0.0-3.0-22.6-1.6","5d305152b2cfe00019231a2a","F1","batch6","tol_toboard","551","","","","","","","","","tol_peg_3","551","551","0","[[1,2,0],[0,0],[3]]","7","[[0,0,0],[1,2],[3]]","4","0","","","","","","7","","","","",""
"","","","","","single-stim-button","212","2067399","0.0-3.0-22.7-0.7","5d305152b2cfe00019231a2a","F1","batch6","tol_tohand","953","","","","","","","","","tol_peg_1","953","953","0","[[1,0,0],[0,0],[3]]","8","[[0,0,0],[1,2],[3]]","4","0","","","","","","7","","","","",""
"","","","","","single-stim-button","213","2069608","0.0-3.0-22.7-1.7","5d305152b2cfe00019231a2a","F1","batch6","tol_toboard","2209","","","","","","","","","tol_peg_2","2209","2209","0","[[1,0,0],[2,0],[3]]","8","[[0,0,0],[1,2],[3]]","4","0","","","","","","7","","","","",""
"","","","","","single-stim-button","214","2070153","0.0-3.0-22.8-0.8","5d305152b2cfe00019231a2a","F1","batch6","tol_tohand","544","","","","","","","","","tol_peg_1","544","544","0","[[0,0,0],[2,0],[3]]","9","[[0,0,0],[1,2],[3]]","4","0","","","","","","7","","","","",""
"","","","","","single-stim-button","215","2070903","0.0-3.0-22.8-1.8","5d305152b2cfe00019231a2a","F1","batch6","tol_toboard","749","","","","","","","","","tol_peg_2","749","749","0","[[0,0,0],[2,1],[3]]","9","[[0,0,0],[1,2],[3]]","4","0","","","","","","7","","","","",""
"","","","","","single-stim-button","216","2071393","0.0-3.0-22.9-0.9","5d305152b2cfe00019231a2a","F1","batch6","tol_tohand","489","","","","","","","","","tol_peg_2","489","489","0","[[0,0,0],[2,0],[3]]","10","[[0,0,0],[1,2],[3]]","4","0","","","","","","7","","","","",""
"","","","","","single-stim-button","217","2072581","0.0-3.0-22.9-1.9","5d305152b2cfe00019231a2a","F1","batch6","tol_toboard","1187","","","","","","","","","tol_peg_1","1187","1187","0","[[1,0,0],[2,0],[3]]","10","[[0,0,0],[1,2],[3]]","4","0","","","","","","7","","","","",""
"","","","","","single-stim-button","218","2073605","0.0-3.0-22.10-0.10","5d305152b2cfe00019231a2a","F1","batch6","tol_tohand","1023","","","","","","","","","tol_peg_3","1023","1023","0","[[1,0,0],[2,0],[0]]","11","[[0,0,0],[1,2],[3]]","4","0","","","","","","7","","","","",""
"","","","","","single-stim-button","219","2074095","0.0-3.0-22.10-1.10","5d305152b2cfe00019231a2a","F1","batch6","tol_toboard","489","","","","","","","","","tol_peg_1","489","489","0","[[1,3,0],[2,0],[0]]","11","[[0,0,0],[1,2],[3]]","4","0","","","","","","7","","","","",""
"","","","","","single-stim-button","220","2080001","0.0-3.0-22.11-0.11","5d305152b2cfe00019231a2a","F1","batch6","tol_tohand","5906","","","","","","","","","tol_peg_2","5906","5906","0","[[1,3,0],[0,0],[0]]","12","[[0,0,0],[1,2],[3]]","4","0","","","","","","7","","","","",""
"","","","","","single-stim-button","221","2082325","0.0-3.0-22.11-1.11","5d305152b2cfe00019231a2a","F1","batch6","tol_toboard","2323","","","","","","","","","tol_peg_3","2323","2323","0","[[1,3,0],[0,0],[2]]","12","[[0,0,0],[1,2],[3]]","4","0","","","","","","7","","","","",""
"","","","","","single-stim-button","222","2082977","0.0-3.0-22.12-0.12","5d305152b2cfe00019231a2a","F1","batch6","tol_tohand","651","","","","","","","","","tol_peg_1","651","651","0","[[1,0,0],[0,0],[2]]","13","[[0,0,0],[1,2],[3]]","4","0","","","","","","7","","","","",""
"","","","","","single-stim-button","223","2085876","0.0-3.0-22.12-1.12","5d305152b2cfe00019231a2a","F1","batch6","tol_toboard","2899","","","","","","","","","tol_peg_2","2899","2899","0","[[1,0,0],[3,0],[2]]","13","[[0,0,0],[1,2],[3]]","4","0","","","","","","7","","","","",""
"","","","","","single-stim-button","224","2086415","0.0-3.0-22.13-0.13","5d305152b2cfe00019231a2a","F1","batch6","tol_tohand","537","","","","","","","","","tol_peg_1","537","537","0","[[0,0,0],[3,0],[2]]","14","[[0,0,0],[1,2],[3]]","4","0","","","","","","7","","","","",""
"","","","","","single-stim-button","225","2087801","0.0-3.0-22.13-1.13","5d305152b2cfe00019231a2a","F1","batch6","tol_toboard","1386","","","","","","","","","tol_peg_2","1386","1386","0","[[0,0,0],[3,1],[2]]","14","[[0,0,0],[1,2],[3]]","4","0","","","","","","7","","","","",""
"","","","","","single-stim-button","226","2088592","0.0-3.0-22.14-0.14","5d305152b2cfe00019231a2a","F1","batch6","tol_tohand","791","","","","","","","","","tol_peg_3","791","791","0","[[0,0,0],[3,1],[0]]","15","[[0,0,0],[1,2],[3]]","4","0","","","","","","7","","","","",""
"","","","","","single-stim-button","227","2089545","0.0-3.0-22.14-1.14","5d305152b2cfe00019231a2a","F1","batch6","tol_toboard","951","","","","","","","","","tol_peg_1","951","951","0","[[2,0,0],[3,1],[0]]","15","[[0,0,0],[1,2],[3]]","4","0","","","","","","7","","","","",""
"","","","","","single-stim-button","228","2091786","0.0-3.0-22.15-0.15","5d305152b2cfe00019231a2a","F1","batch6","tol_tohand","2241","","","","","","","","","tol_peg_2","2241","2241","0","[[2,0,0],[3,0],[0]]","16","[[0,0,0],[1,2],[3]]","4","0","","","","","","7","","","","",""
"","","","","","single-stim-button","229","2092342","0.0-3.0-22.15-1.15","5d305152b2cfe00019231a2a","F1","batch6","tol_toboard","555","","","","","","","","","tol_peg_1","555","555","0","[[2,1,0],[3,0],[0]]","16","[[0,0,0],[1,2],[3]]","4","0","","","","","","7","","","","",""
"","","","","","single-stim-button","230","2092927","0.0-3.0-22.16-0.16","5d305152b2cfe00019231a2a","F1","batch6","tol_tohand","583","","","","","","","","","tol_peg_2","583","583","0","[[2,1,0],[0,0],[0]]","17","[[0,0,0],[1,2],[3]]","4","0","","","","","","7","","","","",""
"","","","","","single-stim-button","231","2093591","0.0-3.0-22.16-1.16","5d305152b2cfe00019231a2a","F1","batch6","tol_toboard","664","","","","","","","","","tol_peg_3","664","664","0","[[2,1,0],[0,0],[3]]","17","[[0,0,0],[1,2],[3]]","4","0","","","","","","7","","","","",""
"","","","","","single-stim-button","232","2094593","0.0-3.0-22.17-0.17","5d305152b2cfe00019231a2a","F1","batch6","tol_tohand","1002","","","","","","","","","tol_peg_1","1002","1002","0","[[2,0,0],[0,0],[3]]","18","[[0,0,0],[1,2],[3]]","4","0","","","","","","7","","","","",""
"","","","","","single-stim-button","233","2095563","0.0-3.0-22.17-1.17","5d305152b2cfe00019231a2a","F1","batch6","tol_toboard","970","","","","","","","","","tol_peg_2","970","970","0","[[2,0,0],[1,0],[3]]","18","[[0,0,0],[1,2],[3]]","4","0","","","","","","7","","","","",""
"","","","","","single-stim-button","234","2096115","0.0-3.0-22.18-0.18","5d305152b2cfe00019231a2a","F1","batch6","tol_tohand","552","","","","","","","","","tol_peg_1","552","552","0","[[0,0,0],[1,0],[3]]","19","[[0,0,0],[1,2],[3]]","4","0","","","","","","7","","","","",""
"","","","","","single-stim-button","235","2096715","0.0-3.0-22.18-1.18","5d305152b2cfe00019231a2a","F1","batch6","tol_toboard","600","","","","","","","","","tol_peg_2","600","600","0","[[0,0,0],[1,2],[3]]","19","[[0,0,0],[1,2],[3]]","4","0","","","","","","7","","","","",""
"","","","","","poldrack-single-stim","236","2097719","0.0-3.0-23.0","5d305152b2cfe00019231a2a","F1","batch6","tol_feedback","-1","","","","","true","","","","","1000","1000","500","","","","","","-1","none","true","54301","81319","","","","","",""
"","","","","","html-button-response","237","2099823","0.0-3.0-24.0","5d305152b2cfe00019231a2a","F1","batch6","tol_trial_num","2102.2999999523163","<div class = centerbox><p class = center-block-text>problem <strong>6</strong> out of 25 problems</p></div>","0","","","","","","","","","","","","","","","","","","","","","","","","","",""
"","","","","","single-stim-button","238","2128049","0.0-3.0-25.0-0.0","5d305152b2cfe00019231a2a","F1","batch6","tol_tohand","28226","","","","","","","","","tol_peg_3","28226","28226","0","[[0,0,0],[1,2],[0]]","1","[[1,0,0],[2,3],[0]]","5","0","","","","","","6","","","","",""
"","","","","","single-stim-button","239","2128821","0.0-3.0-25.0-1.0","5d305152b2cfe00019231a2a","F1","batch6","tol_toboard","772","","","","","","","","","tol_peg_1","772","772","0","[[3,0,0],[1,2],[0]]","1","[[1,0,0],[2,3],[0]]","5","0","","","","","","6","","","","",""
"","","","","","single-stim-button","240","2129507","0.0-3.0-25.1-0.1","5d305152b2cfe00019231a2a","F1","batch6","tol_tohand","686","","","","","","","","","tol_peg_2","686","686","0","[[3,0,0],[1,0],[0]]","2","[[1,0,0],[2,3],[0]]","5","0","","","","","","6","","","","",""
"","","","","","single-stim-button","241","2136101","0.0-3.0-25.1-1.1","5d305152b2cfe00019231a2a","F1","batch6","tol_toboard","6594","","","","","","","","","tol_peg_1","6594","6594","0","[[3,2,0],[1,0],[0]]","2","[[1,0,0],[2,3],[0]]","5","0","","","","","","6","","","","",""
"","","","","","single-stim-button","242","2136826","0.0-3.0-25.2-0.2","5d305152b2cfe00019231a2a","F1","batch6","tol_tohand","725","","","","","","","","","tol_peg_2","725","725","0","[[3,2,0],[0,0],[0]]","3","[[1,0,0],[2,3],[0]]","5","0","","","","","","6","","","","",""
"","","","","","single-stim-button","243","2139505","0.0-3.0-25.2-1.2","5d305152b2cfe00019231a2a","F1","batch6","tol_toboard","2677","","","","","","","","","tol_peg_3","2677","2677","0","[[3,2,0],[0,0],[1]]","3","[[1,0,0],[2,3],[0]]","5","0","","","","","","6","","","","",""
"","","","","","single-stim-button","244","2140277","0.0-3.0-25.3-0.3","5d305152b2cfe00019231a2a","F1","batch6","tol_tohand","772","","","","","","","","","tol_peg_1","772","772","0","[[3,0,0],[0,0],[1]]","4","[[1,0,0],[2,3],[0]]","5","0","","","","","","6","","","","",""
"","","","","","single-stim-button","245","2142109","0.0-3.0-25.3-1.3","5d305152b2cfe00019231a2a","F1","batch6","tol_toboard","1832","","","","","","","","","tol_peg_2","1832","1832","0","[[3,0,0],[2,0],[1]]","4","[[1,0,0],[2,3],[0]]","5","0","","","","","","6","","","","",""
"","","","","","single-stim-button","246","2142851","0.0-3.0-25.4-0.4","5d305152b2cfe00019231a2a","F1","batch6","tol_tohand","742","","","","","","","","","tol_peg_1","742","742","0","[[0,0,0],[2,0],[1]]","5","[[1,0,0],[2,3],[0]]","5","0","","","","","","6","","","","",""
"","","","","","single-stim-button","247","2143969","0.0-3.0-25.4-1.4","5d305152b2cfe00019231a2a","F1","batch6","tol_toboard","1118","","","","","","","","","tol_peg_2","1118","1118","0","[[0,0,0],[2,3],[1]]","5","[[1,0,0],[2,3],[0]]","5","0","","","","","","6","","","","",""
"","","","","","single-stim-button","248","2144935","0.0-3.0-25.5-0.5","5d305152b2cfe00019231a2a","F1","batch6","tol_tohand","966","","","","","","","","","tol_peg_3","966","966","0","[[0,0,0],[2,3],[0]]","6","[[1,0,0],[2,3],[0]]","5","0","","","","","","6","","","","",""
"","","","","","single-stim-button","249","2146039","0.0-3.0-25.5-1.5","5d305152b2cfe00019231a2a","F1","batch6","tol_toboard","1104","","","","","","","","","tol_peg_1","1104","1104","0","[[1,0,0],[2,3],[0]]","6","[[1,0,0],[2,3],[0]]","5","0","","","","","","6","","","","",""
"","","","","","poldrack-single-stim","250","2147049","0.0-3.0-26.0","5d305152b2cfe00019231a2a","F1","batch6","tol_feedback","-1","","","","","true","","","","","1000","1000","500","","","","","","-1","none","true","28226","32117","","","","","",""
"","","","","","html-button-response","251","2148237","0.0-3.0-27.0","5d305152b2cfe00019231a2a","F1","batch6","tol_trial_num","1186.4000000953674","<div class = centerbox><p class = center-block-text>problem <strong>7</strong> out of 25 problems</p></div>","0","","","","","","","","","","","","","","","","","","","","","","","","","",""
"","","","","","single-stim-button","252","2158417","0.0-3.0-28.0-0.0","5d305152b2cfe00019231a2a","F1","batch6","tol_tohand","10179","","","","","","","","","tol_peg_3","10179","10179","0","[[2,1,0],[0,0],[0]]","1","[[1,2,0],[3,0],[0]]","6","0","","","","","","5","","","","",""
"","","","","","single-stim-button","253","2159569","0.0-3.0-28.0-1.0","5d305152b2cfe00019231a2a","F1","batch6","tol_toboard","1152","","","","","","","","","tol_peg_2","1152","1152","0","[[2,1,0],[3,0],[0]]","1","[[1,2,0],[3,0],[0]]","6","0","","","","","","5","","","","",""
"","","","","","single-stim-button","254","2171477","0.0-3.0-28.1-0.1","5d305152b2cfe00019231a2a","F1","batch6","tol_tohand","11907","","","","","","","","","tol_peg_1","11907","11907","0","[[2,0,0],[3,0],[0]]","2","[[1,2,0],[3,0],[0]]","6","0","","","","","","5","","","","",""
"","","","","","single-stim-button","255","2172447","0.0-3.0-28.1-1.1","5d305152b2cfe00019231a2a","F1","batch6","tol_toboard","969","","","","","","","","","tol_peg_3","969","969","0","[[2,0,0],[3,0],[1]]","2","[[1,2,0],[3,0],[0]]","6","0","","","","","","5","","","","",""
"","","","","","single-stim-button","256","2173111","0.0-3.0-28.2-0.2","5d305152b2cfe00019231a2a","F1","batch6","tol_tohand","663","","","","","","","","","tol_peg_1","663","663","0","[[0,0,0],[3,0],[1]]","3","[[1,2,0],[3,0],[0]]","6","0","","","","","","5","","","","",""
"","","","","","single-stim-button","257","2173790","0.0-3.0-28.2-1.2","5d305152b2cfe00019231a2a","F1","batch6","tol_toboard","679","","","","","","","","","tol_peg_2","679","679","0","[[0,0,0],[3,2],[1]]","3","[[1,2,0],[3,0],[0]]","6","0","","","","","","5","","","","",""
"","","","","","single-stim-button","258","2175245","0.0-3.0-28.3-0.3","5d305152b2cfe00019231a2a","F1","batch6","tol_tohand","1453","","","","","","","","","tol_peg_3","1453","1453","0","[[0,0,0],[3,2],[0]]","4","[[1,2,0],[3,0],[0]]","6","0","","","","","","5","","","","",""
"","","","","","single-stim-button","259","2176003","0.0-3.0-28.3-1.3","5d305152b2cfe00019231a2a","F1","batch6","tol_toboard","757","","","","","","","","","tol_peg_1","757","757","0","[[1,0,0],[3,2],[0]]","4","[[1,2,0],[3,0],[0]]","6","0","","","","","","5","","","","",""
"","","","","","single-stim-button","260","2176735","0.0-3.0-28.4-0.4","5d305152b2cfe00019231a2a","F1","batch6","tol_tohand","732","","","","","","","","","tol_peg_2","732","732","0","[[1,0,0],[3,0],[0]]","5","[[1,2,0],[3,0],[0]]","6","0","","","","","","5","","","","",""
"","","","","","single-stim-button","261","2177823","0.0-3.0-28.4-1.4","5d305152b2cfe00019231a2a","F1","batch6","tol_toboard","1087","","","","","","","","","tol_peg_1","1087","1087","0","[[1,2,0],[3,0],[0]]","5","[[1,2,0],[3,0],[0]]","6","0","","","","","","5","","","","",""
"","","","","","poldrack-single-stim","262","2178829","0.0-3.0-29.0","5d305152b2cfe00019231a2a","F1","batch6","tol_feedback","-1","","","","","true","","","","","1000","1000","500","","","","","","-1","none","true","10179","24934","","","","","",""
"","","","","","html-button-response","263","2180012","0.0-3.0-30.0","5d305152b2cfe00019231a2a","F1","batch6","tol_trial_num","1182.5","<div class = centerbox><p class = center-block-text>problem <strong>8</strong> out of 25 problems</p></div>","0","","","","","","","","","","","","","","","","","","","","","","","","","",""
"","","","","","single-stim-button","264","2189213","0.0-3.0-31.0-0.0","5d305152b2cfe00019231a2a","F1","batch6","tol_tohand","9200","","","","","","","","","tol_peg_3","9200","9200","0","[[0,0,0],[2,3],[0]]","1","[[1,2,0],[3,0],[0]]","7","0","","","","","","4","","","","",""
"","","","","","single-stim-button","265","2190706","0.0-3.0-31.0-1.0","5d305152b2cfe00019231a2a","F1","batch6","tol_toboard","1493","","","","","","","","","tol_peg_1","1493","1493","0","[[1,0,0],[2,3],[0]]","1","[[1,2,0],[3,0],[0]]","7","0","","","","","","4","","","","",""
"","","","","","single-stim-button","266","2192415","0.0-3.0-31.1-0.1","5d305152b2cfe00019231a2a","F1","batch6","tol_tohand","1707","","","","","","","","","tol_peg_2","1707","1707","0","[[1,0,0],[2,0],[0]]","2","[[1,2,0],[3,0],[0]]","7","0","","","","","","4","","","","",""
"","","","","","single-stim-button","267","2193815","0.0-3.0-31.1-1.1","5d305152b2cfe00019231a2a","F1","batch6","tol_toboard","1399","","","","","","","","","tol_peg_3","1399","1399","0","[[1,0,0],[2,0],[3]]","2","[[1,2,0],[3,0],[0]]","7","0","","","","","","4","","","","",""
"","","","","","single-stim-button","268","2194827","0.0-3.0-31.2-0.2","5d305152b2cfe00019231a2a","F1","batch6","tol_tohand","1011","","","","","","","","","tol_peg_2","1011","1011","0","[[1,0,0],[0,0],[3]]","3","[[1,2,0],[3,0],[0]]","7","0","","","","","","4","","","","",""
"","","","","","single-stim-button","269","2196333","0.0-3.0-31.2-1.2","5d305152b2cfe00019231a2a","F1","batch6","tol_toboard","1505","","","","","","","","","tol_peg_1","1505","1505","0","[[1,2,0],[0,0],[3]]","3","[[1,2,0],[3,0],[0]]","7","0","","","","","","4","","","","",""
"","","","","","single-stim-button","270","2197338","0.0-3.0-31.3-0.3","5d305152b2cfe00019231a2a","F1","batch6","tol_tohand","1005","","","","","","","","","tol_peg_3","1005","1005","0","[[1,2,0],[0,0],[0]]","4","[[1,2,0],[3,0],[0]]","7","0","","","","","","4","","","","",""
"","","","","","single-stim-button","271","2198630","0.0-3.0-31.3-1.3","5d305152b2cfe00019231a2a","F1","batch6","tol_toboard","1291","","","","","","","","","tol_peg_2","1291","1291","0","[[1,2,0],[3,0],[0]]","4","[[1,2,0],[3,0],[0]]","7","0","","","","","","4","","","","",""
"","","","","","poldrack-single-stim","272","2199640","0.0-3.0-32.0","5d305152b2cfe00019231a2a","F1","batch6","tol_feedback","-1","","","","","true","","","","","1000","1000","500","","","","","","-1","none","true","9200","12923","","","","","",""
"","","","","","html-button-response","273","2200524","0.0-3.0-33.0","5d305152b2cfe00019231a2a","F1","batch6","tol_trial_num","883.0999999046326","<div class = centerbox><p class = center-block-text>problem <strong>9</strong> out of 25 problems</p></div>","0","","","","","","","","","","","","","","","","","","","","","","","","","",""
"","","","","","single-stim-button","274","2229416","0.0-3.0-34.0-0.0","5d305152b2cfe00019231a2a","F1","batch6","tol_tohand","28891","","","","","","","","","tol_peg_3","28891","28891","0","[[3,2,0],[0,0],[0]]","1","[[2,1,0],[3,0],[0]]","8","0","","","","","","6","","","","",""
"","","","","","single-stim-button","275","2230020","0.0-3.0-34.0-1.0","5d305152b2cfe00019231a2a","F1","batch6","tol_toboard","603","","","","","","","","","tol_peg_2","603","603","0","[[3,2,0],[1,0],[0]]","1","[[2,1,0],[3,0],[0]]","8","0","","","","","","6","","","","",""
"","","","","","single-stim-button","276","2231104","0.0-3.0-34.1-0.1","5d305152b2cfe00019231a2a","F1","batch6","tol_tohand","1083","","","","","","","","","tol_peg_1","1083","1083","0","[[3,0,0],[1,0],[0]]","2","[[2,1,0],[3,0],[0]]","8","0","","","","","","6","","","","",""
"","","","","","single-stim-button","277","2232030","0.0-3.0-34.1-1.1","5d305152b2cfe00019231a2a","F1","batch6","tol_toboard","925","","","","","","","","","tol_peg_2","925","925","0","[[3,0,0],[1,2],[0]]","2","[[2,1,0],[3,0],[0]]","8","0","","","","","","6","","","","",""
"","","","","","single-stim-button","278","2233406","0.0-3.0-34.2-0.2","5d305152b2cfe00019231a2a","F1","batch6","tol_tohand","1375","","","","","","","","","tol_peg_1","1375","1375","0","[[0,0,0],[1,2],[0]]","3","[[2,1,0],[3,0],[0]]","8","0","","","","","","6","","","","",""
"","","","","","single-stim-button","279","2234510","0.0-3.0-34.2-1.2","5d305152b2cfe00019231a2a","F1","batch6","tol_toboard","1103","","","","","","","","","tol_peg_3","1103","1103","0","[[0,0,0],[1,2],[3]]","3","[[2,1,0],[3,0],[0]]","8","0","","","","","","6","","","","",""
"","","","","","single-stim-button","280","2238146","0.0-3.0-34.3-0.3","5d305152b2cfe00019231a2a","F1","batch6","tol_tohand","3635","","","","","","","","","tol_peg_2","3635","3635","0","[[0,0,0],[1,0],[3]]","4","[[2,1,0],[3,0],[0]]","8","0","","","","","","6","","","","",""
"","","","","","single-stim-button","281","2239104","0.0-3.0-34.3-1.3","5d305152b2cfe00019231a2a","F1","batch6","tol_toboard","958","","","","","","","","","tol_peg_1","958","958","0","[[2,0,0],[1,0],[3]]","4","[[2,1,0],[3,0],[0]]","8","0","","","","","","6","","","","",""
"","","","","","single-stim-button","282","2239830","0.0-3.0-34.4-0.4","5d305152b2cfe00019231a2a","F1","batch6","tol_tohand","725","","","","","","","","","tol_peg_2","725","725","0","[[2,0,0],[0,0],[3]]","5","[[2,1,0],[3,0],[0]]","8","0","","","","","","6","","","","",""
"","","","","","single-stim-button","283","2240658","0.0-3.0-34.4-1.4","5d305152b2cfe00019231a2a","F1","batch6","tol_toboard","828","","","","","","","","","tol_peg_1","828","828","0","[[2,1,0],[0,0],[3]]","5","[[2,1,0],[3,0],[0]]","8","0","","","","","","6","","","","",""
"","","","","","single-stim-button","284","2241452","0.0-3.0-34.5-0.5","5d305152b2cfe00019231a2a","F1","batch6","tol_tohand","794","","","","","","","","","tol_peg_3","794","794","0","[[2,1,0],[0,0],[0]]","6","[[2,1,0],[3,0],[0]]","8","0","","","","","","6","","","","",""
"","","","","","single-stim-button","285","2242958","0.0-3.0-34.5-1.5","5d305152b2cfe00019231a2a","F1","batch6","tol_toboard","1505","","","","","","","","","tol_peg_2","1505","1505","0","[[2,1,0],[3,0],[0]]","6","[[2,1,0],[3,0],[0]]","8","0","","","","","","6","","","","",""
"","","","","","poldrack-single-stim","286","2243970","0.0-3.0-35.0","5d305152b2cfe00019231a2a","F1","batch6","tol_feedback","-1","","","","","true","","","","","1000","1000","500","","","","","","-1","none","true","28891","36503","","","","","",""
"","","","","","html-button-response","287","2245068","0.0-3.0-36.0","5d305152b2cfe00019231a2a","F1","batch6","tol_trial_num","1096.6999998092651","<div class = centerbox><p class = center-block-text>problem <strong>10</strong> out of 25 problems</p></div>","0","","","","","","","","","","","","","","","","","","","","","","","","","",""
"","","","","","single-stim-button","288","2253954","0.0-3.0-37.0-0.0","5d305152b2cfe00019231a2a","F1","batch6","tol_tohand","8885","","","","","","","","","tol_peg_2","8885","8885","0","[[3,0,0],[0,0],[2]]","1","[[3,0,0],[2,1],[0]]","9","0","","","","","","3","","","","",""
"","","","","","single-stim-button","289","2254678","0.0-3.0-37.0-1.0","5d305152b2cfe00019231a2a","F1","batch6","tol_toboard","724","","","","","","","","","tol_peg_1","724","724","0","[[3,1,0],[0,0],[2]]","1","[[3,0,0],[2,1],[0]]","9","0","","","","","","3","","","","",""
"","","","","","single-stim-button","290","2255432","0.0-3.0-37.1-0.1","5d305152b2cfe00019231a2a","F1","batch6","tol_tohand","753","","","","","","","","","tol_peg_3","753","753","0","[[3,1,0],[0,0],[0]]","2","[[3,0,0],[2,1],[0]]","9","0","","","","","","3","","","","",""
"","","","","","single-stim-button","291","2256458","0.0-3.0-37.1-1.1","5d305152b2cfe00019231a2a","F1","batch6","tol_toboard","1026","","","","","","","","","tol_peg_2","1026","1026","0","[[3,1,0],[2,0],[0]]","2","[[3,0,0],[2,1],[0]]","9","0","","","","","","3","","","","",""
"","","","","","single-stim-button","292","2257276","0.0-3.0-37.2-0.2","5d305152b2cfe00019231a2a","F1","batch6","tol_tohand","817","","","","","","","","","tol_peg_1","817","817","0","[[3,0,0],[2,0],[0]]","3","[[3,0,0],[2,1],[0]]","9","0","","","","","","3","","","","",""
"","","","","","single-stim-button","293","2257840","0.0-3.0-37.2-1.2","5d305152b2cfe00019231a2a","F1","batch6","tol_toboard","564","","","","","","","","","tol_peg_2","564","564","0","[[3,0,0],[2,1],[0]]","3","[[3,0,0],[2,1],[0]]","9","0","","","","","","3","","","","",""
"","","","","","poldrack-single-stim","294","2258841","0.0-3.0-38.0","5d305152b2cfe00019231a2a","F1","batch6","tol_feedback","-1","","","","","true","","","","","1000","1000","500","","","","","","-1","none","true","8885","10455","","","","","",""
"","","","","","html-button-response","295","2263034","0.0-3.0-39.0","5d305152b2cfe00019231a2a","F1","batch6","tol_trial_num","4191.900000095367","<div class = centerbox><p class = center-block-text>problem <strong>11</strong> out of 25 problems</p></div>","0","","","","","","","","","","","","","","","","","","","","","","","","","",""
"","","","","","single-stim-button","296","2295252","0.0-3.0-40.0-0.0","5d305152b2cfe00019231a2a","F1","batch6","tol_tohand","32217","","","","","","","","","tol_peg_1","32217","32217","0","[[1,0,0],[3,0],[0]]","1","[[2,0,0],[1,3],[0]]","10","0","","","","","","6","","","","",""
"","","","","","single-stim-button","297","2296138","0.0-3.0-40.0-1.0","5d305152b2cfe00019231a2a","F1","batch6","tol_toboard","885","","","","","","","","","tol_peg_3","885","885","0","[[1,0,0],[3,0],[2]]","1","[[2,0,0],[1,3],[0]]","10","0","","","","","","6","","","","",""
"","","","","","single-stim-button","298","2297894","0.0-3.0-40.1-0.1","5d305152b2cfe00019231a2a","F1","batch6","tol_tohand","1756","","","","","","","","","tol_peg_1","1756","1756","0","[[0,0,0],[3,0],[2]]","2","[[2,0,0],[1,3],[0]]","10","0","","","","","","6","","","","",""
"","","","","","single-stim-button","299","2298626","0.0-3.0-40.1-1.1","5d305152b2cfe00019231a2a","F1","batch6","tol_toboard","732","","","","","","","","","tol_peg_2","732","732","0","[[0,0,0],[3,1],[2]]","2","[[2,0,0],[1,3],[0]]","10","0","","","","","","6","","","","",""
"","","","","","single-stim-button","300","2299436","0.0-3.0-40.2-0.2","5d305152b2cfe00019231a2a","F1","batch6","tol_tohand","810","","","","","","","","","tol_peg_3","810","810","0","[[0,0,0],[3,1],[0]]","3","[[2,0,0],[1,3],[0]]","10","0","","","","","","6","","","","",""
"","","","","","single-stim-button","301","2300470","0.0-3.0-40.2-1.2","5d305152b2cfe00019231a2a","F1","batch6","tol_toboard","1033","","","","","","","","","tol_peg_1","1033","1033","0","[[2,0,0],[3,1],[0]]","3","[[2,0,0],[1,3],[0]]","10","0","","","","","","6","","","","",""
"","","","","","single-stim-button","302","2304352","0.0-3.0-40.3-0.3","5d305152b2cfe00019231a2a","F1","batch6","tol_tohand","3881","","","","","","","","","tol_peg_2","3881","3881","0","[[2,0,0],[3,0],[0]]","4","[[2,0,0],[1,3],[0]]","10","0","","","","","","6","","","","",""
"","","","","","single-stim-button","303","2304949","0.0-3.0-40.3-1.3","5d305152b2cfe00019231a2a","F1","batch6","tol_toboard","595","","","","","","","","","tol_peg_1","595","595","0","[[2,1,0],[3,0],[0]]","4","[[2,0,0],[1,3],[0]]","10","0","","","","","","6","","","","",""
"","","","","","single-stim-button","304","2305494","0.0-3.0-40.4-0.4","5d305152b2cfe00019231a2a","F1","batch6","tol_tohand","545","","","","","","","","","tol_peg_2","545","545","0","[[2,1,0],[0,0],[0]]","5","[[2,0,0],[1,3],[0]]","10","0","","","","","","6","","","","",""
"","","","","","single-stim-button","305","2306160","0.0-3.0-40.4-1.4","5d305152b2cfe00019231a2a","F1","batch6","tol_toboard","666","","","","","","","","","tol_peg_3","666","666","0","[[2,1,0],[0,0],[3]]","5","[[2,0,0],[1,3],[0]]","10","0","","","","","","6","","","","",""
"","","","","","single-stim-button","306","2307956","0.0-3.0-40.5-0.5","5d305152b2cfe00019231a2a","F1","batch6","tol_tohand","1795","","","","","","","","","tol_peg_1","1795","1795","0","[[2,0,0],[0,0],[3]]","6","[[2,0,0],[1,3],[0]]","10","0","","","","","","6","","","","",""
"","","","","","single-stim-button","307","2308640","0.0-3.0-40.5-1.5","5d305152b2cfe00019231a2a","F1","batch6","tol_toboard","684","","","","","","","","","tol_peg_2","684","684","0","[[2,0,0],[1,0],[3]]","6","[[2,0,0],[1,3],[0]]","10","0","","","","","","6","","","","",""
"","","","","","single-stim-button","308","2309754","0.0-3.0-40.6-0.6","5d305152b2cfe00019231a2a","F1","batch6","tol_tohand","1113","","","","","","","","","tol_peg_3","1113","1113","0","[[2,0,0],[1,0],[0]]","7","[[2,0,0],[1,3],[0]]","10","0","","","","","","6","","","","",""
"","","","","","single-stim-button","309","2310390","0.0-3.0-40.6-1.6","5d305152b2cfe00019231a2a","F1","batch6","tol_toboard","635","","","","","","","","","tol_peg_2","635","635","0","[[2,0,0],[1,3],[0]]","7","[[2,0,0],[1,3],[0]]","10","0","","","","","","6","","","","",""
"","","","","","poldrack-single-stim","310","2311406","0.0-3.0-41.0","5d305152b2cfe00019231a2a","F1","batch6","tol_feedback","-1","","","","","true","","","","","1000","1000","500","","","","","","-1","none","true","32217","42117","","","","","",""
"","","","","","html-button-response","311","2312606","0.0-3.0-42.0","5d305152b2cfe00019231a2a","F1","batch6","tol_trial_num","1199","<div class = centerbox><p class = center-block-text>problem <strong>12</strong> out of 25 problems</p></div>","0","","","","","","","","","","","","","","","","","","","","","","","","","",""
"","","","","","single-stim-button","312","2346046","0.0-3.0-43.0-0.0","5d305152b2cfe00019231a2a","F1","batch6","tol_tohand","33440","","","","","","","","","tol_peg_1","33440","33440","0","[[1,0,0],[3,0],[0]]","1","[[2,3,0],[0,0],[1]]","11","0","","","","","","4","","","","",""
"","","","","","single-stim-button","313","2346818","0.0-3.0-43.0-1.0","5d305152b2cfe00019231a2a","F1","batch6","tol_toboard","771","","","","","","","","","tol_peg_2","771","771","0","[[1,0,0],[3,2],[0]]","1","[[2,3,0],[0,0],[1]]","11","0","","","","","","4","","","","",""
"","","","","","single-stim-button","314","2347434","0.0-3.0-43.1-0.1","5d305152b2cfe00019231a2a","F1","batch6","tol_tohand","615","","","","","","","","","tol_peg_1","615","615","0","[[0,0,0],[3,2],[0]]","2","[[2,3,0],[0,0],[1]]","11","0","","","","","","4","","","","",""
"","","","","","single-stim-button","315","2348526","0.0-3.0-43.1-1.1","5d305152b2cfe00019231a2a","F1","batch6","tol_toboard","1091","","","","","","","","","tol_peg_3","1091","1091","0","[[0,0,0],[3,2],[1]]","2","[[2,3,0],[0,0],[1]]","11","0","","","","","","4","","","","",""
"","","","","","single-stim-button","316","2349440","0.0-3.0-43.2-0.2","5d305152b2cfe00019231a2a","F1","batch6","tol_tohand","914","","","","","","","","","tol_peg_2","914","914","0","[[0,0,0],[3,0],[1]]","3","[[2,3,0],[0,0],[1]]","11","0","","","","","","4","","","","",""
"","","","","","single-stim-button","317","2350212","0.0-3.0-43.2-1.2","5d305152b2cfe00019231a2a","F1","batch6","tol_toboard","772","","","","","","","","","tol_peg_1","772","772","0","[[2,0,0],[3,0],[1]]","3","[[2,3,0],[0,0],[1]]","11","0","","","","","","4","","","","",""
"","","","","","single-stim-button","318","2351654","0.0-3.0-43.3-0.3","5d305152b2cfe00019231a2a","F1","batch6","tol_tohand","1442","","","","","","","","","tol_peg_2","1442","1442","0","[[2,0,0],[0,0],[1]]","4","[[2,3,0],[0,0],[1]]","11","0","","","","","","4","","","","",""
"","","","","","single-stim-button","319","2352948","0.0-3.0-43.3-1.3","5d305152b2cfe00019231a2a","F1","batch6","tol_toboard","1294","","","","","","","","","tol_peg_1","1294","1294","0","[[2,3,0],[0,0],[1]]","4","[[2,3,0],[0,0],[1]]","11","0","","","","","","4","","","","",""
"","","","","","poldrack-single-stim","320","2353953","0.0-3.0-44.0","5d305152b2cfe00019231a2a","F1","batch6","tol_feedback","-1","","","","","true","","","","","1000","1000","500","","","","","","-1","none","true","33440","36411","","","","","",""
"","","","","","html-button-response","321","2354948","0.0-3.0-45.0","5d305152b2cfe00019231a2a","F1","batch6","tol_trial_num","994.9000000953674","<div class = centerbox><p class = center-block-text>problem <strong>13</strong> out of 25 problems</p></div>","0","","","","","","","","","","","","","","","","","","","","","","","","","",""
"","","","","","single-stim-button","322","2365560","0.0-3.0-46.0-0.0","5d305152b2cfe00019231a2a","F1","batch6","tol_tohand","10612","","","","","","","","","tol_peg_1","10612","10612","0","[[1,0,0],[3,0],[0]]","1","[[0,0,0],[2,3],[1]]","12","0","","","","","","4","","","","",""
"","","","","","single-stim-button","323","2366252","0.0-3.0-46.0-1.0","5d305152b2cfe00019231a2a","F1","batch6","tol_toboard","692","","","","","","","","","tol_peg_2","692","692","0","[[1,0,0],[3,2],[0]]","1","[[0,0,0],[2,3],[1]]","12","0","","","","","","4","","","","",""
"","","","","","single-stim-button","324","2367846","0.0-3.0-46.1-0.1","5d305152b2cfe00019231a2a","F1","batch6","tol_tohand","1594","","","","","","","","","tol_peg_1","1594","1594","0","[[0,0,0],[3,2],[0]]","2","[[0,0,0],[2,3],[1]]","12","0","","","","","","4","","","","",""
"","","","","","single-stim-button","325","2369320","0.0-3.0-46.1-1.1","5d305152b2cfe00019231a2a","F1","batch6","tol_toboard","1474","","","","","","","","","tol_peg_3","1474","1474","0","[[0,0,0],[3,2],[1]]","2","[[0,0,0],[2,3],[1]]","12","0","","","","","","4","","","","",""
"","","","","","single-stim-button","326","2391426","0.0-3.0-46.2-0.2","5d305152b2cfe00019231a2a","F1","batch6","tol_tohand","22106","","","","","","","","","tol_peg_3","22106","22106","0","[[0,0,0],[3,2],[0]]","3","[[0,0,0],[2,3],[1]]","12","0","","","","","","4","","","","",""
"","","","","","single-stim-button","327","2392352","0.0-3.0-46.2-1.2","5d305152b2cfe00019231a2a","F1","batch6","tol_toboard","925","","","","","","","","","tol_peg_1","925","925","0","[[1,0,0],[3,2],[0]]","3","[[0,0,0],[2,3],[1]]","12","0","","","","","","4","","","","",""
"","","","","","single-stim-button","328","2393980","0.0-3.0-46.3-0.3","5d305152b2cfe00019231a2a","F1","batch6","tol_tohand","1628","","","","","","","","","tol_peg_2","1628","1628","0","[[1,0,0],[3,0],[0]]","4","[[0,0,0],[2,3],[1]]","12","0","","","","","","4","","","","",""
"","","","","","single-stim-button","329","2395804","0.0-3.0-46.3-1.3","5d305152b2cfe00019231a2a","F1","batch6","tol_toboard","1824","","","","","","","","","tol_peg_3","1824","1824","0","[[1,0,0],[3,0],[2]]","4","[[0,0,0],[2,3],[1]]","12","0","","","","","","4","","","","",""
"","","","","","single-stim-button","330","2398630","0.0-3.0-46.4-0.4","5d305152b2cfe00019231a2a","F1","batch6","tol_tohand","2826","","","","","","","","","tol_peg_2","2826","2826","0","[[1,0,0],[0,0],[2]]","5","[[0,0,0],[2,3],[1]]","12","0","","","","","","4","","","","",""
"","","","","","single-stim-button","331","2399532","0.0-3.0-46.4-1.4","5d305152b2cfe00019231a2a","F1","batch6","tol_toboard","902","","","","","","","","","tol_peg_1","902","902","0","[[1,3,0],[0,0],[2]]","5","[[0,0,0],[2,3],[1]]","12","0","","","","","","4","","","","",""
"","","","","","single-stim-button","332","2400260","0.0-3.0-46.5-0.5","5d305152b2cfe00019231a2a","F1","batch6","tol_tohand","728","","","","","","","","","tol_peg_3","728","728","0","[[1,3,0],[0,0],[0]]","6","[[0,0,0],[2,3],[1]]","12","0","","","","","","4","","","","",""
"","","","","","single-stim-button","333","2400984","0.0-3.0-46.5-1.5","5d305152b2cfe00019231a2a","F1","batch6","tol_toboard","724","","","","","","","","","tol_peg_2","724","724","0","[[1,3,0],[2,0],[0]]","6","[[0,0,0],[2,3],[1]]","12","0","","","","","","4","","","","",""
"","","","","","single-stim-button","334","2402052","0.0-3.0-46.6-0.6","5d305152b2cfe00019231a2a","F1","batch6","tol_tohand","1067","","","","","","","","","tol_peg_1","1067","1067","0","[[1,0,0],[2,0],[0]]","7","[[0,0,0],[2,3],[1]]","12","0","","","","","","4","","","","",""
"","","","","","single-stim-button","335","2402934","0.0-3.0-46.6-1.6","5d305152b2cfe00019231a2a","F1","batch6","tol_toboard","882","","","","","","","","","tol_peg_2","882","882","0","[[1,0,0],[2,3],[0]]","7","[[0,0,0],[2,3],[1]]","12","0","","","","","","4","","","","",""
"","","","","","single-stim-button","336","2403868","0.0-3.0-46.7-0.7","5d305152b2cfe00019231a2a","F1","batch6","tol_tohand","934","","","","","","","","","tol_peg_1","934","934","0","[[0,0,0],[2,3],[0]]","8","[[0,0,0],[2,3],[1]]","12","0","","","","","","4","","","","",""
"","","","","","single-stim-button","337","2404682","0.0-3.0-46.7-1.7","5d305152b2cfe00019231a2a","F1","batch6","tol_toboard","814","","","","","","","","","tol_peg_3","814","814","0","[[0,0,0],[2,3],[1]]","8","[[0,0,0],[2,3],[1]]","12","0","","","","","","4","","","","",""
"","","","","","poldrack-single-stim","338","2405688","0.0-3.0-47.0","5d305152b2cfe00019231a2a","F1","batch6","tol_feedback","-1","","","","","true","","","","","1000","1000","500","","","","","","-1","none","true","10612","41495","","","","","",""
"","","","","","html-button-response","339","2411748","0.0-3.0-48.0","5d305152b2cfe00019231a2a","F1","batch6","attention_check","6059.100000143051","<p class = block-text>How many balls are in your board<br></p>","1","","","true","","","","","","","","","","","","","","","","","","","","","","",""
"","","","","","html-button-response","340","2414924","0.0-3.0-49.0","5d305152b2cfe00019231a2a","F1","batch6","tol_trial_num","3175.2000000476837","<div class = centerbox><p class = center-block-text>problem <strong>14</strong> out of 25 problems</p></div>","0","","","","","","","","","","","","","","","","","","","","","","","","","",""
"","","","","","single-stim-button","341","2441864","0.0-3.0-50.0-0.0","5d305152b2cfe00019231a2a","F1","batch6","tol_tohand","26939","","","","","","","","","tol_peg_1","26939","26939","0","[[2,0,0],[3,0],[0]]","1","[[1,2,0],[3,0],[0]]","13","0","","","","","","4","","","","",""
"","","","","","single-stim-button","342","2442536","0.0-3.0-50.0-1.0","5d305152b2cfe00019231a2a","F1","batch6","tol_toboard","671","","","","","","","","","tol_peg_2","671","671","0","[[2,0,0],[3,1],[0]]","1","[[1,2,0],[3,0],[0]]","13","0","","","","","","4","","","","",""
"","","","","","single-stim-button","343","2443611","0.0-3.0-50.1-0.1","5d305152b2cfe00019231a2a","F1","batch6","tol_tohand","1075","","","","","","","","","tol_peg_1","1075","1075","0","[[0,0,0],[3,1],[0]]","2","[[1,2,0],[3,0],[0]]","13","0","","","","","","4","","","","",""
"","","","","","single-stim-button","344","2444295","0.0-3.0-50.1-1.1","5d305152b2cfe00019231a2a","F1","batch6","tol_toboard","684","","","","","","","","","tol_peg_3","684","684","0","[[0,0,0],[3,1],[2]]","2","[[1,2,0],[3,0],[0]]","13","0","","","","","","4","","","","",""
"","","","","","single-stim-button","345","2445579","0.0-3.0-50.2-0.2","5d305152b2cfe00019231a2a","F1","batch6","tol_tohand","1283","","","","","","","","","tol_peg_2","1283","1283","0","[[0,0,0],[3,0],[2]]","3","[[1,2,0],[3,0],[0]]","13","0","","","","","","4","","","","",""
"","","","","","single-stim-button","346","2446593","0.0-3.0-50.2-1.2","5d305152b2cfe00019231a2a","F1","batch6","tol_toboard","1013","","","","","","","","","tol_peg_1","1013","1013","0","[[1,0,0],[3,0],[2]]","3","[[1,2,0],[3,0],[0]]","13","0","","","","","","4","","","","",""
"","","","","","single-stim-button","347","2447593","0.0-3.0-50.3-0.3","5d305152b2cfe00019231a2a","F1","batch6","tol_tohand","999","","","","","","","","","tol_peg_3","999","999","0","[[1,0,0],[3,0],[0]]","4","[[1,2,0],[3,0],[0]]","13","0","","","","","","4","","","","",""
"","","","","","single-stim-button","348","2448567","0.0-3.0-50.3-1.3","5d305152b2cfe00019231a2a","F1","batch6","tol_toboard","973","","","","","","","","","tol_peg_1","973","973","0","[[1,2,0],[3,0],[0]]","4","[[1,2,0],[3,0],[0]]","13","0","","","","","","4","","","","",""
"","","","","","poldrack-single-stim","349","2449580","0.0-3.0-51.0","5d305152b2cfe00019231a2a","F1","batch6","tol_feedback","-1","","","","","true","","","","","1000","1000","500","","","","","","-1","none","true","26939","30296","","","","","",""
"","","","","","html-button-response","350","2451155","0.0-3.0-52.0","5d305152b2cfe00019231a2a","F1","batch6","tol_trial_num","1574.2999999523163","<div class = centerbox><p class = center-block-text>problem <strong>15</strong> out of 25 problems</p></div>","0","","","","","","","","","","","","","","","","","","","","","","","","","",""
"","","","","","single-stim-button","351","2462595","0.0-3.0-53.0-0.0","5d305152b2cfe00019231a2a","F1","batch6","tol_tohand","11439","","","","","","","","","tol_peg_1","11439","11439","0","[[1,0,0],[3,0],[0]]","1","[[2,0,0],[3,0],[1]]","14","0","","","","","","3","","","","",""
"","","","","","single-stim-button","352","2463315","0.0-3.0-53.0-1.0","5d305152b2cfe00019231a2a","F1","batch6","tol_toboard","719","","","","","","","","","tol_peg_2","719","719","0","[[1,0,0],[3,2],[0]]","1","[[2,0,0],[3,0],[1]]","14","0","","","","","","3","","","","",""
"","","","","","single-stim-button","353","2464631","0.0-3.0-53.1-0.1","5d305152b2cfe00019231a2a","F1","batch6","tol_tohand","1315","","","","","","","","","tol_peg_1","1315","1315","0","[[0,0,0],[3,2],[0]]","2","[[2,0,0],[3,0],[1]]","14","0","","","","","","3","","","","",""
