"success","timeout","failed_images","failed_audio","failed_video","trial_type","trial_index","time_elapsed","internal_node_id","subject_id","study_id","session_id","view_history","rt","stimulus","response","task","correct","answer","item","fiar_detect_rt","fiar_detect_correct","total_correct_fiar_detect","post_trial_gap","choices","spm_correct","spm_rt","mouse_click","stim_duration","block_duration","timing_post_trial","current_position","tol_num_moves_made","tol_target","tol_problem_id","tol_rt","key_press","possible_responses","tol_correct","preplanning","tol_rt_per_trial","tol_min_moves"
"true","false","[]","[]","[]","preload","0","1627","0.0-0.0","5d3db07f00fd1d001cfbaddd","F1","batch6","","","","","","","","","","","","","","","","","","","","","","","","","","","","","",""
"true","","","","","fullscreen","1","31535","0.0-1.0-0.0","5d3db07f00fd1d001cfbaddd","F1","batch6","","","","","","","","","","","","","","","","","","","","","","","","","","","","","",""
"true","","","","","fullscreen","2","33303","0.0-2.0-0.0","5d3db07f00fd1d001cfbaddd","F1","batch6","","","","","","","","","","","","","","","","","","","","","","","","","","","","","",""
"","","","","","instructions","3","34992","0.0-2.0-1.0-0.0","5d3db07f00fd1d001cfbaddd","F1","batch6","[{""page_index"":0,""viewing_time"":1108.199999988079},{""page_index"":1,""viewing_time"":580.4000000059605}]","1688.699999988079","","","","","","","","","","","","","","","","","","","","","","","","","","","",""
"","","","","","html-button-response","4","35689","0.0-2.0-1.0-1.0-0.0","5d3db07f00fd1d001cfbaddd","F1","batch6","","696.5999999940395","<p class=block-text> Let's answer a few questions <br>","0","pattern_enter_quiz","","","","","","","","","","","","","","","","","","","","","","","","",""
"","","","","","html-button-response","5","37952","0.0-2.0-1.0-1.0-1.0","5d3db07f00fd1d001cfbaddd","F1","batch6","","2261.899999976158","<p class = block-text>True or False: You will have as much time as you want to make each choice. <br></p>","0","pattern_quiz","false","","","","","","","","","","","","","","","","","","","","","","","",""
"","","","","","html-button-response","6","38924","0.0-2.0-1.0-1.0-2.0","5d3db07f00fd1d001cfbaddd","F1","batch6","","971.6000000238419","<p class = block-text>Incorrect. Remember, You should make your choice as fast as you can.</p>","0","pattern_quiz_feedback","","","","","","","","","","","","","","","","","","","","","","","","",""
"","","","","","html-button-response","7","40248","0.0-2.0-1.0-1.0-3.0","5d3db07f00fd1d001cfbaddd","F1","batch6","","1323.0999999940395","<p class = block-text>True or False: You will look for 4 pieces in black or white color connected in a row either horizontally, vertically or diagonally. <br></p>","0","pattern_quiz","true","","","","","","","","","","","","","","","","","","","","","","","",""
"","","","","","html-button-response","8","40690","0.0-2.0-1.0-1.0-4.0","5d3db07f00fd1d001cfbaddd","F1","batch6","","441.5","<p class = block-text>Correct! </p>","0","pattern_quiz_feedback","","","","","","","","","","","","","","","","","","","","","","","","",""
"","","","","","html-button-response","9","42099","0.0-2.0-1.0-2.0-0.0","5d3db07f00fd1d001cfbaddd","F1","batch6","","1408.300000011921","<p class = block-text>You made too many incorrect choices.</p><p class = block-text>You will now repeat the instruction and quiz</p>","0","","","","","","","","","","","","","","","","","","","","","","","","","",""
"","","","","","instructions","10","43389","0.0-2.0-1.1-0.1","5d3db07f00fd1d001cfbaddd","F1","batch6","[{""page_index"":0,""viewing_time"":901.3000000119209},{""page_index"":1,""viewing_time"":388.19999998807907}]","1289.5999999940395","","","","","","","","","","","","","","","","","","","","","","","","","","","",""
"","","","","","html-button-response","11","43930","0.0-2.0-1.1-1.1-0.1","5d3db07f00fd1d001cfbaddd","F1","batch6","","540.4000000059605","<p class=block-text> Let's answer a few questions <br>","0","pattern_enter_quiz","","","","","","","","","","","","","","","","","","","","","","","","",""
"","","","","","html-button-response","12","44846","0.0-2.0-1.1-1.1-1.1","5d3db07f00fd1d001cfbaddd","F1","batch6","","915.6999999880791","<p class = block-text>True or False: You will have as much time as you want to make each choice. <br></p>","1","pattern_quiz","true","","","","","","","","","","","","","","","","","","","","","","","",""
"","","","","","html-button-response","13","45273","0.0-2.0-1.1-1.1-2.1","5d3db07f00fd1d001cfbaddd","F1","batch6","","426.10000002384186","<p class = block-text>Correct! You should make your choice <strong> as fast as you can</strong>.</p>","0","pattern_quiz_feedback","","","","","","","","","","","","","","","","","","","","","","","","",""
"","","","","","html-button-response","14","47040","0.0-2.0-1.1-1.1-3.1","5d3db07f00fd1d001cfbaddd","F1","batch6","","1766.2999999821186","<p class = block-text>True or False: You will look for 4 pieces in black or white color connected in a row either horizontally, vertically or diagonally. <br></p>","0","pattern_quiz","true","","","","","","","","","","","","","","","","","","","","","","","",""
"","","","","","html-button-response","15","47673","0.0-2.0-1.1-1.1-4.1","5d3db07f00fd1d001cfbaddd","F1","batch6","","633.0999999940395","<p class = block-text>Correct! </p>","0","pattern_quiz_feedback","","","","","","","","","","","","","","","","","","","","","","","","",""
"","","","","","html-button-response","16","48427","0.0-2.0-2.0","5d3db07f00fd1d001cfbaddd","F1","batch6","","753.1000000238419","<p class=block-text> Now that you've understood the game, let's do a few practice trials before we start!<br> <br>","0","pattern_enter_practice","","","","","","","","","","","","","","","","","","","","","","","","",""
"","","","","","image-keyboard-response","17","50966","0.0-2.0-3.0-0.0","5d3db07f00fd1d001cfbaddd","F1","batch6","","2536.2000000178814","stim/prac_yes_16_ver_w1.png","f","pattern_practice","true","f","","","","","","","","","","","","","","","","","","","","","","",""
"","","","","","html-keyboard-response","18","51969","0.0-2.0-3.0-1.0","5d3db07f00fd1d001cfbaddd","F1","batch6","","null","<p style=""font-size:30px;color:green;"">Correct!</p>","null","pattern_feedback","","","","","","","","","","","","","","","","","","","","","","","","",""
"","","","","","image-keyboard-response","19","53080","0.0-2.0-3.0-0.1","5d3db07f00fd1d001cfbaddd","F1","batch6","","1109.300000011921","stim/prac_no_16_1.png","j","pattern_practice","true","j","","","","","","","","","","","","","","","","","","","","","","",""
"","","","","","html-keyboard-response","20","54083","0.0-2.0-3.0-1.1","5d3db07f00fd1d001cfbaddd","F1","batch6","","null","<p style=""font-size:30px;color:green;"">Correct!</p>","null","pattern_feedback","","","","","","","","","","","","","","","","","","","","","","","","",""
"","","","","","image-keyboard-response","21","54671","0.0-2.0-3.0-0.2","5d3db07f00fd1d001cfbaddd","F1","batch6","","587.5999999940395","stim/prac_no_18_1.png","j","pattern_practice","true","j","","","","","","","","","","","","","","","","","","","","","","",""
"","","","","","html-keyboard-response","22","55673","0.0-2.0-3.0-1.2","5d3db07f00fd1d001cfbaddd","F1","batch6","","null","<p style=""font-size:30px;color:green;"">Correct!</p>","null","pattern_feedback","","","","","","","","","","","","","","","","","","","","","","","","",""
"","","","","","image-keyboard-response","23","56752","0.0-2.0-3.0-0.3","5d3db07f00fd1d001cfbaddd","F1","batch6","","1078.5999999940395","stim/prac_yes_20_dia_b1.png","f","pattern_practice","true","f","","","","","","","","","","","","","","","","","","","","","","",""
"","","","","","html-keyboard-response","24","57755","0.0-2.0-3.0-1.3","5d3db07f00fd1d001cfbaddd","F1","batch6","","null","<p style=""font-size:30px;color:green;"">Correct!</p>","null","pattern_feedback","","","","","","","","","","","","","","","","","","","","","","","","",""
"","","","","","image-keyboard-response","25","58399","0.0-2.0-3.0-0.4","5d3db07f00fd1d001cfbaddd","F1","batch6","","643.5","stim/prac_yes_18_hor_w1.png","f","pattern_practice","true","f","","","","","","","","","","","","","","","","","","","","","","",""
"","","","","","html-keyboard-response","26","59401","0.0-2.0-3.0-1.4","5d3db07f00fd1d001cfbaddd","F1","batch6","","null","<p style=""font-size:30px;color:green;"">Correct!</p>","null","pattern_feedback","","","","","","","","","","","","","","","","","","","","","","","","",""
"","","","","","html-button-response","27","61421","0.0-2.0-4.0","5d3db07f00fd1d001cfbaddd","F1","batch6","","2019.699999988079","<p class=block-text> Good job! You are done with practice trials!<br>
        You responded correctly on 100% of the trials.<br>
        Press the button below to start official trials. Now you won't see any feedback about your response</p>","0","pattern_enter_official_trials","","","","","","","","","","","","","","","","","","","","","","","","",""
"","","","","","html-keyboard-response","28","62223","0.0-2.0-5.0-0.0","5d3db07f00fd1d001cfbaddd","F1","batch6","","null","<p class=block-text>Trial 1 out of 78</p>","null","pattern_show_trial_num","","","","","","","","","","","","","","","","","","","","","","","","",""
"","","","","","image-keyboard-response","29","63836","0.0-2.0-5.0-1.0","5d3db07f00fd1d001cfbaddd","F1","batch6","","1612","stim/yes_70_ver_b1.png","f","pattern_response","true","f","pattern_80","1612","true","1","","","","","","","","","","","","","","","","","","",""
"","","","","","html-keyboard-response","30","65138","0.0-2.0-5.0-0.1","5d3db07f00fd1d001cfbaddd","F1","batch6","","null","<p class=block-text>Trial 2 out of 78</p>","null","pattern_show_trial_num","","","","","","","","","","","","","","","","","","","","","","","","",""
"","","","","","image-keyboard-response","31","65705","0.0-2.0-5.0-1.1","5d3db07f00fd1d001cfbaddd","F1","batch6","","567","stim/yes_39_hor_w1_w.png","f","pattern_response","true","f","pattern_62","567","true","2","","","","","","","","","","","","","","","","","","",""
"","","","","","html-keyboard-response","32","67007","0.0-2.0-5.0-0.2","5d3db07f00fd1d001cfbaddd","F1","batch6","","null","<p class=block-text>Trial 3 out of 78</p>","null","pattern_show_trial_num","","","","","","","","","","","","","","","","","","","","","","","","",""
"","","","","","image-keyboard-response","33","68162","0.0-2.0-5.0-1.2","5d3db07f00fd1d001cfbaddd","F1","batch6","","1153.4000000059605","stim/no_28_2.png","j","pattern_response","true","j","pattern_11","1153.4000000059605","true","3","","","","","","","","","","","","","","","","","","",""
"","","","","","html-keyboard-response","34","69463","0.0-2.0-5.0-0.3","5d3db07f00fd1d001cfbaddd","F1","batch6","","null","<p class=block-text>Trial 4 out of 78</p>","null","pattern_show_trial_num","","","","","","","","","","","","","","","","","","","","","","","","",""
"","","","","","image-keyboard-response","35","70519","0.0-2.0-5.0-1.3","5d3db07f00fd1d001cfbaddd","F1","batch6","","1054.5999999940395","stim/yes_30_ver_b1_b.png","f","pattern_response","true","f","pattern_54","1054.5999999940395","true","4","","","","","","","","","","","","","","","","","","",""
"","","","","","html-keyboard-response","36","71820","0.0-2.0-5.0-0.4","5d3db07f00fd1d001cfbaddd","F1","batch6","","null","<p class=block-text>Trial 5 out of 78</p>","null","pattern_show_trial_num","","","","","","","","","","","","","","","","","","","","","","","","",""
"","","","","","image-keyboard-response","37","73755","0.0-2.0-5.0-1.4","5d3db07f00fd1d001cfbaddd","F1","batch6","","1933.8999999761581","stim/no_39_1_w.png","j","pattern_response","true","j","pattern_21","1933.8999999761581","true","5","","","","","","","","","","","","","","","","","","",""
"","","","","","html-keyboard-response","38","75057","0.0-2.0-5.0-0.5","5d3db07f00fd1d001cfbaddd","F1","batch6","","null","<p class=block-text>Trial 6 out of 78</p>","null","pattern_show_trial_num","","","","","","","","","","","","","","","","","","","","","","","","",""
"","","","","","image-keyboard-response","39","75705","0.0-2.0-5.0-1.5","5d3db07f00fd1d001cfbaddd","F1","batch6","","647.3000000119209","stim/no_12_1.png","j","pattern_response","true","j","pattern_01","647.3000000119209","true","6","","","","","","","","","","","","","","","","","","",""
"","","","","","html-keyboard-response","40","77006","0.0-2.0-5.0-0.6","5d3db07f00fd1d001cfbaddd","F1","batch6","","null","<p class=block-text>Trial 7 out of 78</p>","null","pattern_show_trial_num","","","","","","","","","","","","","","","","","","","","","","","","",""
"","","","","","image-keyboard-response","41","77753","0.0-2.0-5.0-1.6","5d3db07f00fd1d001cfbaddd","F1","batch6","","746.2000000178814","stim/yes_15_dia_b1u_b.png","f","pattern_response","true","f","pattern_44","746.2000000178814","true","7","","","","","","","","","","","","","","","","","","",""
"","","","","","html-keyboard-response","42","79054","0.0-2.0-5.0-0.7","5d3db07f00fd1d001cfbaddd","F1","batch6","","null","<p class=block-text>Trial 8 out of 78</p>","null","pattern_show_trial_num","","","","","","","","","","","","","","","","","","","","","","","","",""
"","","","","","image-keyboard-response","43","81015","0.0-2.0-5.0-1.7","5d3db07f00fd1d001cfbaddd","F1","batch6","","1960.2000000178814","stim/yes_42_dia_w1_w.png","j","pattern_response","false","f","pattern_64","1960.2000000178814","false","7","","","","","","","","","","","","","","","","","","",""
"","","","","","html-keyboard-response","44","82317","0.0-2.0-5.0-0.8","5d3db07f00fd1d001cfbaddd","F1","batch6","","null","<p class=block-text>Trial 9 out of 78</p>","null","pattern_show_trial_num","","","","","","","","","","","","","","","","","","","","","","","","",""
"","","","","","image-keyboard-response","45","84117","0.0-2.0-5.0-1.8","5d3db07f00fd1d001cfbaddd","F1","batch6","","1798.2999999821186","stim/no_49_2_b.png","j","pattern_response","true","j","pattern_29","1798.2999999821186","true","8","","","","","","","","","","","","","","","","","","",""
"","","","","","html-keyboard-response","46","85418","0.0-2.0-5.0-0.9","5d3db07f00fd1d001cfbaddd","F1","batch6","","null","<p class=block-text>Trial 10 out of 78</p>","null","pattern_show_trial_num","","","","","","","","","","","","","","","","","","","","","","","","",""
"","","","","","image-keyboard-response","47","88392","0.0-2.0-5.0-1.9","5d3db07f00fd1d001cfbaddd","F1","batch6","","2973.800000011921","stim/no_51_1.png","j","pattern_response","true","j","pattern_31","2973.800000011921","true","9","","","","","","","","","","","","","","","","","","",""
"","","","","","html-keyboard-response","48","89694","0.0-2.0-5.0-0.10","5d3db07f00fd1d001cfbaddd","F1","batch6","","null","<p class=block-text>Trial 11 out of 78</p>","null","pattern_show_trial_num","","","","","","","","","","","","","","","","","","","","","","","","",""
"","","","","","image-keyboard-response","49","91294","0.0-2.0-5.0-1.10","5d3db07f00fd1d001cfbaddd","F1","batch6","","1598.5999999940395","stim/no_67_1.png","j","pattern_response","true","j","pattern_39","1598.5999999940395","true","10","","","","","","","","","","","","","","","","","","",""
"","","","","","html-keyboard-response","50","92596","0.0-2.0-5.0-0.11","5d3db07f00fd1d001cfbaddd","F1","batch6","","null","<p class=block-text>Trial 12 out of 78</p>","null","pattern_show_trial_num","","","","","","","","","","","","","","","","","","","","","","","","",""
"","","","","","image-keyboard-response","51","95079","0.0-2.0-5.0-1.11","5d3db07f00fd1d001cfbaddd","F1","batch6","","2482.5","stim/no_45_1_w.png","j","pattern_response","true","j","pattern_25","2482.5","true","11","","","","","","","","","","","","","","","","","","",""
"","","","","","html-keyboard-response","52","96380","0.0-2.0-5.0-0.12","5d3db07f00fd1d001cfbaddd","F1","batch6","","null","<p class=block-text>Trial 13 out of 78</p>","null","pattern_show_trial_num","","","","","","","","","","","","","","","","","","","","","","","","",""
"","","","","","image-keyboard-response","53","97980","0.0-2.0-5.0-1.12","5d3db07f00fd1d001cfbaddd","F1","batch6","","1598.7000000178814","stim/no_37_2_w.png","j","pattern_response","true","j","pattern_19","1598.7000000178814","true","12","","","","","","","","","","","","","","","","","","",""
"","","","","","html-keyboard-response","54","99282","0.0-2.0-5.0-0.13","5d3db07f00fd1d001cfbaddd","F1","batch6","","null","<p class=block-text>Trial 14 out of 78</p>","null","pattern_show_trial_num","","","","","","","","","","","","","","","","","","","","","","","","",""
"","","","","","image-keyboard-response","55","101467","0.0-2.0-5.0-1.13","5d3db07f00fd1d001cfbaddd","F1","batch6","","2184.0999999940395","stim/yes_53_ver_b1_b.png","j","pattern_response","false","f","pattern_74","2184.0999999940395","false","12","","","","","","","","","","","","","","","","","","",""
"","","","","","html-keyboard-response","56","102769","0.0-2.0-5.0-0.14","5d3db07f00fd1d001cfbaddd","F1","batch6","","null","<p class=block-text>Trial 15 out of 78</p>","null","pattern_show_trial_num","","","","","","","","","","","","","","","","","","","","","","","","",""
"","","","","","image-keyboard-response","57","103571","0.0-2.0-5.0-1.14","5d3db07f00fd1d001cfbaddd","F1","batch6","","800.5","stim/yes_49_hor_w1_b.png","f","pattern_response","true","f","pattern_70","800.5","true","13","","","","","","","","","","","","","","","","","","",""
"","","","","","html-keyboard-response","58","104873","0.0-2.0-5.0-0.15","5d3db07f00fd1d001cfbaddd","F1","batch6","","null","<p class=block-text>Trial 16 out of 78</p>","null","pattern_show_trial_num","","","","","","","","","","","","","","","","","","","","","","","","",""
"","","","","","image-keyboard-response","59","105490","0.0-2.0-5.0-1.15","5d3db07f00fd1d001cfbaddd","F1","batch6","","615.6999999880791","stim/no_22_1_b.png","j","pattern_response","true","j","pattern_07","615.6999999880791","true","14","","","","","","","","","","","","","","","","","","",""
"","","","","","html-keyboard-response","60","106791","0.0-2.0-5.0-0.16","5d3db07f00fd1d001cfbaddd","F1","batch6","","null","<p class=block-text>Trial 17 out of 78</p>","null","pattern_show_trial_num","","","","","","","","","","","","","","","","","","","","","","","","",""
"","","","","","image-keyboard-response","61","107397","0.0-2.0-5.0-1.16","5d3db07f00fd1d001cfbaddd","F1","batch6","","604.7000000178814","stim/yes_37_hor_w1_w.png","f","pattern_response","true","f","pattern_60","604.7000000178814","true","15","","","","","","","","","","","","","","","","","","",""
"","","","","","html-keyboard-response","62","108699","0.0-2.0-5.0-0.17","5d3db07f00fd1d001cfbaddd","F1","batch6","","null","<p class=block-text>Trial 18 out of 78</p>","null","pattern_show_trial_num","","","","","","","","","","","","","","","","","","","","","","","","",""
"","","","","","image-keyboard-response","63","109170","0.0-2.0-5.0-1.17","5d3db07f00fd1d001cfbaddd","F1","batch6","","470.40000000596046","stim/yes_12_hor_w1_w.png","f","pattern_response","true","f","pattern_42","470.40000000596046","true","16","","","","","","","","","","","","","","","","","","",""
"","","","","","html-keyboard-response","64","110472","0.0-2.0-5.0-0.18","5d3db07f00fd1d001cfbaddd","F1","batch6","","null","<p class=block-text>Trial 19 out of 78</p>","null","pattern_show_trial_num","","","","","","","","","","","","","","","","","","","","","","","","",""
"","","","","","image-keyboard-response","65","112800","0.0-2.0-5.0-1.18","5d3db07f00fd1d001cfbaddd","F1","batch6","","2327.800000011921","stim/yes_63_dia_b1.png","f","pattern_response","true","f","pattern_78","2327.800000011921","true","17","","","","","","","","","","","","","","","","","","",""
"","","","","","html-keyboard-response","66","114102","0.0-2.0-5.0-0.19","5d3db07f00fd1d001cfbaddd","F1","batch6","","null","<p class=block-text>Trial 20 out of 78</p>","null","pattern_show_trial_num","","","","","","","","","","","","","","","","","","","","","","","","",""
"","","","","","image-keyboard-response","67","114685","0.0-2.0-5.0-1.19","5d3db07f00fd1d001cfbaddd","F1","batch6","","582","stim/no_25_1_b.png","j","pattern_response","true","j","pattern_09","582","true","18","","","","","","","","","","","","","","","","","","",""
"","","","","","html-keyboard-response","68","115989","0.0-2.0-5.0-0.20","5d3db07f00fd1d001cfbaddd","F1","batch6","","null","<p class=block-text>Trial 21 out of 78</p>","null","pattern_show_trial_num","","","","","","","","","","","","","","","","","","","","","","","","",""
"","","","","","image-keyboard-response","69","117228","0.0-2.0-5.0-1.20","5d3db07f00fd1d001cfbaddd","F1","batch6","","1237.699999988079","stim/no_33_1_b.png","j","pattern_response","true","j","pattern_15","1237.699999988079","true","19","","","","","","","","","","","","","","","","","","",""
"","","","","","html-keyboard-response","70","118529","0.0-2.0-5.0-0.21","5d3db07f00fd1d001cfbaddd","F1","batch6","","null","<p class=block-text>Trial 22 out of 78</p>","null","pattern_show_trial_num","","","","","","","","","","","","","","","","","","","","","","","","",""
"","","","","","image-keyboard-response","71","120202","0.0-2.0-5.0-1.21","5d3db07f00fd1d001cfbaddd","F1","batch6","","1671.5","stim/no_36_1_b.png","j","pattern_response","true","j","pattern_17","1671.5","true","20","","","","","","","","","","","","","","","","","","",""
"","","","","","html-keyboard-response","72","121504","0.0-2.0-5.0-0.22","5d3db07f00fd1d001cfbaddd","F1","batch6","","null","<p class=block-text>Trial 23 out of 78</p>","null","pattern_show_trial_num","","","","","","","","","","","","","","","","","","","","","","","","",""
"","","","","","image-keyboard-response","73","123103","0.0-2.0-5.0-1.22","5d3db07f00fd1d001cfbaddd","F1","batch6","","1597.699999988079","stim/yes_46_ver_b1_b.png","f","pattern_response","true","f","pattern_68","1597.699999988079","true","21","","","","","","","","","","","","","","","","","","",""
"","","","","","html-keyboard-response","74","124404","0.0-2.0-5.0-0.23","5d3db07f00fd1d001cfbaddd","F1","batch6","","null","<p class=block-text>Trial 24 out of 78</p>","null","pattern_show_trial_num","","","","","","","","","","","","","","","","","","","","","","","","",""
"","","","","","image-keyboard-response","75","126336","0.0-2.0-5.0-1.23","5d3db07f00fd1d001cfbaddd","F1","batch6","","1931","stim/no_53_1_b.png","j","pattern_response","true","j","pattern_33","1931","true","22","","","","","","","","","","","","","","","","","","",""
"","","","","","html-keyboard-response","76","127638","0.0-2.0-5.0-0.24","5d3db07f00fd1d001cfbaddd","F1","batch6","","null","<p class=block-text>Trial 25 out of 78</p>","null","pattern_show_trial_num","","","","","","","","","","","","","","","","","","","","","","","","",""
"","","","","","image-keyboard-response","77","128761","0.0-2.0-5.0-1.24","5d3db07f00fd1d001cfbaddd","F1","batch6","","1121.5999999940395","stim/yes_33_dia_w1_w.png","f","pattern_response","true","f","pattern_56","1121.5999999940395","true","23","","","","","","","","","","","","","","","","","","",""
"","","","","","html-keyboard-response","78","130063","0.0-2.0-5.0-0.25","5d3db07f00fd1d001cfbaddd","F1","batch6","","null","<p class=block-text>Trial 26 out of 78</p>","null","pattern_show_trial_num","","","","","","","","","","","","","","","","","","","","","","","","",""
"","","","","","image-keyboard-response","79","131140","0.0-2.0-5.0-1.25","5d3db07f00fd1d001cfbaddd","F1","batch6","","1075.5","stim/yes_51_dia_b1.png","f","pattern_response","true","f","pattern_72","1075.5","true","24","","","","","","","","","","","","","","","","","","",""
"","","","","","html-keyboard-response","80","132443","0.0-2.0-5.0-0.26","5d3db07f00fd1d001cfbaddd","F1","batch6","","null","<p class=block-text>Trial 27 out of 78</p>","null","pattern_show_trial_num","","","","","","","","","","","","","","","","","","","","","","","","",""
"","","","","","image-keyboard-response","81","135692","0.0-2.0-5.0-1.26","5d3db07f00fd1d001cfbaddd","F1","batch6","","3248.4000000059605","stim/yes_58_dia_w1_w.png","j","pattern_response","false","f","pattern_76","3248.4000000059605","false","24","","","","","","","","","","","","","","","","","","",""
"","","","","","html-keyboard-response","82","136994","0.0-2.0-5.0-0.27","5d3db07f00fd1d001cfbaddd","F1","batch6","","null","<p class=block-text>Trial 28 out of 78</p>","null","pattern_show_trial_num","","","","","","","","","","","","","","","","","","","","","","","","",""
"","","","","","image-keyboard-response","83","139183","0.0-2.0-5.0-1.27","5d3db07f00fd1d001cfbaddd","F1","batch6","","2187.5","stim/no_43_2_b.png","j","pattern_response","true","j","pattern_23","2187.5","true","25","","","","","","","","","","","","","","","","","","",""
"","","","","","html-keyboard-response","84","140486","0.0-2.0-5.0-0.28","5d3db07f00fd1d001cfbaddd","F1","batch6","","null","<p class=block-text>Trial 29 out of 78</p>","null","pattern_show_trial_num","","","","","","","","","","","","","","","","","","","","","","","","",""
"","","","","","image-keyboard-response","85","141183","0.0-2.0-5.0-1.28","5d3db07f00fd1d001cfbaddd","F1","batch6","","695.8000000119209","stim/yes_44_ver_w1_w.png","f","pattern_response","true","f","pattern_66","695.8000000119209","true","26","","","","","","","","","","","","","","","","","","",""
"","","","","","html-keyboard-response","86","142485","0.0-2.0-5.0-0.29","5d3db07f00fd1d001cfbaddd","F1","batch6","","null","<p class=block-text>Trial 30 out of 78</p>","null","pattern_show_trial_num","","","","","","","","","","","","","","","","","","","","","","","","",""
"","","","","","image-keyboard-response","87","143550","0.0-2.0-5.0-1.29","5d3db07f00fd1d001cfbaddd","F1","batch6","","1063.5999999940395","stim/no_47_1_b.png","j","pattern_response","true","j","pattern_27","1063.5999999940395","true","27","","","","","","","","","","","","","","","","","","",""
"","","","","","html-keyboard-response","88","144851","0.0-2.0-5.0-0.30","5d3db07f00fd1d001cfbaddd","F1","batch6","","null","<p class=block-text>Trial 31 out of 78</p>","null","pattern_show_trial_num","","","","","","","","","","","","","","","","","","","","","","","","",""
"","","","","","image-keyboard-response","89","145696","0.0-2.0-5.0-1.30","5d3db07f00fd1d001cfbaddd","F1","batch6","","843.6999999880791","stim/no_18_1_b.png","j","pattern_response","true","j","pattern_05","843.6999999880791","true","28","","","","","","","","","","","","","","","","","","",""
"","","","","","html-keyboard-response","90","146998","0.0-2.0-5.0-0.31","5d3db07f00fd1d001cfbaddd","F1","batch6","","null","<p class=block-text>Trial 32 out of 78</p>","null","pattern_show_trial_num","","","","","","","","","","","","","","","","","","","","","","","","",""
"","","","","","image-keyboard-response","91","149890","0.0-2.0-5.0-1.31","5d3db07f00fd1d001cfbaddd","F1","batch6","","2891.300000011921","stim/no_58_1_w.png","j","pattern_response","true","j","pattern_35","2891.300000011921","true","29","","","","","","","","","","","","","","","","","","",""
"","","","","","html-keyboard-response","92","151193","0.0-2.0-5.0-0.32","5d3db07f00fd1d001cfbaddd","F1","batch6","","null","<p class=block-text>Trial 33 out of 78</p>","null","pattern_show_trial_num","","","","","","","","","","","","","","","","","","","","","","","","",""
"","","","","","image-keyboard-response","93","151819","0.0-2.0-5.0-1.32","5d3db07f00fd1d001cfbaddd","F1","batch6","","624.9000000059605","stim/yes_36_ver_w1_w.png","f","pattern_response","true","f","pattern_58","624.9000000059605","true","30","","","","","","","","","","","","","","","","","","",""
"","","","","","html-keyboard-response","94","153120","0.0-2.0-5.0-0.33","5d3db07f00fd1d001cfbaddd","F1","batch6","","null","<p class=block-text>Trial 34 out of 78</p>","null","pattern_show_trial_num","","","","","","","","","","","","","","","","","","","","","","","","",""
"","","","","","image-keyboard-response","95","153834","0.0-2.0-5.0-1.33","5d3db07f00fd1d001cfbaddd","F1","batch6","","713","stim/yes_29_hor_b1_b.png","f","pattern_response","true","f","pattern_52","713","true","31","","","","","","","","","","","","","","","","","","",""
"","","","","","html-keyboard-response","96","155137","0.0-2.0-5.0-0.34","5d3db07f00fd1d001cfbaddd","F1","batch6","","null","<p class=block-text>Trial 35 out of 78</p>","null","pattern_show_trial_num","","","","","","","","","","","","","","","","","","","","","","","","",""
"","","","","","image-keyboard-response","97","155671","0.0-2.0-5.0-1.34","5d3db07f00fd1d001cfbaddd","F1","batch6","","533.5","stim/yes_17_ver_b1_b.png","f","pattern_response","true","f","pattern_46","533.5","true","32","","","","","","","","","","","","","","","","","","",""
"","","","","","html-keyboard-response","98","156972","0.0-2.0-5.0-0.35","5d3db07f00fd1d001cfbaddd","F1","batch6","","null","<p class=block-text>Trial 36 out of 78</p>","null","pattern_show_trial_num","","","","","","","","","","","","","","","","","","","","","","","","",""
"","","","","","image-keyboard-response","99","157682","0.0-2.0-5.0-1.35","5d3db07f00fd1d001cfbaddd","F1","batch6","","708.5","stim/yes_26_dia_w2_w.png","j","pattern_response","false","f","pattern_50","708.5","false","32","","","","","","","","","","","","","","","","","","",""
"","","","","","html-keyboard-response","100","158984","0.0-2.0-5.0-0.36","5d3db07f00fd1d001cfbaddd","F1","batch6","","null","<p class=block-text>Trial 37 out of 78</p>","null","pattern_show_trial_num","","","","","","","","","","","","","","","","","","","","","","","","",""
"","","","","","image-keyboard-response","101","159506","0.0-2.0-5.0-1.36","5d3db07f00fd1d001cfbaddd","F1","batch6","","521.5999999940395","stim/no_15_1_w.png","j","pattern_response","true","j","pattern_03","521.5999999940395","true","33","","","","","","","","","","","","","","","","","","",""
"","","","","","html-keyboard-response","102","160809","0.0-2.0-5.0-0.37","5d3db07f00fd1d001cfbaddd","F1","batch6","","null","<p class=block-text>Trial 38 out of 78</p>","null","pattern_show_trial_num","","","","","","","","","","","","","","","","","","","","","","","","",""
"","","","","","image-keyboard-response","103","161626","0.0-2.0-5.0-1.37","5d3db07f00fd1d001cfbaddd","F1","batch6","","816.2000000178814","stim/no_30_1_b.png","j","pattern_response","true","j","pattern_13","816.2000000178814","true","34","","","","","","","","","","","","","","","","","","",""
"","","","","","html-keyboard-response","104","162930","0.0-2.0-5.0-0.38","5d3db07f00fd1d001cfbaddd","F1","batch6","","null","<p class=block-text>Trial 39 out of 78</p>","null","pattern_show_trial_num","","","","","","","","","","","","","","","","","","","","","","","","",""
"","","","","","image-keyboard-response","105","163978","0.0-2.0-5.0-1.38","5d3db07f00fd1d001cfbaddd","F1","batch6","","1047.4000000059605","stim/yes_23_ver_b1.png","f","pattern_response","true","f","pattern_48","1047.4000000059605","true","35","","","","","","","","","","","","","","","","","","",""
"","","","","","image-keyboard-response","106","166450","0.0-2.0-6.0","5d3db07f00fd1d001cfbaddd","F1","batch6","","1970.300000011921","stim/empty_board.png","j","attention_check","true","j","","","","","500","[""f"",""j""]","","","","","","","","","","","","","","","","",""
"","","","","","html-keyboard-response","107","167251","0.0-2.0-7.0-0.0","5d3db07f00fd1d001cfbaddd","F1","batch6","","null","<p class=block-text>Trial 40 out of 78</p>","null","pattern_show_trial_num","","","","","","","","","","","","","","","","","","","","","","","","",""
"","","","","","image-keyboard-response","108","168268","0.0-2.0-7.0-1.0","5d3db07f00fd1d001cfbaddd","F1","batch6","","1015.9000000059605","stim/no_34_1_b.png","j","pattern_response","true","j","pattern_16","1015.9000000059605","true","36","","","","","","","","","","","","","","","","","","",""
"","","","","","html-keyboard-response","109","169570","0.0-2.0-7.0-0.1","5d3db07f00fd1d001cfbaddd","F1","batch6","","null","<p class=block-text>Trial 41 out of 78</p>","null","pattern_show_trial_num","","","","","","","","","","","","","","","","","","","","","","","","",""
"","","","","","image-keyboard-response","110","170638","0.0-2.0-7.0-1.1","5d3db07f00fd1d001cfbaddd","F1","batch6","","1067.2000000178814","stim/yes_35_dia_b1.png","j","pattern_response","false","f","pattern_57","1067.2000000178814","false","36","","","","","","","","","","","","","","","","","","",""
"","","","","","html-keyboard-response","111","171940","0.0-2.0-7.0-0.2","5d3db07f00fd1d001cfbaddd","F1","batch6","","null","<p class=block-text>Trial 42 out of 78</p>","null","pattern_show_trial_num","","","","","","","","","","","","","","","","","","","","","","","","",""
"","","","","","image-keyboard-response","112","174258","0.0-2.0-7.0-1.2","5d3db07f00fd1d001cfbaddd","F1","batch6","","2317","stim/no_55_1_w.png","j","pattern_response","true","j","pattern_34","2317","true","37","","","","","","","","","","","","","","","","","","",""
"","","","","","html-keyboard-response","113","175560","0.0-2.0-7.0-0.3","5d3db07f00fd1d001cfbaddd","F1","batch6","","null","<p class=block-text>Trial 43 out of 78</p>","null","pattern_show_trial_num","","","","","","","","","","","","","","","","","","","","","","","","",""
"","","","","","image-keyboard-response","114","177313","0.0-2.0-7.0-1.3","5d3db07f00fd1d001cfbaddd","F1","batch6","","1751.5","stim/no_38_1_b.png","j","pattern_response","true","j","pattern_20","1751.5","true","38","","","","","","","","","","","","","","","","","","",""
"","","","","","html-keyboard-response","115","178615","0.0-2.0-7.0-0.4","5d3db07f00fd1d001cfbaddd","F1","batch6","","null","<p class=block-text>Trial 44 out of 78</p>","null","pattern_show_trial_num","","","","","","","","","","","","","","","","","","","","","","","","",""
"","","","","","image-keyboard-response","116","180958","0.0-2.0-7.0-1.4","5d3db07f00fd1d001cfbaddd","F1","batch6","","2341.699999988079","stim/no_50_1.png","j","pattern_response","true","j","pattern_30","2341.699999988079","true","39","","","","","","","","","","","","","","","","","","",""
"","","","","","html-keyboard-response","117","182260","0.0-2.0-7.0-0.5","5d3db07f00fd1d001cfbaddd","F1","batch6","","null","<p class=block-text>Trial 45 out of 78</p>","null","pattern_show_trial_num","","","","","","","","","","","","","","","","","","","","","","","","",""
"","","","","","image-keyboard-response","118","183863","0.0-2.0-7.0-1.5","5d3db07f00fd1d001cfbaddd","F1","batch6","","1601.6000000238419","stim/no_42_1_w.png","j","pattern_response","true","j","pattern_22","1601.6000000238419","true","40","","","","","","","","","","","","","","","","","","",""
"","","","","","html-keyboard-response","119","185166","0.0-2.0-7.0-0.6","5d3db07f00fd1d001cfbaddd","F1","batch6","","null","<p class=block-text>Trial 46 out of 78</p>","null","pattern_show_trial_num","","","","","","","","","","","","","","","","","","","","","","","","",""
"","","","","","image-keyboard-response","120","187921","0.0-2.0-7.0-1.6","5d3db07f00fd1d001cfbaddd","F1","batch6","","2755","stim/yes_50_dia_w1.png","j","pattern_response","false","f","pattern_71","2755","false","40","","","","","","","","","","","","","","","","","","",""
"","","","","","html-keyboard-response","121","189223","0.0-2.0-7.0-0.7","5d3db07f00fd1d001cfbaddd","F1","batch6","","null","<p class=block-text>Trial 47 out of 78</p>","null","pattern_show_trial_num","","","","","","","","","","","","","","","","","","","","","","","","",""
"","","","","","image-keyboard-response","122","190668","0.0-2.0-7.0-1.7","5d3db07f00fd1d001cfbaddd","F1","batch6","","1444.2999999821186","stim/yes_29_ver_w1.png","f","pattern_response","true","f","pattern_53","1444.2999999821186","true","41","","","","","","","","","","","","","","","","","","",""
"","","","","","html-keyboard-response","123","191970","0.0-2.0-7.0-0.8","5d3db07f00fd1d001cfbaddd","F1","batch6","","null","<p class=block-text>Trial 48 out of 78</p>","null","pattern_show_trial_num","","","","","","","","","","","","","","","","","","","","","","","","",""
"","","","","","image-keyboard-response","124","193238","0.0-2.0-7.0-1.8","5d3db07f00fd1d001cfbaddd","F1","batch6","","1267.0999999940395","stim/no_17_1_w.png","j","pattern_response","true","j","pattern_04","1267.0999999940395","true","42","","","","","","","","","","","","","","","","","","",""
"","","","","","html-keyboard-response","125","194539","0.0-2.0-7.0-0.9","5d3db07f00fd1d001cfbaddd","F1","batch6","","null","<p class=block-text>Trial 49 out of 78</p>","null","pattern_show_trial_num","","","","","","","","","","","","","","","","","","","","","","","","",""
"","","","","","image-keyboard-response","126","196953","0.0-2.0-7.0-1.9","5d3db07f00fd1d001cfbaddd","F1","batch6","","2412.4000000059605","stim/no_52_1.png","j","pattern_response","true","j","pattern_32","2412.4000000059605","true","43","","","","","","","","","","","","","","","","","","",""
"","","","","","html-keyboard-response","127","198254","0.0-2.0-7.0-0.10","5d3db07f00fd1d001cfbaddd","F1","batch6","","null","<p class=block-text>Trial 50 out of 78</p>","null","pattern_show_trial_num","","","","","","","","","","","","","","","","","","","","","","","","",""
"","","","","","image-keyboard-response","128","199560","0.0-2.0-7.0-1.10","5d3db07f00fd1d001cfbaddd","F1","batch6","","1305","stim/yes_67_hor_b1.png","f","pattern_response","true","f","pattern_79","1305","true","44","","","","","","","","","","","","","","","","","","",""
"","","","","","html-keyboard-response","129","200863","0.0-2.0-7.0-0.11","5d3db07f00fd1d001cfbaddd","F1","batch6","","null","<p class=block-text>Trial 51 out of 78</p>","null","pattern_show_trial_num","","","","","","","","","","","","","","","","","","","","","","","","",""
"","","","","","image-keyboard-response","130","201597","0.0-2.0-7.0-1.11","5d3db07f00fd1d001cfbaddd","F1","batch6","","733.5999999940395","stim/yes_14_hor_b1_w.png","f","pattern_response","true","f","pattern_43","733.5999999940395","true","45","","","","","","","","","","","","","","","","","","",""
"","","","","","html-keyboard-response","131","202899","0.0-2.0-7.0-0.12","5d3db07f00fd1d001cfbaddd","F1","batch6","","null","<p class=block-text>Trial 52 out of 78</p>","null","pattern_show_trial_num","","","","","","","","","","","","","","","","","","","","","","","","",""
"","","","","","image-keyboard-response","132","204991","0.0-2.0-7.0-1.12","5d3db07f00fd1d001cfbaddd","F1","batch6","","2091.2000000178814","stim/no_46_1_b.png","j","pattern_response","true","j","pattern_26","2091.2000000178814","true","46","","","","","","","","","","","","","","","","","","",""
"","","","","","html-keyboard-response","133","206292","0.0-2.0-7.0-0.13","5d3db07f00fd1d001cfbaddd","F1","batch6","","null","<p class=block-text>Trial 53 out of 78</p>","null","pattern_show_trial_num","","","","","","","","","","","","","","","","","","","","","","","","",""
"","","","","","image-keyboard-response","134","207912","0.0-2.0-7.0-1.13","5d3db07f00fd1d001cfbaddd","F1","batch6","","1618.699999988079","stim/no_36_2_w.png","j","pattern_response","true","j","pattern_18","1618.699999988079","true","47","","","","","","","","","","","","","","","","","","",""
"","","","","","html-keyboard-response","135","209213","0.0-2.0-7.0-0.14","5d3db07f00fd1d001cfbaddd","F1","batch6","","null","<p class=block-text>Trial 54 out of 78</p>","null","pattern_show_trial_num","","","","","","","","","","","","","","","","","","","","","","","","",""
"","","","","","image-keyboard-response","136","210931","0.0-2.0-7.0-1.14","5d3db07f00fd1d001cfbaddd","F1","batch6","","1717","stim/yes_38_hor_b1_b.png","j","pattern_response","false","f","pattern_61","1717","false","47","","","","","","","","","","","","","","","","","","",""
"","","","","","html-keyboard-response","137","212233","0.0-2.0-7.0-0.15","5d3db07f00fd1d001cfbaddd","F1","batch6","","null","<p class=block-text>Trial 55 out of 78</p>","null","pattern_show_trial_num","","","","","","","","","","","","","","","","","","","","","","","","",""
"","","","","","image-keyboard-response","138","213649","0.0-2.0-7.0-1.15","5d3db07f00fd1d001cfbaddd","F1","batch6","","1415","stim/no_32_1_w.png","j","pattern_response","true","j","pattern_14","1415","true","48","","","","","","","","","","","","","","","","","","",""
"","","","","","html-keyboard-response","139","214952","0.0-2.0-7.0-0.16","5d3db07f00fd1d001cfbaddd","F1","batch6","","null","<p class=block-text>Trial 56 out of 78</p>","null","pattern_show_trial_num","","","","","","","","","","","","","","","","","","","","","","","","",""
"","","","","","image-keyboard-response","140","215602","0.0-2.0-7.0-1.16","5d3db07f00fd1d001cfbaddd","F1","batch6","","649.5","stim/yes_25_hor_b1_b.png","f","pattern_response","true","f","pattern_49","649.5","true","49","","","","","","","","","","","","","","","","","","",""
"","","","","","html-keyboard-response","141","216905","0.0-2.0-7.0-0.17","5d3db07f00fd1d001cfbaddd","F1","batch6","","null","<p class=block-text>Trial 57 out of 78</p>","null","pattern_show_trial_num","","","","","","","","","","","","","","","","","","","","","","","","",""
"","","","","","image-keyboard-response","142","218276","0.0-2.0-7.0-1.17","5d3db07f00fd1d001cfbaddd","F1","batch6","","1370.6000000238419","stim/yes_40_dia_b1_b.png","j","pattern_response","false","f","pattern_63","1370.6000000238419","false","49","","","","","","","","","","","","","","","","","","",""
"","","","","","html-keyboard-response","143","219579","0.0-2.0-7.0-0.18","5d3db07f00fd1d001cfbaddd","F1","batch6","","null","<p class=block-text>Trial 58 out of 78</p>","null","pattern_show_trial_num","","","","","","","","","","","","","","","","","","","","","","","","",""
"","","","","","image-keyboard-response","144","220170","0.0-2.0-7.0-1.18","5d3db07f00fd1d001cfbaddd","F1","batch6","","590.6999999880791","stim/no_13_2_b.png","j","pattern_response","true","j","pattern_02","590.6999999880791","true","50","","","","","","","","","","","","","","","","","","",""
"","","","","","html-keyboard-response","145","221472","0.0-2.0-7.0-0.19","5d3db07f00fd1d001cfbaddd","F1","batch6","","null","<p class=block-text>Trial 59 out of 78</p>","null","pattern_show_trial_num","","","","","","","","","","","","","","","","","","","","","","","","",""
"","","","","","image-keyboard-response","146","222238","0.0-2.0-7.0-1.19","5d3db07f00fd1d001cfbaddd","F1","batch6","","765","stim/yes_22_ver_w1.png","f","pattern_response","true","f","pattern_47","765","true","51","","","","","","","","","","","","","","","","","","",""
"","","","","","html-keyboard-response","147","223539","0.0-2.0-7.0-0.20","5d3db07f00fd1d001cfbaddd","F1","batch6","","null","<p class=block-text>Trial 60 out of 78</p>","null","pattern_show_trial_num","","","","","","","","","","","","","","","","","","","","","","","","",""
"","","","","","image-keyboard-response","148","224446","0.0-2.0-7.0-1.20","5d3db07f00fd1d001cfbaddd","F1","batch6","","906.0999999940395","stim/no_23_1.png","j","pattern_response","true","j","pattern_08","906.0999999940395","true","52","","","","","","","","","","","","","","","","","","",""
"","","","","","html-keyboard-response","149","225748","0.0-2.0-7.0-0.21","5d3db07f00fd1d001cfbaddd","F1","batch6","","null","<p class=block-text>Trial 61 out of 78</p>","null","pattern_show_trial_num","","","","","","","","","","","","","","","","","","","","","","","","",""
"","","","","","image-keyboard-response","150","226782","0.0-2.0-7.0-1.21","5d3db07f00fd1d001cfbaddd","F1","batch6","","1033","stim/yes_31_hor_b1.png","f","pattern_response","true","f","pattern_55","1033","true","53","","","","","","","","","","","","","","","","","","",""
"","","","","","html-keyboard-response","151","228083","0.0-2.0-7.0-0.22","5d3db07f00fd1d001cfbaddd","F1","batch6","","null","<p class=block-text>Trial 62 out of 78</p>","null","pattern_show_trial_num","","","","","","","","","","","","","","","","","","","","","","","","",""
"","","","","","image-keyboard-response","152","230230","0.0-2.0-7.0-1.22","5d3db07f00fd1d001cfbaddd","F1","batch6","","2145.7999999821186","stim/no_44_1.png","j","pattern_response","true","j","pattern_24","2145.7999999821186","true","54","","","","","","","","","","","","","","","","","","",""
"","","","","","html-keyboard-response","153","231532","0.0-2.0-7.0-0.23","5d3db07f00fd1d001cfbaddd","F1","batch6","","null","<p class=block-text>Trial 63 out of 78</p>","null","pattern_show_trial_num","","","","","","","","","","","","","","","","","","","","","","","","",""
"","","","","","image-keyboard-response","154","232420","0.0-2.0-7.0-1.23","5d3db07f00fd1d001cfbaddd","F1","batch6","","886.6999999880791","stim/yes_43_ver_w1_w.png","f","pattern_response","true","f","pattern_65","886.6999999880791","true","55","","","","","","","","","","","","","","","","","","",""
"","","","","","html-keyboard-response","155","233722","0.0-2.0-7.0-0.24","5d3db07f00fd1d001cfbaddd","F1","batch6","","null","<p class=block-text>Trial 64 out of 78</p>","null","pattern_show_trial_num","","","","","","","","","","","","","","","","","","","","","","","","",""
"","","","","","image-keyboard-response","156","236169","0.0-2.0-7.0-1.24","5d3db07f00fd1d001cfbaddd","F1","batch6","","2446.5999999940395","stim/yes_60_ver_b1_b.png","f","pattern_response","true","f","pattern_77","2446.5999999940395","true","56","","","","","","","","","","","","","","","","","","",""
"","","","","","html-keyboard-response","157","237472","0.0-2.0-7.0-0.25","5d3db07f00fd1d001cfbaddd","F1","batch6","","null","<p class=block-text>Trial 65 out of 78</p>","null","pattern_show_trial_num","","","","","","","","","","","","","","","","","","","","","","","","",""
"","","","","","image-keyboard-response","158","240704","0.0-2.0-7.0-1.25","5d3db07f00fd1d001cfbaddd","F1","batch6","","3231.4000000059605","stim/yes_48_dia_w1_w.png","j","pattern_response","false","f","pattern_69","3231.4000000059605","false","56","","","","","","","","","","","","","","","","","","",""
"","","","","","html-keyboard-response","159","242007","0.0-2.0-7.0-0.26","5d3db07f00fd1d001cfbaddd","F1","batch6","","null","<p class=block-text>Trial 66 out of 78</p>","null","pattern_show_trial_num","","","","","","","","","","","","","","","","","","","","","","","","",""
"","","","","","image-keyboard-response","160","243817","0.0-2.0-7.0-1.26","5d3db07f00fd1d001cfbaddd","F1","batch6","","1809.5999999940395","stim/no_48_1_w.png","j","pattern_response","true","j","pattern_28","1809.5999999940395","true","57","","","","","","","","","","","","","","","","","","",""
"","","","","","html-keyboard-response","161","245118","0.0-2.0-7.0-0.27","5d3db07f00fd1d001cfbaddd","F1","batch6","","null","<p class=block-text>Trial 67 out of 78</p>","null","pattern_show_trial_num","","","","","","","","","","","","","","","","","","","","","","","","",""
"","","","","","image-keyboard-response","162","245950","0.0-2.0-7.0-1.27","5d3db07f00fd1d001cfbaddd","F1","batch6","","831.7999999821186","stim/yes_45_hor_b2_b.png","f","pattern_response","true","f","pattern_67","831.7999999821186","true","58","","","","","","","","","","","","","","","","","","",""
"","","","","","html-keyboard-response","163","247252","0.0-2.0-7.0-0.28","5d3db07f00fd1d001cfbaddd","F1","batch6","","null","<p class=block-text>Trial 68 out of 78</p>","null","pattern_show_trial_num","","","","","","","","","","","","","","","","","","","","","","","","",""
"","","","","","image-keyboard-response","164","248114","0.0-2.0-7.0-1.28","5d3db07f00fd1d001cfbaddd","F1","batch6","","861","stim/no_26_1_w.png","j","pattern_response","true","j","pattern_10","861","true","59","","","","","","","","","","","","","","","","","","",""
"","","","","","html-keyboard-response","165","249417","0.0-2.0-7.0-0.29","5d3db07f00fd1d001cfbaddd","F1","batch6","","null","<p class=block-text>Trial 69 out of 78</p>","null","pattern_show_trial_num","","","","","","","","","","","","","","","","","","","","","","","","",""
"","","","","","image-keyboard-response","166","250578","0.0-2.0-7.0-1.29","5d3db07f00fd1d001cfbaddd","F1","batch6","","1160.3999999761581","stim/yes_55_hor_w1_w.png","f","pattern_response","true","f","pattern_75","1160.3999999761581","true","60","","","","","","","","","","","","","","","","","","",""
"","","","","","html-keyboard-response","167","251881","0.0-2.0-7.0-0.30","5d3db07f00fd1d001cfbaddd","F1","batch6","","null","<p class=block-text>Trial 70 out of 78</p>","null","pattern_show_trial_num","","","","","","","","","","","","","","","","","","","","","","","","",""
"","","","","","image-keyboard-response","168","254267","0.0-2.0-7.0-1.30","5d3db07f00fd1d001cfbaddd","F1","batch6","","2384.300000011921","stim/no_65_1_b.png","j","pattern_response","true","j","pattern_38","2384.300000011921","true","61","","","","","","","","","","","","","","","","","","",""
"","","","","","html-keyboard-response","169","255568","0.0-2.0-7.0-0.31","5d3db07f00fd1d001cfbaddd","F1","batch6","","null","<p class=block-text>Trial 71 out of 78</p>","null","pattern_show_trial_num","","","","","","","","","","","","","","","","","","","","","","","","",""
"","","","","","image-keyboard-response","170","256674","0.0-2.0-7.0-1.31","5d3db07f00fd1d001cfbaddd","F1","batch6","","1104.9000000059605","stim/no_29_1_b.png","j","pattern_response","true","j","pattern_12","1104.9000000059605","true","62","","","","","","","","","","","","","","","","","","",""
"","","","","","html-keyboard-response","171","257976","0.0-2.0-7.0-0.32","5d3db07f00fd1d001cfbaddd","F1","batch6","","null","<p class=block-text>Trial 72 out of 78</p>","null","pattern_show_trial_num","","","","","","","","","","","","","","","","","","","","","","","","",""
"","","","","","image-keyboard-response","172","261068","0.0-2.0-7.0-1.32","5d3db07f00fd1d001cfbaddd","F1","batch6","","3092.100000023842","stim/no_62_1_w.png","j","pattern_response","true","j","pattern_36","3092.100000023842","true","63","","","","","","","","","","","","","","","","","","",""
"","","","","","html-keyboard-response","173","262370","0.0-2.0-7.0-0.33","5d3db07f00fd1d001cfbaddd","F1","batch6","","null","<p class=block-text>Trial 73 out of 78</p>","null","pattern_show_trial_num","","","","","","","","","","","","","","","","","","","","","","","","",""
"","","","","","image-keyboard-response","174","263098","0.0-2.0-7.0-1.33","5d3db07f00fd1d001cfbaddd","F1","batch6","","727","stim/yes_28_ver_b1.png","f","pattern_response","true","f","pattern_51","727","true","64","","","","","","","","","","","","","","","","","","",""
"","","","","","html-keyboard-response","175","264399","0.0-2.0-7.0-0.34","5d3db07f00fd1d001cfbaddd","F1","batch6","","null","<p class=block-text>Trial 74 out of 78</p>","null","pattern_show_trial_num","","","","","","","","","","","","","","","","","","","","","","","","",""
"","","","","","image-keyboard-response","176","267606","0.0-2.0-7.0-1.34","5d3db07f00fd1d001cfbaddd","F1","batch6","","3206","stim/no_70_2.png","j","pattern_response","true","j","pattern_40","3206","true","65","","","","","","","","","","","","","","","","","","",""
"","","","","","html-keyboard-response","177","268907","0.0-2.0-7.0-0.35","5d3db07f00fd1d001cfbaddd","F1","batch6","","null","<p class=block-text>Trial 75 out of 78</p>","null","pattern_show_trial_num","","","","","","","","","","","","","","","","","","","","","","","","",""
"","","","","","image-keyboard-response","178","269835","0.0-2.0-7.0-1.35","5d3db07f00fd1d001cfbaddd","F1","batch6","","926.2000000178814","stim/no_20_1_w.png","j","pattern_response","true","j","pattern_06","926.2000000178814","true","66","","","","","","","","","","","","","","","","","","",""
"","","","","","html-keyboard-response","179","271137","0.0-2.0-7.0-0.36","5d3db07f00fd1d001cfbaddd","F1","batch6","","null","<p class=block-text>Trial 76 out of 78</p>","null","pattern_show_trial_num","","","","","","","","","","","","","","","","","","","","","","","","",""
"","","","","","image-keyboard-response","180","272085","0.0-2.0-7.0-1.36","5d3db07f00fd1d001cfbaddd","F1","batch6","","947.1999999880791","stim/yes_52_ver_w1.png","f","pattern_response","true","f","pattern_73","947.1999999880791","true","67","","","","","","","","","","","","","","","","","","",""
"","","","","","html-keyboard-response","181","273387","0.0-2.0-7.0-0.37","5d3db07f00fd1d001cfbaddd","F1","batch6","","null","<p class=block-text>Trial 77 out of 78</p>","null","pattern_show_trial_num","","","","","","","","","","","","","","","","","","","","","","","","",""
"","","","","","image-keyboard-response","182","274009","0.0-2.0-7.0-1.37","5d3db07f00fd1d001cfbaddd","F1","batch6","","621.0999999940395","stim/yes_17_dia_w1.png","f","pattern_response","true","f","pattern_45","621.0999999940395","true","68","","","","","","","","","","","","","","","","","","",""
"","","","","","html-keyboard-response","183","275312","0.0-2.0-7.0-0.38","5d3db07f00fd1d001cfbaddd","F1","batch6","","null","<p class=block-text>Trial 78 out of 78</p>","null","pattern_show_trial_num","","","","","","","","","","","","","","","","","","","","","","","","",""
"","","","","","image-keyboard-response","184","276577","0.0-2.0-7.0-1.38","5d3db07f00fd1d001cfbaddd","F1","batch6","","1263.9000000059605","stim/yes_37_dia_w1.png","j","pattern_response","false","f","pattern_59","1263.9000000059605","false","68","","","","","","","","","","","","","","","","","","",""
"","","","","","html-button-response","185","279302","0.0-2.0-8.0","5d3db07f00fd1d001cfbaddd","F1","batch6","","2224.5999999940395","<p class = block-text>This concludes the 4-in-a-row detection game.Thank you for your responses!<br>
            You responded correctly on 87% of the trials.<br>
            When you are ready, press ""Continue"" button to continue </p>","0","","","","","","","","","","","","","","","","","","","","","","","","","",""
"true","","","","","fullscreen","186","281298","0.0-3.0-0.0","5d3db07f00fd1d001cfbaddd","F1","batch6","","","","","spm_fullscreen","","","","","","","","","","","","","","","","","","","","","","","","",""
"","","","","","html-button-response","187","282078","0.0-3.0-1.0","5d3db07f00fd1d001cfbaddd","F1","batch6","","778.5","<p class = block-text><b>Instructions</b> <br>This is a widely used intelligence test in research. <br>In this test, a figure with a missing piece will be presented.<br>Below the figure are alternative pieces to complete the figure, only one of which is correct.<br> Different figures might involve different principles for obtaining the missing piece<br>Your job is to select the most logical piece to complete the figure.</p>","0","","","","","","","","","","","","","","","","","","","","","","","","","",""
"","","","","","html-keyboard-response","188","282879","0.0-3.0-2.0-0.0","5d3db07f00fd1d001cfbaddd","F1","batch6","","null","<p class=block-text>Trial 1 out of 60</p>","null","spm_show_trial_num","","","","","","","","","","","","","","","","","","","","","","","","",""
"","","","","","image-button-response","189","288957","0.0-3.0-2.0-1.0","5d3db07f00fd1d001cfbaddd","F1","batch6","","6075.9000000059605","img/question_1_1.jpeg","3","spm_respsonse","1","4","mat_01","","","","","","1","6075.9000000059605","","","","","","","","","","","","","","",""
"","","","","","html-keyboard-response","190","290008","0.0-3.0-2.0-0.1","5d3db07f00fd1d001cfbaddd","F1","batch6","","null","<p class=block-text>Trial 2 out of 60</p>","null","spm_show_trial_num","","","","","","","","","","","","","","","","","","","","","","","","",""
"","","","","","image-button-response","191","292098","0.0-3.0-2.0-1.1","5d3db07f00fd1d001cfbaddd","F1","batch6","","2088.5","img/question_1_2.jpeg","4","spm_respsonse","1","5","mat_02","","","","","","1","2088.5","","","","","","","","","","","","","","",""
"","","","","","html-keyboard-response","192","293151","0.0-3.0-2.0-0.2","5d3db07f00fd1d001cfbaddd","F1","batch6","","null","<p class=block-text>Trial 3 out of 60</p>","null","spm_show_trial_num","","","","","","","","","","","","","","","","","","","","","","","","",""
"","","","","","image-button-response","193","294419","0.0-3.0-2.0-1.2","5d3db07f00fd1d001cfbaddd","F1","batch6","","1266.9000000059605","img/question_1_3.jpeg","0","spm_respsonse","1","1","mat_03","","","","","","1","1266.9000000059605","","","","","","","","","","","","","","",""
"","","","","","html-keyboard-response","194","295471","0.0-3.0-2.0-0.3","5d3db07f00fd1d001cfbaddd","F1","batch6","","null","<p class=block-text>Trial 4 out of 60</p>","null","spm_show_trial_num","","","","","","","","","","","","","","","","","","","","","","","","",""
"","","","","","image-button-response","195","296803","0.0-3.0-2.0-1.3","5d3db07f00fd1d001cfbaddd","F1","batch6","","1330.5999999940395","img/question_1_4.jpeg","1","spm_respsonse","1","2","mat_04","","","","","","1","1330.5999999940395","","","","","","","","","","","","","","",""
"","","","","","html-keyboard-response","196","297855","0.0-3.0-2.0-0.4","5d3db07f00fd1d001cfbaddd","F1","batch6","","null","<p class=block-text>Trial 5 out of 60</p>","null","spm_show_trial_num","","","","","","","","","","","","","","","","","","","","","","","","",""
"","","","","","image-button-response","197","299597","0.0-3.0-2.0-1.4","5d3db07f00fd1d001cfbaddd","F1","batch6","","1741.5999999940395","img/question_1_5.jpeg","5","spm_respsonse","1","6","mat_05","","","","","","1","1741.5999999940395","","","","","","","","","","","","","","",""
"","","","","","html-keyboard-response","198","300650","0.0-3.0-2.0-0.5","5d3db07f00fd1d001cfbaddd","F1","batch6","","null","<p class=block-text>Trial 6 out of 60</p>","null","spm_show_trial_num","","","","","","","","","","","","","","","","","","","","","","","","",""
"","","","","","image-button-response","199","302572","0.0-3.0-2.0-1.5","5d3db07f00fd1d001cfbaddd","F1","batch6","","1921.1000000238419","img/question_1_6.jpeg","2","spm_respsonse","1","3","mat_06","","","","","","1","1921.1000000238419","","","","","","","","","","","","","","",""
"","","","","","html-keyboard-response","200","303624","0.0-3.0-2.0-0.6","5d3db07f00fd1d001cfbaddd","F1","batch6","","null","<p class=block-text>Trial 7 out of 60</p>","null","spm_show_trial_num","","","","","","","","","","","","","","","","","","","","","","","","",""
"","","","","","image-button-response","201","306166","0.0-3.0-2.0-1.6","5d3db07f00fd1d001cfbaddd","F1","batch6","","2541.199999988079","img/question_1_7.jpeg","5","spm_respsonse","1","6","mat_07","","","","","","1","2541.199999988079","","","","","","","","","","","","","","",""
"","","","","","html-keyboard-response","202","307218","0.0-3.0-2.0-0.7","5d3db07f00fd1d001cfbaddd","F1","batch6","","null","<p class=block-text>Trial 8 out of 60</p>","null","spm_show_trial_num","","","","","","","","","","","","","","","","","","","","","","","","",""
"","","","","","image-button-response","203","310968","0.0-3.0-2.0-1.7","5d3db07f00fd1d001cfbaddd","F1","batch6","","3749.2999999821186","img/question_1_8.jpeg","0","spm_respsonse","0","2","mat_08","","","","","","0","3749.2999999821186","","","","","","","","","","","","","","",""
"","","","","","html-keyboard-response","204","312020","0.0-3.0-2.0-0.8","5d3db07f00fd1d001cfbaddd","F1","batch6","","null","<p class=block-text>Trial 9 out of 60</p>","null","spm_show_trial_num","","","","","","","","","","","","","","","","","","","","","","","","",""
"","","","","","image-button-response","205","314260","0.0-3.0-2.0-1.8","5d3db07f00fd1d001cfbaddd","F1","batch6","","2238.300000011921","img/question_1_9.jpeg","0","spm_respsonse","1","1","mat_09","","","","","","1","2238.300000011921","","","","","","","","","","","","","","",""
"","","","","","html-keyboard-response","206","315313","0.0-3.0-2.0-0.9","5d3db07f00fd1d001cfbaddd","F1","batch6","","null","<p class=block-text>Trial 10 out of 60</p>","null","spm_show_trial_num","","","","","","","","","","","","","","","","","","","","","","","","",""
"","","","","","image-button-response","207","317513","0.0-3.0-2.0-1.9","5d3db07f00fd1d001cfbaddd","F1","batch6","","2198.699999988079","img/question_1_10.jpeg","2","spm_respsonse","1","3","mat_10","","","","","","1","2198.699999988079","","","","","","","","","","","","","","",""
"","","","","","html-keyboard-response","208","318565","0.0-3.0-2.0-0.10","5d3db07f00fd1d001cfbaddd","F1","batch6","","null","<p class=block-text>Trial 11 out of 60</p>","null","spm_show_trial_num","","","","","","","","","","","","","","","","","","","","","","","","",""
"","","","","","image-button-response","209","320784","0.0-3.0-2.0-1.10","5d3db07f00fd1d001cfbaddd","F1","batch6","","2217.5999999940395","img/question_1_11.jpeg","0","spm_respsonse","0","4","mat_11","","","","","","0","2217.5999999940395","","","","","","","","","","","","","","",""
"","","","","","html-keyboard-response","210","321837","0.0-3.0-2.0-0.11","5d3db07f00fd1d001cfbaddd","F1","batch6","","null","<p class=block-text>Trial 12 out of 60</p>","null","spm_show_trial_num","","","","","","","","","","","","","","","","","","","","","","","","",""
"","","","","","image-button-response","211","326037","0.0-3.0-2.0-1.11","5d3db07f00fd1d001cfbaddd","F1","batch6","","4198.4000000059605","img/question_1_12.jpeg","4","spm_respsonse","1","5","mat_12","","","","","","1","4198.4000000059605","","","","","","","","","","","","","","",""
"","","","","","html-keyboard-response","212","327090","0.0-3.0-2.0-0.12","5d3db07f00fd1d001cfbaddd","F1","batch6","","null","<p class=block-text>Trial 13 out of 60</p>","null","spm_show_trial_num","","","","","","","","","","","","","","","","","","","","","","","","",""
"","","","","","image-button-response","213","328783","0.0-3.0-2.0-1.12","5d3db07f00fd1d001cfbaddd","F1","batch6","","1691.7000000178814","img/question_2_1.jpeg","1","spm_respsonse","1","2","mat_13","","","","","","1","1691.7000000178814","","","","","","","","","","","","","","",""
"","","","","","html-keyboard-response","214","329835","0.0-3.0-2.0-0.13","5d3db07f00fd1d001cfbaddd","F1","batch6","","null","<p class=block-text>Trial 14 out of 60</p>","null","spm_show_trial_num","","","","","","","","","","","","","","","","","","","","","","","","",""
"","","","","","image-button-response","215","334020","0.0-3.0-2.0-1.13","5d3db07f00fd1d001cfbaddd","F1","batch6","","4184.300000011921","img/question_2_2.jpeg","5","spm_respsonse","1","6","mat_14","","","","","","1","4184.300000011921","","","","","","","","","","","","","","",""
"","","","","","html-keyboard-response","216","335073","0.0-3.0-2.0-0.14","5d3db07f00fd1d001cfbaddd","F1","batch6","","null","<p class=block-text>Trial 15 out of 60</p>","null","spm_show_trial_num","","","","","","","","","","","","","","","","","","","","","","","","",""
"","","","","","image-button-response","217","336711","0.0-3.0-2.0-1.14","5d3db07f00fd1d001cfbaddd","F1","batch6","","1636.9000000059605","img/question_2_3.jpeg","0","spm_respsonse","1","1","mat_15","","","","","","1","1636.9000000059605","","","","","","","","","","","","","","",""
"","","","","","html-keyboard-response","218","337763","0.0-3.0-2.0-0.15","5d3db07f00fd1d001cfbaddd","F1","batch6","","null","<p class=block-text>Trial 16 out of 60</p>","null","spm_show_trial_num","","","","","","","","","","","","","","","","","","","","","","","","",""
"","","","","","image-button-response","219","339786","0.0-3.0-2.0-1.15","5d3db07f00fd1d001cfbaddd","F1","batch6","","2022.2000000178814","img/question_2_4.jpeg","1","spm_respsonse","1","2","mat_16","","","","","","1","2022.2000000178814","","","","","","","","","","","","","","",""
"","","","","","html-keyboard-response","220","340838","0.0-3.0-2.0-0.16","5d3db07f00fd1d001cfbaddd","F1","batch6","","null","<p class=block-text>Trial 17 out of 60</p>","null","spm_show_trial_num","","","","","","","","","","","","","","","","","","","","","","","","",""
"","","","","","image-button-response","221","343135","0.0-3.0-2.0-1.16","5d3db07f00fd1d001cfbaddd","F1","batch6","","2295.300000011921","img/question_2_5.jpeg","0","spm_respsonse","1","1","mat_17","","","","","","1","2295.300000011921","","","","","","","","","","","","","","",""
"","","","","","html-keyboard-response","222","344187","0.0-3.0-2.0-0.17","5d3db07f00fd1d001cfbaddd","F1","batch6","","null","<p class=block-text>Trial 18 out of 60</p>","null","spm_show_trial_num","","","","","","","","","","","","","","","","","","","","","","","","",""
"","","","","","image-button-response","223","348229","0.0-3.0-2.0-1.17","5d3db07f00fd1d001cfbaddd","F1","batch6","","4040.5","img/question_2_6.jpeg","2","spm_respsonse","1","3","mat_18","","","","","","1","4040.5","","","","","","","","","","","","","","",""
"","","","","","html-keyboard-response","224","349281","0.0-3.0-2.0-0.18","5d3db07f00fd1d001cfbaddd","F1","batch6","","null","<p class=block-text>Trial 19 out of 60</p>","null","spm_show_trial_num","","","","","","","","","","","","","","","","","","","","","","","","",""
"","","","","","image-button-response","225","352636","0.0-3.0-2.0-1.18","5d3db07f00fd1d001cfbaddd","F1","batch6","","3353.899999976158","img/question_2_7.jpeg","4","spm_respsonse","1","5","mat_19","","","","","","1","3353.899999976158","","","","","","","","","","","","","","",""
"","","","","","html-keyboard-response","226","353687","0.0-3.0-2.0-0.19","5d3db07f00fd1d001cfbaddd","F1","batch6","","null","<p class=block-text>Trial 20 out of 60</p>","null","spm_show_trial_num","","","","","","","","","","","","","","","","","","","","","","","","",""
"","","","","","image-button-response","227","358045","0.0-3.0-2.0-1.19","5d3db07f00fd1d001cfbaddd","F1","batch6","","4357","img/question_2_8.jpeg","5","spm_respsonse","1","6","mat_20","","","","","","1","4357","","","","","","","","","","","","","","",""
"","","","","","html-keyboard-response","228","359099","0.0-3.0-2.0-0.20","5d3db07f00fd1d001cfbaddd","F1","batch6","","null","<p class=block-text>Trial 21 out of 60</p>","null","spm_show_trial_num","","","","","","","","","","","","","","","","","","","","","","","","",""
"","","","","","image-button-response","229","362124","0.0-3.0-2.0-1.20","5d3db07f00fd1d001cfbaddd","F1","batch6","","3023.5999999940395","img/question_2_9.jpeg","5","spm_respsonse","0","4","mat_21","","","","","","0","3023.5999999940395","","","","","","","","","","","","","","",""
"","","","","","html-keyboard-response","230","363175","0.0-3.0-2.0-0.21","5d3db07f00fd1d001cfbaddd","F1","batch6","","null","<p class=block-text>Trial 22 out of 60</p>","null","spm_show_trial_num","","","","","","","","","","","","","","","","","","","","","","","","",""
"","","","","","image-button-response","231","366351","0.0-3.0-2.0-1.21","5d3db07f00fd1d001cfbaddd","F1","batch6","","3174.2999999821186","img/question_2_10.jpeg","2","spm_respsonse","1","3","mat_22","","","","","","1","3174.2999999821186","","","","","","","","","","","","","","",""
"","","","","","html-keyboard-response","232","367403","0.0-3.0-2.0-0.22","5d3db07f00fd1d001cfbaddd","F1","batch6","","null","<p class=block-text>Trial 23 out of 60</p>","null","spm_show_trial_num","","","","","","","","","","","","","","","","","","","","","","","","",""
"","","","","","image-button-response","233","369779","0.0-3.0-2.0-1.22","5d3db07f00fd1d001cfbaddd","F1","batch6","","2375.5999999940395","img/question_2_11.jpeg","5","spm_respsonse","0","4","mat_23","","","","","","0","2375.5999999940395","","","","","","","","","","","","","","",""
"","","","","","html-keyboard-response","234","370831","0.0-3.0-2.0-0.23","5d3db07f00fd1d001cfbaddd","F1","batch6","","null","<p class=block-text>Trial 24 out of 60</p>","null","spm_show_trial_num","","","","","","","","","","","","","","","","","","","","","","","","",""
"","","","","","image-button-response","235","380791","0.0-3.0-2.0-1.23","5d3db07f00fd1d001cfbaddd","F1","batch6","","9959.199999988079","img/question_2_12.jpeg","1","spm_respsonse","0","5","mat_24","","","","","","0","9959.199999988079","","","","","","","","","","","","","","",""
"","","","","","html-button-response","236","382278","0.0-3.0-3.0","5d3db07f00fd1d001cfbaddd","F1","batch6","","1235","<p class = block-text>Attention check: Please choose 1<br></p>","0","attention_check","true","","","","","","","","","","","","","","","","","","","","","","","",""
"","","","","","html-keyboard-response","237","383079","0.0-3.0-4.0-0.0","5d3db07f00fd1d001cfbaddd","F1","batch6","","null","<p class=block-text>Trial 25 out of 60</p>","null","spm_show_trial_num","","","","","","","","","","","","","","","","","","","","","","","","",""
"","","","","","image-button-response","238","385826","0.0-3.0-4.0-1.0","5d3db07f00fd1d001cfbaddd","F1","batch6","","2746","img/question_3_1.jpeg","7","spm_respsonse","1","8","mat_25","","","","","","1","2746","","","","","","","","","","","","","","",""
"","","","","","html-keyboard-response","239","386880","0.0-3.0-4.0-0.1","5d3db07f00fd1d001cfbaddd","F1","batch6","","null","<p class=block-text>Trial 26 out of 60</p>","null","spm_show_trial_num","","","","","","","","","","","","","","","","","","","","","","","","",""
"","","","","","image-button-response","240","390774","0.0-3.0-4.0-1.1","5d3db07f00fd1d001cfbaddd","F1","batch6","","3893.2000000178814","img/question_3_2.jpeg","1","spm_respsonse","1","2","mat_26","","","","","","1","3893.2000000178814","","","","","","","","","","","","","","",""
"","","","","","html-keyboard-response","241","391825","0.0-3.0-4.0-0.2","5d3db07f00fd1d001cfbaddd","F1","batch6","","null","<p class=block-text>Trial 27 out of 60</p>","null","spm_show_trial_num","","","","","","","","","","","","","","","","","","","","","","","","",""
"","","","","","image-button-response","242","399430","0.0-3.0-4.0-1.2","5d3db07f00fd1d001cfbaddd","F1","batch6","","7603.799999982119","img/question_3_3.jpeg","2","spm_respsonse","1","3","mat_27","","","","","","1","7603.799999982119","","","","","","","","","","","","","","",""
"","","","","","html-keyboard-response","243","400482","0.0-3.0-4.0-0.3","5d3db07f00fd1d001cfbaddd","F1","batch6","","null","<p class=block-text>Trial 28 out of 60</p>","null","spm_show_trial_num","","","","","","","","","","","","","","","","","","","","","","","","",""
"","","","","","image-button-response","244","406289","0.0-3.0-4.0-1.3","5d3db07f00fd1d001cfbaddd","F1","batch6","","5806.0999999940395","img/question_3_4.jpeg","7","spm_respsonse","1","8","mat_28","","","","","","1","5806.0999999940395","","","","","","","","","","","","","","",""
"","","","","","html-keyboard-response","245","407342","0.0-3.0-4.0-0.4","5d3db07f00fd1d001cfbaddd","F1","batch6","","null","<p class=block-text>Trial 29 out of 60</p>","null","spm_show_trial_num","","","","","","","","","","","","","","","","","","","","","","","","",""
"","","","","","image-button-response","246","410891","0.0-3.0-4.0-1.4","5d3db07f00fd1d001cfbaddd","F1","batch6","","3547.4000000059605","img/question_3_5.jpeg","6","spm_respsonse","1","7","mat_29","","","","","","1","3547.4000000059605","","","","","","","","","","","","","","",""
"","","","","","html-keyboard-response","247","411945","0.0-3.0-4.0-0.5","5d3db07f00fd1d001cfbaddd","F1","batch6","","null","<p class=block-text>Trial 30 out of 60</p>","null","spm_show_trial_num","","","","","","","","","","","","","","","","","","","","","","","","",""
"","","","","","image-button-response","248","414519","0.0-3.0-4.0-1.5","5d3db07f00fd1d001cfbaddd","F1","batch6","","2572.7000000178814","img/question_3_6.jpeg","0","spm_respsonse","0","4","mat_30","","","","","","0","2572.7000000178814","","","","","","","","","","","","","","",""
"","","","","","html-keyboard-response","249","415571","0.0-3.0-4.0-0.6","5d3db07f00fd1d001cfbaddd","F1","batch6","","null","<p class=block-text>Trial 31 out of 60</p>","null","spm_show_trial_num","","","","","","","","","","","","","","","","","","","","","","","","",""
"","","","","","image-button-response","250","421110","0.0-3.0-4.0-1.6","5d3db07f00fd1d001cfbaddd","F1","batch6","","5537.5","img/question_3_7.jpeg","4","spm_respsonse","1","5","mat_31","","","","","","1","5537.5","","","","","","","","","","","","","","",""
"","","","","","html-keyboard-response","251","422162","0.0-3.0-4.0-0.7","5d3db07f00fd1d001cfbaddd","F1","batch6","","null","<p class=block-text>Trial 32 out of 60</p>","null","spm_show_trial_num","","","","","","","","","","","","","","","","","","","","","","","","",""
"","","","","","image-button-response","252","426925","0.0-3.0-4.0-1.7","5d3db07f00fd1d001cfbaddd","F1","batch6","","4760.800000011921","img/question_3_8.jpeg","3","spm_respsonse","0","1","mat_32","","","","","","0","4760.800000011921","","","","","","","","","","","","","","",""
"","","","","","html-keyboard-response","253","427978","0.0-3.0-4.0-0.8","5d3db07f00fd1d001cfbaddd","F1","batch6","","null","<p class=block-text>Trial 33 out of 60</p>","null","spm_show_trial_num","","","","","","","","","","","","","","","","","","","","","","","","",""
"","","","","","image-button-response","254","431581","0.0-3.0-4.0-1.8","5d3db07f00fd1d001cfbaddd","F1","batch6","","3601.9000000059605","img/question_3_9.jpeg","6","spm_respsonse","1","7","mat_33","","","","","","1","3601.9000000059605","","","","","","","","","","","","","","",""
"","","","","","html-keyboard-response","255","432632","0.0-3.0-4.0-0.9","5d3db07f00fd1d001cfbaddd","F1","batch6","","null","<p class=block-text>Trial 34 out of 60</p>","null","spm_show_trial_num","","","","","","","","","","","","","","","","","","","","","","","","",""
"","","","","","image-button-response","256","436549","0.0-3.0-4.0-1.9","5d3db07f00fd1d001cfbaddd","F1","batch6","","3915.7000000178814","img/question_3_10.jpeg","7","spm_respsonse","0","6","mat_34","","","","","","0","3915.7000000178814","","","","","","","","","","","","","","",""
"","","","","","html-keyboard-response","257","437601","0.0-3.0-4.0-0.10","5d3db07f00fd1d001cfbaddd","F1","batch6","","null","<p class=block-text>Trial 35 out of 60</p>","null","spm_show_trial_num","","","","","","","","","","","","","","","","","","","","","","","","",""
"","","","","","image-button-response","258","458887","0.0-3.0-4.0-1.10","5d3db07f00fd1d001cfbaddd","F1","batch6","","21284.20000001788","img/question_3_11.jpeg","2","spm_respsonse","0","1","mat_35","","","","","","0","21284.20000001788","","","","","","","","","","","","","","",""
"","","","","","html-keyboard-response","259","459940","0.0-3.0-4.0-0.11","5d3db07f00fd1d001cfbaddd","F1","batch6","","null","<p class=block-text>Trial 36 out of 60</p>","null","spm_show_trial_num","","","","","","","","","","","","","","","","","","","","","","","","",""
"","","","","","image-button-response","260","463897","0.0-3.0-4.0-1.11","5d3db07f00fd1d001cfbaddd","F1","batch6","","3955.4000000059605","img/question_3_12.jpeg","2","spm_respsonse","0","2","mat_36","","","","","","0","3955.4000000059605","","","","","","","","","","","","","","",""
"","","","","","html-keyboard-response","261","464950","0.0-3.0-4.0-0.12","5d3db07f00fd1d001cfbaddd","F1","batch6","","null","<p class=block-text>Trial 37 out of 60</p>","null","spm_show_trial_num","","","","","","","","","","","","","","","","","","","","","","","","",""
"","","","","","image-button-response","262","467927","0.0-3.0-4.0-1.12","5d3db07f00fd1d001cfbaddd","F1","batch6","","2975.7000000178814","img/question_4_1.jpeg","2","spm_respsonse","1","3","mat_37","","","","","","1","2975.7000000178814","","","","","","","","","","","","","","",""
"","","","","","html-keyboard-response","263","468979","0.0-3.0-4.0-0.13","5d3db07f00fd1d001cfbaddd","F1","batch6","","null","<p class=block-text>Trial 38 out of 60</p>","null","spm_show_trial_num","","","","","","","","","","","","","","","","","","","","","","","","",""
"","","","","","image-button-response","264","474288","0.0-3.0-4.0-1.13","5d3db07f00fd1d001cfbaddd","F1","batch6","","5307.5","img/question_4_2.jpeg","3","spm_respsonse","1","4","mat_38","","","","","","1","5307.5","","","","","","","","","","","","","","",""
"","","","","","html-keyboard-response","265","475340","0.0-3.0-4.0-0.14","5d3db07f00fd1d001cfbaddd","F1","batch6","","null","<p class=block-text>Trial 39 out of 60</p>","null","spm_show_trial_num","","","","","","","","","","","","","","","","","","","","","","","","",""
"","","","","","image-button-response","266","480742","0.0-3.0-4.0-1.14","5d3db07f00fd1d001cfbaddd","F1","batch6","","5400.300000011921","img/question_4_3.jpeg","2","spm_respsonse","1","3","mat_39","","","","","","1","5400.300000011921","","","","","","","","","","","","","","",""
"","","","","","html-keyboard-response","267","481793","0.0-3.0-4.0-0.15","5d3db07f00fd1d001cfbaddd","F1","batch6","","null","<p class=block-text>Trial 40 out of 60</p>","null","spm_show_trial_num","","","","","","","","","","","","","","","","","","","","","","","","",""
"","","","","","image-button-response","268","487653","0.0-3.0-4.0-1.15","5d3db07f00fd1d001cfbaddd","F1","batch6","","5857.700000017881","img/question_4_4.jpeg","6","spm_respsonse","1","7","mat_40","","","","","","1","5857.700000017881","","","","","","","","","","","","","","",""
"","","","","","html-keyboard-response","269","488705","0.0-3.0-4.0-0.16","5d3db07f00fd1d001cfbaddd","F1","batch6","","null","<p class=block-text>Trial 41 out of 60</p>","null","spm_show_trial_num","","","","","","","","","","","","","","","","","","","","","","","","",""
"","","","","","image-button-response","270","493430","0.0-3.0-4.0-1.16","5d3db07f00fd1d001cfbaddd","F1","batch6","","4723.199999988079","img/question_4_5.jpeg","7","spm_respsonse","1","8","mat_41","","","","","","1","4723.199999988079","","","","","","","","","","","","","","",""
"","","","","","html-keyboard-response","271","494482","0.0-3.0-4.0-0.17","5d3db07f00fd1d001cfbaddd","F1","batch6","","null","<p class=block-text>Trial 42 out of 60</p>","null","spm_show_trial_num","","","","","","","","","","","","","","","","","","","","","","","","",""
"","","","","","image-button-response","272","504352","0.0-3.0-4.0-1.17","5d3db07f00fd1d001cfbaddd","F1","batch6","","9868","img/question_4_6.jpeg","5","spm_respsonse","1","6","mat_42","","","","","","1","9868","","","","","","","","","","","","","","",""
"","","","","","html-keyboard-response","273","505404","0.0-3.0-4.0-0.18","5d3db07f00fd1d001cfbaddd","F1","batch6","","null","<p class=block-text>Trial 43 out of 60</p>","null","spm_show_trial_num","","","","","","","","","","","","","","","","","","","","","","","","",""
"","","","","","image-button-response","274","518022","0.0-3.0-4.0-1.18","5d3db07f00fd1d001cfbaddd","F1","batch6","","12616.699999988079","img/question_4_7.jpeg","4","spm_respsonse","1","5","mat_43","","","","","","1","12616.699999988079","","","","","","","","","","","","","","",""
"","","","","","html-keyboard-response","275","519074","0.0-3.0-4.0-0.19","5d3db07f00fd1d001cfbaddd","F1","batch6","","null","<p class=block-text>Trial 44 out of 60</p>","null","spm_show_trial_num","","","","","","","","","","","","","","","","","","","","","","","","",""
"","","","","","image-button-response","276","525725","0.0-3.0-4.0-1.19","5d3db07f00fd1d001cfbaddd","F1","batch6","","6650.5","img/question_4_8.jpeg","2","spm_respsonse","0","4","mat_44","","","","","","0","6650.5","","","","","","","","","","","","","","",""
"","","","","","html-keyboard-response","277","526777","0.0-3.0-4.0-0.20","5d3db07f00fd1d001cfbaddd","F1","batch6","","null","<p class=block-text>Trial 45 out of 60</p>","null","spm_show_trial_num","","","","","","","","","","","","","","","","","","","","","","","","",""
"","","","","","image-button-response","278","528833","0.0-3.0-4.0-1.20","5d3db07f00fd1d001cfbaddd","F1","batch6","","2055","img/question_4_9.jpeg","7","spm_respsonse","0","1","mat_45","","","","","","0","2055","","","","","","","","","","","","","","",""
"","","","","","html-keyboard-response","279","529886","0.0-3.0-4.0-0.21","5d3db07f00fd1d001cfbaddd","F1","batch6","","null","<p class=block-text>Trial 46 out of 60</p>","null","spm_show_trial_num","","","","","","","","","","","","","","","","","","","","","","","","",""
"","","","","","image-button-response","280","547360","0.0-3.0-4.0-1.21","5d3db07f00fd1d001cfbaddd","F1","batch6","","17472.5","img/question_4_10.jpeg","4","spm_respsonse","0","2","mat_46","","","","","","0","17472.5","","","","","","","","","","","","","","",""
"","","","","","html-keyboard-response","281","548411","0.0-3.0-4.0-0.22","5d3db07f00fd1d001cfbaddd","F1","batch6","","null","<p class=block-text>Trial 47 out of 60</p>","null","spm_show_trial_num","","","","","","","","","","","","","","","","","","","","","","","","",""
"","","","","","image-button-response","282","555970","0.0-3.0-4.0-1.22","5d3db07f00fd1d001cfbaddd","F1","batch6","","7557.5","img/question_4_11.jpeg","2","spm_respsonse","0","5","mat_47","","","","","","0","7557.5","","","","","","","","","","","","","","",""
"","","","","","html-keyboard-response","283","557021","0.0-3.0-4.0-0.23","5d3db07f00fd1d001cfbaddd","F1","batch6","","null","<p class=block-text>Trial 48 out of 60</p>","null","spm_show_trial_num","","","","","","","","","","","","","","","","","","","","","","","","",""
"","","","","","image-button-response","284","563970","0.0-3.0-4.0-1.23","5d3db07f00fd1d001cfbaddd","F1","batch6","","6948","img/question_4_12.jpeg","7","spm_respsonse","0","6","mat_48","","","","","","0","6948","","","","","","","","","","","","","","",""
"","","","","","html-keyboard-response","285","565023","0.0-3.0-4.0-0.24","5d3db07f00fd1d001cfbaddd","F1","batch6","","null","<p class=block-text>Trial 49 out of 60</p>","null","spm_show_trial_num","","","","","","","","","","","","","","","","","","","","","","","","",""
"","","","","","image-button-response","286","567779","0.0-3.0-4.0-1.24","5d3db07f00fd1d001cfbaddd","F1","batch6","","2755","img/question_5_1.jpeg","0","spm_respsonse","0","7","mat_49","","","","","","0","2755","","","","","","","","","","","","","","",""
"","","","","","html-keyboard-response","287","568830","0.0-3.0-4.0-0.25","5d3db07f00fd1d001cfbaddd","F1","batch6","","null","<p class=block-text>Trial 50 out of 60</p>","null","spm_show_trial_num","","","","","","","","","","","","","","","","","","","","","","","","",""
"","","","","","image-button-response","288","570757","0.0-3.0-4.0-1.25","5d3db07f00fd1d001cfbaddd","F1","batch6","","1924.800000011921","img/question_5_2.jpeg","3","spm_respsonse","0","6","mat_50","","","","","","0","1924.800000011921","","","","","","","","","","","","","","",""
"","","","","","html-keyboard-response","289","571808","0.0-3.0-4.0-0.26","5d3db07f00fd1d001cfbaddd","F1","batch6","","null","<p class=block-text>Trial 51 out of 60</p>","null","spm_show_trial_num","","","","","","","","","","","","","","","","","","","","","","","","",""
"","","","","","image-button-response","290","575668","0.0-3.0-4.0-1.26","5d3db07f00fd1d001cfbaddd","F1","batch6","","3858.2000000178814","img/question_5_3.jpeg","2","spm_respsonse","0","8","mat_51","","","","","","0","3858.2000000178814","","","","","","","","","","","","","","",""
"","","","","","html-keyboard-response","291","576720","0.0-3.0-4.0-0.27","5d3db07f00fd1d001cfbaddd","F1","batch6","","null","<p class=block-text>Trial 52 out of 60</p>","null","spm_show_trial_num","","","","","","","","","","","","","","","","","","","","","","","","",""
"","","","","","image-button-response","292","579143","0.0-3.0-4.0-1.27","5d3db07f00fd1d001cfbaddd","F1","batch6","","2421.600000023842","img/question_5_4.jpeg","3","spm_respsonse","0","2","mat_52","","","","","","0","2421.600000023842","","","","","","","","","","","","","","",""
"","","","","","html-keyboard-response","293","580194","0.0-3.0-4.0-0.28","5d3db07f00fd1d001cfbaddd","F1","batch6","","null","<p class=block-text>Trial 53 out of 60</p>","null","spm_show_trial_num","","","","","","","","","","","","","","","","","","","","","","","","",""
"","","","","","image-button-response","294","580649","0.0-3.0-4.0-1.28","5d3db07f00fd1d001cfbaddd","F1","batch6","","453.19999998807907","img/question_5_5.jpeg","6","spm_respsonse","0","1","mat_53","","","","","","0","453.19999998807907","","","","","","","","","","","","","","",""
"","","","","","html-keyboard-response","295","581700","0.0-3.0-4.0-0.29","5d3db07f00fd1d001cfbaddd","F1","batch6","","null","<p class=block-text>Trial 54 out of 60</p>","null","spm_show_trial_num","","","","","","","","","","","","","","","","","","","","","","","","",""
"","","","","","image-button-response","296","587268","0.0-3.0-4.0-1.29","5d3db07f00fd1d001cfbaddd","F1","batch6","","5566.5999999940395","img/question_5_6.jpeg","7","spm_respsonse","0","5","mat_54","","","","","","0","5566.5999999940395","","","","","","","","","","","","","","",""
"","","","","","html-keyboard-response","297","588322","0.0-3.0-4.0-0.30","5d3db07f00fd1d001cfbaddd","F1","batch6","","null","<p class=block-text>Trial 55 out of 60</p>","null","spm_show_trial_num","","","","","","","","","","","","","","","","","","","","","","","","",""
"","","","","","image-button-response","298","599964","0.0-3.0-4.0-1.30","5d3db07f00fd1d001cfbaddd","F1","batch6","","11640.699999988079","img/question_5_7.jpeg","2","spm_respsonse","0","1","mat_55","","","","","","0","11640.699999988079","","","","","","","","","","","","","","",""
"","","","","","html-keyboard-response","299","601017","0.0-3.0-4.0-0.31","5d3db07f00fd1d001cfbaddd","F1","batch6","","null","<p class=block-text>Trial 56 out of 60</p>","null","spm_show_trial_num","","","","","","","","","","","","","","","","","","","","","","","","",""
"","","","","","image-button-response","300","608152","0.0-3.0-4.0-1.31","5d3db07f00fd1d001cfbaddd","F1","batch6","","7133.9000000059605","img/question_5_8.jpeg","6","spm_respsonse","0","6","mat_56","","","","","","0","7133.9000000059605","","","","","","","","","","","","","","",""
"","","","","","html-keyboard-response","301","609204","0.0-3.0-4.0-0.32","5d3db07f00fd1d001cfbaddd","F1","batch6","","null","<p class=block-text>Trial 57 out of 60</p>","null","spm_show_trial_num","","","","","","","","","","","","","","","","","","","","","","","","",""
"","","","","","image-button-response","302","611563","0.0-3.0-4.0-1.32","5d3db07f00fd1d001cfbaddd","F1","batch6","","2358","img/question_5_9.jpeg","4","spm_respsonse","0","3","mat_57","","","","","","0","2358","","","","","","","","","","","","","","",""
"","","","","","html-keyboard-response","303","612615","0.0-3.0-4.0-0.33","5d3db07f00fd1d001cfbaddd","F1","batch6","","null","<p class=block-text>Trial 58 out of 60</p>","null","spm_show_trial_num","","","","","","","","","","","","","","","","","","","","","","","","",""
"","","","","","image-button-response","304","620134","0.0-3.0-4.0-1.33","5d3db07f00fd1d001cfbaddd","F1","batch6","","7517.200000017881","img/question_5_10.jpeg","1","spm_respsonse","1","2","mat_58","","","","","","1","7517.200000017881","","","","","","","","","","","","","","",""
"","","","","","html-keyboard-response","305","621187","0.0-3.0-4.0-0.34","5d3db07f00fd1d001cfbaddd","F1","batch6","","null","<p class=block-text>Trial 59 out of 60</p>","null","spm_show_trial_num","","","","","","","","","","","","","","","","","","","","","","","","",""
"","","","","","image-button-response","306","625529","0.0-3.0-4.0-1.34","5d3db07f00fd1d001cfbaddd","F1","batch6","","4340.699999988079","img/question_5_11.jpeg","2","spm_respsonse","0","4","mat_59","","","","","","0","4340.699999988079","","","","","","","","","","","","","","",""
"","","","","","html-keyboard-response","307","626583","0.0-3.0-4.0-0.35","5d3db07f00fd1d001cfbaddd","F1","batch6","","null","<p class=block-text>Trial 60 out of 60</p>","null","spm_show_trial_num","","","","","","","","","","","","","","","","","","","","","","","","",""
"","","","","","image-button-response","308","633484","0.0-3.0-4.0-1.35","5d3db07f00fd1d001cfbaddd","F1","batch6","","6899.5","img/question_5_12.jpeg","6","spm_respsonse","0","5","mat_60","","","","","","0","6899.5","","","","","","","","","","","","","","",""
"","","","","","html-button-response","309","635116","0.0-3.0-5.0","5d3db07f00fd1d001cfbaddd","F1","batch6","","1380","<p class= block-text>This concludes the Standard Progressive Matrix game. Thank you for your responses!<br> When you are ready, click the button continue</p>","0","spm_goodbye","","","","","","","","","","","","","","","","","","","","","","","","",""
"true","","","","","fullscreen","310","637061","0.0-4.0-0.0","5d3db07f00fd1d001cfbaddd","F1","batch6","","","","","","","","","","","","","","","","","","","","","","","","","","","","","",""
"","","","","","instructions","311","642871","0.0-4.0-1.0-0.0-0.0","5d3db07f00fd1d001cfbaddd","F1","batch6","[{""page_index"":0,""viewing_time"":1786.199999988079},{""page_index"":1,""viewing_time"":555.3000000119209},{""page_index"":2,""viewing_time"":963.6999999880791},{""page_index"":3,""viewing_time"":635.3000000119209},{""page_index"":4,""viewing_time"":433.59999999403954},{""page_index"":5,""viewing_time"":369.5},{""page_index"":6,""viewing_time"":1066.199999988079}]","5809.899999976158","","","tol-instructions","","","","","","","","","","","","","","","","","","","","","","","","",""
"","","","","","html-button-response","312","643491","0.0-4.0-1.0-1.0-0.0","5d3db07f00fd1d001cfbaddd","F1","batch6","","619.5","<p class=block-text> Let's answer a few questions <br>","0","tol_enter_quiz","","","","","","","","","","","","","","","","","","","","","","","","",""
"","","","","","html-button-response","313","645640","0.0-4.0-1.0-1.0-1.0","5d3db07f00fd1d001cfbaddd","F1","batch6","","2148.399999976158","<p class = block-text>True or False: You can only move the ball on top of a peg. <br></p>","0","tol_quiz","true","","","","","","","","","","","","","","","","","","","","","","","",""
"","","","","","html-button-response","314","646305","0.0-4.0-1.0-1.0-2.0","5d3db07f00fd1d001cfbaddd","F1","batch6","","663.6999999880791","<p class = block-text>Correct! You can only move the ball on top of a peg.</p>","0","tol_quiz_feedback","","","","","","","","","","","","","","","","","","","","","","","","",""
"","","","","","html-button-response","315","647221","0.0-4.0-1.0-1.0-3.0","5d3db07f00fd1d001cfbaddd","F1","batch6","","915.2999999821186","<p class = block-text>True or False: You should try to match your board with the target board with fewest moves possible. <br></p>","1","tol_quiz","false","","","","","","","","","","","","","","","","","","","","","","","",""
"","","","","","html-button-response","316","648121","0.0-4.0-1.0-1.0-4.0","5d3db07f00fd1d001cfbaddd","F1","batch6","","899.6999999880791","<p class = block-text>Incorrect. Remember, You should try to match your board with the target board with fewest moves possible.</p>","0","tol_quiz_feedback","","","","","","","","","","","","","","","","","","","","","","","","",""
"","","","","","html-button-response","317","648730","0.0-4.0-1.0-2.0-0.0","5d3db07f00fd1d001cfbaddd","F1","batch6","","608.6999999880791","<p class = block-text>You made too many incorrect choices.</p><p class = block-text>You will now repeat the instructions and quiz</p>","0","","","","","","","","","","","","","","","","","","","","","","","","","",""
"","","","","","instructions","318","651039","0.0-4.0-1.1-0.1-0.1","5d3db07f00fd1d001cfbaddd","F1","batch6","[{""page_index"":0,""viewing_time"":700.8999999761581},{""page_index"":1,""viewing_time"":336.60000002384186},{""page_index"":2,""viewing_time"":163.89999997615814},{""page_index"":3,""viewing_time"":158.2000000178814},{""page_index"":4,""viewing_time"":169.90000000596046},{""page_index"":5,""viewing_time"":212.7999999821186},{""page_index"":6,""viewing_time"":565.9000000059605}]","2308.5","","","tol-instructions","","","","","","","","","","","","","","","","","","","","","","","","",""
"","","","","","html-button-response","319","651628","0.0-4.0-1.1-1.1-0.1","5d3db07f00fd1d001cfbaddd","F1","batch6","","588.0999999940395","<p class=block-text> Let's answer a few questions <br>","0","tol_enter_quiz","","","","","","","","","","","","","","","","","","","","","","","","",""
"","","","","","html-button-response","320","652190","0.0-4.0-1.1-1.1-1.1","5d3db07f00fd1d001cfbaddd","F1","batch6","","561.6999999880791","<p class = block-text>True or False: You can only move the ball on top of a peg. <br></p>","0","tol_quiz","true","","","","","","","","","","","","","","","","","","","","","","","",""
"","","","","","html-button-response","321","653055","0.0-4.0-1.1-1.1-2.1","5d3db07f00fd1d001cfbaddd","F1","batch6","","864.3000000119209","<p class = block-text>Correct! You can only move the ball on top of a peg.</p>","0","tol_quiz_feedback","","","","","","","","","","","","","","","","","","","","","","","","",""
"","","","","","html-button-response","322","654306","0.0-4.0-1.1-1.1-3.1","5d3db07f00fd1d001cfbaddd","F1","batch6","","1250.2000000178814","<p class = block-text>True or False: You should try to match your board with the target board with fewest moves possible. <br></p>","0","tol_quiz","true","","","","","","","","","","","","","","","","","","","","","","","",""
"","","","","","html-button-response","323","654845","0.0-4.0-1.1-1.1-4.1","5d3db07f00fd1d001cfbaddd","F1","batch6","","538.3000000119209","<p class = block-text>Correct! </p>","0","tol_quiz_feedback","","","","","","","","","","","","","","","","","","","","","","","","",""
"","","","","","html-button-response","324","655484","0.0-4.0-2.0","5d3db07f00fd1d001cfbaddd","F1","batch6","","638.3000000119209","<p class=block-text> Now that you've understood the game, let's practice a few easier examples before we start!<br> <br>","0","","","","","","","","","","","","","","","","","","","","","","","","","",""
"","","","","","single-stim-button","325","657180","0.0-4.0-3.0-0.0","5d3db07f00fd1d001cfbaddd","F1","batch6","","1694","","","tol_practice","","","","","","","","","","","tol_peg_2","1694","1694","0","[[1,2,0],[0,0],[0]]","1","[[1,2,0],[0,0],[3]]","practice","1694","","","","","",""
"","","","","","single-stim-button","326","658604","0.0-4.0-3.0-1.0","5d3db07f00fd1d001cfbaddd","F1","batch6","","1424","","","tol_practice","","","","","","","","","","","tol_peg_3","1424","1424","0","[[1,2,0],[0,0],[3]]","1","[[1,2,0],[0,0],[3]]","practice","1424","","","","","",""
"","","","","","poldrack-single-stim","327","659605","0.0-4.0-4.0","5d3db07f00fd1d001cfbaddd","F1","batch6","","-1","","","tol_feedback","true","","","","","","","","","","","1000","1000","500","","","","","","-1","none","true","","0",""
"","","","","","single-stim-button","328","662019","0.0-4.0-5.0-0.0","5d3db07f00fd1d001cfbaddd","F1","batch6","","2412","","","tol_practice","","","","","","","","","","","tol_peg_1","2412","2412","0","[[1,0,0],[3,0],[0]]","2","[[0,0,0],[3,1],[2]]","practice","2412","","","","","",""
"","","","","","single-stim-button","329","663420","0.0-4.0-5.0-1.0","5d3db07f00fd1d001cfbaddd","F1","batch6","","1401","","","tol_practice","","","","","","","","","","","tol_peg_3","1401","1401","0","[[1,0,0],[3,0],[2]]","2","[[0,0,0],[3,1],[2]]","practice","1401","","","","","",""
"","","","","","single-stim-button","330","664083","0.0-4.0-5.1-0.1","5d3db07f00fd1d001cfbaddd","F1","batch6","","663","","","tol_practice","","","","","","","","","","","tol_peg_1","663","663","0","[[0,0,0],[3,0],[2]]","3","[[0,0,0],[3,1],[2]]","practice","663","","","","","",""
"","","","","","single-stim-button","331","664633","0.0-4.0-5.1-1.1","5d3db07f00fd1d001cfbaddd","F1","batch6","","550","","","tol_practice","","","","","","","","","","","tol_peg_2","550","550","0","[[0,0,0],[3,1],[2]]","3","[[0,0,0],[3,1],[2]]","practice","550","","","","","",""
"","","","","","poldrack-single-stim","332","665635","0.0-4.0-6.0","5d3db07f00fd1d001cfbaddd","F1","batch6","","-1","","","tol_feedback","true","","","","","","","","","","","1000","1000","500","","","","","","-1","none","true","","0",""
"","","","","","single-stim-button","333","666708","0.0-4.0-7.0-0.0","5d3db07f00fd1d001cfbaddd","F1","batch6","","1072","","","tol_practice","","","","","","","","","","","tol_peg_2","1072","1072","0","[[1,2,0],[0,0],[0]]","4","[[1,0,0],[2,0],[3]]","practice","1072","","","","","",""
"","","","","","single-stim-button","334","667013","0.0-4.0-7.0-1.0","5d3db07f00fd1d001cfbaddd","F1","batch6","","305","","","tol_practice","","","","","","","","","","","tol_peg_3","305","305","0","[[1,2,0],[0,0],[3]]","4","[[1,0,0],[2,0],[3]]","practice","305","","","","","",""
"","","","","","single-stim-button","335","668277","0.0-4.0-7.1-0.1","5d3db07f00fd1d001cfbaddd","F1","batch6","","1263","","","tol_practice","","","","","","","","","","","tol_peg_1","1263","1263","0","[[1,0,0],[0,0],[3]]","5","[[1,0,0],[2,0],[3]]","practice","1263","","","","","",""
"","","","","","single-stim-button","336","668553","0.0-4.0-7.1-1.1","5d3db07f00fd1d001cfbaddd","F1","batch6","","276","","","tol_practice","","","","","","","","","","","tol_peg_2","276","276","0","[[1,0,0],[2,0],[3]]","5","[[1,0,0],[2,0],[3]]","practice","276","","","","","",""
"","","","","","poldrack-single-stim","337","669555","0.0-4.0-8.0","5d3db07f00fd1d001cfbaddd","F1","batch6","","-1","","","tol_feedback","true","","","","","","","","","","","1000","1000","500","","","","","","-1","none","true","","0",""
"","","","","","html-button-response","338","670543","0.0-4.0-9.0","5d3db07f00fd1d001cfbaddd","F1","batch6","","987.5","<div class = centerbox><p class = center-block-text>Great job! You are done with practice trials<br>You are about to start official trials.<br> <br> Problem <strong>1</strong> out of 25 problems</p></div>","0","tol_instruction","","","","","","","","","","","","","","","","","","","","","","","","",""
"","","","","","single-stim-button","339","672804","0.0-4.0-10.0-0.0","5d3db07f00fd1d001cfbaddd","F1","batch6","","1260","","","tol_tohand","","","","","","","","","","","tol_peg_1","1260","1260","0","[[1,0,0],[3,0],[0]]","1","[[1,3,0],[2,0],[0]]","0","0","","","","","","3"
"","","","","","single-stim-button","340","673256","0.0-4.0-10.0-1.0","5d3db07f00fd1d001cfbaddd","F1","batch6","","451","","","tol_toboard","","","","","","","","","","","tol_peg_2","451","451","0","[[1,0,0],[3,2],[0]]","1","[[1,3,0],[2,0],[0]]","0","0","","","","","","3"
"","","","","","single-stim-button","341","673589","0.0-4.0-10.1-0.1","5d3db07f00fd1d001cfbaddd","F1","batch6","","333","","","tol_tohand","","","","","","","","","","","tol_peg_2","333","333","0","[[1,0,0],[3,0],[0]]","2","[[1,3,0],[2,0],[0]]","0","0","","","","","","3"
"","","","","","single-stim-button","342","674424","0.0-4.0-10.1-1.1","5d3db07f00fd1d001cfbaddd","F1","batch6","","835","","","tol_toboard","","","","","","","","","","","tol_peg_3","835","835","0","[[1,0,0],[3,0],[2]]","2","[[1,3,0],[2,0],[0]]","0","0","","","","","","3"
"","","","","","single-stim-button","343","674722","0.0-4.0-10.2-0.2","5d3db07f00fd1d001cfbaddd","F1","batch6","","298","","","tol_tohand","","","","","","","","","","","tol_peg_2","298","298","0","[[1,0,0],[0,0],[2]]","3","[[1,3,0],[2,0],[0]]","0","0","","","","","","3"
"","","","","","single-stim-button","344","675051","0.0-4.0-10.2-1.2","5d3db07f00fd1d001cfbaddd","F1","batch6","","329","","","tol_toboard","","","","","","","","","","","tol_peg_1","329","329","0","[[1,3,0],[0,0],[2]]","3","[[1,3,0],[2,0],[0]]","0","0","","","","","","3"
"","","","","","single-stim-button","345","675542","0.0-4.0-10.3-0.3","5d3db07f00fd1d001cfbaddd","F1","batch6","","490","","","tol_tohand","","","","","","","","","","","tol_peg_3","490","490","0","[[1,3,0],[0,0],[0]]","4","[[1,3,0],[2,0],[0]]","0","0","","","","","","3"
