"success","timeout","failed_images","failed_audio","failed_video","trial_type","trial_index","time_elapsed","internal_node_id","subject_id","study_id","session_id","view_history","rt","task","stimulus","response","correct","mouse_click","stim_duration","block_duration","timing_post_trial","current_position","tol_num_moves_made","tol_target","tol_problem_id","tol_rt","key_press","possible_responses","tol_correct","preplanning","tol_rt_per_trial","tol_min_moves","item","answer","spm_correct","spm_rt","fiar_detect_rt","fiar_detect_correct","total_correct_fiar_detect","post_trial_gap","choices"
"true","false","[]","[]","[]","preload","0","1432","0.0-0.0","5d4709f1291942001c2bf782","B2","batch2","","","","","","","","","","","","","","","","","","","","","","","","","","","","","",""
"true","","","","","fullscreen","1","6523","0.0-1.0-0.0","5d4709f1291942001c2bf782","B2","batch2","","","","","","","","","","","","","","","","","","","","","","","","","","","","","",""
"true","","","","","fullscreen","2","9302","0.0-2.0-0.0","5d4709f1291942001c2bf782","B2","batch2","","","","","","","","","","","","","","","","","","","","","","","","","","","","","",""
"","","","","","instructions","3","30027","0.0-2.0-1.0-0.0-0.0","5d4709f1291942001c2bf782","B2","batch2","[{""page_index"":0,""viewing_time"":4691},{""page_index"":1,""viewing_time"":1588},{""page_index"":2,""viewing_time"":1809},{""page_index"":3,""viewing_time"":3678},{""page_index"":4,""viewing_time"":3626},{""page_index"":5,""viewing_time"":4188},{""page_index"":6,""viewing_time"":1142}]","20722","tol-instructions","","","","","","","","","","","","","","","","","","","","","","","","","","",""
"","","","","","html-button-response","4","30825","0.0-2.0-1.0-1.0-0.0","5d4709f1291942001c2bf782","B2","batch2","","796","tol_enter_quiz","<p class=block-text> Let's answer a few questions <br>","0","","","","","","","","","","","","","","","","","","","","","","","","",""
"","","","","","html-button-response","5","33780","0.0-2.0-1.0-1.0-1.0","5d4709f1291942001c2bf782","B2","batch2","","2953","tol_quiz","<p class = block-text>True or False: You can only move the ball on top of a peg. <br></p>","0","true","","","","","","","","","","","","","","","","","","","","","","","",""
"","","","","","html-button-response","6","35033","0.0-2.0-1.0-1.0-2.0","5d4709f1291942001c2bf782","B2","batch2","","1251","tol_quiz_feedback","<p class = block-text>Correct! You can only move the ball on top of a peg.</p>","0","","","","","","","","","","","","","","","","","","","","","","","","",""
"","","","","","html-button-response","7","37170","0.0-2.0-1.0-1.0-3.0","5d4709f1291942001c2bf782","B2","batch2","","2135","tol_quiz","<p class = block-text>True or False: You should try to match your board with the target board with fewest moves possible. <br></p>","0","true","","","","","","","","","","","","","","","","","","","","","","","",""
"","","","","","html-button-response","8","37888","0.0-2.0-1.0-1.0-4.0","5d4709f1291942001c2bf782","B2","batch2","","716","tol_quiz_feedback","<p class = block-text>Correct! </p>","0","","","","","","","","","","","","","","","","","","","","","","","","",""
"","","","","","html-button-response","9","39446","0.0-2.0-2.0","5d4709f1291942001c2bf782","B2","batch2","","1555","","<p class=block-text> Now that you've understood the game, let's practice a few easier examples before we start!<br> <br>","0","","","","","","","","","","","","","","","","","","","","","","","","",""
"","","","","","single-stim-button","10","41125","0.0-2.0-3.0-0.0","5d4709f1291942001c2bf782","B2","batch2","","1677","tol_practice","","","","tol_peg_2","1677","1677","0","[[1,2,0],[0,0],[0]]","1","[[1,2,0],[0,0],[3]]","practice","1677","","","","","","","","","","","","","","",""
"","","","","","single-stim-button","11","42207","0.0-2.0-3.0-1.0","5d4709f1291942001c2bf782","B2","batch2","","1082","tol_practice","","","","tol_peg_3","1082","1082","0","[[1,2,0],[0,0],[3]]","1","[[1,2,0],[0,0],[3]]","practice","1082","","","","","","","","","","","","","","",""
"","","","","","poldrack-single-stim","12","43214","0.0-2.0-4.0","5d4709f1291942001c2bf782","B2","batch2","","-1","tol_feedback","","","true","","1000","1000","500","","","","","","-1","none","true","","0","","","","","","","","","",""
"","","","","","single-stim-button","13","46004","0.0-2.0-5.0-0.0","5d4709f1291942001c2bf782","B2","batch2","","2789","tol_practice","","","","tol_peg_1","2789","2789","0","[[1,0,0],[3,0],[0]]","2","[[0,0,0],[3,1],[2]]","practice","2789","","","","","","","","","","","","","","",""
"","","","","","single-stim-button","14","46495","0.0-2.0-5.0-1.0","5d4709f1291942001c2bf782","B2","batch2","","490","tol_practice","","","","tol_peg_3","490","490","0","[[1,0,0],[3,0],[2]]","2","[[0,0,0],[3,1],[2]]","practice","490","","","","","","","","","","","","","","",""
"","","","","","single-stim-button","15","47013","0.0-2.0-5.1-0.1","5d4709f1291942001c2bf782","B2","batch2","","516","tol_practice","","","","tol_peg_1","516","516","0","[[0,0,0],[3,0],[2]]","3","[[0,0,0],[3,1],[2]]","practice","516","","","","","","","","","","","","","","",""
"","","","","","single-stim-button","16","47486","0.0-2.0-5.1-1.1","5d4709f1291942001c2bf782","B2","batch2","","472","tol_practice","","","","tol_peg_2","472","472","0","[[0,0,0],[3,1],[2]]","3","[[0,0,0],[3,1],[2]]","practice","472","","","","","","","","","","","","","","",""
"","","","","","poldrack-single-stim","17","48489","0.0-2.0-6.0","5d4709f1291942001c2bf782","B2","batch2","","-1","tol_feedback","","","true","","1000","1000","500","","","","","","-1","none","true","","0","","","","","","","","","",""
"","","","","","single-stim-button","18","50735","0.0-2.0-7.0-0.0","5d4709f1291942001c2bf782","B2","batch2","","2245","tol_practice","","","","tol_peg_2","2245","2245","0","[[1,2,0],[0,0],[0]]","4","[[1,0,0],[2,0],[3]]","practice","2245","","","","","","","","","","","","","","",""
"","","","","","single-stim-button","19","51118","0.0-2.0-7.0-1.0","5d4709f1291942001c2bf782","B2","batch2","","383","tol_practice","","","","tol_peg_3","383","383","0","[[1,2,0],[0,0],[3]]","4","[[1,0,0],[2,0],[3]]","practice","383","","","","","","","","","","","","","","",""
"","","","","","single-stim-button","20","51917","0.0-2.0-7.1-0.1","5d4709f1291942001c2bf782","B2","batch2","","797","tol_practice","","","","tol_peg_1","797","797","0","[[1,0,0],[0,0],[3]]","5","[[1,0,0],[2,0],[3]]","practice","797","","","","","","","","","","","","","","",""
"","","","","","single-stim-button","21","52388","0.0-2.0-7.1-1.1","5d4709f1291942001c2bf782","B2","batch2","","471","tol_practice","","","","tol_peg_2","471","471","0","[[1,0,0],[2,0],[3]]","5","[[1,0,0],[2,0],[3]]","practice","471","","","","","","","","","","","","","","",""
"","","","","","poldrack-single-stim","22","53397","0.0-2.0-8.0","5d4709f1291942001c2bf782","B2","batch2","","-1","tol_feedback","","","true","","1000","1000","500","","","","","","-1","none","true","","0","","","","","","","","","",""
"","","","","","html-button-response","23","55076","0.0-2.0-9.0","5d4709f1291942001c2bf782","B2","batch2","","1679","tol_instruction","<div class = centerbox><p class = center-block-text>Great job! You are done with practice trials<br>You are about to start official trials.<br> <br> Problem <strong>1</strong> out of 25 problems</p></div>","0","","","","","","","","","","","","","","","","","","","","","","","","",""
"","","","","","single-stim-button","24","58467","0.0-2.0-10.0-0.0","5d4709f1291942001c2bf782","B2","batch2","","2381","tol_tohand","","","","tol_peg_1","2381","2381","0","[[1,0,0],[3,0],[0]]","1","[[1,3,0],[2,0],[0]]","0","0","","","","","","3","","","","","","","","",""
"","","","","","single-stim-button","25","59083","0.0-2.0-10.0-1.0","5d4709f1291942001c2bf782","B2","batch2","","616","tol_toboard","","","","tol_peg_3","616","616","0","[[1,0,0],[3,0],[2]]","1","[[1,3,0],[2,0],[0]]","0","0","","","","","","3","","","","","","","","",""
"","","","","","single-stim-button","26","59548","0.0-2.0-10.1-0.1","5d4709f1291942001c2bf782","B2","batch2","","463","tol_tohand","","","","tol_peg_2","463","463","0","[[1,0,0],[0,0],[2]]","2","[[1,3,0],[2,0],[0]]","0","0","","","","","","3","","","","","","","","",""
"","","","","","single-stim-button","27","60045","0.0-2.0-10.1-1.1","5d4709f1291942001c2bf782","B2","batch2","","497","tol_toboard","","","","tol_peg_1","497","497","0","[[1,3,0],[0,0],[2]]","2","[[1,3,0],[2,0],[0]]","0","0","","","","","","3","","","","","","","","",""
"","","","","","single-stim-button","28","60848","0.0-2.0-10.2-0.2","5d4709f1291942001c2bf782","B2","batch2","","803","tol_tohand","","","","tol_peg_3","803","803","0","[[1,3,0],[0,0],[0]]","3","[[1,3,0],[2,0],[0]]","0","0","","","","","","3","","","","","","","","",""
"","","","","","single-stim-button","29","61338","0.0-2.0-10.2-1.2","5d4709f1291942001c2bf782","B2","batch2","","489","tol_toboard","","","","tol_peg_2","489","489","0","[[1,3,0],[2,0],[0]]","3","[[1,3,0],[2,0],[0]]","0","0","","","","","","3","","","","","","","","",""
"","","","","","poldrack-single-stim","30","62341","0.0-2.0-11.0","5d4709f1291942001c2bf782","B2","batch2","","-1","tol_feedback","","","true","","1000","1000","500","","","","","","-1","none","true","2381","3647","","","","","","","","","",""
"","","","","","html-button-response","31","62989","0.0-2.0-12.0","5d4709f1291942001c2bf782","B2","batch2","","647","tol_trial_num","<div class = centerbox><p class = center-block-text>problem <strong>2</strong> out of 25 problems</p></div>","0","","","","","","","","","","","","","","","","","","","","","","","","",""
"","","","","","single-stim-button","32","66434","0.0-2.0-13.0-0.0","5d4709f1291942001c2bf782","B2","batch2","","3444","tol_tohand","","","","tol_peg_1","3444","3444","0","[[1,0,0],[3,0],[0]]","1","[[2,1,3],[0,0],[0]]","1","0","","","","","","5","","","","","","","","",""
"","","","","","single-stim-button","33","67095","0.0-2.0-13.0-1.0","5d4709f1291942001c2bf782","B2","batch2","","661","tol_toboard","","","","tol_peg_2","661","661","0","[[1,0,0],[3,2],[0]]","1","[[2,1,3],[0,0],[0]]","1","0","","","","","","5","","","","","","","","",""
"","","","","","single-stim-button","34","67780","0.0-2.0-13.1-0.1","5d4709f1291942001c2bf782","B2","batch2","","685","tol_tohand","","","","tol_peg_1","685","685","0","[[0,0,0],[3,2],[0]]","2","[[2,1,3],[0,0],[0]]","1","0","","","","","","5","","","","","","","","",""
"","","","","","single-stim-button","35","68407","0.0-2.0-13.1-1.1","5d4709f1291942001c2bf782","B2","batch2","","626","tol_toboard","","","","tol_peg_3","626","626","0","[[0,0,0],[3,2],[1]]","2","[[2,1,3],[0,0],[0]]","1","0","","","","","","5","","","","","","","","",""
"","","","","","single-stim-button","36","69014","0.0-2.0-13.2-0.2","5d4709f1291942001c2bf782","B2","batch2","","606","tol_tohand","","","","tol_peg_2","606","606","0","[[0,0,0],[3,0],[1]]","3","[[2,1,3],[0,0],[0]]","1","0","","","","","","5","","","","","","","","",""
"","","","","","single-stim-button","37","69493","0.0-2.0-13.2-1.2","5d4709f1291942001c2bf782","B2","batch2","","478","tol_toboard","","","","tol_peg_1","478","478","0","[[2,0,0],[3,0],[1]]","3","[[2,1,3],[0,0],[0]]","1","0","","","","","","5","","","","","","","","",""
"","","","","","single-stim-button","38","70078","0.0-2.0-13.3-0.3","5d4709f1291942001c2bf782","B2","batch2","","585","tol_tohand","","","","tol_peg_3","585","585","0","[[2,0,0],[3,0],[0]]","4","[[2,1,3],[0,0],[0]]","1","0","","","","","","5","","","","","","","","",""
"","","","","","single-stim-button","39","70473","0.0-2.0-13.3-1.3","5d4709f1291942001c2bf782","B2","batch2","","395","tol_toboard","","","","tol_peg_1","395","395","0","[[2,1,0],[3,0],[0]]","4","[[2,1,3],[0,0],[0]]","1","0","","","","","","5","","","","","","","","",""
"","","","","","single-stim-button","40","70990","0.0-2.0-13.4-0.4","5d4709f1291942001c2bf782","B2","batch2","","516","tol_tohand","","","","tol_peg_2","516","516","0","[[2,1,0],[0,0],[0]]","5","[[2,1,3],[0,0],[0]]","1","0","","","","","","5","","","","","","","","",""
"","","","","","single-stim-button","41","71444","0.0-2.0-13.4-1.4","5d4709f1291942001c2bf782","B2","batch2","","452","tol_toboard","","","","tol_peg_1","452","452","0","[[2,1,3],[0,0],[0]]","5","[[2,1,3],[0,0],[0]]","1","0","","","","","","5","","","","","","","","",""
"","","","","","poldrack-single-stim","42","72459","0.0-2.0-14.0","5d4709f1291942001c2bf782","B2","batch2","","-1","tol_feedback","","","true","","1000","1000","500","","","","","","-1","none","true","3444","5836","","","","","","","","","",""
"","","","","","html-button-response","43","73598","0.0-2.0-15.0","5d4709f1291942001c2bf782","B2","batch2","","1135","tol_trial_num","<div class = centerbox><p class = center-block-text>problem <strong>3</strong> out of 25 problems</p></div>","0","","","","","","","","","","","","","","","","","","","","","","","","",""
"","","","","","single-stim-button","44","75495","0.0-2.0-16.0-0.0","5d4709f1291942001c2bf782","B2","batch2","","1897","tol_tohand","","","","tol_peg_1","1897","1897","0","[[2,0,0],[0,0],[1]]","1","[[1,2,0],[3,0],[0]]","2","0","","","","","","4","","","","","","","","",""
"","","","","","single-stim-button","45","76235","0.0-2.0-16.0-1.0","5d4709f1291942001c2bf782","B2","batch2","","738","tol_toboard","","","","tol_peg_2","738","738","0","[[2,0,0],[3,0],[1]]","1","[[1,2,0],[3,0],[0]]","2","0","","","","","","4","","","","","","","","",""
"","","","","","single-stim-button","46","76715","0.0-2.0-16.1-0.1","5d4709f1291942001c2bf782","B2","batch2","","480","tol_tohand","","","","tol_peg_1","480","480","0","[[0,0,0],[3,0],[1]]","2","[[1,2,0],[3,0],[0]]","2","0","","","","","","4","","","","","","","","",""
"","","","","","single-stim-button","47","77097","0.0-2.0-16.1-1.1","5d4709f1291942001c2bf782","B2","batch2","","381","tol_toboard","","","","tol_peg_2","381","381","0","[[0,0,0],[3,2],[1]]","2","[[1,2,0],[3,0],[0]]","2","0","","","","","","4","","","","","","","","",""
"","","","","","single-stim-button","48","77598","0.0-2.0-16.2-0.2","5d4709f1291942001c2bf782","B2","batch2","","500","tol_tohand","","","","tol_peg_3","500","500","0","[[0,0,0],[3,2],[0]]","3","[[1,2,0],[3,0],[0]]","2","0","","","","","","4","","","","","","","","",""
"","","","","","single-stim-button","49","78035","0.0-2.0-16.2-1.2","5d4709f1291942001c2bf782","B2","batch2","","437","tol_toboard","","","","tol_peg_1","437","437","0","[[1,0,0],[3,2],[0]]","3","[[1,2,0],[3,0],[0]]","2","0","","","","","","4","","","","","","","","",""
"","","","","","single-stim-button","50","78516","0.0-2.0-16.3-0.3","5d4709f1291942001c2bf782","B2","batch2","","479","tol_tohand","","","","tol_peg_2","479","479","0","[[1,0,0],[3,0],[0]]","4","[[1,2,0],[3,0],[0]]","2","0","","","","","","4","","","","","","","","",""
"","","","","","single-stim-button","51","78904","0.0-2.0-16.3-1.3","5d4709f1291942001c2bf782","B2","batch2","","386","tol_toboard","","","","tol_peg_1","386","386","0","[[1,2,0],[3,0],[0]]","4","[[1,2,0],[3,0],[0]]","2","0","","","","","","4","","","","","","","","",""
"","","","","","poldrack-single-stim","52","79909","0.0-2.0-17.0","5d4709f1291942001c2bf782","B2","batch2","","-1","tol_feedback","","","true","","1000","1000","500","","","","","","-1","none","true","1897","3356","","","","","","","","","",""
"","","","","","html-button-response","53","81171","0.0-2.0-18.0","5d4709f1291942001c2bf782","B2","batch2","","1262","tol_trial_num","<div class = centerbox><p class = center-block-text>problem <strong>4</strong> out of 25 problems</p></div>","0","","","","","","","","","","","","","","","","","","","","","","","","",""
"","","","","","single-stim-button","54","83819","0.0-2.0-19.0-0.0","5d4709f1291942001c2bf782","B2","batch2","","2644","tol_tohand","","","","tol_peg_2","2644","2644","0","[[3,0,0],[2,0],[0]]","1","[[3,0,0],[1,0],[2]]","3","0","","","","","","3","","","","","","","","",""
"","","","","","single-stim-button","55","85060","0.0-2.0-19.0-1.0","5d4709f1291942001c2bf782","B2","batch2","","1241","tol_toboard","","","","tol_peg_3","1241","1241","0","[[3,0,0],[2,0],[1]]","1","[[3,0,0],[1,0],[2]]","3","0","","","","","","3","","","","","","","","",""
"","","","","","single-stim-button","56","85542","0.0-2.0-19.1-0.1","5d4709f1291942001c2bf782","B2","batch2","","481","tol_tohand","","","","tol_peg_2","481","481","0","[[3,0,0],[0,0],[1]]","2","[[3,0,0],[1,0],[2]]","3","0","","","","","","3","","","","","","","","",""
"","","","","","single-stim-button","57","86096","0.0-2.0-19.1-1.1","5d4709f1291942001c2bf782","B2","batch2","","552","tol_toboard","","","","tol_peg_1","552","552","0","[[3,2,0],[0,0],[1]]","2","[[3,0,0],[1,0],[2]]","3","0","","","","","","3","","","","","","","","",""
"","","","","","single-stim-button","58","86916","0.0-2.0-19.2-0.2","5d4709f1291942001c2bf782","B2","batch2","","819","tol_tohand","","","","tol_peg_3","819","819","0","[[3,2,0],[0,0],[0]]","3","[[3,0,0],[1,0],[2]]","3","0","","","","","","3","","","","","","","","",""
"","","","","","single-stim-button","59","87399","0.0-2.0-19.2-1.2","5d4709f1291942001c2bf782","B2","batch2","","483","tol_toboard","","","","tol_peg_2","483","483","0","[[3,2,0],[1,0],[0]]","3","[[3,0,0],[1,0],[2]]","3","0","","","","","","3","","","","","","","","",""
"","","","","","single-stim-button","60","88157","0.0-2.0-19.3-0.3","5d4709f1291942001c2bf782","B2","batch2","","758","tol_tohand","","","","tol_peg_1","758","758","0","[[3,0,0],[1,0],[0]]","4","[[3,0,0],[1,0],[2]]","3","0","","","","","","3","","","","","","","","",""
"","","","","","single-stim-button","61","88785","0.0-2.0-19.3-1.3","5d4709f1291942001c2bf782","B2","batch2","","626","tol_toboard","","","","tol_peg_3","626","626","0","[[3,0,0],[1,0],[2]]","4","[[3,0,0],[1,0],[2]]","3","0","","","","","","3","","","","","","","","",""
"","","","","","poldrack-single-stim","62","89788","0.0-2.0-20.0","5d4709f1291942001c2bf782","B2","batch2","","-1","tol_feedback","","","true","","1000","1000","500","","","","","","-1","none","true","2644","4702","","","","","","","","","",""
"","","","","","html-button-response","63","91403","0.0-2.0-21.0","5d4709f1291942001c2bf782","B2","batch2","","1614","tol_trial_num","<div class = centerbox><p class = center-block-text>problem <strong>5</strong> out of 25 problems</p></div>","0","","","","","","","","","","","","","","","","","","","","","","","","",""
"","","","","","single-stim-button","64","119804","0.0-2.0-22.0-0.0","5d4709f1291942001c2bf782","B2","batch2","","28399","tol_tohand","","","","tol_peg_3","28399","28399","0","[[1,0,0],[2,0],[0]]","1","[[0,0,0],[1,2],[3]]","4","0","","","","","","7","","","","","","","","",""
"","","","","","single-stim-button","65","120079","0.0-2.0-22.0-1.0","5d4709f1291942001c2bf782","B2","batch2","","274","tol_toboard","","","","tol_peg_3","274","274","0","[[1,0,0],[2,0],[3]]","1","[[0,0,0],[1,2],[3]]","4","0","","","","","","7","","","","","","","","",""
"","","","","","single-stim-button","66","120970","0.0-2.0-22.1-0.1","5d4709f1291942001c2bf782","B2","batch2","","891","tol_tohand","","","","tol_peg_3","891","891","0","[[1,0,0],[2,0],[0]]","2","[[0,0,0],[1,2],[3]]","4","0","","","","","","7","","","","","","","","",""
"","","","","","single-stim-button","67","121365","0.0-2.0-22.1-1.1","5d4709f1291942001c2bf782","B2","batch2","","394","tol_toboard","","","","tol_peg_2","394","394","0","[[1,0,0],[2,3],[0]]","2","[[0,0,0],[1,2],[3]]","4","0","","","","","","7","","","","","","","","",""
"","","","","","single-stim-button","68","122286","0.0-2.0-22.2-0.2","5d4709f1291942001c2bf782","B2","batch2","","921","tol_tohand","","","","tol_peg_1","921","921","0","[[0,0,0],[2,3],[0]]","3","[[0,0,0],[1,2],[3]]","4","0","","","","","","7","","","","","","","","",""
"","","","","","single-stim-button","69","123260","0.0-2.0-22.2-1.2","5d4709f1291942001c2bf782","B2","batch2","","974","tol_toboard","","","","tol_peg_3","974","974","0","[[0,0,0],[2,3],[1]]","3","[[0,0,0],[1,2],[3]]","4","0","","","","","","7","","","","","","","","",""
"","","","","","single-stim-button","70","126293","0.0-2.0-22.3-0.3","5d4709f1291942001c2bf782","B2","batch2","","3032","tol_tohand","","","","tol_peg_2","3032","3032","0","[[0,0,0],[2,0],[1]]","4","[[0,0,0],[1,2],[3]]","4","0","","","","","","7","","","","","","","","",""
"","","","","","single-stim-button","71","126655","0.0-2.0-22.3-1.3","5d4709f1291942001c2bf782","B2","batch2","","362","tol_toboard","","","","tol_peg_1","362","362","0","[[3,0,0],[2,0],[1]]","4","[[0,0,0],[1,2],[3]]","4","0","","","","","","7","","","","","","","","",""
"","","","","","single-stim-button","72","127299","0.0-2.0-22.4-0.4","5d4709f1291942001c2bf782","B2","batch2","","643","tol_tohand","","","","tol_peg_2","643","643","0","[[3,0,0],[0,0],[1]]","5","[[0,0,0],[1,2],[3]]","4","0","","","","","","7","","","","","","","","",""
"","","","","","single-stim-button","73","127867","0.0-2.0-22.4-1.4","5d4709f1291942001c2bf782","B2","batch2","","568","tol_toboard","","","","tol_peg_1","568","568","0","[[3,2,0],[0,0],[1]]","5","[[0,0,0],[1,2],[3]]","4","0","","","","","","7","","","","","","","","",""
"","","","","","single-stim-button","74","128423","0.0-2.0-22.5-0.5","5d4709f1291942001c2bf782","B2","batch2","","555","tol_tohand","","","","tol_peg_3","555","555","0","[[3,2,0],[0,0],[0]]","6","[[0,0,0],[1,2],[3]]","4","0","","","","","","7","","","","","","","","",""
"","","","","","single-stim-button","75","128938","0.0-2.0-22.5-1.5","5d4709f1291942001c2bf782","B2","batch2","","515","tol_toboard","","","","tol_peg_2","515","515","0","[[3,2,0],[1,0],[0]]","6","[[0,0,0],[1,2],[3]]","4","0","","","","","","7","","","","","","","","",""
"","","","","","single-stim-button","76","129536","0.0-2.0-22.6-0.6","5d4709f1291942001c2bf782","B2","batch2","","597","tol_tohand","","","","tol_peg_1","597","597","0","[[3,0,0],[1,0],[0]]","7","[[0,0,0],[1,2],[3]]","4","0","","","","","","7","","","","","","","","",""
"","","","","","single-stim-button","77","129967","0.0-2.0-22.6-1.6","5d4709f1291942001c2bf782","B2","batch2","","430","tol_toboard","","","","tol_peg_2","430","430","0","[[3,0,0],[1,2],[0]]","7","[[0,0,0],[1,2],[3]]","4","0","","","","","","7","","","","","","","","",""
"","","","","","single-stim-button","78","130472","0.0-2.0-22.7-0.7","5d4709f1291942001c2bf782","B2","batch2","","505","tol_tohand","","","","tol_peg_1","505","505","0","[[0,0,0],[1,2],[0]]","8","[[0,0,0],[1,2],[3]]","4","0","","","","","","7","","","","","","","","",""
"","","","","","single-stim-button","79","131340","0.0-2.0-22.7-1.7","5d4709f1291942001c2bf782","B2","batch2","","867","tol_toboard","","","","tol_peg_3","867","867","0","[[0,0,0],[1,2],[3]]","8","[[0,0,0],[1,2],[3]]","4","0","","","","","","7","","","","","","","","",""
"","","","","","poldrack-single-stim","80","132348","0.0-2.0-23.0","5d4709f1291942001c2bf782","B2","batch2","","-1","tol_feedback","","","true","","1000","1000","500","","","","","","-1","none","true","28399","35543","","","","","","","","","",""
"","","","","","html-button-response","81","136283","0.0-2.0-24.0","5d4709f1291942001c2bf782","B2","batch2","","3933","tol_trial_num","<div class = centerbox><p class = center-block-text>problem <strong>6</strong> out of 25 problems</p></div>","0","","","","","","","","","","","","","","","","","","","","","","","","",""
"","","","","","single-stim-button","82","148185","0.0-2.0-25.0-0.0","5d4709f1291942001c2bf782","B2","batch2","","11901","tol_tohand","","","","tol_peg_2","11901","11901","0","[[0,0,0],[1,0],[3]]","1","[[1,0,0],[2,3],[0]]","5","0","","","","","","6","","","","","","","","",""
"","","","","","single-stim-button","83","149105","0.0-2.0-25.0-1.0","5d4709f1291942001c2bf782","B2","batch2","","918","tol_toboard","","","","tol_peg_1","918","918","0","[[2,0,0],[1,0],[3]]","1","[[1,0,0],[2,3],[0]]","5","0","","","","","","6","","","","","","","","",""
"","","","","","single-stim-button","84","174201","0.0-2.0-25.1-0.1","5d4709f1291942001c2bf782","B2","batch2","","25094","tol_tohand","","","","tol_peg_1","25094","25094","0","[[0,0,0],[1,0],[3]]","2","[[1,0,0],[2,3],[0]]","5","0","","","","","","6","","","","","","","","",""
"","","","","","single-stim-button","85","174684","0.0-2.0-25.1-1.1","5d4709f1291942001c2bf782","B2","batch2","","481","tol_toboard","","","","tol_peg_2","481","481","0","[[0,0,0],[1,2],[3]]","2","[[1,0,0],[2,3],[0]]","5","0","","","","","","6","","","","","","","","",""
"","","","","","single-stim-button","86","175214","0.0-2.0-25.2-0.2","5d4709f1291942001c2bf782","B2","batch2","","529","tol_tohand","","","","tol_peg_2","529","529","0","[[0,0,0],[1,0],[3]]","3","[[1,0,0],[2,3],[0]]","5","0","","","","","","6","","","","","","","","",""
"","","","","","single-stim-button","87","177169","0.0-2.0-25.2-1.2","5d4709f1291942001c2bf782","B2","batch2","","1955","tol_toboard","","","","tol_peg_2","1955","1955","0","[[0,0,0],[1,2],[3]]","3","[[1,0,0],[2,3],[0]]","5","0","","","","","","6","","","","","","","","",""
"","","","","","single-stim-button","88","181228","0.0-2.0-25.3-0.3","5d4709f1291942001c2bf782","B2","batch2","","4057","tol_tohand","","","","tol_peg_2","4057","4057","0","[[0,0,0],[1,0],[3]]","4","[[1,0,0],[2,3],[0]]","5","0","","","","","","6","","","","","","","","",""
"","","","","","single-stim-button","89","181873","0.0-2.0-25.3-1.3","5d4709f1291942001c2bf782","B2","batch2","","645","tol_toboard","","","","tol_peg_1","645","645","0","[[2,0,0],[1,0],[3]]","4","[[1,0,0],[2,3],[0]]","5","0","","","","","","6","","","","","","","","",""
"","","","","","single-stim-button","90","182808","0.0-2.0-25.4-0.4","5d4709f1291942001c2bf782","B2","batch2","","934","tol_tohand","","","","tol_peg_2","934","934","0","[[2,0,0],[0,0],[3]]","5","[[1,0,0],[2,3],[0]]","5","0","","","","","","6","","","","","","","","",""
"","","","","","single-stim-button","91","183312","0.0-2.0-25.4-1.4","5d4709f1291942001c2bf782","B2","batch2","","502","tol_toboard","","","","tol_peg_1","502","502","0","[[2,1,0],[0,0],[3]]","5","[[1,0,0],[2,3],[0]]","5","0","","","","","","6","","","","","","","","",""
"","","","","","single-stim-button","92","184542","0.0-2.0-25.5-0.5","5d4709f1291942001c2bf782","B2","batch2","","1229","tol_tohand","","","","tol_peg_3","1229","1229","0","[[2,1,0],[0,0],[0]]","6","[[1,0,0],[2,3],[0]]","5","0","","","","","","6","","","","","","","","",""
"","","","","","single-stim-button","93","185354","0.0-2.0-25.5-1.5","5d4709f1291942001c2bf782","B2","batch2","","811","tol_toboard","","","","tol_peg_2","811","811","0","[[2,1,0],[3,0],[0]]","6","[[1,0,0],[2,3],[0]]","5","0","","","","","","6","","","","","","","","",""
"","","","","","single-stim-button","94","187065","0.0-2.0-25.6-0.6","5d4709f1291942001c2bf782","B2","batch2","","1710","tol_tohand","","","","tol_peg_1","1710","1710","0","[[2,0,0],[3,0],[0]]","7","[[1,0,0],[2,3],[0]]","5","0","","","","","","6","","","","","","","","",""
"","","","","","single-stim-button","95","189438","0.0-2.0-25.6-1.6","5d4709f1291942001c2bf782","B2","batch2","","2372","tol_toboard","","","","tol_peg_3","2372","2372","0","[[2,0,0],[3,0],[1]]","7","[[1,0,0],[2,3],[0]]","5","0","","","","","","6","","","","","","","","",""
"","","","","","single-stim-button","96","190683","0.0-2.0-25.7-0.7","5d4709f1291942001c2bf782","B2","batch2","","1244","tol_tohand","","","","tol_peg_1","1244","1244","0","[[0,0,0],[3,0],[1]]","8","[[1,0,0],[2,3],[0]]","5","0","","","","","","6","","","","","","","","",""
"","","","","","single-stim-button","97","191364","0.0-2.0-25.7-1.7","5d4709f1291942001c2bf782","B2","batch2","","680","tol_toboard","","","","tol_peg_2","680","680","0","[[0,0,0],[3,2],[1]]","8","[[1,0,0],[2,3],[0]]","5","0","","","","","","6","","","","","","","","",""
"","","","","","single-stim-button","98","192080","0.0-2.0-25.8-0.8","5d4709f1291942001c2bf782","B2","batch2","","715","tol_tohand","","","","tol_peg_3","715","715","0","[[0,0,0],[3,2],[0]]","9","[[1,0,0],[2,3],[0]]","5","0","","","","","","6","","","","","","","","",""
"","","","","","single-stim-button","99","193252","0.0-2.0-25.8-1.8","5d4709f1291942001c2bf782","B2","batch2","","1171","tol_toboard","","","","tol_peg_1","1171","1171","0","[[1,0,0],[3,2],[0]]","9","[[1,0,0],[2,3],[0]]","5","0","","","","","","6","","","","","","","","",""
"","","","","","single-stim-button","100","194439","0.0-2.0-25.9-0.9","5d4709f1291942001c2bf782","B2","batch2","","1186","tol_tohand","","","","tol_peg_2","1186","1186","0","[[1,0,0],[3,0],[0]]","10","[[1,0,0],[2,3],[0]]","5","0","","","","","","6","","","","","","","","",""
"","","","","","single-stim-button","101","195837","0.0-2.0-25.9-1.9","5d4709f1291942001c2bf782","B2","batch2","","1398","tol_toboard","","","","tol_peg_1","1398","1398","0","[[1,2,0],[3,0],[0]]","10","[[1,0,0],[2,3],[0]]","5","0","","","","","","6","","","","","","","","",""
"","","","","","single-stim-button","102","196270","0.0-2.0-25.10-0.10","5d4709f1291942001c2bf782","B2","batch2","","432","tol_tohand","","","","tol_peg_2","432","432","0","[[1,2,0],[0,0],[0]]","11","[[1,0,0],[2,3],[0]]","5","0","","","","","","6","","","","","","","","",""
"","","","","","single-stim-button","103","196926","0.0-2.0-25.10-1.10","5d4709f1291942001c2bf782","B2","batch2","","655","tol_toboard","","","","tol_peg_3","655","655","0","[[1,2,0],[0,0],[3]]","11","[[1,0,0],[2,3],[0]]","5","0","","","","","","6","","","","","","","","",""
"","","","","","single-stim-button","104","198222","0.0-2.0-25.11-0.11","5d4709f1291942001c2bf782","B2","batch2","","1295","tol_tohand","","","","tol_peg_1","1295","1295","0","[[1,0,0],[0,0],[3]]","12","[[1,0,0],[2,3],[0]]","5","0","","","","","","6","","","","","","","","",""
"","","","","","single-stim-button","105","198705","0.0-2.0-25.11-1.11","5d4709f1291942001c2bf782","B2","batch2","","483","tol_toboard","","","","tol_peg_2","483","483","0","[[1,0,0],[2,0],[3]]","12","[[1,0,0],[2,3],[0]]","5","0","","","","","","6","","","","","","","","",""
"","","","","","single-stim-button","106","199375","0.0-2.0-25.12-0.12","5d4709f1291942001c2bf782","B2","batch2","","668","tol_tohand","","","","tol_peg_3","668","668","0","[[1,0,0],[2,0],[0]]","13","[[1,0,0],[2,3],[0]]","5","0","","","","","","6","","","","","","","","",""
"","","","","","single-stim-button","107","200178","0.0-2.0-25.12-1.12","5d4709f1291942001c2bf782","B2","batch2","","803","tol_toboard","","","","tol_peg_2","803","803","0","[[1,0,0],[2,3],[0]]","13","[[1,0,0],[2,3],[0]]","5","0","","","","","","6","","","","","","","","",""
"","","","","","poldrack-single-stim","108","201185","0.0-2.0-26.0","5d4709f1291942001c2bf782","B2","batch2","","-1","tol_feedback","","","true","","1000","1000","500","","","","","","-1","none","true","11901","50994","","","","","","","","","",""
"","","","","","html-button-response","109","203577","0.0-2.0-27.0","5d4709f1291942001c2bf782","B2","batch2","","2390","tol_trial_num","<div class = centerbox><p class = center-block-text>problem <strong>7</strong> out of 25 problems</p></div>","0","","","","","","","","","","","","","","","","","","","","","","","","",""
"","","","","","single-stim-button","110","208544","0.0-2.0-28.0-0.0","5d4709f1291942001c2bf782","B2","batch2","","4967","tol_tohand","","","","tol_peg_3","4967","4967","0","[[2,1,0],[0,0],[0]]","1","[[1,2,0],[3,0],[0]]","6","0","","","","","","5","","","","","","","","",""
"","","","","","single-stim-button","111","209377","0.0-2.0-28.0-1.0","5d4709f1291942001c2bf782","B2","batch2","","831","tol_toboard","","","","tol_peg_2","831","831","0","[[2,1,0],[3,0],[0]]","1","[[1,2,0],[3,0],[0]]","6","0","","","","","","5","","","","","","","","",""
"","","","","","single-stim-button","112","210025","0.0-2.0-28.1-0.1","5d4709f1291942001c2bf782","B2","batch2","","648","tol_tohand","","","","tol_peg_1","648","648","0","[[2,0,0],[3,0],[0]]","2","[[1,2,0],[3,0],[0]]","6","0","","","","","","5","","","","","","","","",""
"","","","","","single-stim-button","113","210614","0.0-2.0-28.1-1.1","5d4709f1291942001c2bf782","B2","batch2","","588","tol_toboard","","","","tol_peg_3","588","588","0","[[2,0,0],[3,0],[1]]","2","[[1,2,0],[3,0],[0]]","6","0","","","","","","5","","","","","","","","",""
"","","","","","single-stim-button","114","211421","0.0-2.0-28.2-0.2","5d4709f1291942001c2bf782","B2","batch2","","807","tol_tohand","","","","tol_peg_1","807","807","0","[[0,0,0],[3,0],[1]]","3","[[1,2,0],[3,0],[0]]","6","0","","","","","","5","","","","","","","","",""
"","","","","","single-stim-button","115","211869","0.0-2.0-28.2-1.2","5d4709f1291942001c2bf782","B2","batch2","","448","tol_toboard","","","","tol_peg_2","448","448","0","[[0,0,0],[3,2],[1]]","3","[[1,2,0],[3,0],[0]]","6","0","","","","","","5","","","","","","","","",""
"","","","","","single-stim-button","116","212435","0.0-2.0-28.3-0.3","5d4709f1291942001c2bf782","B2","batch2","","566","tol_tohand","","","","tol_peg_3","566","566","0","[[0,0,0],[3,2],[0]]","4","[[1,2,0],[3,0],[0]]","6","0","","","","","","5","","","","","","","","",""
"","","","","","single-stim-button","117","213104","0.0-2.0-28.3-1.3","5d4709f1291942001c2bf782","B2","batch2","","668","tol_toboard","","","","tol_peg_1","668","668","0","[[1,0,0],[3,2],[0]]","4","[[1,2,0],[3,0],[0]]","6","0","","","","","","5","","","","","","","","",""
"","","","","","single-stim-button","118","213574","0.0-2.0-28.4-0.4","5d4709f1291942001c2bf782","B2","batch2","","469","tol_tohand","","","","tol_peg_2","469","469","0","[[1,0,0],[3,0],[0]]","5","[[1,2,0],[3,0],[0]]","6","0","","","","","","5","","","","","","","","",""
"","","","","","single-stim-button","119","214314","0.0-2.0-28.4-1.4","5d4709f1291942001c2bf782","B2","batch2","","740","tol_toboard","","","","tol_peg_1","740","740","0","[[1,2,0],[3,0],[0]]","5","[[1,2,0],[3,0],[0]]","6","0","","","","","","5","","","","","","","","",""
"","","","","","poldrack-single-stim","120","215329","0.0-2.0-29.0","5d4709f1291942001c2bf782","B2","batch2","","-1","tol_feedback","","","true","","1000","1000","500","","","","","","-1","none","true","4967","7457","","","","","","","","","",""
"","","","","","html-button-response","121","216668","0.0-2.0-30.0","5d4709f1291942001c2bf782","B2","batch2","","1337","tol_trial_num","<div class = centerbox><p class = center-block-text>problem <strong>8</strong> out of 25 problems</p></div>","0","","","","","","","","","","","","","","","","","","","","","","","","",""
"","","","","","single-stim-button","122","219176","0.0-2.0-31.0-0.0","5d4709f1291942001c2bf782","B2","batch2","","2508","tol_tohand","","","","tol_peg_3","2508","2508","0","[[0,0,0],[2,3],[0]]","1","[[1,2,0],[3,0],[0]]","7","0","","","","","","4","","","","","","","","",""
"","","","","","single-stim-button","123","220924","0.0-2.0-31.0-1.0","5d4709f1291942001c2bf782","B2","batch2","","1746","tol_toboard","","","","tol_peg_1","1746","1746","0","[[1,0,0],[2,3],[0]]","1","[[1,2,0],[3,0],[0]]","7","0","","","","","","4","","","","","","","","",""
"","","","","","single-stim-button","124","221747","0.0-2.0-31.1-0.1","5d4709f1291942001c2bf782","B2","batch2","","822","tol_tohand","","","","tol_peg_2","822","822","0","[[1,0,0],[2,0],[0]]","2","[[1,2,0],[3,0],[0]]","7","0","","","","","","4","","","","","","","","",""
"","","","","","single-stim-button","125","222447","0.0-2.0-31.1-1.1","5d4709f1291942001c2bf782","B2","batch2","","699","tol_toboard","","","","tol_peg_3","699","699","0","[[1,0,0],[2,0],[3]]","2","[[1,2,0],[3,0],[0]]","7","0","","","","","","4","","","","","","","","",""
"","","","","","single-stim-button","126","222892","0.0-2.0-31.2-0.2","5d4709f1291942001c2bf782","B2","batch2","","445","tol_tohand","","","","tol_peg_2","445","445","0","[[1,0,0],[0,0],[3]]","3","[[1,2,0],[3,0],[0]]","7","0","","","","","","4","","","","","","","","",""
"","","","","","single-stim-button","127","223866","0.0-2.0-31.2-1.2","5d4709f1291942001c2bf782","B2","batch2","","972","tol_toboard","","","","tol_peg_1","972","972","0","[[1,2,0],[0,0],[3]]","3","[[1,2,0],[3,0],[0]]","7","0","","","","","","4","","","","","","","","",""
"","","","","","single-stim-button","128","224875","0.0-2.0-31.3-0.3","5d4709f1291942001c2bf782","B2","batch2","","1009","tol_tohand","","","","tol_peg_3","1009","1009","0","[[1,2,0],[0,0],[0]]","4","[[1,2,0],[3,0],[0]]","7","0","","","","","","4","","","","","","","","",""
"","","","","","single-stim-button","129","225637","0.0-2.0-31.3-1.3","5d4709f1291942001c2bf782","B2","batch2","","761","tol_toboard","","","","tol_peg_2","761","761","0","[[1,2,0],[3,0],[0]]","4","[[1,2,0],[3,0],[0]]","7","0","","","","","","4","","","","","","","","",""
"","","","","","poldrack-single-stim","130","226646","0.0-2.0-32.0","5d4709f1291942001c2bf782","B2","batch2","","-1","tol_feedback","","","true","","1000","1000","500","","","","","","-1","none","true","2508","4784","","","","","","","","","",""
"","","","","","html-button-response","131","227574","0.0-2.0-33.0","5d4709f1291942001c2bf782","B2","batch2","","928","tol_trial_num","<div class = centerbox><p class = center-block-text>problem <strong>9</strong> out of 25 problems</p></div>","0","","","","","","","","","","","","","","","","","","","","","","","","",""
"","","","","","single-stim-button","132","234997","0.0-2.0-34.0-0.0","5d4709f1291942001c2bf782","B2","batch2","","7421","tol_tohand","","","","tol_peg_1","7421","7421","0","[[3,0,0],[0,0],[1]]","1","[[2,1,0],[3,0],[0]]","8","0","","","","","","6","","","","","","","","",""
"","","","","","single-stim-button","133","236027","0.0-2.0-34.0-1.0","5d4709f1291942001c2bf782","B2","batch2","","1029","tol_toboard","","","","tol_peg_2","1029","1029","0","[[3,0,0],[2,0],[1]]","1","[[2,1,0],[3,0],[0]]","8","0","","","","","","6","","","","","","","","",""
"","","","","","single-stim-button","134","238420","0.0-2.0-34.1-0.1","5d4709f1291942001c2bf782","B2","batch2","","2392","tol_tohand","","","","tol_peg_1","2392","2392","0","[[0,0,0],[2,0],[1]]","2","[[2,1,0],[3,0],[0]]","8","0","","","","","","6","","","","","","","","",""
"","","","","","single-stim-button","135","240203","0.0-2.0-34.1-1.1","5d4709f1291942001c2bf782","B2","batch2","","1783","tol_toboard","","","","tol_peg_2","1783","1783","0","[[0,0,0],[2,3],[1]]","2","[[2,1,0],[3,0],[0]]","8","0","","","","","","6","","","","","","","","",""
"","","","","","single-stim-button","136","240842","0.0-2.0-34.2-0.2","5d4709f1291942001c2bf782","B2","batch2","","639","tol_tohand","","","","tol_peg_3","639","639","0","[[0,0,0],[2,3],[0]]","3","[[2,1,0],[3,0],[0]]","8","0","","","","","","6","","","","","","","","",""
"","","","","","single-stim-button","137","241938","0.0-2.0-34.2-1.2","5d4709f1291942001c2bf782","B2","batch2","","1094","tol_toboard","","","","tol_peg_1","1094","1094","0","[[1,0,0],[2,3],[0]]","3","[[2,1,0],[3,0],[0]]","8","0","","","","","","6","","","","","","","","",""
"","","","","","single-stim-button","138","242747","0.0-2.0-34.3-0.3","5d4709f1291942001c2bf782","B2","batch2","","807","tol_tohand","","","","tol_peg_2","807","807","0","[[1,0,0],[2,0],[0]]","4","[[2,1,0],[3,0],[0]]","8","0","","","","","","6","","","","","","","","",""
"","","","","","single-stim-button","139","243363","0.0-2.0-34.3-1.3","5d4709f1291942001c2bf782","B2","batch2","","616","tol_toboard","","","","tol_peg_3","616","616","0","[[1,0,0],[2,0],[3]]","4","[[2,1,0],[3,0],[0]]","8","0","","","","","","6","","","","","","","","",""
"","","","","","single-stim-button","140","247451","0.0-2.0-34.4-0.4","5d4709f1291942001c2bf782","B2","batch2","","4087","tol_tohand","","","","tol_peg_3","4087","4087","0","[[1,0,0],[2,0],[0]]","5","[[2,1,0],[3,0],[0]]","8","0","","","","","","6","","","","","","","","",""
"","","","","","single-stim-button","141","248310","0.0-2.0-34.4-1.4","5d4709f1291942001c2bf782","B2","batch2","","858","tol_toboard","","","","tol_peg_2","858","858","0","[[1,0,0],[2,3],[0]]","5","[[2,1,0],[3,0],[0]]","8","0","","","","","","6","","","","","","","","",""
"","","","","","single-stim-button","142","249137","0.0-2.0-34.5-0.5","5d4709f1291942001c2bf782","B2","batch2","","827","tol_tohand","","","","tol_peg_1","827","827","0","[[0,0,0],[2,3],[0]]","6","[[2,1,0],[3,0],[0]]","8","0","","","","","","6","","","","","","","","",""
"","","","","","single-stim-button","143","249941","0.0-2.0-34.5-1.5","5d4709f1291942001c2bf782","B2","batch2","","804","tol_toboard","","","","tol_peg_3","804","804","0","[[0,0,0],[2,3],[1]]","6","[[2,1,0],[3,0],[0]]","8","0","","","","","","6","","","","","","","","",""
"","","","","","single-stim-button","144","250525","0.0-2.0-34.6-0.6","5d4709f1291942001c2bf782","B2","batch2","","584","tol_tohand","","","","tol_peg_2","584","584","0","[[0,0,0],[2,0],[1]]","7","[[2,1,0],[3,0],[0]]","8","0","","","","","","6","","","","","","","","",""
"","","","","","single-stim-button","145","250940","0.0-2.0-34.6-1.6","5d4709f1291942001c2bf782","B2","batch2","","414","tol_toboard","","","","tol_peg_1","414","414","0","[[3,0,0],[2,0],[1]]","7","[[2,1,0],[3,0],[0]]","8","0","","","","","","6","","","","","","","","",""
"","","","","","single-stim-button","146","253212","0.0-2.0-34.7-0.7","5d4709f1291942001c2bf782","B2","batch2","","2272","tol_tohand","","","","tol_peg_3","2272","2272","0","[[3,0,0],[2,0],[0]]","8","[[2,1,0],[3,0],[0]]","8","0","","","","","","6","","","","","","","","",""
"","","","","","single-stim-button","147","253896","0.0-2.0-34.7-1.7","5d4709f1291942001c2bf782","B2","batch2","","683","tol_toboard","","","","tol_peg_1","683","683","0","[[3,1,0],[2,0],[0]]","8","[[2,1,0],[3,0],[0]]","8","0","","","","","","6","","","","","","","","",""
"","","","","","single-stim-button","148","254402","0.0-2.0-34.8-0.8","5d4709f1291942001c2bf782","B2","batch2","","506","tol_tohand","","","","tol_peg_2","506","506","0","[[3,1,0],[0,0],[0]]","9","[[2,1,0],[3,0],[0]]","8","0","","","","","","6","","","","","","","","",""
"","","","","","single-stim-button","149","255495","0.0-2.0-34.8-1.8","5d4709f1291942001c2bf782","B2","batch2","","1092","tol_toboard","","","","tol_peg_3","1092","1092","0","[[3,1,0],[0,0],[2]]","9","[[2,1,0],[3,0],[0]]","8","0","","","","","","6","","","","","","","","",""
"","","","","","single-stim-button","150","256162","0.0-2.0-34.9-0.9","5d4709f1291942001c2bf782","B2","batch2","","666","tol_tohand","","","","tol_peg_1","666","666","0","[[3,0,0],[0,0],[2]]","10","[[2,1,0],[3,0],[0]]","8","0","","","","","","6","","","","","","","","",""
"","","","","","single-stim-button","151","256619","0.0-2.0-34.9-1.9","5d4709f1291942001c2bf782","B2","batch2","","457","tol_toboard","","","","tol_peg_2","457","457","0","[[3,0,0],[1,0],[2]]","10","[[2,1,0],[3,0],[0]]","8","0","","","","","","6","","","","","","","","",""
"","","","","","single-stim-button","152","257138","0.0-2.0-34.10-0.10","5d4709f1291942001c2bf782","B2","batch2","","517","tol_tohand","","","","tol_peg_1","517","517","0","[[0,0,0],[1,0],[2]]","11","[[2,1,0],[3,0],[0]]","8","0","","","","","","6","","","","","","","","",""
"","","","","","single-stim-button","153","257854","0.0-2.0-34.10-1.10","5d4709f1291942001c2bf782","B2","batch2","","716","tol_toboard","","","","tol_peg_2","716","716","0","[[0,0,0],[1,3],[2]]","11","[[2,1,0],[3,0],[0]]","8","0","","","","","","6","","","","","","","","",""
"","","","","","single-stim-button","154","258565","0.0-2.0-34.11-0.11","5d4709f1291942001c2bf782","B2","batch2","","710","tol_tohand","","","","tol_peg_3","710","710","0","[[0,0,0],[1,3],[0]]","12","[[2,1,0],[3,0],[0]]","8","0","","","","","","6","","","","","","","","",""
"","","","","","single-stim-button","155","259467","0.0-2.0-34.11-1.11","5d4709f1291942001c2bf782","B2","batch2","","901","tol_toboard","","","","tol_peg_1","901","901","0","[[2,0,0],[1,3],[0]]","12","[[2,1,0],[3,0],[0]]","8","0","","","","","","6","","","","","","","","",""
"","","","","","single-stim-button","156","260138","0.0-2.0-34.12-0.12","5d4709f1291942001c2bf782","B2","batch2","","671","tol_tohand","","","","tol_peg_2","671","671","0","[[2,0,0],[1,0],[0]]","13","[[2,1,0],[3,0],[0]]","8","0","","","","","","6","","","","","","","","",""
"","","","","","single-stim-button","157","260755","0.0-2.0-34.12-1.12","5d4709f1291942001c2bf782","B2","batch2","","617","tol_toboard","","","","tol_peg_3","617","617","0","[[2,0,0],[1,0],[3]]","13","[[2,1,0],[3,0],[0]]","8","0","","","","","","6","","","","","","","","",""
"","","","","","single-stim-button","158","261246","0.0-2.0-34.13-0.13","5d4709f1291942001c2bf782","B2","batch2","","491","tol_tohand","","","","tol_peg_2","491","491","0","[[2,0,0],[0,0],[3]]","14","[[2,1,0],[3,0],[0]]","8","0","","","","","","6","","","","","","","","",""
"","","","","","single-stim-button","159","261626","0.0-2.0-34.13-1.13","5d4709f1291942001c2bf782","B2","batch2","","379","tol_toboard","","","","tol_peg_1","379","379","0","[[2,1,0],[0,0],[3]]","14","[[2,1,0],[3,0],[0]]","8","0","","","","","","6","","","","","","","","",""
"","","","","","single-stim-button","160","262316","0.0-2.0-34.14-0.14","5d4709f1291942001c2bf782","B2","batch2","","689","tol_tohand","","","","tol_peg_3","689","689","0","[[2,1,0],[0,0],[0]]","15","[[2,1,0],[3,0],[0]]","8","0","","","","","","6","","","","","","","","",""
"","","","","","single-stim-button","161","262846","0.0-2.0-34.14-1.14","5d4709f1291942001c2bf782","B2","batch2","","530","tol_toboard","","","","tol_peg_2","530","530","0","[[2,1,0],[3,0],[0]]","15","[[2,1,0],[3,0],[0]]","8","0","","","","","","6","","","","","","","","",""
"","","","","","poldrack-single-stim","162","263851","0.0-2.0-35.0","5d4709f1291942001c2bf782","B2","batch2","","-1","tol_feedback","","","true","","1000","1000","500","","","","","","-1","none","true","7421","23279","","","","","","","","","",""
"","","","","","html-button-response","163","302642","0.0-2.0-36.0","5d4709f1291942001c2bf782","B2","batch2","","38790","tol_trial_num","<div class = centerbox><p class = center-block-text>problem <strong>10</strong> out of 25 problems</p></div>","0","","","","","","","","","","","","","","","","","","","","","","","","",""
"","","","","","single-stim-button","164","305809","0.0-2.0-37.0-0.0","5d4709f1291942001c2bf782","B2","batch2","","3166","tol_tohand","","","","tol_peg_2","3166","3166","0","[[3,0,0],[0,0],[2]]","1","[[3,0,0],[2,1],[0]]","9","0","","","","","","3","","","","","","","","",""
"","","","","","single-stim-button","165","306338","0.0-2.0-37.0-1.0","5d4709f1291942001c2bf782","B2","batch2","","529","tol_toboard","","","","tol_peg_1","529","529","0","[[3,1,0],[0,0],[2]]","1","[[3,0,0],[2,1],[0]]","9","0","","","","","","3","","","","","","","","",""
"","","","","","single-stim-button","166","306991","0.0-2.0-37.1-0.1","5d4709f1291942001c2bf782","B2","batch2","","652","tol_tohand","","","","tol_peg_3","652","652","0","[[3,1,0],[0,0],[0]]","2","[[3,0,0],[2,1],[0]]","9","0","","","","","","3","","","","","","","","",""
"","","","","","single-stim-button","167","307551","0.0-2.0-37.1-1.1","5d4709f1291942001c2bf782","B2","batch2","","559","tol_toboard","","","","tol_peg_2","559","559","0","[[3,1,0],[2,0],[0]]","2","[[3,0,0],[2,1],[0]]","9","0","","","","","","3","","","","","","","","",""
"","","","","","single-stim-button","168","308049","0.0-2.0-37.2-0.2","5d4709f1291942001c2bf782","B2","batch2","","497","tol_tohand","","","","tol_peg_1","497","497","0","[[3,0,0],[2,0],[0]]","3","[[3,0,0],[2,1],[0]]","9","0","","","","","","3","","","","","","","","",""
"","","","","","single-stim-button","169","308389","0.0-2.0-37.2-1.2","5d4709f1291942001c2bf782","B2","batch2","","340","tol_toboard","","","","tol_peg_2","340","340","0","[[3,0,0],[2,1],[0]]","3","[[3,0,0],[2,1],[0]]","9","0","","","","","","3","","","","","","","","",""
"","","","","","poldrack-single-stim","170","309397","0.0-2.0-38.0","5d4709f1291942001c2bf782","B2","batch2","","-1","tol_feedback","","","true","","1000","1000","500","","","","","","-1","none","true","3166","4315","","","","","","","","","",""
"","","","","","html-button-response","171","310245","0.0-2.0-39.0","5d4709f1291942001c2bf782","B2","batch2","","847","tol_trial_num","<div class = centerbox><p class = center-block-text>problem <strong>11</strong> out of 25 problems</p></div>","0","","","","","","","","","","","","","","","","","","","","","","","","",""
"","","","","","single-stim-button","172","314134","0.0-2.0-40.0-0.0","5d4709f1291942001c2bf782","B2","batch2","","3888","tol_tohand","","","","tol_peg_1","3888","3888","0","[[1,0,0],[3,0],[0]]","1","[[2,0,0],[1,3],[0]]","10","0","","","","","","6","","","","","","","","",""
"","","","","","single-stim-button","173","314645","0.0-2.0-40.0-1.0","5d4709f1291942001c2bf782","B2","batch2","","511","tol_toboard","","","","tol_peg_2","511","511","0","[[1,0,0],[3,2],[0]]","1","[[2,0,0],[1,3],[0]]","10","0","","","","","","6","","","","","","","","",""
"","","","","","single-stim-button","174","315202","0.0-2.0-40.1-0.1","5d4709f1291942001c2bf782","B2","batch2","","556","tol_tohand","","","","tol_peg_1","556","556","0","[[0,0,0],[3,2],[0]]","2","[[2,0,0],[1,3],[0]]","10","0","","","","","","6","","","","","","","","",""
"","","","","","single-stim-button","175","316077","0.0-2.0-40.1-1.1","5d4709f1291942001c2bf782","B2","batch2","","875","tol_toboard","","","","tol_peg_3","875","875","0","[[0,0,0],[3,2],[1]]","2","[[2,0,0],[1,3],[0]]","10","0","","","","","","6","","","","","","","","",""
"","","","","","single-stim-button","176","316921","0.0-2.0-40.2-0.2","5d4709f1291942001c2bf782","B2","batch2","","843","tol_tohand","","","","tol_peg_2","843","843","0","[[0,0,0],[3,0],[1]]","3","[[2,0,0],[1,3],[0]]","10","0","","","","","","6","","","","","","","","",""
"","","","","","single-stim-button","177","317353","0.0-2.0-40.2-1.2","5d4709f1291942001c2bf782","B2","batch2","","430","tol_toboard","","","","tol_peg_1","430","430","0","[[2,0,0],[3,0],[1]]","3","[[2,0,0],[1,3],[0]]","10","0","","","","","","6","","","","","","","","",""
"","","","","","single-stim-button","178","317707","0.0-2.0-40.3-0.3","5d4709f1291942001c2bf782","B2","batch2","","353","tol_tohand","","","","tol_peg_2","353","353","0","[[2,0,0],[0,0],[1]]","4","[[2,0,0],[1,3],[0]]","10","0","","","","","","6","","","","","","","","",""
"","","","","","single-stim-button","179","318265","0.0-2.0-40.3-1.3","5d4709f1291942001c2bf782","B2","batch2","","558","tol_toboard","","","","tol_peg_1","558","558","0","[[2,3,0],[0,0],[1]]","4","[[2,0,0],[1,3],[0]]","10","0","","","","","","6","","","","","","","","",""
"","","","","","single-stim-button","180","319081","0.0-2.0-40.4-0.4","5d4709f1291942001c2bf782","B2","batch2","","815","tol_tohand","","","","tol_peg_3","815","815","0","[[2,3,0],[0,0],[0]]","5","[[2,0,0],[1,3],[0]]","10","0","","","","","","6","","","","","","","","",""
"","","","","","single-stim-button","181","319608","0.0-2.0-40.4-1.4","5d4709f1291942001c2bf782","B2","batch2","","527","tol_toboard","","","","tol_peg_2","527","527","0","[[2,3,0],[1,0],[0]]","5","[[2,0,0],[1,3],[0]]","10","0","","","","","","6","","","","","","","","",""
"","","","","","single-stim-button","182","320432","0.0-2.0-40.5-0.5","5d4709f1291942001c2bf782","B2","batch2","","824","tol_tohand","","","","tol_peg_1","824","824","0","[[2,0,0],[1,0],[0]]","6","[[2,0,0],[1,3],[0]]","10","0","","","","","","6","","","","","","","","",""
"","","","","","single-stim-button","183","321107","0.0-2.0-40.5-1.5","5d4709f1291942001c2bf782","B2","batch2","","675","tol_toboard","","","","tol_peg_2","675","675","0","[[2,0,0],[1,3],[0]]","6","[[2,0,0],[1,3],[0]]","10","0","","","","","","6","","","","","","","","",""
"","","","","","poldrack-single-stim","184","322116","0.0-2.0-41.0","5d4709f1291942001c2bf782","B2","batch2","","-1","tol_feedback","","","true","","1000","1000","500","","","","","","-1","none","true","3888","7279","","","","","","","","","",""
"","","","","","html-button-response","185","323497","0.0-2.0-42.0","5d4709f1291942001c2bf782","B2","batch2","","1380","tol_trial_num","<div class = centerbox><p class = center-block-text>problem <strong>12</strong> out of 25 problems</p></div>","0","","","","","","","","","","","","","","","","","","","","","","","","",""
"","","","","","single-stim-button","186","325645","0.0-2.0-43.0-0.0","5d4709f1291942001c2bf782","B2","batch2","","2147","tol_tohand","","","","tol_peg_1","2147","2147","0","[[1,0,0],[3,0],[0]]","1","[[2,3,0],[0,0],[1]]","11","0","","","","","","4","","","","","","","","",""
"","","","","","single-stim-button","187","326170","0.0-2.0-43.0-1.0","5d4709f1291942001c2bf782","B2","batch2","","524","tol_toboard","","","","tol_peg_2","524","524","0","[[1,0,0],[3,2],[0]]","1","[[2,3,0],[0,0],[1]]","11","0","","","","","","4","","","","","","","","",""
"","","","","","single-stim-button","188","326711","0.0-2.0-43.1-0.1","5d4709f1291942001c2bf782","B2","batch2","","540","tol_tohand","","","","tol_peg_1","540","540","0","[[0,0,0],[3,2],[0]]","2","[[2,3,0],[0,0],[1]]","11","0","","","","","","4","","","","","","","","",""
"","","","","","single-stim-button","189","327441","0.0-2.0-43.1-1.1","5d4709f1291942001c2bf782","B2","batch2","","730","tol_toboard","","","","tol_peg_3","730","730","0","[[0,0,0],[3,2],[1]]","2","[[2,3,0],[0,0],[1]]","11","0","","","","","","4","","","","","","","","",""
"","","","","","single-stim-button","190","328337","0.0-2.0-43.2-0.2","5d4709f1291942001c2bf782","B2","batch2","","895","tol_tohand","","","","tol_peg_2","895","895","0","[[0,0,0],[3,0],[1]]","3","[[2,3,0],[0,0],[1]]","11","0","","","","","","4","","","","","","","","",""
"","","","","","single-stim-button","191","328886","0.0-2.0-43.2-1.2","5d4709f1291942001c2bf782","B2","batch2","","549","tol_toboard","","","","tol_peg_1","549","549","0","[[2,0,0],[3,0],[1]]","3","[[2,3,0],[0,0],[1]]","11","0","","","","","","4","","","","","","","","",""
"","","","","","single-stim-button","192","329389","0.0-2.0-43.3-0.3","5d4709f1291942001c2bf782","B2","batch2","","502","tol_tohand","","","","tol_peg_2","502","502","0","[[2,0,0],[0,0],[1]]","4","[[2,3,0],[0,0],[1]]","11","0","","","","","","4","","","","","","","","",""
"","","","","","single-stim-button","193","330079","0.0-2.0-43.3-1.3","5d4709f1291942001c2bf782","B2","batch2","","689","tol_toboard","","","","tol_peg_1","689","689","0","[[2,3,0],[0,0],[1]]","4","[[2,3,0],[0,0],[1]]","11","0","","","","","","4","","","","","","","","",""
"","","","","","poldrack-single-stim","194","331094","0.0-2.0-44.0","5d4709f1291942001c2bf782","B2","batch2","","-1","tol_feedback","","","true","","1000","1000","500","","","","","","-1","none","true","2147","4084","","","","","","","","","",""
"","","","","","html-button-response","195","332273","0.0-2.0-45.0","5d4709f1291942001c2bf782","B2","batch2","","1179","tol_trial_num","<div class = centerbox><p class = center-block-text>problem <strong>13</strong> out of 25 problems</p></div>","0","","","","","","","","","","","","","","","","","","","","","","","","",""
"","","","","","single-stim-button","196","336688","0.0-2.0-46.0-0.0","5d4709f1291942001c2bf782","B2","batch2","","4413","tol_tohand","","","","tol_peg_1","4413","4413","0","[[1,0,0],[3,0],[0]]","1","[[0,0,0],[2,3],[1]]","12","0","","","","","","4","","","","","","","","",""
"","","","","","single-stim-button","197","337279","0.0-2.0-46.0-1.0","5d4709f1291942001c2bf782","B2","batch2","","591","tol_toboard","","","","tol_peg_2","591","591","0","[[1,0,0],[3,2],[0]]","1","[[0,0,0],[2,3],[1]]","12","0","","","","","","4","","","","","","","","",""
"","","","","","single-stim-button","198","337774","0.0-2.0-46.1-0.1","5d4709f1291942001c2bf782","B2","batch2","","494","tol_tohand","","","","tol_peg_1","494","494","0","[[0,0,0],[3,2],[0]]","2","[[0,0,0],[2,3],[1]]","12","0","","","","","","4","","","","","","","","",""
"","","","","","single-stim-button","199","338579","0.0-2.0-46.1-1.1","5d4709f1291942001c2bf782","B2","batch2","","804","tol_toboard","","","","tol_peg_3","804","804","0","[[0,0,0],[3,2],[1]]","2","[[0,0,0],[2,3],[1]]","12","0","","","","","","4","","","","","","","","",""
"","","","","","single-stim-button","200","339289","0.0-2.0-46.2-0.2","5d4709f1291942001c2bf782","B2","batch2","","710","tol_tohand","","","","tol_peg_2","710","710","0","[[0,0,0],[3,0],[1]]","3","[[0,0,0],[2,3],[1]]","12","0","","","","","","4","","","","","","","","",""
"","","","","","single-stim-button","201","341393","0.0-2.0-46.2-1.2","5d4709f1291942001c2bf782","B2","batch2","","2104","tol_toboard","","","","tol_peg_2","2104","2104","0","[[0,0,0],[3,2],[1]]","3","[[0,0,0],[2,3],[1]]","12","0","","","","","","4","","","","","","","","",""
"","","","","","single-stim-button","202","341968","0.0-2.0-46.3-0.3","5d4709f1291942001c2bf782","B2","batch2","","574","tol_tohand","","","","tol_peg_3","574","574","0","[[0,0,0],[3,2],[0]]","4","[[0,0,0],[2,3],[1]]","12","0","","","","","","4","","","","","","","","",""
"","","","","","single-stim-button","203","342729","0.0-2.0-46.3-1.3","5d4709f1291942001c2bf782","B2","batch2","","761","tol_toboard","","","","tol_peg_1","761","761","0","[[1,0,0],[3,2],[0]]","4","[[0,0,0],[2,3],[1]]","12","0","","","","","","4","","","","","","","","",""
"","","","","","single-stim-button","204","343246","0.0-2.0-46.4-0.4","5d4709f1291942001c2bf782","B2","batch2","","515","tol_tohand","","","","tol_peg_2","515","515","0","[[1,0,0],[3,0],[0]]","5","[[0,0,0],[2,3],[1]]","12","0","","","","","","4","","","","","","","","",""
"","","","","","single-stim-button","205","344013","0.0-2.0-46.4-1.4","5d4709f1291942001c2bf782","B2","batch2","","767","tol_toboard","","","","tol_peg_3","767","767","0","[[1,0,0],[3,0],[2]]","5","[[0,0,0],[2,3],[1]]","12","0","","","","","","4","","","","","","","","",""
"","","","","","single-stim-button","206","344402","0.0-2.0-46.5-0.5","5d4709f1291942001c2bf782","B2","batch2","","389","tol_tohand","","","","tol_peg_2","389","389","0","[[1,0,0],[0,0],[2]]","6","[[0,0,0],[2,3],[1]]","12","0","","","","","","4","","","","","","","","",""
"","","","","","single-stim-button","207","345039","0.0-2.0-46.5-1.5","5d4709f1291942001c2bf782","B2","batch2","","637","tol_toboard","","","","tol_peg_1","637","637","0","[[1,3,0],[0,0],[2]]","6","[[0,0,0],[2,3],[1]]","12","0","","","","","","4","","","","","","","","",""
"","","","","","single-stim-button","208","345737","0.0-2.0-46.6-0.6","5d4709f1291942001c2bf782","B2","batch2","","698","tol_tohand","","","","tol_peg_3","698","698","0","[[1,3,0],[0,0],[0]]","7","[[0,0,0],[2,3],[1]]","12","0","","","","","","4","","","","","","","","",""
"","","","","","single-stim-button","209","346134","0.0-2.0-46.6-1.6","5d4709f1291942001c2bf782","B2","batch2","","396","tol_toboard","","","","tol_peg_2","396","396","0","[[1,3,0],[2,0],[0]]","7","[[0,0,0],[2,3],[1]]","12","0","","","","","","4","","","","","","","","",""
"","","","","","single-stim-button","210","346681","0.0-2.0-46.7-0.7","5d4709f1291942001c2bf782","B2","batch2","","547","tol_tohand","","","","tol_peg_1","547","547","0","[[1,0,0],[2,0],[0]]","8","[[0,0,0],[2,3],[1]]","12","0","","","","","","4","","","","","","","","",""
"","","","","","single-stim-button","211","347095","0.0-2.0-46.7-1.7","5d4709f1291942001c2bf782","B2","batch2","","412","tol_toboard","","","","tol_peg_2","412","412","0","[[1,0,0],[2,3],[0]]","8","[[0,0,0],[2,3],[1]]","12","0","","","","","","4","","","","","","","","",""
"","","","","","single-stim-button","212","347634","0.0-2.0-46.8-0.8","5d4709f1291942001c2bf782","B2","batch2","","538","tol_tohand","","","","tol_peg_1","538","538","0","[[0,0,0],[2,3],[0]]","9","[[0,0,0],[2,3],[1]]","12","0","","","","","","4","","","","","","","","",""
"","","","","","single-stim-button","213","348251","0.0-2.0-46.8-1.8","5d4709f1291942001c2bf782","B2","batch2","","617","tol_toboard","","","","tol_peg_3","617","617","0","[[0,0,0],[2,3],[1]]","9","[[0,0,0],[2,3],[1]]","12","0","","","","","","4","","","","","","","","",""
"","","","","","poldrack-single-stim","214","349258","0.0-2.0-47.0","5d4709f1291942001c2bf782","B2","batch2","","-1","tol_feedback","","","true","","1000","1000","500","","","","","","-1","none","true","4413","8878","","","","","","","","","",""
"","","","","","html-button-response","215","351052","0.0-2.0-48.0","5d4709f1291942001c2bf782","B2","batch2","","1794","attention_check","<p class = block-text>How many balls are in your board<br></p>","1","true","","","","","","","","","","","","","","","","","","","","","","","",""
"","","","","","html-button-response","216","352048","0.0-2.0-49.0","5d4709f1291942001c2bf782","B2","batch2","","994","tol_trial_num","<div class = centerbox><p class = center-block-text>problem <strong>14</strong> out of 25 problems</p></div>","0","","","","","","","","","","","","","","","","","","","","","","","","",""
"","","","","","single-stim-button","217","354730","0.0-2.0-50.0-0.0","5d4709f1291942001c2bf782","B2","batch2","","2681","tol_tohand","","","","tol_peg_1","2681","2681","0","[[2,0,0],[3,0],[0]]","1","[[1,2,0],[3,0],[0]]","13","0","","","","","","4","","","","","","","","",""
"","","","","","single-stim-button","218","355235","0.0-2.0-50.0-1.0","5d4709f1291942001c2bf782","B2","batch2","","505","tol_toboard","","","","tol_peg_2","505","505","0","[[2,0,0],[3,1],[0]]","1","[[1,2,0],[3,0],[0]]","13","0","","","","","","4","","","","","","","","",""
"","","","","","single-stim-button","219","356320","0.0-2.0-50.1-0.1","5d4709f1291942001c2bf782","B2","batch2","","1085","tol_tohand","","","","tol_peg_1","1085","1085","0","[[0,0,0],[3,1],[0]]","2","[[1,2,0],[3,0],[0]]","13","0","","","","","","4","","","","","","","","",""
"","","","","","single-stim-button","220","356943","0.0-2.0-50.1-1.1","5d4709f1291942001c2bf782","B2","batch2","","622","tol_toboard","","","","tol_peg_3","622","622","0","[[0,0,0],[3,1],[2]]","2","[[1,2,0],[3,0],[0]]","13","0","","","","","","4","","","","","","","","",""
"","","","","","single-stim-button","221","357433","0.0-2.0-50.2-0.2","5d4709f1291942001c2bf782","B2","batch2","","489","tol_tohand","","","","tol_peg_2","489","489","0","[[0,0,0],[3,0],[2]]","3","[[1,2,0],[3,0],[0]]","13","0","","","","","","4","","","","","","","","",""
"","","","","","single-stim-button","222","358066","0.0-2.0-50.2-1.2","5d4709f1291942001c2bf782","B2","batch2","","632","tol_toboard","","","","tol_peg_1","632","632","0","[[1,0,0],[3,0],[2]]","3","[[1,2,0],[3,0],[0]]","13","0","","","","","","4","","","","","","","","",""
"","","","","","single-stim-button","223","358713","0.0-2.0-50.3-0.3","5d4709f1291942001c2bf782","B2","batch2","","647","tol_tohand","","","","tol_peg_3","647","647","0","[[1,0,0],[3,0],[0]]","4","[[1,2,0],[3,0],[0]]","13","0","","","","","","4","","","","","","","","",""
"","","","","","single-stim-button","224","359295","0.0-2.0-50.3-1.3","5d4709f1291942001c2bf782","B2","batch2","","582","tol_toboard","","","","tol_peg_1","582","582","0","[[1,2,0],[3,0],[0]]","4","[[1,2,0],[3,0],[0]]","13","0","","","","","","4","","","","","","","","",""
"","","","","","poldrack-single-stim","225","360306","0.0-2.0-51.0","5d4709f1291942001c2bf782","B2","batch2","","-1","tol_feedback","","","true","","1000","1000","500","","","","","","-1","none","true","2681","4902","","","","","","","","","",""
"","","","","","html-button-response","226","361015","0.0-2.0-52.0","5d4709f1291942001c2bf782","B2","batch2","","708","tol_trial_num","<div class = centerbox><p class = center-block-text>problem <strong>15</strong> out of 25 problems</p></div>","0","","","","","","","","","","","","","","","","","","","","","","","","",""
"","","","","","single-stim-button","227","362945","0.0-2.0-53.0-0.0","5d4709f1291942001c2bf782","B2","batch2","","1929","tol_tohand","","","","tol_peg_1","1929","1929","0","[[1,0,0],[3,0],[0]]","1","[[2,0,0],[3,0],[1]]","14","0","","","","","","3","","","","","","","","",""
"","","","","","single-stim-button","228","363488","0.0-2.0-53.0-1.0","5d4709f1291942001c2bf782","B2","batch2","","543","tol_toboard","","","","tol_peg_2","543","543","0","[[1,0,0],[3,2],[0]]","1","[[2,0,0],[3,0],[1]]","14","0","","","","","","3","","","","","","","","",""
"","","","","","single-stim-button","229","364125","0.0-2.0-53.1-0.1","5d4709f1291942001c2bf782","B2","batch2","","637","tol_tohand","","","","tol_peg_1","637","637","0","[[0,0,0],[3,2],[0]]","2","[[2,0,0],[3,0],[1]]","14","0","","","","","","3","","","","","","","","",""
"","","","","","single-stim-button","230","364608","0.0-2.0-53.1-1.1","5d4709f1291942001c2bf782","B2","batch2","","483","tol_toboard","","","","tol_peg_3","483","483","0","[[0,0,0],[3,2],[1]]","2","[[2,0,0],[3,0],[1]]","14","0","","","","","","3","","","","","","","","",""
"","","","","","single-stim-button","231","365034","0.0-2.0-53.2-0.2","5d4709f1291942001c2bf782","B2","batch2","","426","tol_tohand","","","","tol_peg_2","426","426","0","[[0,0,0],[3,0],[1]]","3","[[2,0,0],[3,0],[1]]","14","0","","","","","","3","","","","","","","","",""
"","","","","","single-stim-button","232","365728","0.0-2.0-53.2-1.2","5d4709f1291942001c2bf782","B2","batch2","","693","tol_toboard","","","","tol_peg_1","693","693","0","[[2,0,0],[3,0],[1]]","3","[[2,0,0],[3,0],[1]]","14","0","","","","","","3","","","","","","","","",""
"","","","","","poldrack-single-stim","233","366734","0.0-2.0-54.0","5d4709f1291942001c2bf782","B2","batch2","","-1","tol_feedback","","","true","","1000","1000","500","","","","","","-1","none","true","1929","2992","","","","","","","","","",""
"","","","","","html-button-response","234","367411","0.0-2.0-55.0","5d4709f1291942001c2bf782","B2","batch2","","677","tol_trial_num","<div class = centerbox><p class = center-block-text>problem <strong>16</strong> out of 25 problems</p></div>","0","","","","","","","","","","","","","","","","","","","","","","","","",""
"","","","","","single-stim-button","235","370729","0.0-2.0-56.0-0.0","5d4709f1291942001c2bf782","B2","batch2","","3316","tol_tohand","","","","tol_peg_3","3316","3316","0","[[0,0,0],[2,3],[0]]","1","[[2,3,0],[1,0],[0]]","15","0","","","","","","7","","","","","","","","",""
"","","","","","single-stim-button","236","373030","0.0-2.0-56.0-1.0","5d4709f1291942001c2bf782","B2","batch2","","2300","tol_toboard","","","","tol_peg_1","2300","2300","0","[[1,0,0],[2,3],[0]]","1","[[2,3,0],[1,0],[0]]","15","0","","","","","","7","","","","","","","","",""
"","","","","","single-stim-button","237","373714","0.0-2.0-56.1-0.1","5d4709f1291942001c2bf782","B2","batch2","","684","tol_tohand","","","","tol_peg_2","684","684","0","[[1,0,0],[2,0],[0]]","2","[[2,3,0],[1,0],[0]]","15","0","","","","","","7","","","","","","","","",""
"","","","","","single-stim-button","238","374095","0.0-2.0-56.1-1.1","5d4709f1291942001c2bf782","B2","batch2","","380","tol_toboard","","","","tol_peg_1","380","380","0","[[1,3,0],[2,0],[0]]","2","[[2,3,0],[1,0],[0]]","15","0","","","","","","7","","","","","","","","",""
"","","","","","single-stim-button","239","374765","0.0-2.0-56.2-0.2","5d4709f1291942001c2bf782","B2","batch2","","670","tol_tohand","","","","tol_peg_2","670","670","0","[[1,3,0],[0,0],[0]]","3","[[2,3,0],[1,0],[0]]","15","0","","","","","","7","","","","","","","","",""
"","","","","","single-stim-button","240","375237","0.0-2.0-56.2-1.2","5d4709f1291942001c2bf782","B2","batch2","","470","tol_toboard","","","","tol_peg_3","470","470","0","[[1,3,0],[0,0],[2]]","3","[[2,3,0],[1,0],[0]]","15","0","","","","","","7","","","","","","","","",""
"","","","","","single-stim-button","241","375843","0.0-2.0-56.3-0.3","5d4709f1291942001c2bf782","B2","batch2","","606","tol_tohand","","","","tol_peg_1","606","606","0","[[1,0,0],[0,0],[2]]","4","[[2,3,0],[1,0],[0]]","15","0","","","","","","7","","","","","","","","",""
"","","","","","single-stim-button","242","376352","0.0-2.0-56.3-1.3","5d4709f1291942001c2bf782","B2","batch2","","509","tol_toboard","","","","tol_peg_2","509","509","0","[[1,0,0],[3,0],[2]]","4","[[2,3,0],[1,0],[0]]","15","0","","","","","","7","","","","","","","","",""
"","","","","","single-stim-button","243","377075","0.0-2.0-56.4-0.4","5d4709f1291942001c2bf782","B2","batch2","","722","tol_tohand","","","","tol_peg_1","722","722","0","[[0,0,0],[3,0],[2]]","5","[[2,3,0],[1,0],[0]]","15","0","","","","","","7","","","","","","","","",""
"","","","","","single-stim-button","244","377501","0.0-2.0-56.4-1.4","5d4709f1291942001c2bf782","B2","batch2","","426","tol_toboard","","","","tol_peg_2","426","426","0","[[0,0,0],[3,1],[2]]","5","[[2,3,0],[1,0],[0]]","15","0","","","","","","7","","","","","","","","",""
"","","","","","single-stim-button","245","378100","0.0-2.0-56.5-0.5","5d4709f1291942001c2bf782","B2","batch2","","599","tol_tohand","","","","tol_peg_3","599","599","0","[[0,0,0],[3,1],[0]]","6","[[2,3,0],[1,0],[0]]","15","0","","","","","","7","","","","","","","","",""
"","","","","","single-stim-button","246","378729","0.0-2.0-56.5-1.5","5d4709f1291942001c2bf782","B2","batch2","","628","tol_toboard","","","","tol_peg_1","628","628","0","[[2,0,0],[3,1],[0]]","6","[[2,3,0],[1,0],[0]]","15","0","","","","","","7","","","","","","","","",""
"","","","","","single-stim-button","247","379245","0.0-2.0-56.6-0.6","5d4709f1291942001c2bf782","B2","batch2","","515","tol_tohand","","","","tol_peg_2","515","515","0","[[2,0,0],[3,0],[0]]","7","[[2,3,0],[1,0],[0]]","15","0","","","","","","7","","","","","","","","",""
"","","","","","single-stim-button","248","379767","0.0-2.0-56.6-1.6","5d4709f1291942001c2bf782","B2","batch2","","522","tol_toboard","","","","tol_peg_3","522","522","0","[[2,0,0],[3,0],[1]]","7","[[2,3,0],[1,0],[0]]","15","0","","","","","","7","","","","","","","","",""
"","","","","","single-stim-button","249","380286","0.0-2.0-56.7-0.7","5d4709f1291942001c2bf782","B2","batch2","","517","tol_tohand","","","","tol_peg_2","517","517","0","[[2,0,0],[0,0],[1]]","8","[[2,3,0],[1,0],[0]]","15","0","","","","","","7","","","","","","","","",""
"","","","","","single-stim-button","250","380917","0.0-2.0-56.7-1.7","5d4709f1291942001c2bf782","B2","batch2","","630","tol_toboard","","","","tol_peg_1","630","630","0","[[2,3,0],[0,0],[1]]","8","[[2,3,0],[1,0],[0]]","15","0","","","","","","7","","","","","","","","",""
"","","","","","single-stim-button","251","383919","0.0-2.0-56.8-0.8","5d4709f1291942001c2bf782","B2","batch2","","3002","tol_tohand","","","","tol_peg_3","3002","3002","0","[[2,3,0],[0,0],[0]]","9","[[2,3,0],[1,0],[0]]","15","0","","","","","","7","","","","","","","","",""
"","","","","","single-stim-button","252","384385","0.0-2.0-56.8-1.8","5d4709f1291942001c2bf782","B2","batch2","","465","tol_toboard","","","","tol_peg_2","465","465","0","[[2,3,0],[1,0],[0]]","9","[[2,3,0],[1,0],[0]]","15","0","","","","","","7","","","","","","","","",""
"","","","","","poldrack-single-stim","253","385397","0.0-2.0-57.0","5d4709f1291942001c2bf782","B2","batch2","","-1","tol_feedback","","","true","","1000","1000","500","","","","","","-1","none","true","3316","10631","","","","","","","","","",""
"","","","","","html-button-response","254","387714","0.0-2.0-58.0","5d4709f1291942001c2bf782","B2","batch2","","2315","tol_trial_num","<div class = centerbox><p class = center-block-text>problem <strong>17</strong> out of 25 problems</p></div>","0","","","","","","","","","","","","","","","","","","","","","","","","",""
"","","","","","single-stim-button","255","398246","0.0-2.0-59.0-0.0","5d4709f1291942001c2bf782","B2","batch2","","10531","tol_tohand","","","","tol_peg_2","10531","10531","0","[[1,2,0],[0,0],[0]]","1","[[3,1,0],[2,0],[0]]","16","0","","","","","","5","","","","","","","","",""
"","","","","","single-stim-button","256","398607","0.0-2.0-59.0-1.0","5d4709f1291942001c2bf782","B2","batch2","","359","tol_toboard","","","","tol_peg_3","359","359","0","[[1,2,0],[0,0],[3]]","1","[[3,1,0],[2,0],[0]]","16","0","","","","","","5","","","","","","","","",""
"","","","","","single-stim-button","257","399377","0.0-2.0-59.1-0.1","5d4709f1291942001c2bf782","B2","batch2","","770","tol_tohand","","","","tol_peg_1","770","770","0","[[1,0,0],[0,0],[3]]","2","[[3,1,0],[2,0],[0]]","16","0","","","","","","5","","","","","","","","",""
"","","","","","single-stim-button","258","399839","0.0-2.0-59.1-1.1","5d4709f1291942001c2bf782","B2","batch2","","460","tol_toboard","","","","tol_peg_2","460","460","0","[[1,0,0],[2,0],[3]]","2","[[3,1,0],[2,0],[0]]","16","0","","","","","","5","","","","","","","","",""
"","","","","","single-stim-button","259","400388","0.0-2.0-59.2-0.2","5d4709f1291942001c2bf782","B2","batch2","","548","tol_tohand","","","","tol_peg_1","548","548","0","[[0,0,0],[2,0],[3]]","3","[[3,1,0],[2,0],[0]]","16","0","","","","","","5","","","","","","","","",""
"","","","","","single-stim-button","260","400859","0.0-2.0-59.2-1.2","5d4709f1291942001c2bf782","B2","batch2","","470","tol_toboard","","","","tol_peg_2","470","470","0","[[0,0,0],[2,1],[3]]","3","[[3,1,0],[2,0],[0]]","16","0","","","","","","5","","","","","","","","",""
"","","","","","single-stim-button","261","401688","0.0-2.0-59.3-0.3","5d4709f1291942001c2bf782","B2","batch2","","828","tol_tohand","","","","tol_peg_3","828","828","0","[[0,0,0],[2,1],[0]]","4","[[3,1,0],[2,0],[0]]","16","0","","","","","","5","","","","","","","","",""
"","","","","","single-stim-button","262","402207","0.0-2.0-59.3-1.3","5d4709f1291942001c2bf782","B2","batch2","","519","tol_toboard","","","","tol_peg_1","519","519","0","[[3,0,0],[2,1],[0]]","4","[[3,1,0],[2,0],[0]]","16","0","","","","","","5","","","","","","","","",""
"","","","","","single-stim-button","263","402699","0.0-2.0-59.4-0.4","5d4709f1291942001c2bf782","B2","batch2","","491","tol_tohand","","","","tol_peg_2","491","491","0","[[3,0,0],[2,0],[0]]","5","[[3,1,0],[2,0],[0]]","16","0","","","","","","5","","","","","","","","",""
"","","","","","single-stim-button","264","403078","0.0-2.0-59.4-1.4","5d4709f1291942001c2bf782","B2","batch2","","378","tol_toboard","","","","tol_peg_1","378","378","0","[[3,1,0],[2,0],[0]]","5","[[3,1,0],[2,0],[0]]","16","0","","","","","","5","","","","","","","","",""
"","","","","","poldrack-single-stim","265","404080","0.0-2.0-60.0","5d4709f1291942001c2bf782","B2","batch2","","-1","tol_feedback","","","true","","1000","1000","500","","","","","","-1","none","true","10531","13168","","","","","","","","","",""
"","","","","","html-button-response","266","405468","0.0-2.0-61.0","5d4709f1291942001c2bf782","B2","batch2","","1388","tol_trial_num","<div class = centerbox><p class = center-block-text>problem <strong>18</strong> out of 25 problems</p></div>","0","","","","","","","","","","","","","","","","","","","","","","","","",""
"","","","","","single-stim-button","267","410471","0.0-2.0-62.0-0.0","5d4709f1291942001c2bf782","B2","batch2","","5002","tol_tohand","","","","tol_peg_1","5002","5002","0","[[1,0,0],[3,0],[0]]","1","[[3,0,0],[2,0],[1]]","17","0","","","","","","5","","","","","","","","",""
"","","","","","single-stim-button","268","410831","0.0-2.0-62.0-1.0","5d4709f1291942001c2bf782","B2","batch2","","359","tol_toboard","","","","tol_peg_2","359","359","0","[[1,0,0],[3,2],[0]]","1","[[3,0,0],[2,0],[1]]","17","0","","","","","","5","","","","","","","","",""
"","","","","","single-stim-button","269","411359","0.0-2.0-62.1-0.1","5d4709f1291942001c2bf782","B2","batch2","","528","tol_tohand","","","","tol_peg_1","528","528","0","[[0,0,0],[3,2],[0]]","2","[[3,0,0],[2,0],[1]]","17","0","","","","","","5","","","","","","","","",""
"","","","","","single-stim-button","270","411906","0.0-2.0-62.1-1.1","5d4709f1291942001c2bf782","B2","batch2","","547","tol_toboard","","","","tol_peg_3","547","547","0","[[0,0,0],[3,2],[1]]","2","[[3,0,0],[2,0],[1]]","17","0","","","","","","5","","","","","","","","",""
"","","","","","single-stim-button","271","413306","0.0-2.0-62.2-0.2","5d4709f1291942001c2bf782","B2","batch2","","1399","tol_tohand","","","","tol_peg_2","1399","1399","0","[[0,0,0],[3,0],[1]]","3","[[3,0,0],[2,0],[1]]","17","0","","","","","","5","","","","","","","","",""
"","","","","","single-stim-button","272","413829","0.0-2.0-62.2-1.2","5d4709f1291942001c2bf782","B2","batch2","","522","tol_toboard","","","","tol_peg_1","522","522","0","[[2,0,0],[3,0],[1]]","3","[[3,0,0],[2,0],[1]]","17","0","","","","","","5","","","","","","","","",""
"","","","","","single-stim-button","273","414442","0.0-2.0-62.3-0.3","5d4709f1291942001c2bf782","B2","batch2","","612","tol_tohand","","","","tol_peg_3","612","612","0","[[2,0,0],[3,0],[0]]","4","[[3,0,0],[2,0],[1]]","17","0","","","","","","5","","","","","","","","",""
"","","","","","single-stim-button","274","414846","0.0-2.0-62.3-1.3","5d4709f1291942001c2bf782","B2","batch2","","404","tol_toboard","","","","tol_peg_1","404","404","0","[[2,1,0],[3,0],[0]]","4","[[3,0,0],[2,0],[1]]","17","0","","","","","","5","","","","","","","","",""
"","","","","","single-stim-button","275","415431","0.0-2.0-62.4-0.4","5d4709f1291942001c2bf782","B2","batch2","","584","tol_tohand","","","","tol_peg_2","584","584","0","[[2,1,0],[0,0],[0]]","5","[[3,0,0],[2,0],[1]]","17","0","","","","","","5","","","","","","","","",""
"","","","","","single-stim-button","276","416344","0.0-2.0-62.4-1.4","5d4709f1291942001c2bf782","B2","batch2","","913","tol_toboard","","","","tol_peg_3","913","913","0","[[2,1,0],[0,0],[3]]","5","[[3,0,0],[2,0],[1]]","17","0","","","","","","5","","","","","","","","",""
"","","","","","single-stim-button","277","417178","0.0-2.0-62.5-0.5","5d4709f1291942001c2bf782","B2","batch2","","833","tol_tohand","","","","tol_peg_1","833","833","0","[[2,0,0],[0,0],[3]]","6","[[3,0,0],[2,0],[1]]","17","0","","","","","","5","","","","","","","","",""
"","","","","","single-stim-button","278","417543","0.0-2.0-62.5-1.5","5d4709f1291942001c2bf782","B2","batch2","","364","tol_toboard","","","","tol_peg_2","364","364","0","[[2,0,0],[1,0],[3]]","6","[[3,0,0],[2,0],[1]]","17","0","","","","","","5","","","","","","","","",""
"","","","","","single-stim-button","279","418060","0.0-2.0-62.6-0.6","5d4709f1291942001c2bf782","B2","batch2","","517","tol_tohand","","","","tol_peg_1","517","517","0","[[0,0,0],[1,0],[3]]","7","[[3,0,0],[2,0],[1]]","17","0","","","","","","5","","","","","","","","",""
"","","","","","single-stim-button","280","418442","0.0-2.0-62.6-1.6","5d4709f1291942001c2bf782","B2","batch2","","381","tol_toboard","","","","tol_peg_2","381","381","0","[[0,0,0],[1,2],[3]]","7","[[3,0,0],[2,0],[1]]","17","0","","","","","","5","","","","","","","","",""
"","","","","","single-stim-button","281","419146","0.0-2.0-62.7-0.7","5d4709f1291942001c2bf782","B2","batch2","","702","tol_tohand","","","","tol_peg_3","702","702","0","[[0,0,0],[1,2],[0]]","8","[[3,0,0],[2,0],[1]]","17","0","","","","","","5","","","","","","","","",""
"","","","","","single-stim-button","282","419883","0.0-2.0-62.7-1.7","5d4709f1291942001c2bf782","B2","batch2","","737","tol_toboard","","","","tol_peg_1","737","737","0","[[3,0,0],[1,2],[0]]","8","[[3,0,0],[2,0],[1]]","17","0","","","","","","5","","","","","","","","",""
"","","","","","single-stim-button","283","420467","0.0-2.0-62.8-0.8","5d4709f1291942001c2bf782","B2","batch2","","583","tol_tohand","","","","tol_peg_2","583","583","0","[[3,0,0],[1,0],[0]]","9","[[3,0,0],[2,0],[1]]","17","0","","","","","","5","","","","","","","","",""
"","","","","","single-stim-button","284","420847","0.0-2.0-62.8-1.8","5d4709f1291942001c2bf782","B2","batch2","","380","tol_toboard","","","","tol_peg_1","380","380","0","[[3,2,0],[1,0],[0]]","9","[[3,0,0],[2,0],[1]]","17","0","","","","","","5","","","","","","","","",""
"","","","","","single-stim-button","285","421420","0.0-2.0-62.9-0.9","5d4709f1291942001c2bf782","B2","batch2","","573","tol_tohand","","","","tol_peg_2","573","573","0","[[3,2,0],[0,0],[0]]","10","[[3,0,0],[2,0],[1]]","17","0","","","","","","5","","","","","","","","",""
"","","","","","single-stim-button","286","421877","0.0-2.0-62.9-1.9","5d4709f1291942001c2bf782","B2","batch2","","457","tol_toboard","","","","tol_peg_3","457","457","0","[[3,2,0],[0,0],[1]]","10","[[3,0,0],[2,0],[1]]","17","0","","","","","","5","","","","","","","","",""
"","","","","","single-stim-button","287","422791","0.0-2.0-62.10-0.10","5d4709f1291942001c2bf782","B2","batch2","","914","tol_tohand","","","","tol_peg_1","914","914","0","[[3,0,0],[0,0],[1]]","11","[[3,0,0],[2,0],[1]]","17","0","","","","","","5","","","","","","","","",""
"","","","","","single-stim-button","288","423214","0.0-2.0-62.10-1.10","5d4709f1291942001c2bf782","B2","batch2","","422","tol_toboard","","","","tol_peg_2","422","422","0","[[3,0,0],[2,0],[1]]","11","[[3,0,0],[2,0],[1]]","17","0","","","","","","5","","","","","","","","",""
"","","","","","poldrack-single-stim","289","424230","0.0-2.0-63.0","5d4709f1291942001c2bf782","B2","batch2","","-1","tol_feedback","","","true","","1000","1000","500","","","","","","-1","none","true","5002","12247","","","","","","","","","",""
"","","","","","html-button-response","290","429482","0.0-2.0-64.0","5d4709f1291942001c2bf782","B2","batch2","","5251","tol_trial_num","<div class = centerbox><p class = center-block-text>problem <strong>19</strong> out of 25 problems</p></div>","0","","","","","","","","","","","","","","","","","","","","","","","","",""
"","","","","","single-stim-button","291","430942","0.0-2.0-65.0-0.0","5d4709f1291942001c2bf782","B2","batch2","","1458","tol_tohand","","","","tol_peg_2","1458","1458","0","[[1,2,0],[0,0],[0]]","1","[[0,0,0],[1,2],[3]]","18","0","","","","","","7","","","","","","","","",""
"","","","","","single-stim-button","292","431826","0.0-2.0-65.0-1.0","5d4709f1291942001c2bf782","B2","batch2","","883","tol_toboard","","","","tol_peg_3","883","883","0","[[1,2,0],[0,0],[3]]","1","[[0,0,0],[1,2],[3]]","18","0","","","","","","7","","","","","","","","",""
"","","","","","single-stim-button","293","434381","0.0-2.0-65.1-0.1","5d4709f1291942001c2bf782","B2","batch2","","2555","tol_tohand","","","","tol_peg_3","2555","2555","0","[[1,2,0],[0,0],[0]]","2","[[0,0,0],[1,2],[3]]","18","0","","","","","","7","","","","","","","","",""
"","","","","","single-stim-button","294","434953","0.0-2.0-65.1-1.1","5d4709f1291942001c2bf782","B2","batch2","","572","tol_toboard","","","","tol_peg_2","572","572","0","[[1,2,0],[3,0],[0]]","2","[[0,0,0],[1,2],[3]]","18","0","","","","","","7","","","","","","","","",""
"","","","","","single-stim-button","295","435799","0.0-2.0-65.2-0.2","5d4709f1291942001c2bf782","B2","batch2","","845","tol_tohand","","","","tol_peg_1","845","845","0","[[1,0,0],[3,0],[0]]","3","[[0,0,0],[1,2],[3]]","18","0","","","","","","7","","","","","","","","",""
"","","","","","single-stim-button","296","436674","0.0-2.0-65.2-1.2","5d4709f1291942001c2bf782","B2","batch2","","874","tol_toboard","","","","tol_peg_2","874","874","0","[[1,0,0],[3,2],[0]]","3","[[0,0,0],[1,2],[3]]","18","0","","","","","","7","","","","","","","","",""
"","","","","","single-stim-button","297","437694","0.0-2.0-65.3-0.3","5d4709f1291942001c2bf782","B2","batch2","","1019","tol_tohand","","","","tol_peg_1","1019","1019","0","[[0,0,0],[3,2],[0]]","4","[[0,0,0],[1,2],[3]]","18","0","","","","","","7","","","","","","","","",""
"","","","","","single-stim-button","298","438410","0.0-2.0-65.3-1.3","5d4709f1291942001c2bf782","B2","batch2","","716","tol_toboard","","","","tol_peg_3","716","716","0","[[0,0,0],[3,2],[1]]","4","[[0,0,0],[1,2],[3]]","18","0","","","","","","7","","","","","","","","",""
"","","","","","single-stim-button","299","439122","0.0-2.0-65.4-0.4","5d4709f1291942001c2bf782","B2","batch2","","712","tol_tohand","","","","tol_peg_2","712","712","0","[[0,0,0],[3,0],[1]]","5","[[0,0,0],[1,2],[3]]","18","0","","","","","","7","","","","","","","","",""
"","","","","","single-stim-button","300","439585","0.0-2.0-65.4-1.4","5d4709f1291942001c2bf782","B2","batch2","","463","tol_toboard","","","","tol_peg_1","463","463","0","[[2,0,0],[3,0],[1]]","5","[[0,0,0],[1,2],[3]]","18","0","","","","","","7","","","","","","","","",""
"","","","","","single-stim-button","301","439958","0.0-2.0-65.5-0.5","5d4709f1291942001c2bf782","B2","batch2","","372","tol_tohand","","","","tol_peg_2","372","372","0","[[2,0,0],[0,0],[1]]","6","[[0,0,0],[1,2],[3]]","18","0","","","","","","7","","","","","","","","",""
"","","","","","single-stim-button","302","440331","0.0-2.0-65.5-1.5","5d4709f1291942001c2bf782","B2","batch2","","371","tol_toboard","","","","tol_peg_1","371","371","0","[[2,3,0],[0,0],[1]]","6","[[0,0,0],[1,2],[3]]","18","0","","","","","","7","","","","","","","","",""
"","","","","","single-stim-button","303","440987","0.0-2.0-65.6-0.6","5d4709f1291942001c2bf782","B2","batch2","","656","tol_tohand","","","","tol_peg_3","656","656","0","[[2,3,0],[0,0],[0]]","7","[[0,0,0],[1,2],[3]]","18","0","","","","","","7","","","","","","","","",""
"","","","","","single-stim-button","304","441405","0.0-2.0-65.6-1.6","5d4709f1291942001c2bf782","B2","batch2","","418","tol_toboard","","","","tol_peg_2","418","418","0","[[2,3,0],[1,0],[0]]","7","[[0,0,0],[1,2],[3]]","18","0","","","","","","7","","","","","","","","",""
"","","","","","single-stim-button","305","442405","0.0-2.0-65.7-0.7","5d4709f1291942001c2bf782","B2","batch2","","998","tol_tohand","","","","tol_peg_1","998","998","0","[[2,0,0],[1,0],[0]]","8","[[0,0,0],[1,2],[3]]","18","0","","","","","","7","","","","","","","","",""
"","","","","","single-stim-button","306","442884","0.0-2.0-65.7-1.7","5d4709f1291942001c2bf782","B2","batch2","","478","tol_toboard","","","","tol_peg_2","478","478","0","[[2,0,0],[1,3],[0]]","8","[[0,0,0],[1,2],[3]]","18","0","","","","","","7","","","","","","","","",""
"","","","","","single-stim-button","307","443511","0.0-2.0-65.8-0.8","5d4709f1291942001c2bf782","B2","batch2","","626","tol_tohand","","","","tol_peg_1","626","626","0","[[0,0,0],[1,3],[0]]","9","[[0,0,0],[1,2],[3]]","18","0","","","","","","7","","","","","","","","",""
"","","","","","single-stim-button","308","444320","0.0-2.0-65.8-1.8","5d4709f1291942001c2bf782","B2","batch2","","808","tol_toboard","","","","tol_peg_3","808","808","0","[[0,0,0],[1,3],[2]]","9","[[0,0,0],[1,2],[3]]","18","0","","","","","","7","","","","","","","","",""
"","","","","","single-stim-button","309","445026","0.0-2.0-65.9-0.9","5d4709f1291942001c2bf782","B2","batch2","","706","tol_tohand","","","","tol_peg_2","706","706","0","[[0,0,0],[1,0],[2]]","10","[[0,0,0],[1,2],[3]]","18","0","","","","","","7","","","","","","","","",""
"","","","","","single-stim-button","310","445951","0.0-2.0-65.9-1.9","5d4709f1291942001c2bf782","B2","batch2","","925","tol_toboard","","","","tol_peg_1","925","925","0","[[3,0,0],[1,0],[2]]","10","[[0,0,0],[1,2],[3]]","18","0","","","","","","7","","","","","","","","",""
"","","","","","single-stim-button","311","446484","0.0-2.0-65.10-0.10","5d4709f1291942001c2bf782","B2","batch2","","533","tol_tohand","","","","tol_peg_3","533","533","0","[[3,0,0],[1,0],[0]]","11","[[0,0,0],[1,2],[3]]","18","0","","","","","","7","","","","","","","","",""
"","","","","","single-stim-button","312","446985","0.0-2.0-65.10-1.10","5d4709f1291942001c2bf782","B2","batch2","","501","tol_toboard","","","","tol_peg_2","501","501","0","[[3,0,0],[1,2],[0]]","11","[[0,0,0],[1,2],[3]]","18","0","","","","","","7","","","","","","","","",""
"","","","","","single-stim-button","313","447672","0.0-2.0-65.11-0.11","5d4709f1291942001c2bf782","B2","batch2","","686","tol_tohand","","","","tol_peg_1","686","686","0","[[0,0,0],[1,2],[0]]","12","[[0,0,0],[1,2],[3]]","18","0","","","","","","7","","","","","","","","",""
"","","","","","single-stim-button","314","448396","0.0-2.0-65.11-1.11","5d4709f1291942001c2bf782","B2","batch2","","724","tol_toboard","","","","tol_peg_3","724","724","0","[[0,0,0],[1,2],[3]]","12","[[0,0,0],[1,2],[3]]","18","0","","","","","","7","","","","","","","","",""
"","","","","","poldrack-single-stim","315","449401","0.0-2.0-66.0","5d4709f1291942001c2bf782","B2","batch2","","-1","tol_feedback","","","true","","1000","1000","500","","","","","","-1","none","true","1458","11166","","","","","","","","","",""
"","","","","","html-button-response","316","455853","0.0-2.0-67.0","5d4709f1291942001c2bf782","B2","batch2","","6452","tol_trial_num","<div class = centerbox><p class = center-block-text>problem <strong>20</strong> out of 25 problems</p></div>","0","","","","","","","","","","","","","","","","","","","","","","","","",""
"","","","","","single-stim-button","317","457987","0.0-2.0-68.0-0.0","5d4709f1291942001c2bf782","B2","batch2","","2132","tol_tohand","","","","tol_peg_2","2132","2132","0","[[1,2,0],[0,0],[0]]","1","[[2,1,0],[0,0],[3]]","19","0","","","","","","5","","","","","","","","",""
"","","","","","single-stim-button","318","459160","0.0-2.0-68.0-1.0","5d4709f1291942001c2bf782","B2","batch2","","1173","tol_toboard","","","","tol_peg_3","1173","1173","0","[[1,2,0],[0,0],[3]]","1","[[2,1,0],[0,0],[3]]","19","0","","","","","","5","","","","","","","","",""
"","","","","","single-stim-button","319","460737","0.0-2.0-68.1-0.1","5d4709f1291942001c2bf782","B2","batch2","","1575","tol_tohand","","","","tol_peg_3","1575","1575","0","[[1,2,0],[0,0],[0]]","2","[[2,1,0],[0,0],[3]]","19","0","","","","","","5","","","","","","","","",""
"","","","","","single-stim-button","320","461079","0.0-2.0-68.1-1.1","5d4709f1291942001c2bf782","B2","batch2","","342","tol_toboard","","","","tol_peg_2","342","342","0","[[1,2,0],[3,0],[0]]","2","[[2,1,0],[0,0],[3]]","19","0","","","","","","5","","","","","","","","",""
"","","","","","single-stim-button","321","461545","0.0-2.0-68.2-0.2","5d4709f1291942001c2bf782","B2","batch2","","465","tol_tohand","","","","tol_peg_1","465","465","0","[[1,0,0],[3,0],[0]]","3","[[2,1,0],[0,0],[3]]","19","0","","","","","","5","","","","","","","","",""
"","","","","","single-stim-button","322","462252","0.0-2.0-68.2-1.2","5d4709f1291942001c2bf782","B2","batch2","","706","tol_toboard","","","","tol_peg_3","706","706","0","[[1,0,0],[3,0],[2]]","3","[[2,1,0],[0,0],[3]]","19","0","","","","","","5","","","","","","","","",""
"","","","","","single-stim-button","323","462856","0.0-2.0-68.3-0.3","5d4709f1291942001c2bf782","B2","batch2","","604","tol_tohand","","","","tol_peg_1","604","604","0","[[0,0,0],[3,0],[2]]","4","[[2,1,0],[0,0],[3]]","19","0","","","","","","5","","","","","","","","",""
"","","","","","single-stim-button","324","463197","0.0-2.0-68.3-1.3","5d4709f1291942001c2bf782","B2","batch2","","340","tol_toboard","","","","tol_peg_2","340","340","0","[[0,0,0],[3,1],[2]]","4","[[2,1,0],[0,0],[3]]","19","0","","","","","","5","","","","","","","","",""
"","","","","","single-stim-button","325","463699","0.0-2.0-68.4-0.4","5d4709f1291942001c2bf782","B2","batch2","","501","tol_tohand","","","","tol_peg_3","501","501","0","[[0,0,0],[3,1],[0]]","5","[[2,1,0],[0,0],[3]]","19","0","","","","","","5","","","","","","","","",""
"","","","","","single-stim-button","326","464155","0.0-2.0-68.4-1.4","5d4709f1291942001c2bf782","B2","batch2","","455","tol_toboard","","","","tol_peg_1","455","455","0","[[2,0,0],[3,1],[0]]","5","[[2,1,0],[0,0],[3]]","19","0","","","","","","5","","","","","","","","",""
"","","","","","single-stim-button","327","464684","0.0-2.0-68.5-0.5","5d4709f1291942001c2bf782","B2","batch2","","529","tol_tohand","","","","tol_peg_2","529","529","0","[[2,0,0],[3,0],[0]]","6","[[2,1,0],[0,0],[3]]","19","0","","","","","","5","","","","","","","","",""
"","","","","","single-stim-button","328","465017","0.0-2.0-68.5-1.5","5d4709f1291942001c2bf782","B2","batch2","","332","tol_toboard","","","","tol_peg_1","332","332","0","[[2,1,0],[3,0],[0]]","6","[[2,1,0],[0,0],[3]]","19","0","","","","","","5","","","","","","","","",""
"","","","","","single-stim-button","329","465470","0.0-2.0-68.6-0.6","5d4709f1291942001c2bf782","B2","batch2","","452","tol_tohand","","","","tol_peg_2","452","452","0","[[2,1,0],[0,0],[0]]","7","[[2,1,0],[0,0],[3]]","19","0","","","","","","5","","","","","","","","",""
"","","","","","single-stim-button","330","465915","0.0-2.0-68.6-1.6","5d4709f1291942001c2bf782","B2","batch2","","445","tol_toboard","","","","tol_peg_3","445","445","0","[[2,1,0],[0,0],[3]]","7","[[2,1,0],[0,0],[3]]","19","0","","","","","","5","","","","","","","","",""
"","","","","","poldrack-single-stim","331","466929","0.0-2.0-69.0","5d4709f1291942001c2bf782","B2","batch2","","-1","tol_feedback","","","true","","1000","1000","500","","","","","","-1","none","true","2132","6258","","","","","","","","","",""
"","","","","","html-button-response","332","469970","0.0-2.0-70.0","5d4709f1291942001c2bf782","B2","batch2","","3039","tol_trial_num","<div class = centerbox><p class = center-block-text>problem <strong>21</strong> out of 25 problems</p></div>","0","","","","","","","","","","","","","","","","","","","","","","","","",""
"","","","","","single-stim-button","333","472482","0.0-2.0-71.0-0.0","5d4709f1291942001c2bf782","B2","batch2","","2511","tol_tohand","","","","tol_peg_1","2511","2511","0","[[1,0,0],[3,0],[0]]","1","[[3,2,0],[0,0],[1]]","20","0","","","","","","6","","","","","","","","",""
"","","","","","single-stim-button","334","472830","0.0-2.0-71.0-1.0","5d4709f1291942001c2bf782","B2","batch2","","346","tol_toboard","","","","tol_peg_2","346","346","0","[[1,0,0],[3,2],[0]]","1","[[3,2,0],[0,0],[1]]","20","0","","","","","","6","","","","","","","","",""
"","","","","","single-stim-button","335","474717","0.0-2.0-71.1-0.1","5d4709f1291942001c2bf782","B2","batch2","","1887","tol_tohand","","","","tol_peg_2","1887","1887","0","[[1,0,0],[3,0],[0]]","2","[[3,2,0],[0,0],[1]]","20","0","","","","","","6","","","","","","","","",""
"","","","","","single-stim-button","336","475067","0.0-2.0-71.1-1.1","5d4709f1291942001c2bf782","B2","batch2","","349","tol_toboard","","","","tol_peg_1","349","349","0","[[1,2,0],[3,0],[0]]","2","[[3,2,0],[0,0],[1]]","20","0","","","","","","6","","","","","","","","",""
"","","","","","single-stim-button","337","475853","0.0-2.0-71.2-0.2","5d4709f1291942001c2bf782","B2","batch2","","786","tol_tohand","","","","tol_peg_2","786","786","0","[[1,2,0],[0,0],[0]]","3","[[3,2,0],[0,0],[1]]","20","0","","","","","","6","","","","","","","","",""
"","","","","","single-stim-button","338","476661","0.0-2.0-71.2-1.2","5d4709f1291942001c2bf782","B2","batch2","","806","tol_toboard","","","","tol_peg_3","806","806","0","[[1,2,0],[0,0],[3]]","3","[[3,2,0],[0,0],[1]]","20","0","","","","","","6","","","","","","","","",""
"","","","","","single-stim-button","339","477964","0.0-2.0-71.3-0.3","5d4709f1291942001c2bf782","B2","batch2","","1303","tol_tohand","","","","tol_peg_1","1303","1303","0","[[1,0,0],[0,0],[3]]","4","[[3,2,0],[0,0],[1]]","20","0","","","","","","6","","","","","","","","",""
"","","","","","single-stim-button","340","478425","0.0-2.0-71.3-1.3","5d4709f1291942001c2bf782","B2","batch2","","459","tol_toboard","","","","tol_peg_2","459","459","0","[[1,0,0],[2,0],[3]]","4","[[3,2,0],[0,0],[1]]","20","0","","","","","","6","","","","","","","","",""
"","","","","","single-stim-button","341","478809","0.0-2.0-71.4-0.4","5d4709f1291942001c2bf782","B2","batch2","","384","tol_tohand","","","","tol_peg_1","384","384","0","[[0,0,0],[2,0],[3]]","5","[[3,2,0],[0,0],[1]]","20","0","","","","","","6","","","","","","","","",""
"","","","","","single-stim-button","342","479123","0.0-2.0-71.4-1.4","5d4709f1291942001c2bf782","B2","batch2","","313","tol_toboard","","","","tol_peg_2","313","313","0","[[0,0,0],[2,1],[3]]","5","[[3,2,0],[0,0],[1]]","20","0","","","","","","6","","","","","","","","",""
"","","","","","single-stim-button","343","479647","0.0-2.0-71.5-0.5","5d4709f1291942001c2bf782","B2","batch2","","523","tol_tohand","","","","tol_peg_3","523","523","0","[[0,0,0],[2,1],[0]]","6","[[3,2,0],[0,0],[1]]","20","0","","","","","","6","","","","","","","","",""
"","","","","","single-stim-button","344","480190","0.0-2.0-71.5-1.5","5d4709f1291942001c2bf782","B2","batch2","","542","tol_toboard","","","","tol_peg_1","542","542","0","[[3,0,0],[2,1],[0]]","6","[[3,2,0],[0,0],[1]]","20","0","","","","","","6","","","","","","","","",""
"","","","","","single-stim-button","345","480598","0.0-2.0-71.6-0.6","5d4709f1291942001c2bf782","B2","batch2","","408","tol_tohand","","","","tol_peg_2","408","408","0","[[3,0,0],[2,0],[0]]","7","[[3,2,0],[0,0],[1]]","20","0","","","","","","6","","","","","","","","",""
"","","","","","single-stim-button","346","480999","0.0-2.0-71.6-1.6","5d4709f1291942001c2bf782","B2","batch2","","401","tol_toboard","","","","tol_peg_3","401","401","0","[[3,0,0],[2,0],[1]]","7","[[3,2,0],[0,0],[1]]","20","0","","","","","","6","","","","","","","","",""
"","","","","","single-stim-button","347","481851","0.0-2.0-71.7-0.7","5d4709f1291942001c2bf782","B2","batch2","","851","tol_tohand","","","","tol_peg_1","851","851","0","[[0,0,0],[2,0],[1]]","8","[[3,2,0],[0,0],[1]]","20","0","","","","","","6","","","","","","","","",""
"","","","","","single-stim-button","348","482213","0.0-2.0-71.7-1.7","5d4709f1291942001c2bf782","B2","batch2","","362","tol_toboard","","","","tol_peg_2","362","362","0","[[0,0,0],[2,3],[1]]","8","[[3,2,0],[0,0],[1]]","20","0","","","","","","6","","","","","","","","",""
"","","","","","single-stim-button","349","482946","0.0-2.0-71.8-0.8","5d4709f1291942001c2bf782","B2","batch2","","733","tol_tohand","","","","tol_peg_2","733","733","0","[[0,0,0],[2,0],[1]]","9","[[3,2,0],[0,0],[1]]","20","0","","","","","","6","","","","","","","","",""
"","","","","","single-stim-button","350","483311","0.0-2.0-71.8-1.8","5d4709f1291942001c2bf782","B2","batch2","","365","tol_toboard","","","","tol_peg_1","365","365","0","[[3,0,0],[2,0],[1]]","9","[[3,2,0],[0,0],[1]]","20","0","","","","","","6","","","","","","","","",""
"","","","","","single-stim-button","351","483688","0.0-2.0-71.9-0.9","5d4709f1291942001c2bf782","B2","batch2","","375","tol_tohand","","","","tol_peg_2","375","375","0","[[3,0,0],[0,0],[1]]","10","[[3,2,0],[0,0],[1]]","20","0","","","","","","6","","","","","","","","",""
"","","","","","single-stim-button","352","484044","0.0-2.0-71.9-1.9","5d4709f1291942001c2bf782","B2","batch2","","355","tol_toboard","","","","tol_peg_1","355","355","0","[[3,2,0],[0,0],[1]]","10","[[3,2,0],[0,0],[1]]","20","0","","","","","","6","","","","","","","","",""
"","","","","","poldrack-single-stim","353","485060","0.0-2.0-72.0","5d4709f1291942001c2bf782","B2","batch2","","-1","tol_feedback","","","true","","1000","1000","500","","","","","","-1","none","true","2511","9761","","","","","","","","","",""
"","","","","","html-button-response","354","485861","0.0-2.0-73.0","5d4709f1291942001c2bf782","B2","batch2","","801","tol_trial_num","<div class = centerbox><p class = center-block-text>problem <strong>22</strong> out of 25 problems</p></div>","0","","","","","","","","","","","","","","","","","","","","","","","","",""
"","","","","","single-stim-button","355","492717","0.0-2.0-74.0-0.0","5d4709f1291942001c2bf782","B2","batch2","","6854","tol_tohand","","","","tol_peg_1","6854","6854","0","[[0,0,0],[2,3],[0]]","1","[[0,0,0],[1,2],[3]]","21","0","","","","","","6","","","","","","","","",""
"","","","","","single-stim-button","356","493460","0.0-2.0-74.0-1.0","5d4709f1291942001c2bf782","B2","batch2","","742","tol_toboard","","","","tol_peg_3","742","742","0","[[0,0,0],[2,3],[1]]","1","[[0,0,0],[1,2],[3]]","21","0","","","","","","6","","","","","","","","",""
"","","","","","single-stim-button","357","494083","0.0-2.0-74.1-0.1","5d4709f1291942001c2bf782","B2","batch2","","623","tol_tohand","","","","tol_peg_2","623","623","0","[[0,0,0],[2,0],[1]]","2","[[0,0,0],[1,2],[3]]","21","0","","","","","","6","","","","","","","","",""
"","","","","","single-stim-button","358","494418","0.0-2.0-74.1-1.1","5d4709f1291942001c2bf782","B2","batch2","","335","tol_toboard","","","","tol_peg_1","335","335","0","[[3,0,0],[2,0],[1]]","2","[[0,0,0],[1,2],[3]]","21","0","","","","","","6","","","","","","","","",""
