success,timeout,failed_images,failed_audio,failed_video,trial_type,trial_index,time_elapsed,internal_node_id,subject_id,study_id,session_id,view_history,rt,stimulus,response,task,correct,answer,item,fiar_detect_rt,fiar_detect_correct,total_correct_fiar_detect,post_trial_gap,choices,mouse_click,stim_duration,block_duration,timing_post_trial,current_position,tol_num_moves_made,tol_target,tol_problem_id,tol_rt,key_press,possible_responses,tol_correct,preplanning,tol_rt_per_trial,tol_min_moves,spm_correct,spm_rt
TRUE,FALSE,[],[],[],preload,0,18908,0.0-0.0,5d4821d9dfc9bc0015b5be60,D2,batch4,,,,,,,,,,,,,,,,,,,,,,,,,,,,,,
TRUE,,,,,fullscreen,1,30242,0.0-1.0-0.0,5d4821d9dfc9bc0015b5be60,D2,batch4,,,,,,,,,,,,,,,,,,,,,,,,,,,,,,
TRUE,,,,,fullscreen,2,49285,0.0-2.0-0.0,5d4821d9dfc9bc0015b5be60,D2,batch4,,,,,,,,,,,,,,,,,,,,,,,,,,,,,,
,,,,,instructions,3,79704,0.0-2.0-1.0-0.0,5d4821d9dfc9bc0015b5be60,D2,batch4,"[{""page_index"":0,""viewing_time"":11241},{""page_index"":1,""viewing_time"":10192},{""page_index"":0,""viewing_time"":4791},{""page_index"":1,""viewing_time"":4193}]",30417,,,,,,,,,,,,,,,,,,,,,,,,,,,,
,,,,,html-button-response,4,84417,0.0-2.0-1.0-1.0-0.0,5d4821d9dfc9bc0015b5be60,D2,batch4,,4711,<p class=block-text> Let's answer a few questions <br>,0,pattern_enter_quiz,,,,,,,,,,,,,,,,,,,,,,,,,
,,,,,html-button-response,5,84648,0.0-2.0-1.0-1.0-1.0,5d4821d9dfc9bc0015b5be60,D2,batch4,,229,<p class = block-text>True or False: You will have as much time as you want to make each choice. <br></p>,1,pattern_quiz,TRUE,,,,,,,,,,,,,,,,,,,,,,,,
,,,,,html-button-response,6,90194,0.0-2.0-1.0-1.0-2.0,5d4821d9dfc9bc0015b5be60,D2,batch4,,5544,<p class = block-text>Correct! You should make your choice <strong> as fast as you can</strong>.</p>,0,pattern_quiz_feedback,,,,,,,,,,,,,,,,,,,,,,,,,
,,,,,html-button-response,7,114665,0.0-2.0-1.0-1.0-3.0,5d4821d9dfc9bc0015b5be60,D2,batch4,,24469,"<p class = block-text>True or False: You will look for 4 pieces in black or white color connected in a row either horizontally, vertically or diagonally. <br></p>",0,pattern_quiz,TRUE,,,,,,,,,,,,,,,,,,,,,,,,
,,,,,html-button-response,8,115600,0.0-2.0-1.0-1.0-4.0,5d4821d9dfc9bc0015b5be60,D2,batch4,,934,<p class = block-text>Correct! </p>,0,pattern_quiz_feedback,,,,,,,,,,,,,,,,,,,,,,,,,
,,,,,html-button-response,9,117624,0.0-2.0-2.0,5d4821d9dfc9bc0015b5be60,D2,batch4,,2020,"<p class=block-text> Now that you've understood the game, let's do a few practice trials before we start!<br> <br>",0,pattern_enter_practice,,,,,,,,,,,,,,,,,,,,,,,,,
,,,,,image-keyboard-response,10,120156,0.0-2.0-3.0-0.0,5d4821d9dfc9bc0015b5be60,D2,batch4,,2511,stim/prac_yes_16_ver_w1.png,f,pattern_practice,TRUE,f,,,,,,,,,,,,,,,,,,,,,,,
,,,,,html-keyboard-response,11,121164,0.0-2.0-3.0-1.0,5d4821d9dfc9bc0015b5be60,D2,batch4,,null,"<p style=""font-size:30px;color:green;"">Correct!</p>",null,pattern_feedback,,,,,,,,,,,,,,,,,,,,,,,,,
,,,,,image-keyboard-response,12,123243,0.0-2.0-3.0-0.1,5d4821d9dfc9bc0015b5be60,D2,batch4,,2075,stim/prac_no_18_1.png,j,pattern_practice,TRUE,j,,,,,,,,,,,,,,,,,,,,,,,
,,,,,html-keyboard-response,13,124253,0.0-2.0-3.0-1.1,5d4821d9dfc9bc0015b5be60,D2,batch4,,null,"<p style=""font-size:30px;color:green;"">Correct!</p>",null,pattern_feedback,,,,,,,,,,,,,,,,,,,,,,,,,
,,,,,image-keyboard-response,14,125381,0.0-2.0-3.0-0.2,5d4821d9dfc9bc0015b5be60,D2,batch4,,1125,stim/prac_yes_20_dia_b1.png,f,pattern_practice,TRUE,f,,,,,,,,,,,,,,,,,,,,,,,
,,,,,html-keyboard-response,15,126389,0.0-2.0-3.0-1.2,5d4821d9dfc9bc0015b5be60,D2,batch4,,null,"<p style=""font-size:30px;color:green;"">Correct!</p>",null,pattern_feedback,,,,,,,,,,,,,,,,,,,,,,,,,
,,,,,image-keyboard-response,16,128267,0.0-2.0-3.0-0.3,5d4821d9dfc9bc0015b5be60,D2,batch4,,1876,stim/prac_no_16_1.png,j,pattern_practice,TRUE,j,,,,,,,,,,,,,,,,,,,,,,,
,,,,,html-keyboard-response,17,129272,0.0-2.0-3.0-1.3,5d4821d9dfc9bc0015b5be60,D2,batch4,,null,"<p style=""font-size:30px;color:green;"">Correct!</p>",null,pattern_feedback,,,,,,,,,,,,,,,,,,,,,,,,,
,,,,,image-keyboard-response,18,130203,0.0-2.0-3.0-0.4,5d4821d9dfc9bc0015b5be60,D2,batch4,,928,stim/prac_yes_18_hor_w1.png,f,pattern_practice,TRUE,f,,,,,,,,,,,,,,,,,,,,,,,
,,,,,html-keyboard-response,19,131225,0.0-2.0-3.0-1.4,5d4821d9dfc9bc0015b5be60,D2,batch4,,null,"<p style=""font-size:30px;color:green;"">Correct!</p>",null,pattern_feedback,,,,,,,,,,,,,,,,,,,,,,,,,
,,,,,html-button-response,20,142992,0.0-2.0-4.0,5d4821d9dfc9bc0015b5be60,D2,batch4,,11765,"<p class=block-text> Good job! You are done with practice trials!<br>
        You responded correctly on 100% of the trials.<br>
        Press the button below to start official trials. Now you won't see any feedback about your response</p>",0,pattern_enter_official_trials,,,,,,,,,,,,,,,,,,,,,,,,,
,,,,,html-keyboard-response,21,143797,0.0-2.0-5.0-0.0,5d4821d9dfc9bc0015b5be60,D2,batch4,,null,<p class=block-text>Trial 1 out of 78</p>,null,pattern_show_trial_num,,,,,,,,,,,,,,,,,,,,,,,,,
,,,,,image-keyboard-response,22,145078,0.0-2.0-5.0-1.0,5d4821d9dfc9bc0015b5be60,D2,batch4,,1275,stim/no_12_1.png,j,pattern_response,TRUE,j,pattern_01,1275,TRUE,1,,,,,,,,,,,,,,,,,,,
,,,,,html-keyboard-response,23,146389,0.0-2.0-5.0-0.1,5d4821d9dfc9bc0015b5be60,D2,batch4,,null,<p class=block-text>Trial 2 out of 78</p>,null,pattern_show_trial_num,,,,,,,,,,,,,,,,,,,,,,,,,
,,,,,image-keyboard-response,24,150107,0.0-2.0-5.0-1.1,5d4821d9dfc9bc0015b5be60,D2,batch4,,3715,stim/no_37_2_w.png,j,pattern_response,TRUE,j,pattern_19,3715,TRUE,2,,,,,,,,,,,,,,,,,,,
,,,,,html-keyboard-response,25,151416,0.0-2.0-5.0-0.2,5d4821d9dfc9bc0015b5be60,D2,batch4,,null,<p class=block-text>Trial 3 out of 78</p>,null,pattern_show_trial_num,,,,,,,,,,,,,,,,,,,,,,,,,
,,,,,image-keyboard-response,26,152499,0.0-2.0-5.0-1.2,5d4821d9dfc9bc0015b5be60,D2,batch4,,1079,stim/yes_15_dia_b1u_b.png,f,pattern_response,TRUE,f,pattern_44,1079,TRUE,3,,,,,,,,,,,,,,,,,,,
,,,,,html-keyboard-response,27,153806,0.0-2.0-5.0-0.3,5d4821d9dfc9bc0015b5be60,D2,batch4,,null,<p class=block-text>Trial 4 out of 78</p>,null,pattern_show_trial_num,,,,,,,,,,,,,,,,,,,,,,,,,
,,,,,image-keyboard-response,28,155093,0.0-2.0-5.0-1.3,5d4821d9dfc9bc0015b5be60,D2,batch4,,1284,stim/yes_26_dia_w2_w.png,f,pattern_response,TRUE,f,pattern_50,1284,TRUE,4,,,,,,,,,,,,,,,,,,,
,,,,,html-keyboard-response,29,156402,0.0-2.0-5.0-0.4,5d4821d9dfc9bc0015b5be60,D2,batch4,,null,<p class=block-text>Trial 5 out of 78</p>,null,pattern_show_trial_num,,,,,,,,,,,,,,,,,,,,,,,,,
,,,,,image-keyboard-response,30,160379,0.0-2.0-5.0-1.4,5d4821d9dfc9bc0015b5be60,D2,batch4,,3975,stim/yes_44_ver_w1_w.png,f,pattern_response,TRUE,f,pattern_66,3975,TRUE,5,,,,,,,,,,,,,,,,,,,
,,,,,html-keyboard-response,31,161699,0.0-2.0-5.0-0.5,5d4821d9dfc9bc0015b5be60,D2,batch4,,null,<p class=block-text>Trial 6 out of 78</p>,null,pattern_show_trial_num,,,,,,,,,,,,,,,,,,,,,,,,,
,,,,,image-keyboard-response,32,169301,0.0-2.0-5.0-1.5,5d4821d9dfc9bc0015b5be60,D2,batch4,,7598,stim/no_67_1.png,f,pattern_response,FALSE,j,pattern_39,7598,FALSE,6,,,,,,,,,,,,,,,,,,,
,,,,,html-keyboard-response,33,170616,0.0-2.0-5.0-0.6,5d4821d9dfc9bc0015b5be60,D2,batch4,,null,<p class=block-text>Trial 7 out of 78</p>,null,pattern_show_trial_num,,,,,,,,,,,,,,,,,,,,,,,,,
,,,,,image-keyboard-response,34,171459,0.0-2.0-5.0-1.6,5d4821d9dfc9bc0015b5be60,D2,batch4,,838,stim/yes_39_hor_w1_w.png,f,pattern_response,TRUE,f,pattern_62,838,TRUE,7,,,,,,,,,,,,,,,,,,,
,,,,,html-keyboard-response,35,172770,0.0-2.0-5.0-0.7,5d4821d9dfc9bc0015b5be60,D2,batch4,,null,<p class=block-text>Trial 8 out of 78</p>,null,pattern_show_trial_num,,,,,,,,,,,,,,,,,,,,,,,,,
,,,,,image-keyboard-response,36,177531,0.0-2.0-5.0-1.7,5d4821d9dfc9bc0015b5be60,D2,batch4,,4758,stim/yes_46_ver_b1_b.png,j,pattern_response,FALSE,f,pattern_68,4758,FALSE,7,,,,,,,,,,,,,,,,,,,
,,,,,html-keyboard-response,37,178835,0.0-2.0-5.0-0.8,5d4821d9dfc9bc0015b5be60,D2,batch4,,null,<p class=block-text>Trial 9 out of 78</p>,null,pattern_show_trial_num,,,,,,,,,,,,,,,,,,,,,,,,,
,,,,,image-keyboard-response,38,179974,0.0-2.0-5.0-1.8,5d4821d9dfc9bc0015b5be60,D2,batch4,,1135,stim/yes_29_hor_b1_b.png,f,pattern_response,TRUE,f,pattern_52,1135,TRUE,8,,,,,,,,,,,,,,,,,,,
,,,,,html-keyboard-response,39,181284,0.0-2.0-5.0-0.9,5d4821d9dfc9bc0015b5be60,D2,batch4,,null,<p class=block-text>Trial 10 out of 78</p>,null,pattern_show_trial_num,,,,,,,,,,,,,,,,,,,,,,,,,
,,,,,image-keyboard-response,40,184572,0.0-2.0-5.0-1.9,5d4821d9dfc9bc0015b5be60,D2,batch4,,3285,stim/no_33_1_b.png,j,pattern_response,TRUE,j,pattern_15,3285,TRUE,9,,,,,,,,,,,,,,,,,,,
,,,,,html-keyboard-response,41,185899,0.0-2.0-5.0-0.10,5d4821d9dfc9bc0015b5be60,D2,batch4,,null,<p class=block-text>Trial 11 out of 78</p>,null,pattern_show_trial_num,,,,,,,,,,,,,,,,,,,,,,,,,
,,,,,image-keyboard-response,42,186884,0.0-2.0-5.0-1.10,5d4821d9dfc9bc0015b5be60,D2,batch4,,982,stim/yes_23_ver_b1.png,f,pattern_response,TRUE,f,pattern_48,982,TRUE,10,,,,,,,,,,,,,,,,,,,
,,,,,html-keyboard-response,43,188200,0.0-2.0-5.0-0.11,5d4821d9dfc9bc0015b5be60,D2,batch4,,null,<p class=block-text>Trial 12 out of 78</p>,null,pattern_show_trial_num,,,,,,,,,,,,,,,,,,,,,,,,,
,,,,,image-keyboard-response,44,190334,0.0-2.0-5.0-1.11,5d4821d9dfc9bc0015b5be60,D2,batch4,,2130,stim/yes_58_dia_w1_w.png,f,pattern_response,TRUE,f,pattern_76,2130,TRUE,11,,,,,,,,,,,,,,,,,,,
,,,,,html-keyboard-response,45,191655,0.0-2.0-5.0-0.12,5d4821d9dfc9bc0015b5be60,D2,batch4,,null,<p class=block-text>Trial 13 out of 78</p>,null,pattern_show_trial_num,,,,,,,,,,,,,,,,,,,,,,,,,
,,,,,image-keyboard-response,46,197388,0.0-2.0-5.0-1.12,5d4821d9dfc9bc0015b5be60,D2,batch4,,5731,stim/yes_42_dia_w1_w.png,f,pattern_response,TRUE,f,pattern_64,5731,TRUE,12,,,,,,,,,,,,,,,,,,,
,,,,,html-keyboard-response,47,198697,0.0-2.0-5.0-0.13,5d4821d9dfc9bc0015b5be60,D2,batch4,,null,<p class=block-text>Trial 14 out of 78</p>,null,pattern_show_trial_num,,,,,,,,,,,,,,,,,,,,,,,,,
,,,,,image-keyboard-response,48,199812,0.0-2.0-5.0-1.13,5d4821d9dfc9bc0015b5be60,D2,batch4,,1111,stim/yes_53_ver_b1_b.png,f,pattern_response,TRUE,f,pattern_74,1111,TRUE,13,,,,,,,,,,,,,,,,,,,
,,,,,html-keyboard-response,49,201119,0.0-2.0-5.0-0.14,5d4821d9dfc9bc0015b5be60,D2,batch4,,null,<p class=block-text>Trial 15 out of 78</p>,null,pattern_show_trial_num,,,,,,,,,,,,,,,,,,,,,,,,,
,,,,,image-keyboard-response,50,205654,0.0-2.0-5.0-1.14,5d4821d9dfc9bc0015b5be60,D2,batch4,,4533,stim/no_45_1_w.png,f,pattern_response,FALSE,j,pattern_25,4533,FALSE,14,,,,,,,,,,,,,,,,,,,
,,,,,html-keyboard-response,51,206960,0.0-2.0-5.0-0.15,5d4821d9dfc9bc0015b5be60,D2,batch4,,null,<p class=block-text>Trial 16 out of 78</p>,null,pattern_show_trial_num,,,,,,,,,,,,,,,,,,,,,,,,,
,,,,,image-keyboard-response,52,207796,0.0-2.0-5.0-1.15,5d4821d9dfc9bc0015b5be60,D2,batch4,,832,stim/yes_30_ver_b1_b.png,f,pattern_response,TRUE,f,pattern_54,832,TRUE,15,,,,,,,,,,,,,,,,,,,
,,,,,html-keyboard-response,53,209115,0.0-2.0-5.0-0.16,5d4821d9dfc9bc0015b5be60,D2,batch4,,null,<p class=block-text>Trial 17 out of 78</p>,null,pattern_show_trial_num,,,,,,,,,,,,,,,,,,,,,,,,,
,,,,,image-keyboard-response,54,210628,0.0-2.0-5.0-1.16,5d4821d9dfc9bc0015b5be60,D2,batch4,,1510,stim/yes_70_ver_b1.png,f,pattern_response,TRUE,f,pattern_80,1510,TRUE,16,,,,,,,,,,,,,,,,,,,
,,,,,html-keyboard-response,55,211943,0.0-2.0-5.0-0.17,5d4821d9dfc9bc0015b5be60,D2,batch4,,null,<p class=block-text>Trial 18 out of 78</p>,null,pattern_show_trial_num,,,,,,,,,,,,,,,,,,,,,,,,,
,,,,,image-keyboard-response,56,214692,0.0-2.0-5.0-1.17,5d4821d9dfc9bc0015b5be60,D2,batch4,,2746,stim/yes_49_hor_w1_b.png,j,pattern_response,FALSE,f,pattern_70,2746,FALSE,16,,,,,,,,,,,,,,,,,,,
,,,,,html-keyboard-response,57,215996,0.0-2.0-5.0-0.18,5d4821d9dfc9bc0015b5be60,D2,batch4,,null,<p class=block-text>Trial 19 out of 78</p>,null,pattern_show_trial_num,,,,,,,,,,,,,,,,,,,,,,,,,
,,,,,image-keyboard-response,58,222086,0.0-2.0-5.0-1.18,5d4821d9dfc9bc0015b5be60,D2,batch4,,6086,stim/no_36_1_b.png,f,pattern_response,FALSE,j,pattern_17,6086,FALSE,17,,,,,,,,,,,,,,,,,,,
,,,,,html-keyboard-response,59,223390,0.0-2.0-5.0-0.19,5d4821d9dfc9bc0015b5be60,D2,batch4,,null,<p class=block-text>Trial 20 out of 78</p>,null,pattern_show_trial_num,,,,,,,,,,,,,,,,,,,,,,,,,
,,,,,image-keyboard-response,60,224316,0.0-2.0-5.0-1.19,5d4821d9dfc9bc0015b5be60,D2,batch4,,923,stim/yes_36_ver_w1_w.png,f,pattern_response,TRUE,f,pattern_58,923,TRUE,18,,,,,,,,,,,,,,,,,,,
,,,,,html-keyboard-response,61,225633,0.0-2.0-5.0-0.20,5d4821d9dfc9bc0015b5be60,D2,batch4,,null,<p class=block-text>Trial 21 out of 78</p>,null,pattern_show_trial_num,,,,,,,,,,,,,,,,,,,,,,,,,
,,,,,image-keyboard-response,62,227252,0.0-2.0-5.0-1.20,5d4821d9dfc9bc0015b5be60,D2,batch4,,1616,stim/no_15_1_w.png,j,pattern_response,TRUE,j,pattern_03,1616,TRUE,19,,,,,,,,,,,,,,,,,,,
,,,,,html-keyboard-response,63,228555,0.0-2.0-5.0-0.21,5d4821d9dfc9bc0015b5be60,D2,batch4,,null,<p class=block-text>Trial 22 out of 78</p>,null,pattern_show_trial_num,,,,,,,,,,,,,,,,,,,,,,,,,
,,,,,image-keyboard-response,64,236262,0.0-2.0-5.0-1.21,5d4821d9dfc9bc0015b5be60,D2,batch4,,7702,stim/no_39_1_w.png,f,pattern_response,FALSE,j,pattern_21,7702,FALSE,20,,,,,,,,,,,,,,,,,,,
,,,,,html-keyboard-response,65,237588,0.0-2.0-5.0-0.22,5d4821d9dfc9bc0015b5be60,D2,batch4,,null,<p class=block-text>Trial 23 out of 78</p>,null,pattern_show_trial_num,,,,,,,,,,,,,,,,,,,,,,,,,
,,,,,image-keyboard-response,66,238700,0.0-2.0-5.0-1.22,5d4821d9dfc9bc0015b5be60,D2,batch4,,1109,stim/yes_17_ver_b1_b.png,f,pattern_response,TRUE,f,pattern_46,1109,TRUE,21,,,,,,,,,,,,,,,,,,,
,,,,,html-keyboard-response,67,240013,0.0-2.0-5.0-0.23,5d4821d9dfc9bc0015b5be60,D2,batch4,,null,<p class=block-text>Trial 24 out of 78</p>,null,pattern_show_trial_num,,,,,,,,,,,,,,,,,,,,,,,,,
,,,,,image-keyboard-response,68,244276,0.0-2.0-5.0-1.23,5d4821d9dfc9bc0015b5be60,D2,batch4,,4261,stim/yes_51_dia_b1.png,f,pattern_response,TRUE,f,pattern_72,4261,TRUE,22,,,,,,,,,,,,,,,,,,,
,,,,,html-keyboard-response,69,245593,0.0-2.0-5.0-0.24,5d4821d9dfc9bc0015b5be60,D2,batch4,,null,<p class=block-text>Trial 25 out of 78</p>,null,pattern_show_trial_num,,,,,,,,,,,,,,,,,,,,,,,,,
,,,,,image-keyboard-response,70,252246,0.0-2.0-5.0-1.24,5d4821d9dfc9bc0015b5be60,D2,batch4,,6652,stim/no_47_1_b.png,j,pattern_response,TRUE,j,pattern_27,6652,TRUE,23,,,,,,,,,,,,,,,,,,,
,,,,,html-keyboard-response,71,253557,0.0-2.0-5.0-0.25,5d4821d9dfc9bc0015b5be60,D2,batch4,,null,<p class=block-text>Trial 26 out of 78</p>,null,pattern_show_trial_num,,,,,,,,,,,,,,,,,,,,,,,,,
,,,,,image-keyboard-response,72,256964,0.0-2.0-5.0-1.25,5d4821d9dfc9bc0015b5be60,D2,batch4,,3404,stim/no_43_2_b.png,j,pattern_response,TRUE,j,pattern_23,3404,TRUE,24,,,,,,,,,,,,,,,,,,,
,,,,,html-keyboard-response,73,258279,0.0-2.0-5.0-0.26,5d4821d9dfc9bc0015b5be60,D2,batch4,,null,<p class=block-text>Trial 27 out of 78</p>,null,pattern_show_trial_num,,,,,,,,,,,,,,,,,,,,,,,,,
,,,,,image-keyboard-response,74,264246,0.0-2.0-5.0-1.26,5d4821d9dfc9bc0015b5be60,D2,batch4,,5963,stim/no_49_2_b.png,j,pattern_response,TRUE,j,pattern_29,5963,TRUE,25,,,,,,,,,,,,,,,,,,,
,,,,,html-keyboard-response,75,265549,0.0-2.0-5.0-0.27,5d4821d9dfc9bc0015b5be60,D2,batch4,,null,<p class=block-text>Trial 28 out of 78</p>,null,pattern_show_trial_num,,,,,,,,,,,,,,,,,,,,,,,,,
,,,,,image-keyboard-response,76,267876,0.0-2.0-5.0-1.27,5d4821d9dfc9bc0015b5be60,D2,batch4,,2324,stim/yes_63_dia_b1.png,f,pattern_response,TRUE,f,pattern_78,2324,TRUE,26,,,,,,,,,,,,,,,,,,,
,,,,,html-keyboard-response,77,269196,0.0-2.0-5.0-0.28,5d4821d9dfc9bc0015b5be60,D2,batch4,,null,<p class=block-text>Trial 29 out of 78</p>,null,pattern_show_trial_num,,,,,,,,,,,,,,,,,,,,,,,,,
,,,,,image-keyboard-response,78,269988,0.0-2.0-5.0-1.28,5d4821d9dfc9bc0015b5be60,D2,batch4,,788,stim/yes_12_hor_w1_w.png,f,pattern_response,TRUE,f,pattern_42,788,TRUE,27,,,,,,,,,,,,,,,,,,,
,,,,,html-keyboard-response,79,271299,0.0-2.0-5.0-0.29,5d4821d9dfc9bc0015b5be60,D2,batch4,,null,<p class=block-text>Trial 30 out of 78</p>,null,pattern_show_trial_num,,,,,,,,,,,,,,,,,,,,,,,,,
,,,,,image-keyboard-response,80,273500,0.0-2.0-5.0-1.29,5d4821d9dfc9bc0015b5be60,D2,batch4,,2199,stim/no_28_2.png,j,pattern_response,TRUE,j,pattern_11,2199,TRUE,28,,,,,,,,,,,,,,,,,,,
,,,,,html-keyboard-response,81,274803,0.0-2.0-5.0-0.30,5d4821d9dfc9bc0015b5be60,D2,batch4,,null,<p class=block-text>Trial 31 out of 78</p>,null,pattern_show_trial_num,,,,,,,,,,,,,,,,,,,,,,,,,
,,,,,image-keyboard-response,82,277142,0.0-2.0-5.0-1.30,5d4821d9dfc9bc0015b5be60,D2,batch4,,2336,stim/no_30_1_b.png,j,pattern_response,TRUE,j,pattern_13,2336,TRUE,29,,,,,,,,,,,,,,,,,,,
,,,,,html-keyboard-response,83,278451,0.0-2.0-5.0-0.31,5d4821d9dfc9bc0015b5be60,D2,batch4,,null,<p class=block-text>Trial 32 out of 78</p>,null,pattern_show_trial_num,,,,,,,,,,,,,,,,,,,,,,,,,
,,,,,image-keyboard-response,84,283988,0.0-2.0-5.0-1.31,5d4821d9dfc9bc0015b5be60,D2,batch4,,5533,stim/no_58_1_w.png,j,pattern_response,TRUE,j,pattern_35,5533,TRUE,30,,,,,,,,,,,,,,,,,,,
,,,,,html-keyboard-response,85,285304,0.0-2.0-5.0-0.32,5d4821d9dfc9bc0015b5be60,D2,batch4,,null,<p class=block-text>Trial 33 out of 78</p>,null,pattern_show_trial_num,,,,,,,,,,,,,,,,,,,,,,,,,
,,,,,image-keyboard-response,86,288478,0.0-2.0-5.0-1.32,5d4821d9dfc9bc0015b5be60,D2,batch4,,3171,stim/no_25_1_b.png,j,pattern_response,TRUE,j,pattern_09,3171,TRUE,31,,,,,,,,,,,,,,,,,,,
,,,,,html-keyboard-response,87,289798,0.0-2.0-5.0-0.33,5d4821d9dfc9bc0015b5be60,D2,batch4,,null,<p class=block-text>Trial 34 out of 78</p>,null,pattern_show_trial_num,,,,,,,,,,,,,,,,,,,,,,,,,
,,,,,image-keyboard-response,88,291476,0.0-2.0-5.0-1.33,5d4821d9dfc9bc0015b5be60,D2,batch4,,1674,stim/no_18_1_b.png,j,pattern_response,TRUE,j,pattern_05,1674,TRUE,32,,,,,,,,,,,,,,,,,,,
,,,,,html-keyboard-response,89,292787,0.0-2.0-5.0-0.34,5d4821d9dfc9bc0015b5be60,D2,batch4,,null,<p class=block-text>Trial 35 out of 78</p>,null,pattern_show_trial_num,,,,,,,,,,,,,,,,,,,,,,,,,
,,,,,image-keyboard-response,90,301175,0.0-2.0-5.0-1.34,5d4821d9dfc9bc0015b5be60,D2,batch4,,8384,stim/yes_37_hor_w1_w.png,j,pattern_response,FALSE,f,pattern_60,8384,FALSE,33,,,,,,,,,,,,,,,,,,,
,,,,,html-keyboard-response,91,302481,0.0-2.0-5.0-0.35,5d4821d9dfc9bc0015b5be60,D2,batch4,,null,<p class=block-text>Trial 36 out of 78</p>,null,pattern_show_trial_num,,,,,,,,,,,,,,,,,,,,,,,,,
,,,,,image-keyboard-response,92,304181,0.0-2.0-5.0-1.35,5d4821d9dfc9bc0015b5be60,D2,batch4,,1697,stim/no_22_1_b.png,j,pattern_response,TRUE,j,pattern_07,1697,TRUE,34,,,,,,,,,,,,,,,,,,,
,,,,,html-keyboard-response,93,305495,0.0-2.0-5.0-0.36,5d4821d9dfc9bc0015b5be60,D2,batch4,,null,<p class=block-text>Trial 37 out of 78</p>,null,pattern_show_trial_num,,,,,,,,,,,,,,,,,,,,,,,,,
,,,,,image-keyboard-response,94,311423,0.0-2.0-5.0-1.36,5d4821d9dfc9bc0015b5be60,D2,batch4,,5926,stim/no_51_1.png,j,pattern_response,TRUE,j,pattern_31,5926,TRUE,35,,,,,,,,,,,,,,,,,,,
,,,,,html-keyboard-response,95,312734,0.0-2.0-5.0-0.37,5d4821d9dfc9bc0015b5be60,D2,batch4,,null,<p class=block-text>Trial 38 out of 78</p>,null,pattern_show_trial_num,,,,,,,,,,,,,,,,,,,,,,,,,
,,,,,image-keyboard-response,96,319373,0.0-2.0-5.0-1.37,5d4821d9dfc9bc0015b5be60,D2,batch4,,6635,stim/no_53_1_b.png,j,pattern_response,TRUE,j,pattern_33,6635,TRUE,36,,,,,,,,,,,,,,,,,,,
,,,,,html-keyboard-response,97,320689,0.0-2.0-5.0-0.38,5d4821d9dfc9bc0015b5be60,D2,batch4,,null,<p class=block-text>Trial 39 out of 78</p>,null,pattern_show_trial_num,,,,,,,,,,,,,,,,,,,,,,,,,
,,,,,image-keyboard-response,98,321543,0.0-2.0-5.0-1.38,5d4821d9dfc9bc0015b5be60,D2,batch4,,850,stim/yes_33_dia_w1_w.png,f,pattern_response,TRUE,f,pattern_56,850,TRUE,37,,,,,,,,,,,,,,,,,,,
,,,,,image-keyboard-response,99,323517,0.0-2.0-6.0,5d4821d9dfc9bc0015b5be60,D2,batch4,,1465,stim/empty_board.png,j,attention_check,TRUE,j,,,,,500,"[""f"",""j""]",,,,,,,,,,,,,,,,,
,,,,,html-keyboard-response,100,324322,0.0-2.0-7.0-0.0,5d4821d9dfc9bc0015b5be60,D2,batch4,,null,<p class=block-text>Trial 40 out of 78</p>,null,pattern_show_trial_num,,,,,,,,,,,,,,,,,,,,,,,,,
,,,,,image-keyboard-response,101,326397,0.0-2.0-7.0-1.0,5d4821d9dfc9bc0015b5be60,D2,batch4,,2072,stim/yes_31_hor_b1.png,f,pattern_response,TRUE,f,pattern_55,2072,TRUE,38,,,,,,,,,,,,,,,,,,,
,,,,,html-keyboard-response,102,327714,0.0-2.0-7.0-0.1,5d4821d9dfc9bc0015b5be60,D2,batch4,,null,<p class=block-text>Trial 41 out of 78</p>,null,pattern_show_trial_num,,,,,,,,,,,,,,,,,,,,,,,,,
,,,,,image-keyboard-response,103,331615,0.0-2.0-7.0-1.1,5d4821d9dfc9bc0015b5be60,D2,batch4,,3899,stim/no_46_1_b.png,j,pattern_response,TRUE,j,pattern_26,3899,TRUE,39,,,,,,,,,,,,,,,,,,,
,,,,,html-keyboard-response,104,332924,0.0-2.0-7.0-0.2,5d4821d9dfc9bc0015b5be60,D2,batch4,,null,<p class=block-text>Trial 42 out of 78</p>,null,pattern_show_trial_num,,,,,,,,,,,,,,,,,,,,,,,,,
,,,,,image-keyboard-response,105,339277,0.0-2.0-7.0-1.2,5d4821d9dfc9bc0015b5be60,D2,batch4,,6349,stim/no_42_1_w.png,f,pattern_response,FALSE,j,pattern_22,6349,FALSE,40,,,,,,,,,,,,,,,,,,,
,,,,,html-keyboard-response,106,340593,0.0-2.0-7.0-0.3,5d4821d9dfc9bc0015b5be60,D2,batch4,,null,<p class=block-text>Trial 43 out of 78</p>,null,pattern_show_trial_num,,,,,,,,,,,,,,,,,,,,,,,,,
,,,,,image-keyboard-response,107,341613,0.0-2.0-7.0-1.3,5d4821d9dfc9bc0015b5be60,D2,batch4,,1017,stim/yes_43_ver_w1_w.png,f,pattern_response,TRUE,f,pattern_65,1017,TRUE,41,,,,,,,,,,,,,,,,,,,
,,,,,html-keyboard-response,108,342926,0.0-2.0-7.0-0.4,5d4821d9dfc9bc0015b5be60,D2,batch4,,null,<p class=block-text>Trial 44 out of 78</p>,null,pattern_show_trial_num,,,,,,,,,,,,,,,,,,,,,,,,,
,,,,,image-keyboard-response,109,348735,0.0-2.0-7.0-1.4,5d4821d9dfc9bc0015b5be60,D2,batch4,,5806,stim/no_62_1_w.png,j,pattern_response,TRUE,j,pattern_36,5806,TRUE,42,,,,,,,,,,,,,,,,,,,
,,,,,html-keyboard-response,110,350052,0.0-2.0-7.0-0.5,5d4821d9dfc9bc0015b5be60,D2,batch4,,null,<p class=block-text>Trial 45 out of 78</p>,null,pattern_show_trial_num,,,,,,,,,,,,,,,,,,,,,,,,,
,,,,,image-keyboard-response,111,357621,0.0-2.0-7.0-1.5,5d4821d9dfc9bc0015b5be60,D2,batch4,,7566,stim/no_48_1_w.png,j,pattern_response,TRUE,j,pattern_28,7566,TRUE,43,,,,,,,,,,,,,,,,,,,
,,,,,html-keyboard-response,112,358927,0.0-2.0-7.0-0.6,5d4821d9dfc9bc0015b5be60,D2,batch4,,null,<p class=block-text>Trial 46 out of 78</p>,null,pattern_show_trial_num,,,,,,,,,,,,,,,,,,,,,,,,,
,,,,,image-keyboard-response,113,364231,0.0-2.0-7.0-1.6,5d4821d9dfc9bc0015b5be60,D2,batch4,,5300,stim/yes_50_dia_w1.png,f,pattern_response,TRUE,f,pattern_71,5300,TRUE,44,,,,,,,,,,,,,,,,,,,
,,,,,html-keyboard-response,114,365555,0.0-2.0-7.0-0.7,5d4821d9dfc9bc0015b5be60,D2,batch4,,null,<p class=block-text>Trial 47 out of 78</p>,null,pattern_show_trial_num,,,,,,,,,,,,,,,,,,,,,,,,,
,,,,,image-keyboard-response,115,368118,0.0-2.0-7.0-1.7,5d4821d9dfc9bc0015b5be60,D2,batch4,,2548,stim/no_29_1_b.png,j,pattern_response,TRUE,j,pattern_12,2548,TRUE,45,,,,,,,,,,,,,,,,,,,
,,,,,html-keyboard-response,116,369428,0.0-2.0-7.0-0.8,5d4821d9dfc9bc0015b5be60,D2,batch4,,null,<p class=block-text>Trial 48 out of 78</p>,null,pattern_show_trial_num,,,,,,,,,,,,,,,,,,,,,,,,,
,,,,,image-keyboard-response,117,374286,0.0-2.0-7.0-1.8,5d4821d9dfc9bc0015b5be60,D2,batch4,,4854,stim/no_52_1.png,j,pattern_response,TRUE,j,pattern_32,4854,TRUE,46,,,,,,,,,,,,,,,,,,,
,,,,,html-keyboard-response,118,375590,0.0-2.0-7.0-0.9,5d4821d9dfc9bc0015b5be60,D2,batch4,,null,<p class=block-text>Trial 49 out of 78</p>,null,pattern_show_trial_num,,,,,,,,,,,,,,,,,,,,,,,,,
,,,,,image-keyboard-response,119,376350,0.0-2.0-7.0-1.9,5d4821d9dfc9bc0015b5be60,D2,batch4,,755,stim/yes_14_hor_b1_w.png,f,pattern_response,TRUE,f,pattern_43,755,TRUE,47,,,,,,,,,,,,,,,,,,,
,,,,,html-keyboard-response,120,377660,0.0-2.0-7.0-0.10,5d4821d9dfc9bc0015b5be60,D2,batch4,,null,<p class=block-text>Trial 50 out of 78</p>,null,pattern_show_trial_num,,,,,,,,,,,,,,,,,,,,,,,,,
,,,,,image-keyboard-response,121,380301,0.0-2.0-7.0-1.10,5d4821d9dfc9bc0015b5be60,D2,batch4,,2639,stim/no_20_1_w.png,j,pattern_response,TRUE,j,pattern_06,2639,TRUE,48,,,,,,,,,,,,,,,,,,,
,,,,,html-keyboard-response,122,381614,0.0-2.0-7.0-0.11,5d4821d9dfc9bc0015b5be60,D2,batch4,,null,<p class=block-text>Trial 51 out of 78</p>,null,pattern_show_trial_num,,,,,,,,,,,,,,,,,,,,,,,,,
,,,,,image-keyboard-response,123,388951,0.0-2.0-7.0-1.11,5d4821d9dfc9bc0015b5be60,D2,batch4,,7333,stim/no_50_1.png,f,pattern_response,FALSE,j,pattern_30,7333,FALSE,49,,,,,,,,,,,,,,,,,,,
,,,,,html-keyboard-response,124,390262,0.0-2.0-7.0-0.12,5d4821d9dfc9bc0015b5be60,D2,batch4,,null,<p class=block-text>Trial 52 out of 78</p>,null,pattern_show_trial_num,,,,,,,,,,,,,,,,,,,,,,,,,
,,,,,image-keyboard-response,125,395054,0.0-2.0-7.0-1.12,5d4821d9dfc9bc0015b5be60,D2,batch4,,4788,stim/no_36_2_w.png,j,pattern_response,TRUE,j,pattern_18,4788,TRUE,50,,,,,,,,,,,,,,,,,,,
,,,,,html-keyboard-response,126,396360,0.0-2.0-7.0-0.13,5d4821d9dfc9bc0015b5be60,D2,batch4,,null,<p class=block-text>Trial 53 out of 78</p>,null,pattern_show_trial_num,,,,,,,,,,,,,,,,,,,,,,,,,
,,,,,image-keyboard-response,127,397526,0.0-2.0-7.0-1.13,5d4821d9dfc9bc0015b5be60,D2,batch4,,1161,stim/yes_52_ver_w1.png,f,pattern_response,TRUE,f,pattern_73,1161,TRUE,51,,,,,,,,,,,,,,,,,,,
,,,,,html-keyboard-response,128,398841,0.0-2.0-7.0-0.14,5d4821d9dfc9bc0015b5be60,D2,batch4,,null,<p class=block-text>Trial 54 out of 78</p>,null,pattern_show_trial_num,,,,,,,,,,,,,,,,,,,,,,,,,
,,,,,image-keyboard-response,129,402751,0.0-2.0-7.0-1.14,5d4821d9dfc9bc0015b5be60,D2,batch4,,3907,stim/yes_37_dia_w1.png,f,pattern_response,TRUE,f,pattern_59,3907,TRUE,52,,,,,,,,,,,,,,,,,,,
,,,,,html-keyboard-response,130,404069,0.0-2.0-7.0-0.15,5d4821d9dfc9bc0015b5be60,D2,batch4,,null,<p class=block-text>Trial 55 out of 78</p>,null,pattern_show_trial_num,,,,,,,,,,,,,,,,,,,,,,,,,
,,,,,image-keyboard-response,131,405293,0.0-2.0-7.0-1.15,5d4821d9dfc9bc0015b5be60,D2,batch4,,1221,stim/yes_17_dia_w1.png,f,pattern_response,TRUE,f,pattern_45,1221,TRUE,53,,,,,,,,,,,,,,,,,,,
,,,,,html-keyboard-response,132,406600,0.0-2.0-7.0-0.16,5d4821d9dfc9bc0015b5be60,D2,batch4,,null,<p class=block-text>Trial 56 out of 78</p>,null,pattern_show_trial_num,,,,,,,,,,,,,,,,,,,,,,,,,
,,,,,image-keyboard-response,133,418111,0.0-2.0-7.0-1.16,5d4821d9dfc9bc0015b5be60,D2,batch4,,11509,stim/no_70_2.png,j,pattern_response,TRUE,j,pattern_40,11509,TRUE,54,,,,,,,,,,,,,,,,,,,
,,,,,html-keyboard-response,134,419417,0.0-2.0-7.0-0.17,5d4821d9dfc9bc0015b5be60,D2,batch4,,null,<p class=block-text>Trial 57 out of 78</p>,null,pattern_show_trial_num,,,,,,,,,,,,,,,,,,,,,,,,,
,,,,,image-keyboard-response,135,429808,0.0-2.0-7.0-1.17,5d4821d9dfc9bc0015b5be60,D2,batch4,,10385,stim/no_65_1_b.png,f,pattern_response,FALSE,j,pattern_38,10385,FALSE,55,,,,,,,,,,,,,,,,,,,
,,,,,html-keyboard-response,136,431124,0.0-2.0-7.0-0.18,5d4821d9dfc9bc0015b5be60,D2,batch4,,null,<p class=block-text>Trial 58 out of 78</p>,null,pattern_show_trial_num,,,,,,,,,,,,,,,,,,,,,,,,,
,,,,,image-keyboard-response,137,432838,0.0-2.0-7.0-1.18,5d4821d9dfc9bc0015b5be60,D2,batch4,,1711,stim/no_17_1_w.png,j,pattern_response,TRUE,j,pattern_04,1711,TRUE,56,,,,,,,,,,,,,,,,,,,
,,,,,html-keyboard-response,138,434144,0.0-2.0-7.0-0.19,5d4821d9dfc9bc0015b5be60,D2,batch4,,null,<p class=block-text>Trial 59 out of 78</p>,null,pattern_show_trial_num,,,,,,,,,,,,,,,,,,,,,,,,,
,,,,,image-keyboard-response,139,441399,0.0-2.0-7.0-1.19,5d4821d9dfc9bc0015b5be60,D2,batch4,,7252,stim/yes_67_hor_b1.png,f,pattern_response,TRUE,f,pattern_79,7252,TRUE,57,,,,,,,,,,,,,,,,,,,
,,,,,html-keyboard-response,140,442705,0.0-2.0-7.0-0.20,5d4821d9dfc9bc0015b5be60,D2,batch4,,null,<p class=block-text>Trial 60 out of 78</p>,null,pattern_show_trial_num,,,,,,,,,,,,,,,,,,,,,,,,,
,,,,,image-keyboard-response,141,453647,0.0-2.0-7.0-1.20,5d4821d9dfc9bc0015b5be60,D2,batch4,,10938,stim/yes_48_dia_w1_w.png,j,pattern_response,FALSE,f,pattern_69,10938,FALSE,58,,,,,,,,,,,,,,,,,,,
,,,,,html-keyboard-response,142,454957,0.0-2.0-7.0-0.21,5d4821d9dfc9bc0015b5be60,D2,batch4,,null,<p class=block-text>Trial 61 out of 78</p>,null,pattern_show_trial_num,,,,,,,,,,,,,,,,,,,,,,,,,
,,,,,image-keyboard-response,143,455902,0.0-2.0-7.0-1.21,5d4821d9dfc9bc0015b5be60,D2,batch4,,941,stim/no_13_2_b.png,j,pattern_response,TRUE,j,pattern_02,941,TRUE,59,,,,,,,,,,,,,,,,,,,
,,,,,html-keyboard-response,144,457204,0.0-2.0-7.0-0.22,5d4821d9dfc9bc0015b5be60,D2,batch4,,null,<p class=block-text>Trial 62 out of 78</p>,null,pattern_show_trial_num,,,,,,,,,,,,,,,,,,,,,,,,,
,,,,,image-keyboard-response,145,458670,0.0-2.0-7.0-1.22,5d4821d9dfc9bc0015b5be60,D2,batch4,,1463,stim/yes_40_dia_b1_b.png,f,pattern_response,TRUE,f,pattern_63,1463,TRUE,60,,,,,,,,,,,,,,,,,,,
,,,,,html-keyboard-response,146,459980,0.0-2.0-7.0-0.23,5d4821d9dfc9bc0015b5be60,D2,batch4,,null,<p class=block-text>Trial 63 out of 78</p>,null,pattern_show_trial_num,,,,,,,,,,,,,,,,,,,,,,,,,
,,,,,image-keyboard-response,147,460870,0.0-2.0-7.0-1.23,5d4821d9dfc9bc0015b5be60,D2,batch4,,888,stim/yes_25_hor_b1_b.png,f,pattern_response,TRUE,f,pattern_49,888,TRUE,61,,,,,,,,,,,,,,,,,,,
,,,,,html-keyboard-response,148,462184,0.0-2.0-7.0-0.24,5d4821d9dfc9bc0015b5be60,D2,batch4,,null,<p class=block-text>Trial 64 out of 78</p>,null,pattern_show_trial_num,,,,,,,,,,,,,,,,,,,,,,,,,
,,,,,image-keyboard-response,149,464504,0.0-2.0-7.0-1.24,5d4821d9dfc9bc0015b5be60,D2,batch4,,2317,stim/yes_45_hor_b2_b.png,f,pattern_response,TRUE,f,pattern_67,2317,TRUE,62,,,,,,,,,,,,,,,,,,,
,,,,,html-keyboard-response,150,465816,0.0-2.0-7.0-0.25,5d4821d9dfc9bc0015b5be60,D2,batch4,,null,<p class=block-text>Trial 65 out of 78</p>,null,pattern_show_trial_num,,,,,,,,,,,,,,,,,,,,,,,,,
,,,,,image-keyboard-response,151,467798,0.0-2.0-7.0-1.25,5d4821d9dfc9bc0015b5be60,D2,batch4,,1978,stim/yes_29_ver_w1.png,f,pattern_response,TRUE,f,pattern_53,1978,TRUE,63,,,,,,,,,,,,,,,,,,,
,,,,,html-keyboard-response,152,469107,0.0-2.0-7.0-0.26,5d4821d9dfc9bc0015b5be60,D2,batch4,,null,<p class=block-text>Trial 66 out of 78</p>,null,pattern_show_trial_num,,,,,,,,,,,,,,,,,,,,,,,,,
,,,,,image-keyboard-response,153,473166,0.0-2.0-7.0-1.26,5d4821d9dfc9bc0015b5be60,D2,batch4,,4055,stim/no_38_1_b.png,j,pattern_response,TRUE,j,pattern_20,4055,TRUE,64,,,,,,,,,,,,,,,,,,,
,,,,,html-keyboard-response,154,474484,0.0-2.0-7.0-0.27,5d4821d9dfc9bc0015b5be60,D2,batch4,,null,<p class=block-text>Trial 67 out of 78</p>,null,pattern_show_trial_num,,,,,,,,,,,,,,,,,,,,,,,,,
,,,,,image-keyboard-response,155,476448,0.0-2.0-7.0-1.27,5d4821d9dfc9bc0015b5be60,D2,batch4,,1960,stim/yes_38_hor_b1_b.png,f,pattern_response,TRUE,f,pattern_61,1960,TRUE,65,,,,,,,,,,,,,,,,,,,
,,,,,html-keyboard-response,156,477769,0.0-2.0-7.0-0.28,5d4821d9dfc9bc0015b5be60,D2,batch4,,null,<p class=block-text>Trial 68 out of 78</p>,null,pattern_show_trial_num,,,,,,,,,,,,,,,,,,,,,,,,,
,,,,,image-keyboard-response,157,484534,0.0-2.0-7.0-1.28,5d4821d9dfc9bc0015b5be60,D2,batch4,,6763,stim/no_55_1_w.png,j,pattern_response,TRUE,j,pattern_34,6763,TRUE,66,,,,,,,,,,,,,,,,,,,
,,,,,html-keyboard-response,158,485848,0.0-2.0-7.0-0.29,5d4821d9dfc9bc0015b5be60,D2,batch4,,null,<p class=block-text>Trial 69 out of 78</p>,null,pattern_show_trial_num,,,,,,,,,,,,,,,,,,,,,,,,,
,,,,,image-keyboard-response,159,486919,0.0-2.0-7.0-1.29,5d4821d9dfc9bc0015b5be60,D2,batch4,,1067,stim/yes_28_ver_b1.png,f,pattern_response,TRUE,f,pattern_51,1067,TRUE,67,,,,,,,,,,,,,,,,,,,
,,,,,html-keyboard-response,160,488235,0.0-2.0-7.0-0.30,5d4821d9dfc9bc0015b5be60,D2,batch4,,null,<p class=block-text>Trial 70 out of 78</p>,null,pattern_show_trial_num,,,,,,,,,,,,,,,,,,,,,,,,,
,,,,,image-keyboard-response,161,491926,0.0-2.0-7.0-1.30,5d4821d9dfc9bc0015b5be60,D2,batch4,,3689,stim/no_44_1.png,j,pattern_response,TRUE,j,pattern_24,3689,TRUE,68,,,,,,,,,,,,,,,,,,,
,,,,,html-keyboard-response,162,493236,0.0-2.0-7.0-0.31,5d4821d9dfc9bc0015b5be60,D2,batch4,,null,<p class=block-text>Trial 71 out of 78</p>,null,pattern_show_trial_num,,,,,,,,,,,,,,,,,,,,,,,,,
,,,,,image-keyboard-response,163,496774,0.0-2.0-7.0-1.31,5d4821d9dfc9bc0015b5be60,D2,batch4,,3535,stim/yes_55_hor_w1_w.png,f,pattern_response,TRUE,f,pattern_75,3535,TRUE,69,,,,,,,,,,,,,,,,,,,
,,,,,html-keyboard-response,164,498084,0.0-2.0-7.0-0.32,5d4821d9dfc9bc0015b5be60,D2,batch4,,null,<p class=block-text>Trial 72 out of 78</p>,null,pattern_show_trial_num,,,,,,,,,,,,,,,,,,,,,,,,,
,,,,,image-keyboard-response,165,499895,0.0-2.0-7.0-1.32,5d4821d9dfc9bc0015b5be60,D2,batch4,,1808,stim/no_23_1.png,j,pattern_response,TRUE,j,pattern_08,1808,TRUE,70,,,,,,,,,,,,,,,,,,,
,,,,,html-keyboard-response,166,501201,0.0-2.0-7.0-0.33,5d4821d9dfc9bc0015b5be60,D2,batch4,,null,<p class=block-text>Trial 73 out of 78</p>,null,pattern_show_trial_num,,,,,,,,,,,,,,,,,,,,,,,,,
,,,,,image-keyboard-response,167,502774,0.0-2.0-7.0-1.33,5d4821d9dfc9bc0015b5be60,D2,batch4,,1570,stim/no_26_1_w.png,j,pattern_response,TRUE,j,pattern_10,1570,TRUE,71,,,,,,,,,,,,,,,,,,,
,,,,,html-keyboard-response,168,504086,0.0-2.0-7.0-0.34,5d4821d9dfc9bc0015b5be60,D2,batch4,,null,<p class=block-text>Trial 74 out of 78</p>,null,pattern_show_trial_num,,,,,,,,,,,,,,,,,,,,,,,,,
,,,,,image-keyboard-response,169,509237,0.0-2.0-7.0-1.34,5d4821d9dfc9bc0015b5be60,D2,batch4,,5149,stim/no_34_1_b.png,j,pattern_response,TRUE,j,pattern_16,5149,TRUE,72,,,,,,,,,,,,,,,,,,,
,,,,,html-keyboard-response,170,510546,0.0-2.0-7.0-0.35,5d4821d9dfc9bc0015b5be60,D2,batch4,,null,<p class=block-text>Trial 75 out of 78</p>,null,pattern_show_trial_num,,,,,,,,,,,,,,,,,,,,,,,,,
,,,,,image-keyboard-response,171,512679,0.0-2.0-7.0-1.35,5d4821d9dfc9bc0015b5be60,D2,batch4,,2131,stim/yes_35_dia_b1.png,f,pattern_response,TRUE,f,pattern_57,2131,TRUE,73,,,,,,,,,,,,,,,,,,,
,,,,,html-keyboard-response,172,513982,0.0-2.0-7.0-0.36,5d4821d9dfc9bc0015b5be60,D2,batch4,,null,<p class=block-text>Trial 76 out of 78</p>,null,pattern_show_trial_num,,,,,,,,,,,,,,,,,,,,,,,,,
,,,,,image-keyboard-response,173,515134,0.0-2.0-7.0-1.36,5d4821d9dfc9bc0015b5be60,D2,batch4,,1149,stim/yes_60_ver_b1_b.png,f,pattern_response,TRUE,f,pattern_77,1149,TRUE,74,,,,,,,,,,,,,,,,,,,
,,,,,html-keyboard-response,174,516449,0.0-2.0-7.0-0.37,5d4821d9dfc9bc0015b5be60,D2,batch4,,null,<p class=block-text>Trial 77 out of 78</p>,null,pattern_show_trial_num,,,,,,,,,,,,,,,,,,,,,,,,,
,,,,,image-keyboard-response,175,517174,0.0-2.0-7.0-1.37,5d4821d9dfc9bc0015b5be60,D2,batch4,,722,stim/yes_22_ver_w1.png,f,pattern_response,TRUE,f,pattern_47,722,TRUE,75,,,,,,,,,,,,,,,,,,,
,,,,,html-keyboard-response,176,518491,0.0-2.0-7.0-0.38,5d4821d9dfc9bc0015b5be60,D2,batch4,,null,<p class=block-text>Trial 78 out of 78</p>,null,pattern_show_trial_num,,,,,,,,,,,,,,,,,,,,,,,,,
,,,,,image-keyboard-response,177,521518,0.0-2.0-7.0-1.38,5d4821d9dfc9bc0015b5be60,D2,batch4,,3024,stim/no_32_1_w.png,j,pattern_response,TRUE,j,pattern_14,3024,TRUE,76,,,,,,,,,,,,,,,,,,,
,,,,,html-button-response,178,527163,0.0-2.0-8.0,5d4821d9dfc9bc0015b5be60,D2,batch4,,5138,"<p class = block-text>This concludes the 4-in-a-row detection game.Thank you for your responses!<br>
            You responded correctly on 97% of the trials.<br>
            When you are ready, press ""Continue"" button to continue </p>",0,,,,,,,,,,,,,,,,,,,,,,,,,,
TRUE,,,,,fullscreen,179,529976,0.0-3.0-0.0,5d4821d9dfc9bc0015b5be60,D2,batch4,,,,,,,,,,,,,,,,,,,,,,,,,,,,,,
,,,,,instructions,180,622899,0.0-3.0-1.0-0.0-0.0,5d4821d9dfc9bc0015b5be60,D2,batch4,"[{""page_index"":0,""viewing_time"":50986},{""page_index"":1,""viewing_time"":4312},{""page_index"":2,""viewing_time"":3744},{""page_index"":3,""viewing_time"":3952},{""page_index"":4,""viewing_time"":5048},{""page_index"":3,""viewing_time"":10336},{""page_index"":4,""viewing_time"":1728},{""page_index"":5,""viewing_time"":8760},{""page_index"":6,""viewing_time"":4056}]",92922,,,tol-instructions,,,,,,,,,,,,,,,,,,,,,,,,,
,,,,,html-button-response,181,624243,0.0-3.0-1.0-1.0-0.0,5d4821d9dfc9bc0015b5be60,D2,batch4,,1343,<p class=block-text> Let's answer a few questions <br>,0,tol_enter_quiz,,,,,,,,,,,,,,,,,,,,,,,,,
,,,,,html-button-response,182,629516,0.0-3.0-1.0-1.0-1.0,5d4821d9dfc9bc0015b5be60,D2,batch4,,5270,<p class = block-text>True or False: You can only move the ball on top of a peg. <br></p>,1,tol_quiz,FALSE,,,,,,,,,,,,,,,,,,,,,,,,
,,,,,html-button-response,183,630571,0.0-3.0-1.0-1.0-2.0,5d4821d9dfc9bc0015b5be60,D2,batch4,,1053,"<p class = block-text>Incorrect. Remember, you can only move the ball on top of a peg.</p>",0,tol_quiz_feedback,,,,,,,,,,,,,,,,,,,,,,,,,
,,,,,html-button-response,184,633045,0.0-3.0-1.0-1.0-3.0,5d4821d9dfc9bc0015b5be60,D2,batch4,,2472,<p class = block-text>True or False: You should try to match your board with the target board with fewest moves possible. <br></p>,0,tol_quiz,TRUE,,,,,,,,,,,,,,,,,,,,,,,,
,,,,,html-button-response,185,633739,0.0-3.0-1.0-1.0-4.0,5d4821d9dfc9bc0015b5be60,D2,batch4,,692,<p class = block-text>Correct! </p>,0,tol_quiz_feedback,,,,,,,,,,,,,,,,,,,,,,,,,
,,,,,html-button-response,186,635083,0.0-3.0-1.0-2.0-0.0,5d4821d9dfc9bc0015b5be60,D2,batch4,,1343,<p class = block-text>You made too many incorrect choices.</p><p class = block-text>You will now repeat the instructions and quiz</p>,0,,,,,,,,,,,,,,,,,,,,,,,,,,
,,,,,instructions,187,640115,0.0-3.0-1.1-0.1-0.1,5d4821d9dfc9bc0015b5be60,D2,batch4,"[{""page_index"":0,""viewing_time"":1055},{""page_index"":1,""viewing_time"":568},{""page_index"":2,""viewing_time"":448},{""page_index"":3,""viewing_time"":537},{""page_index"":4,""viewing_time"":495},{""page_index"":5,""viewing_time"":448},{""page_index"":6,""viewing_time"":1480}]",5031,,,tol-instructions,,,,,,,,,,,,,,,,,,,,,,,,,
,,,,,html-button-response,188,640979,0.0-3.0-1.1-1.1-0.1,5d4821d9dfc9bc0015b5be60,D2,batch4,,864,<p class=block-text> Let's answer a few questions <br>,0,tol_enter_quiz,,,,,,,,,,,,,,,,,,,,,,,,,
,,,,,html-button-response,189,642827,0.0-3.0-1.1-1.1-1.1,5d4821d9dfc9bc0015b5be60,D2,batch4,,1847,<p class = block-text>True or False: You can only move the ball on top of a peg. <br></p>,0,tol_quiz,TRUE,,,,,,,,,,,,,,,,,,,,,,,,
,,,,,html-button-response,190,643659,0.0-3.0-1.1-1.1-2.1,5d4821d9dfc9bc0015b5be60,D2,batch4,,831,<p class = block-text>Correct! You can only move the ball on top of a peg.</p>,0,tol_quiz_feedback,,,,,,,,,,,,,,,,,,,,,,,,,
,,,,,html-button-response,191,644203,0.0-3.0-1.1-1.1-3.1,5d4821d9dfc9bc0015b5be60,D2,batch4,,543,<p class = block-text>True or False: You should try to match your board with the target board with fewest moves possible. <br></p>,0,tol_quiz,TRUE,,,,,,,,,,,,,,,,,,,,,,,,
,,,,,html-button-response,192,644835,0.0-3.0-1.1-1.1-4.1,5d4821d9dfc9bc0015b5be60,D2,batch4,,632,<p class = block-text>Correct! </p>,0,tol_quiz_feedback,,,,,,,,,,,,,,,,,,,,,,,,,
,,,,,html-button-response,193,647123,0.0-3.0-2.0,5d4821d9dfc9bc0015b5be60,D2,batch4,,2286,"<p class=block-text> Now that you've understood the game, let's practice a few easier examples before we start!<br> <br>",0,,,,,,,,,,,,,,,,,,,,,,,,,,
,,,,,single-stim-button,194,649438,0.0-3.0-3.0-0.0,5d4821d9dfc9bc0015b5be60,D2,batch4,,2312,,,tol_practice,,,,,,,,,tol_peg_2,2312,2312,0,"[[1,2,0],[0,0],[0]]",1,"[[1,2,0],[0,0],[3]]",practice,2312,,,,,,,,
,,,,,single-stim-button,195,650828,0.0-3.0-3.0-1.0,5d4821d9dfc9bc0015b5be60,D2,batch4,,1388,,,tol_practice,,,,,,,,,tol_peg_3,1388,1388,0,"[[1,2,0],[0,0],[3]]",1,"[[1,2,0],[0,0],[3]]",practice,1388,,,,,,,,
,,,,,poldrack-single-stim,196,651842,0.0-3.0-4.0,5d4821d9dfc9bc0015b5be60,D2,batch4,,-1,,,tol_feedback,TRUE,,,,,,,,,1000,1000,500,,,,,,-1,none,TRUE,,0,,,
,,,,,single-stim-button,197,654940,0.0-3.0-5.0-0.0,5d4821d9dfc9bc0015b5be60,D2,batch4,,3096,,,tol_practice,,,,,,,,,tol_peg_1,3096,3096,0,"[[1,0,0],[3,0],[0]]",2,"[[0,0,0],[3,1],[2]]",practice,3096,,,,,,,,
,,,,,single-stim-button,198,656028,0.0-3.0-5.0-1.0,5d4821d9dfc9bc0015b5be60,D2,batch4,,1086,,,tol_practice,,,,,,,,,tol_peg_3,1086,1086,0,"[[1,0,0],[3,0],[2]]",2,"[[0,0,0],[3,1],[2]]",practice,1086,,,,,,,,
,,,,,single-stim-button,199,656083,0.0-3.0-5.1-0.1,5d4821d9dfc9bc0015b5be60,D2,batch4,,55,,,tol_practice,,,,,,,,,tol_peg_3,55,55,0,"[[1,0,0],[3,0],[0]]",3,"[[0,0,0],[3,1],[2]]",practice,55,,,,,,,,
,,,,,single-stim-button,200,656932,0.0-3.0-5.1-1.1,5d4821d9dfc9bc0015b5be60,D2,batch4,,847,,,tol_practice,,,,,,,,,tol_peg_3,847,847,0,"[[1,0,0],[3,0],[2]]",3,"[[0,0,0],[3,1],[2]]",practice,847,,,,,,,,
,,,,,single-stim-button,201,657835,0.0-3.0-5.2-0.2,5d4821d9dfc9bc0015b5be60,D2,batch4,,903,,,tol_practice,,,,,,,,,tol_peg_1,903,903,0,"[[0,0,0],[3,0],[2]]",4,"[[0,0,0],[3,1],[2]]",practice,903,,,,,,,,
,,,,,single-stim-button,202,658364,0.0-3.0-5.2-1.2,5d4821d9dfc9bc0015b5be60,D2,batch4,,527,,,tol_practice,,,,,,,,,tol_peg_2,527,527,0,"[[0,0,0],[3,1],[2]]",4,"[[0,0,0],[3,1],[2]]",practice,527,,,,,,,,
,,,,,poldrack-single-stim,203,659380,0.0-3.0-6.0,5d4821d9dfc9bc0015b5be60,D2,batch4,,-1,,,tol_feedback,TRUE,,,,,,,,,1000,1000,500,,,,,,-1,none,TRUE,,0,,,
,,,,,single-stim-button,204,661468,0.0-3.0-7.0-0.0,5d4821d9dfc9bc0015b5be60,D2,batch4,,2086,,,tol_practice,,,,,,,,,tol_peg_2,2086,2086,0,"[[1,2,0],[0,0],[0]]",5,"[[1,0,0],[2,0],[3]]",practice,2086,,,,,,,,
,,,,,single-stim-button,205,662059,0.0-3.0-7.0-1.0,5d4821d9dfc9bc0015b5be60,D2,batch4,,591,,,tol_practice,,,,,,,,,tol_peg_3,591,591,0,"[[1,2,0],[0,0],[3]]",5,"[[1,0,0],[2,0],[3]]",practice,591,,,,,,,,
,,,,,single-stim-button,206,663452,0.0-3.0-7.1-0.1,5d4821d9dfc9bc0015b5be60,D2,batch4,,1391,,,tol_practice,,,,,,,,,tol_peg_1,1391,1391,0,"[[1,0,0],[0,0],[3]]",6,"[[1,0,0],[2,0],[3]]",practice,1391,,,,,,,,
,,,,,single-stim-button,207,664107,0.0-3.0-7.1-1.1,5d4821d9dfc9bc0015b5be60,D2,batch4,,655,,,tol_practice,,,,,,,,,tol_peg_2,655,655,0,"[[1,0,0],[2,0],[3]]",6,"[[1,0,0],[2,0],[3]]",practice,655,,,,,,,,
,,,,,poldrack-single-stim,208,665121,0.0-3.0-8.0,5d4821d9dfc9bc0015b5be60,D2,batch4,,-1,,,tol_feedback,TRUE,,,,,,,,,1000,1000,500,,,,,,-1,none,TRUE,,0,,,
,,,,,html-button-response,209,685692,0.0-3.0-9.0,5d4821d9dfc9bc0015b5be60,D2,batch4,,20570,<div class = centerbox><p class = center-block-text>Great job! You are done with practice trials<br>You are about to start official trials.<br> <br> Problem <strong>1</strong> out of 25 problems</p></div>,0,tol_instruction,,,,,,,,,,,,,,,,,,,,,,,,,
,,,,,single-stim-button,210,692076,0.0-3.0-10.0-0.0,5d4821d9dfc9bc0015b5be60,D2,batch4,,5368,,,tol_tohand,,,,,,,,,tol_peg_2,5368,5368,0,"[[1,2,0],[0,0],[0]]",1,"[[1,3,0],[2,0],[0]]",0,0,,,,,,3,,
,,,,,single-stim-button,211,692860,0.0-3.0-10.0-1.0,5d4821d9dfc9bc0015b5be60,D2,batch4,,782,,,tol_toboard,,,,,,,,,tol_peg_3,782,782,0,"[[1,2,0],[0,0],[3]]",1,"[[1,3,0],[2,0],[0]]",0,0,,,,,,3,,
,,,,,single-stim-button,212,693804,0.0-3.0-10.1-0.1,5d4821d9dfc9bc0015b5be60,D2,batch4,,942,,,tol_tohand,,,,,,,,,tol_peg_1,942,942,0,"[[1,0,0],[0,0],[3]]",2,"[[1,3,0],[2,0],[0]]",0,0,,,,,,3,,
,,,,,single-stim-button,213,693851,0.0-3.0-10.1-1.1,5d4821d9dfc9bc0015b5be60,D2,batch4,,47,,,tol_toboard,,,,,,,,,tol_peg_1,47,47,0,"[[1,2,0],[0,0],[3]]",2,"[[1,3,0],[2,0],[0]]",0,0,,,,,,3,,
,,,,,single-stim-button,214,694780,0.0-3.0-10.2-0.2,5d4821d9dfc9bc0015b5be60,D2,batch4,,927,,,tol_tohand,,,,,,,,,tol_peg_1,927,927,0,"[[1,0,0],[0,0],[3]]",3,"[[1,3,0],[2,0],[0]]",0,0,,,,,,3,,
,,,,,single-stim-button,215,694851,0.0-3.0-10.2-1.2,5d4821d9dfc9bc0015b5be60,D2,batch4,,71,,,tol_toboard,,,,,,,,,tol_peg_1,71,71,0,"[[1,2,0],[0,0],[3]]",3,"[[1,3,0],[2,0],[0]]",0,0,,,,,,3,,
,,,,,single-stim-button,216,695556,0.0-3.0-10.3-0.3,5d4821d9dfc9bc0015b5be60,D2,batch4,,703,,,tol_tohand,,,,,,,,,tol_peg_1,703,703,0,"[[1,0,0],[0,0],[3]]",4,"[[1,3,0],[2,0],[0]]",0,0,,,,,,3,,
,,,,,single-stim-button,217,696083,0.0-3.0-10.3-1.3,5d4821d9dfc9bc0015b5be60,D2,batch4,,527,,,tol_toboard,,,,,,,,,tol_peg_2,527,527,0,"[[1,0,0],[2,0],[3]]",4,"[[1,3,0],[2,0],[0]]",0,0,,,,,,3,,
,,,,,single-stim-button,218,696173,0.0-3.0-10.4-0.4,5d4821d9dfc9bc0015b5be60,D2,batch4,,89,,,tol_tohand,,,,,,,,,tol_peg_2,89,89,0,"[[1,0,0],[0,0],[3]]",5,"[[1,3,0],[2,0],[0]]",0,0,,,,,,3,,
,,,,,single-stim-button,219,697278,0.0-3.0-10.4-1.4,5d4821d9dfc9bc0015b5be60,D2,batch4,,1104,,,tol_toboard,,,,,,,,,tol_peg_2,1104,1104,0,"[[1,0,0],[2,0],[3]]",5,"[[1,3,0],[2,0],[0]]",0,0,,,,,,3,,
,,,,,single-stim-button,220,698460,0.0-3.0-10.5-0.5,5d4821d9dfc9bc0015b5be60,D2,batch4,,1181,,,tol_tohand,,,,,,,,,tol_peg_3,1181,1181,0,"[[1,0,0],[2,0],[0]]",6,"[[1,3,0],[2,0],[0]]",0,0,,,,,,3,,
,,,,,single-stim-button,221,699724,0.0-3.0-10.5-1.5,5d4821d9dfc9bc0015b5be60,D2,batch4,,1263,,,tol_toboard,,,,,,,,,tol_peg_1,1263,1263,0,"[[1,3,0],[2,0],[0]]",6,"[[1,3,0],[2,0],[0]]",0,0,,,,,,3,,
,,,,,poldrack-single-stim,222,700726,0.0-3.0-11.0,5d4821d9dfc9bc0015b5be60,D2,batch4,,-1,,,tol_feedback,TRUE,,,,,,,,,1000,1000,500,,,,,,-1,none,TRUE,5368,9210,,,
,,,,,html-button-response,223,701764,0.0-3.0-12.0,5d4821d9dfc9bc0015b5be60,D2,batch4,,1036,<div class = centerbox><p class = center-block-text>problem <strong>2</strong> out of 25 problems</p></div>,0,tol_trial_num,,,,,,,,,,,,,,,,,,,,,,,,,
,,,,,single-stim-button,224,706444,0.0-3.0-13.0-0.0,5d4821d9dfc9bc0015b5be60,D2,batch4,,4679,,,tol_tohand,,,,,,,,,tol_peg_1,4679,4679,0,"[[1,0,0],[3,0],[0]]",1,"[[2,1,3],[0,0],[0]]",1,0,,,,,,5,,
,,,,,single-stim-button,225,707780,0.0-3.0-13.0-1.0,5d4821d9dfc9bc0015b5be60,D2,batch4,,1334,,,tol_toboard,,,,,,,,,tol_peg_3,1334,1334,0,"[[1,0,0],[3,0],[2]]",1,"[[2,1,3],[0,0],[0]]",1,0,,,,,,5,,
,,,,,single-stim-button,226,707819,0.0-3.0-13.1-0.1,5d4821d9dfc9bc0015b5be60,D2,batch4,,38,,,tol_tohand,,,,,,,,,tol_peg_3,38,38,0,"[[1,0,0],[3,0],[0]]",2,"[[2,1,3],[0,0],[0]]",1,0,,,,,,5,,
,,,,,single-stim-button,227,709164,0.0-3.0-13.1-1.1,5d4821d9dfc9bc0015b5be60,D2,batch4,,1343,,,tol_toboard,,,,,,,,,tol_peg_3,1343,1343,0,"[[1,0,0],[3,0],[2]]",2,"[[2,1,3],[0,0],[0]]",1,0,,,,,,5,,
,,,,,single-stim-button,228,710844,0.0-3.0-13.2-0.2,5d4821d9dfc9bc0015b5be60,D2,batch4,,1679,,,tol_tohand,,,,,,,,,tol_peg_1,1679,1679,0,"[[0,0,0],[3,0],[2]]",3,"[[2,1,3],[0,0],[0]]",1,0,,,,,,5,,
,,,,,single-stim-button,229,716181,0.0-3.0-13.2-1.2,5d4821d9dfc9bc0015b5be60,D2,batch4,,5336,,,tol_toboard,,,,,,,,,tol_peg_2,5336,5336,0,"[[0,0,0],[3,1],[2]]",3,"[[2,1,3],[0,0],[0]]",1,0,,,,,,5,,
,,,,,single-stim-button,230,717125,0.0-3.0-13.3-0.3,5d4821d9dfc9bc0015b5be60,D2,batch4,,943,,,tol_tohand,,,,,,,,,tol_peg_3,943,943,0,"[[0,0,0],[3,1],[0]]",4,"[[2,1,3],[0,0],[0]]",1,0,,,,,,5,,
,,,,,single-stim-button,231,717972,0.0-3.0-13.3-1.3,5d4821d9dfc9bc0015b5be60,D2,batch4,,845,,,tol_toboard,,,,,,,,,tol_peg_1,845,845,0,"[[2,0,0],[3,1],[0]]",4,"[[2,1,3],[0,0],[0]]",1,0,,,,,,5,,
,,,,,single-stim-button,232,720324,0.0-3.0-13.4-0.4,5d4821d9dfc9bc0015b5be60,D2,batch4,,2351,,,tol_tohand,,,,,,,,,tol_peg_2,2351,2351,0,"[[2,0,0],[3,0],[0]]",5,"[[2,1,3],[0,0],[0]]",1,0,,,,,,5,,
,,,,,single-stim-button,233,721548,0.0-3.0-13.4-1.4,5d4821d9dfc9bc0015b5be60,D2,batch4,,1223,,,tol_toboard,,,,,,,,,tol_peg_1,1223,1223,0,"[[2,1,0],[3,0],[0]]",5,"[[2,1,3],[0,0],[0]]",1,0,,,,,,5,,
,,,,,single-stim-button,234,722556,0.0-3.0-13.5-0.5,5d4821d9dfc9bc0015b5be60,D2,batch4,,1006,,,tol_tohand,,,,,,,,,tol_peg_2,1006,1006,0,"[[2,1,0],[0,0],[0]]",6,"[[2,1,3],[0,0],[0]]",1,0,,,,,,5,,
,,,,,single-stim-button,235,723284,0.0-3.0-13.5-1.5,5d4821d9dfc9bc0015b5be60,D2,batch4,,727,,,tol_toboard,,,,,,,,,tol_peg_1,727,727,0,"[[2,1,3],[0,0],[0]]",6,"[[2,1,3],[0,0],[0]]",1,0,,,,,,5,,
,,,,,poldrack-single-stim,236,724288,0.0-3.0-14.0,5d4821d9dfc9bc0015b5be60,D2,batch4,,-1,,,tol_feedback,TRUE,,,,,,,,,1000,1000,500,,,,,,-1,none,TRUE,4679,10696,,,
,,,,,html-button-response,237,725252,0.0-3.0-15.0,5d4821d9dfc9bc0015b5be60,D2,batch4,,962,<div class = centerbox><p class = center-block-text>problem <strong>3</strong> out of 25 problems</p></div>,0,tol_trial_num,,,,,,,,,,,,,,,,,,,,,,,,,
,,,,,single-stim-button,238,731660,0.0-3.0-16.0-0.0,5d4821d9dfc9bc0015b5be60,D2,batch4,,6407,,,tol_tohand,,,,,,,,,tol_peg_1,6407,6407,0,"[[2,0,0],[0,0],[1]]",1,"[[1,2,0],[3,0],[0]]",2,0,,,,,,4,,
,,,,,single-stim-button,239,732572,0.0-3.0-16.0-1.0,5d4821d9dfc9bc0015b5be60,D2,batch4,,910,,,tol_toboard,,,,,,,,,tol_peg_2,910,910,0,"[[2,0,0],[3,0],[1]]",1,"[[1,2,0],[3,0],[0]]",2,0,,,,,,4,,
,,,,,single-stim-button,240,734332,0.0-3.0-16.1-0.1,5d4821d9dfc9bc0015b5be60,D2,batch4,,1759,,,tol_tohand,,,,,,,,,tol_peg_1,1759,1759,0,"[[0,0,0],[3,0],[1]]",2,"[[1,2,0],[3,0],[0]]",2,0,,,,,,4,,
,,,,,single-stim-button,241,735324,0.0-3.0-16.1-1.1,5d4821d9dfc9bc0015b5be60,D2,batch4,,992,,,tol_toboard,,,,,,,,,tol_peg_2,992,992,0,"[[0,0,0],[3,2],[1]]",2,"[[1,2,0],[3,0],[0]]",2,0,,,,,,4,,
,,,,,single-stim-button,242,735894,0.0-3.0-16.2-0.2,5d4821d9dfc9bc0015b5be60,D2,batch4,,568,,,tol_tohand,,,,,,,,,tol_peg_3,568,568,0,"[[0,0,0],[3,2],[0]]",3,"[[1,2,0],[3,0],[0]]",2,0,,,,,,4,,
,,,,,single-stim-button,243,736636,0.0-3.0-16.2-1.2,5d4821d9dfc9bc0015b5be60,D2,batch4,,741,,,tol_toboard,,,,,,,,,tol_peg_1,741,741,0,"[[1,0,0],[3,2],[0]]",3,"[[1,2,0],[3,0],[0]]",2,0,,,,,,4,,
,,,,,single-stim-button,244,737340,0.0-3.0-16.3-0.3,5d4821d9dfc9bc0015b5be60,D2,batch4,,703,,,tol_tohand,,,,,,,,,tol_peg_2,703,703,0,"[[1,0,0],[3,0],[0]]",4,"[[1,2,0],[3,0],[0]]",2,0,,,,,,4,,
,,,,,single-stim-button,245,738148,0.0-3.0-16.3-1.3,5d4821d9dfc9bc0015b5be60,D2,batch4,,807,,,tol_toboard,,,,,,,,,tol_peg_1,807,807,0,"[[1,2,0],[3,0],[0]]",4,"[[1,2,0],[3,0],[0]]",2,0,,,,,,4,,
,,,,,poldrack-single-stim,246,739149,0.0-3.0-17.0,5d4821d9dfc9bc0015b5be60,D2,batch4,,-1,,,tol_feedback,TRUE,,,,,,,,,1000,1000,500,,,,,,-1,none,TRUE,6407,9437,,,
,,,,,html-button-response,247,739996,0.0-3.0-18.0,5d4821d9dfc9bc0015b5be60,D2,batch4,,844,<div class = centerbox><p class = center-block-text>problem <strong>4</strong> out of 25 problems</p></div>,0,tol_trial_num,,,,,,,,,,,,,,,,,,,,,,,,,
,,,,,single-stim-button,248,742996,0.0-3.0-19.0-0.0,5d4821d9dfc9bc0015b5be60,D2,batch4,,2999,,,tol_tohand,,,,,,,,,tol_peg_2,2999,2999,0,"[[3,0,0],[2,0],[0]]",1,"[[3,0,0],[1,0],[2]]",3,0,,,,,,3,,
,,,,,single-stim-button,249,743636,0.0-3.0-19.0-1.0,5d4821d9dfc9bc0015b5be60,D2,batch4,,639,,,tol_toboard,,,,,,,,,tol_peg_1,639,639,0,"[[3,1,0],[2,0],[0]]",1,"[[3,0,0],[1,0],[2]]",3,0,,,,,,3,,
,,,,,single-stim-button,250,744380,0.0-3.0-19.1-0.1,5d4821d9dfc9bc0015b5be60,D2,batch4,,743,,,tol_tohand,,,,,,,,,tol_peg_2,743,743,0,"[[3,1,0],[0,0],[0]]",2,"[[3,0,0],[1,0],[2]]",3,0,,,,,,3,,
,,,,,single-stim-button,251,745052,0.0-3.0-19.1-1.1,5d4821d9dfc9bc0015b5be60,D2,batch4,,671,,,tol_toboard,,,,,,,,,tol_peg_3,671,671,0,"[[3,1,0],[0,0],[2]]",2,"[[3,0,0],[1,0],[2]]",3,0,,,,,,3,,
,,,,,single-stim-button,252,745676,0.0-3.0-19.2-0.2,5d4821d9dfc9bc0015b5be60,D2,batch4,,623,,,tol_tohand,,,,,,,,,tol_peg_1,623,623,0,"[[3,0,0],[0,0],[2]]",3,"[[3,0,0],[1,0],[2]]",3,0,,,,,,3,,
,,,,,single-stim-button,253,746220,0.0-3.0-19.2-1.2,5d4821d9dfc9bc0015b5be60,D2,batch4,,543,,,tol_toboard,,,,,,,,,tol_peg_2,543,543,0,"[[3,0,0],[1,0],[2]]",3,"[[3,0,0],[1,0],[2]]",3,0,,,,,,3,,
,,,,,poldrack-single-stim,254,747235,0.0-3.0-20.0,5d4821d9dfc9bc0015b5be60,D2,batch4,,-1,,,tol_feedback,TRUE,,,,,,,,,1000,1000,500,,,,,,-1,none,TRUE,2999,4365,,,
,,,,,html-button-response,255,747820,0.0-3.0-21.0,5d4821d9dfc9bc0015b5be60,D2,batch4,,584,<div class = centerbox><p class = center-block-text>problem <strong>5</strong> out of 25 problems</p></div>,0,tol_trial_num,,,,,,,,,,,,,,,,,,,,,,,,,
,,,,,single-stim-button,256,781580,0.0-3.0-22.0-0.0,5d4821d9dfc9bc0015b5be60,D2,batch4,,33759,,,tol_tohand,,,,,,,,,tol_peg_3,33759,33759,0,"[[1,0,0],[2,0],[0]]",1,"[[0,0,0],[1,2],[3]]",4,0,,,,,,7,,
,,,,,single-stim-button,257,782540,0.0-3.0-22.0-1.0,5d4821d9dfc9bc0015b5be60,D2,batch4,,959,,,tol_toboard,,,,,,,,,tol_peg_2,959,959,0,"[[1,0,0],[2,3],[0]]",1,"[[0,0,0],[1,2],[3]]",4,0,,,,,,7,,
,,,,,single-stim-button,258,783492,0.0-3.0-22.1-0.1,5d4821d9dfc9bc0015b5be60,D2,batch4,,951,,,tol_tohand,,,,,,,,,tol_peg_1,951,951,0,"[[0,0,0],[2,3],[0]]",2,"[[0,0,0],[1,2],[3]]",4,0,,,,,,7,,
,,,,,single-stim-button,259,784940,0.0-3.0-22.1-1.1,5d4821d9dfc9bc0015b5be60,D2,batch4,,1447,,,tol_toboard,,,,,,,,,tol_peg_3,1447,1447,0,"[[0,0,0],[2,3],[1]]",2,"[[0,0,0],[1,2],[3]]",4,0,,,,,,7,,
,,,,,single-stim-button,260,785564,0.0-3.0-22.2-0.2,5d4821d9dfc9bc0015b5be60,D2,batch4,,623,,,tol_tohand,,,,,,,,,tol_peg_2,623,623,0,"[[0,0,0],[2,0],[1]]",3,"[[0,0,0],[1,2],[3]]",4,0,,,,,,7,,
,,,,,single-stim-button,261,787476,0.0-3.0-22.2-1.2,5d4821d9dfc9bc0015b5be60,D2,batch4,,1912,,,tol_toboard,,,,,,,,,tol_peg_1,1912,1912,0,"[[3,0,0],[2,0],[1]]",3,"[[0,0,0],[1,2],[3]]",4,0,,,,,,7,,
,,,,,single-stim-button,262,788060,0.0-3.0-22.3-0.3,5d4821d9dfc9bc0015b5be60,D2,batch4,,582,,,tol_tohand,,,,,,,,,tol_peg_2,582,582,0,"[[3,0,0],[0,0],[1]]",4,"[[0,0,0],[1,2],[3]]",4,0,,,,,,7,,
,,,,,single-stim-button,263,788764,0.0-3.0-22.3-1.3,5d4821d9dfc9bc0015b5be60,D2,batch4,,704,,,tol_toboard,,,,,,,,,tol_peg_1,704,704,0,"[[3,2,0],[0,0],[1]]",4,"[[0,0,0],[1,2],[3]]",4,0,,,,,,7,,
,,,,,single-stim-button,264,789414,0.0-3.0-22.4-0.4,5d4821d9dfc9bc0015b5be60,D2,batch4,,649,,,tol_tohand,,,,,,,,,tol_peg_3,649,649,0,"[[3,2,0],[0,0],[0]]",5,"[[0,0,0],[1,2],[3]]",4,0,,,,,,7,,
,,,,,single-stim-button,265,789996,0.0-3.0-22.4-1.4,5d4821d9dfc9bc0015b5be60,D2,batch4,,581,,,tol_toboard,,,,,,,,,tol_peg_2,581,581,0,"[[3,2,0],[1,0],[0]]",5,"[[0,0,0],[1,2],[3]]",4,0,,,,,,7,,
,,,,,single-stim-button,266,790956,0.0-3.0-22.5-0.5,5d4821d9dfc9bc0015b5be60,D2,batch4,,959,,,tol_tohand,,,,,,,,,tol_peg_1,959,959,0,"[[3,0,0],[1,0],[0]]",6,"[[0,0,0],[1,2],[3]]",4,0,,,,,,7,,
,,,,,single-stim-button,267,791796,0.0-3.0-22.5-1.5,5d4821d9dfc9bc0015b5be60,D2,batch4,,839,,,tol_toboard,,,,,,,,,tol_peg_2,839,839,0,"[[3,0,0],[1,2],[0]]",6,"[[0,0,0],[1,2],[3]]",4,0,,,,,,7,,
,,,,,single-stim-button,268,792780,0.0-3.0-22.6-0.6,5d4821d9dfc9bc0015b5be60,D2,batch4,,983,,,tol_tohand,,,,,,,,,tol_peg_1,983,983,0,"[[0,0,0],[1,2],[0]]",7,"[[0,0,0],[1,2],[3]]",4,0,,,,,,7,,
,,,,,single-stim-button,269,793452,0.0-3.0-22.6-1.6,5d4821d9dfc9bc0015b5be60,D2,batch4,,672,,,tol_toboard,,,,,,,,,tol_peg_3,672,672,0,"[[0,0,0],[1,2],[3]]",7,"[[0,0,0],[1,2],[3]]",4,0,,,,,,7,,
,,,,,poldrack-single-stim,270,794454,0.0-3.0-23.0,5d4821d9dfc9bc0015b5be60,D2,batch4,,-1,,,tol_feedback,TRUE,,,,,,,,,1000,1000,500,,,,,,-1,none,TRUE,33759,38506,,,
,,,,,html-button-response,271,795292,0.0-3.0-24.0,5d4821d9dfc9bc0015b5be60,D2,batch4,,836,<div class = centerbox><p class = center-block-text>problem <strong>6</strong> out of 25 problems</p></div>,0,tol_trial_num,,,,,,,,,,,,,,,,,,,,,,,,,
,,,,,single-stim-button,272,804148,0.0-3.0-25.0-0.0,5d4821d9dfc9bc0015b5be60,D2,batch4,,8855,,,tol_tohand,,,,,,,,,tol_peg_2,8855,8855,0,"[[0,0,0],[1,0],[3]]",1,"[[1,0,0],[2,3],[0]]",5,0,,,,,,6,,
,,,,,single-stim-button,273,805508,0.0-3.0-25.0-1.0,5d4821d9dfc9bc0015b5be60,D2,batch4,,1359,,,tol_toboard,,,,,,,,,tol_peg_1,1359,1359,0,"[[2,0,0],[1,0],[3]]",1,"[[1,0,0],[2,3],[0]]",5,0,,,,,,6,,
,,,,,single-stim-button,274,807588,0.0-3.0-25.1-0.1,5d4821d9dfc9bc0015b5be60,D2,batch4,,2079,,,tol_tohand,,,,,,,,,tol_peg_3,2079,2079,0,"[[2,0,0],[1,0],[0]]",2,"[[1,0,0],[2,3],[0]]",5,0,,,,,,6,,
,,,,,single-stim-button,275,808956,0.0-3.0-25.1-1.1,5d4821d9dfc9bc0015b5be60,D2,batch4,,1367,,,tol_toboard,,,,,,,,,tol_peg_1,1367,1367,0,"[[2,3,0],[1,0],[0]]",2,"[[1,0,0],[2,3],[0]]",5,0,,,,,,6,,
,,,,,single-stim-button,276,809836,0.0-3.0-25.2-0.2,5d4821d9dfc9bc0015b5be60,D2,batch4,,880,,,tol_tohand,,,,,,,,,tol_peg_2,880,880,0,"[[2,3,0],[0,0],[0]]",3,"[[1,0,0],[2,3],[0]]",5,0,,,,,,6,,
,,,,,single-stim-button,277,810908,0.0-3.0-25.2-1.2,5d4821d9dfc9bc0015b5be60,D2,batch4,,1071,,,tol_toboard,,,,,,,,,tol_peg_3,1071,1071,0,"[[2,3,0],[0,0],[1]]",3,"[[1,0,0],[2,3],[0]]",5,0,,,,,,6,,
,,,,,single-stim-button,278,812748,0.0-3.0-25.3-0.3,5d4821d9dfc9bc0015b5be60,D2,batch4,,1839,,,tol_tohand,,,,,,,,,tol_peg_1,1839,1839,0,"[[2,0,0],[0,0],[1]]",4,"[[1,0,0],[2,3],[0]]",5,0,,,,,,6,,
,,,,,single-stim-button,279,815182,0.0-3.0-25.3-1.3,5d4821d9dfc9bc0015b5be60,D2,batch4,,2433,,,tol_toboard,,,,,,,,,tol_peg_2,2433,2433,0,"[[2,0,0],[3,0],[1]]",4,"[[1,0,0],[2,3],[0]]",5,0,,,,,,6,,
,,,,,single-stim-button,280,815548,0.0-3.0-25.4-0.4,5d4821d9dfc9bc0015b5be60,D2,batch4,,365,,,tol_tohand,,,,,,,,,tol_peg_1,365,365,0,"[[0,0,0],[3,0],[1]]",5,"[[1,0,0],[2,3],[0]]",5,0,,,,,,6,,
,,,,,single-stim-button,281,816380,0.0-3.0-25.4-1.4,5d4821d9dfc9bc0015b5be60,D2,batch4,,831,,,tol_toboard,,,,,,,,,tol_peg_2,831,831,0,"[[0,0,0],[3,2],[1]]",5,"[[1,0,0],[2,3],[0]]",5,0,,,,,,6,,
,,,,,single-stim-button,282,817324,0.0-3.0-25.5-0.5,5d4821d9dfc9bc0015b5be60,D2,batch4,,943,,,tol_tohand,,,,,,,,,tol_peg_3,943,943,0,"[[0,0,0],[3,2],[0]]",6,"[[1,0,0],[2,3],[0]]",5,0,,,,,,6,,
,,,,,single-stim-button,283,818052,0.0-3.0-25.5-1.5,5d4821d9dfc9bc0015b5be60,D2,batch4,,727,,,tol_toboard,,,,,,,,,tol_peg_1,727,727,0,"[[1,0,0],[3,2],[0]]",6,"[[1,0,0],[2,3],[0]]",5,0,,,,,,6,,
,,,,,single-stim-button,284,818908,0.0-3.0-25.6-0.6,5d4821d9dfc9bc0015b5be60,D2,batch4,,855,,,tol_tohand,,,,,,,,,tol_peg_2,855,855,0,"[[1,0,0],[3,0],[0]]",7,"[[1,0,0],[2,3],[0]]",5,0,,,,,,6,,
,,,,,single-stim-button,285,819668,0.0-3.0-25.6-1.6,5d4821d9dfc9bc0015b5be60,D2,batch4,,760,,,tol_toboard,,,,,,,,,tol_peg_3,760,760,0,"[[1,0,0],[3,0],[2]]",7,"[[1,0,0],[2,3],[0]]",5,0,,,,,,6,,
,,,,,single-stim-button,286,820204,0.0-3.0-25.7-0.7,5d4821d9dfc9bc0015b5be60,D2,batch4,,535,,,tol_tohand,,,,,,,,,tol_peg_2,535,535,0,"[[1,0,0],[0,0],[2]]",8,"[[1,0,0],[2,3],[0]]",5,0,,,,,,6,,
,,,,,single-stim-button,287,820732,0.0-3.0-25.7-1.7,5d4821d9dfc9bc0015b5be60,D2,batch4,,528,,,tol_toboard,,,,,,,,,tol_peg_1,528,528,0,"[[1,3,0],[0,0],[2]]",8,"[[1,0,0],[2,3],[0]]",5,0,,,,,,6,,
,,,,,single-stim-button,288,821244,0.0-3.0-25.8-0.8,5d4821d9dfc9bc0015b5be60,D2,batch4,,511,,,tol_tohand,,,,,,,,,tol_peg_1,511,511,0,"[[1,0,0],[0,0],[2]]",9,"[[1,0,0],[2,3],[0]]",5,0,,,,,,6,,
,,,,,single-stim-button,289,821892,0.0-3.0-25.8-1.8,5d4821d9dfc9bc0015b5be60,D2,batch4,,648,,,tol_toboard,,,,,,,,,tol_peg_1,648,648,0,"[[1,3,0],[0,0],[2]]",9,"[[1,0,0],[2,3],[0]]",5,0,,,,,,6,,
,,,,,single-stim-button,290,822692,0.0-3.0-25.9-0.9,5d4821d9dfc9bc0015b5be60,D2,batch4,,799,,,tol_tohand,,,,,,,,,tol_peg_3,799,799,0,"[[1,3,0],[0,0],[0]]",10,"[[1,0,0],[2,3],[0]]",5,0,,,,,,6,,
,,,,,single-stim-button,291,823212,0.0-3.0-25.9-1.9,5d4821d9dfc9bc0015b5be60,D2,batch4,,520,,,tol_toboard,,,,,,,,,tol_peg_2,520,520,0,"[[1,3,0],[2,0],[0]]",10,"[[1,0,0],[2,3],[0]]",5,0,,,,,,6,,
,,,,,single-stim-button,292,823788,0.0-3.0-25.10-0.10,5d4821d9dfc9bc0015b5be60,D2,batch4,,576,,,tol_tohand,,,,,,,,,tol_peg_1,576,576,0,"[[1,0,0],[2,0],[0]]",11,"[[1,0,0],[2,3],[0]]",5,0,,,,,,6,,
,,,,,single-stim-button,293,824372,0.0-3.0-25.10-1.10,5d4821d9dfc9bc0015b5be60,D2,batch4,,583,,,tol_toboard,,,,,,,,,tol_peg_2,583,583,0,"[[1,0,0],[2,3],[0]]",11,"[[1,0,0],[2,3],[0]]",5,0,,,,,,6,,
,,,,,poldrack-single-stim,294,825373,0.0-3.0-26.0,5d4821d9dfc9bc0015b5be60,D2,batch4,,-1,,,tol_feedback,TRUE,,,,,,,,,1000,1000,500,,,,,,-1,none,TRUE,8855,18237,,,
,,,,,html-button-response,295,826284,0.0-3.0-27.0,5d4821d9dfc9bc0015b5be60,D2,batch4,,908,<div class = centerbox><p class = center-block-text>problem <strong>7</strong> out of 25 problems</p></div>,0,tol_trial_num,,,,,,,,,,,,,,,,,,,,,,,,,
,,,,,single-stim-button,296,832148,0.0-3.0-28.0-0.0,5d4821d9dfc9bc0015b5be60,D2,batch4,,5863,,,tol_tohand,,,,,,,,,tol_peg_3,5863,5863,0,"[[2,1,0],[0,0],[0]]",1,"[[1,2,0],[3,0],[0]]",6,0,,,,,,5,,
,,,,,single-stim-button,297,833052,0.0-3.0-28.0-1.0,5d4821d9dfc9bc0015b5be60,D2,batch4,,903,,,tol_toboard,,,,,,,,,tol_peg_2,903,903,0,"[[2,1,0],[3,0],[0]]",1,"[[1,2,0],[3,0],[0]]",6,0,,,,,,5,,
,,,,,single-stim-button,298,834260,0.0-3.0-28.1-0.1,5d4821d9dfc9bc0015b5be60,D2,batch4,,1207,,,tol_tohand,,,,,,,,,tol_peg_1,1207,1207,0,"[[2,0,0],[3,0],[0]]",2,"[[1,2,0],[3,0],[0]]",6,0,,,,,,5,,
,,,,,single-stim-button,299,837108,0.0-3.0-28.1-1.1,5d4821d9dfc9bc0015b5be60,D2,batch4,,2847,,,tol_toboard,,,,,,,,,tol_peg_3,2847,2847,0,"[[2,0,0],[3,0],[1]]",2,"[[1,2,0],[3,0],[0]]",6,0,,,,,,5,,
,,,,,single-stim-button,300,837836,0.0-3.0-28.2-0.2,5d4821d9dfc9bc0015b5be60,D2,batch4,,727,,,tol_tohand,,,,,,,,,tol_peg_1,727,727,0,"[[0,0,0],[3,0],[1]]",3,"[[1,2,0],[3,0],[0]]",6,0,,,,,,5,,
,,,,,single-stim-button,301,838300,0.0-3.0-28.2-1.2,5d4821d9dfc9bc0015b5be60,D2,batch4,,463,,,tol_toboard,,,,,,,,,tol_peg_2,463,463,0,"[[0,0,0],[3,2],[1]]",3,"[[1,2,0],[3,0],[0]]",6,0,,,,,,5,,
,,,,,single-stim-button,302,838812,0.0-3.0-28.3-0.3,5d4821d9dfc9bc0015b5be60,D2,batch4,,511,,,tol_tohand,,,,,,,,,tol_peg_3,511,511,0,"[[0,0,0],[3,2],[0]]",4,"[[1,2,0],[3,0],[0]]",6,0,,,,,,5,,
,,,,,single-stim-button,303,839469,0.0-3.0-28.3-1.3,5d4821d9dfc9bc0015b5be60,D2,batch4,,656,,,tol_toboard,,,,,,,,,tol_peg_1,656,656,0,"[[1,0,0],[3,2],[0]]",4,"[[1,2,0],[3,0],[0]]",6,0,,,,,,5,,
,,,,,single-stim-button,304,840078,0.0-3.0-28.4-0.4,5d4821d9dfc9bc0015b5be60,D2,batch4,,608,,,tol_tohand,,,,,,,,,tol_peg_2,608,608,0,"[[1,0,0],[3,0],[0]]",5,"[[1,2,0],[3,0],[0]]",6,0,,,,,,5,,
,,,,,single-stim-button,305,840596,0.0-3.0-28.4-1.4,5d4821d9dfc9bc0015b5be60,D2,batch4,,517,,,tol_toboard,,,,,,,,,tol_peg_1,517,517,0,"[[1,2,0],[3,0],[0]]",5,"[[1,2,0],[3,0],[0]]",6,0,,,,,,5,,
,,,,,poldrack-single-stim,306,841598,0.0-3.0-29.0,5d4821d9dfc9bc0015b5be60,D2,batch4,,-1,,,tol_feedback,TRUE,,,,,,,,,1000,1000,500,,,,,,-1,none,TRUE,5863,8916,,,
,,,,,html-button-response,307,842500,0.0-3.0-30.0,5d4821d9dfc9bc0015b5be60,D2,batch4,,900,<div class = centerbox><p class = center-block-text>problem <strong>8</strong> out of 25 problems</p></div>,0,tol_trial_num,,,,,,,,,,,,,,,,,,,,,,,,,
,,,,,single-stim-button,308,846212,0.0-3.0-31.0-0.0,5d4821d9dfc9bc0015b5be60,D2,batch4,,3711,,,tol_tohand,,,,,,,,,tol_peg_3,3711,3711,0,"[[0,0,0],[2,3],[0]]",1,"[[1,2,0],[3,0],[0]]",7,0,,,,,,4,,
,,,,,single-stim-button,309,847357,0.0-3.0-31.0-1.0,5d4821d9dfc9bc0015b5be60,D2,batch4,,1143,,,tol_toboard,,,,,,,,,tol_peg_1,1143,1143,0,"[[1,0,0],[2,3],[0]]",1,"[[1,2,0],[3,0],[0]]",7,0,,,,,,4,,
,,,,,single-stim-button,310,848725,0.0-3.0-31.1-0.1,5d4821d9dfc9bc0015b5be60,D2,batch4,,1367,,,tol_tohand,,,,,,,,,tol_peg_2,1367,1367,0,"[[1,0,0],[2,0],[0]]",2,"[[1,2,0],[3,0],[0]]",7,0,,,,,,4,,
,,,,,single-stim-button,311,849428,0.0-3.0-31.1-1.1,5d4821d9dfc9bc0015b5be60,D2,batch4,,703,,,tol_toboard,,,,,,,,,tol_peg_3,703,703,0,"[[1,0,0],[2,0],[3]]",2,"[[1,2,0],[3,0],[0]]",7,0,,,,,,4,,
,,,,,single-stim-button,312,849932,0.0-3.0-31.2-0.2,5d4821d9dfc9bc0015b5be60,D2,batch4,,503,,,tol_tohand,,,,,,,,,tol_peg_2,503,503,0,"[[1,0,0],[0,0],[3]]",3,"[[1,2,0],[3,0],[0]]",7,0,,,,,,4,,
,,,,,single-stim-button,313,850476,0.0-3.0-31.2-1.2,5d4821d9dfc9bc0015b5be60,D2,batch4,,543,,,tol_toboard,,,,,,,,,tol_peg_1,543,543,0,"[[1,2,0],[0,0],[3]]",3,"[[1,2,0],[3,0],[0]]",7,0,,,,,,4,,
,,,,,single-stim-button,314,851014,0.0-3.0-31.3-0.3,5d4821d9dfc9bc0015b5be60,D2,batch4,,536,,,tol_tohand,,,,,,,,,tol_peg_3,536,536,0,"[[1,2,0],[0,0],[0]]",4,"[[1,2,0],[3,0],[0]]",7,0,,,,,,4,,
,,,,,single-stim-button,315,851502,0.0-3.0-31.3-1.3,5d4821d9dfc9bc0015b5be60,D2,batch4,,488,,,tol_toboard,,,,,,,,,tol_peg_2,488,488,0,"[[1,2,0],[3,0],[0]]",4,"[[1,2,0],[3,0],[0]]",7,0,,,,,,4,,
,,,,,poldrack-single-stim,316,852510,0.0-3.0-32.0,5d4821d9dfc9bc0015b5be60,D2,batch4,,-1,,,tol_feedback,TRUE,,,,,,,,,1000,1000,500,,,,,,-1,none,TRUE,3711,6117,,,
,,,,,html-button-response,317,853500,0.0-3.0-33.0,5d4821d9dfc9bc0015b5be60,D2,batch4,,989,<div class = centerbox><p class = center-block-text>problem <strong>9</strong> out of 25 problems</p></div>,0,tol_trial_num,,,,,,,,,,,,,,,,,,,,,,,,,
,,,,,single-stim-button,318,865068,0.0-3.0-34.0-0.0,5d4821d9dfc9bc0015b5be60,D2,batch4,,11567,,,tol_tohand,,,,,,,,,tol_peg_3,11567,11567,0,"[[3,2,0],[0,0],[0]]",1,"[[2,1,0],[3,0],[0]]",8,0,,,,,,6,,
,,,,,single-stim-button,319,865956,0.0-3.0-34.0-1.0,5d4821d9dfc9bc0015b5be60,D2,batch4,,887,,,tol_toboard,,,,,,,,,tol_peg_2,887,887,0,"[[3,2,0],[1,0],[0]]",1,"[[2,1,0],[3,0],[0]]",8,0,,,,,,6,,
,,,,,single-stim-button,320,866620,0.0-3.0-34.1-0.1,5d4821d9dfc9bc0015b5be60,D2,batch4,,663,,,tol_tohand,,,,,,,,,tol_peg_1,663,663,0,"[[3,0,0],[1,0],[0]]",2,"[[2,1,0],[3,0],[0]]",8,0,,,,,,6,,
,,,,,single-stim-button,321,867172,0.0-3.0-34.1-1.1,5d4821d9dfc9bc0015b5be60,D2,batch4,,551,,,tol_toboard,,,,,,,,,tol_peg_2,551,551,0,"[[3,0,0],[1,2],[0]]",2,"[[2,1,0],[3,0],[0]]",8,0,,,,,,6,,
,,,,,single-stim-button,322,868492,0.0-3.0-34.2-0.2,5d4821d9dfc9bc0015b5be60,D2,batch4,,1319,,,tol_tohand,,,,,,,,,tol_peg_1,1319,1319,0,"[[0,0,0],[1,2],[0]]",3,"[[2,1,0],[3,0],[0]]",8,0,,,,,,6,,
,,,,,single-stim-button,323,869140,0.0-3.0-34.2-1.2,5d4821d9dfc9bc0015b5be60,D2,batch4,,647,,,tol_toboard,,,,,,,,,tol_peg_3,647,647,0,"[[0,0,0],[1,2],[3]]",3,"[[2,1,0],[3,0],[0]]",8,0,,,,,,6,,
,,,,,single-stim-button,324,869892,0.0-3.0-34.3-0.3,5d4821d9dfc9bc0015b5be60,D2,batch4,,751,,,tol_tohand,,,,,,,,,tol_peg_2,751,751,0,"[[0,0,0],[1,0],[3]]",4,"[[2,1,0],[3,0],[0]]",8,0,,,,,,6,,
,,,,,single-stim-button,325,870316,0.0-3.0-34.3-1.3,5d4821d9dfc9bc0015b5be60,D2,batch4,,423,,,tol_toboard,,,,,,,,,tol_peg_1,423,423,0,"[[2,0,0],[1,0],[3]]",4,"[[2,1,0],[3,0],[0]]",8,0,,,,,,6,,
,,,,,single-stim-button,326,870724,0.0-3.0-34.4-0.4,5d4821d9dfc9bc0015b5be60,D2,batch4,,407,,,tol_tohand,,,,,,,,,tol_peg_2,407,407,0,"[[2,0,0],[0,0],[3]]",5,"[[2,1,0],[3,0],[0]]",8,0,,,,,,6,,
,,,,,single-stim-button,327,871204,0.0-3.0-34.4-1.4,5d4821d9dfc9bc0015b5be60,D2,batch4,,479,,,tol_toboard,,,,,,,,,tol_peg_1,479,479,0,"[[2,1,0],[0,0],[3]]",5,"[[2,1,0],[3,0],[0]]",8,0,,,,,,6,,
,,,,,single-stim-button,328,871774,0.0-3.0-34.5-0.5,5d4821d9dfc9bc0015b5be60,D2,batch4,,568,,,tol_tohand,,,,,,,,,tol_peg_3,568,568,0,"[[2,1,0],[0,0],[0]]",6,"[[2,1,0],[3,0],[0]]",8,0,,,,,,6,,
,,,,,single-stim-button,329,872196,0.0-3.0-34.5-1.5,5d4821d9dfc9bc0015b5be60,D2,batch4,,422,,,tol_toboard,,,,,,,,,tol_peg_2,422,422,0,"[[2,1,0],[3,0],[0]]",6,"[[2,1,0],[3,0],[0]]",8,0,,,,,,6,,
,,,,,poldrack-single-stim,330,873199,0.0-3.0-35.0,5d4821d9dfc9bc0015b5be60,D2,batch4,,-1,,,tol_feedback,TRUE,,,,,,,,,1000,1000,500,,,,,,-1,none,TRUE,11567,15275,,,
,,,,,html-button-response,331,874046,0.0-3.0-36.0,5d4821d9dfc9bc0015b5be60,D2,batch4,,845,<div class = centerbox><p class = center-block-text>problem <strong>10</strong> out of 25 problems</p></div>,0,tol_trial_num,,,,,,,,,,,,,,,,,,,,,,,,,
,,,,,single-stim-button,332,878060,0.0-3.0-37.0-0.0,5d4821d9dfc9bc0015b5be60,D2,batch4,,4014,,,tol_tohand,,,,,,,,,tol_peg_2,4014,4014,0,"[[3,0,0],[0,0],[2]]",1,"[[3,0,0],[2,1],[0]]",9,0,,,,,,3,,
,,,,,single-stim-button,333,878892,0.0-3.0-37.0-1.0,5d4821d9dfc9bc0015b5be60,D2,batch4,,831,,,tol_toboard,,,,,,,,,tol_peg_1,831,831,0,"[[3,1,0],[0,0],[2]]",1,"[[3,0,0],[2,1],[0]]",9,0,,,,,,3,,
,,,,,single-stim-button,334,879494,0.0-3.0-37.1-0.1,5d4821d9dfc9bc0015b5be60,D2,batch4,,601,,,tol_tohand,,,,,,,,,tol_peg_3,601,601,0,"[[3,1,0],[0,0],[0]]",2,"[[3,0,0],[2,1],[0]]",9,0,,,,,,3,,
,,,,,single-stim-button,335,880061,0.0-3.0-37.1-1.1,5d4821d9dfc9bc0015b5be60,D2,batch4,,566,,,tol_toboard,,,,,,,,,tol_peg_2,566,566,0,"[[3,1,0],[2,0],[0]]",2,"[[3,0,0],[2,1],[0]]",9,0,,,,,,3,,
,,,,,single-stim-button,336,880540,0.0-3.0-37.2-0.2,5d4821d9dfc9bc0015b5be60,D2,batch4,,478,,,tol_tohand,,,,,,,,,tol_peg_1,478,478,0,"[[3,0,0],[2,0],[0]]",3,"[[3,0,0],[2,1],[0]]",9,0,,,,,,3,,
,,,,,single-stim-button,337,880924,0.0-3.0-37.2-1.2,5d4821d9dfc9bc0015b5be60,D2,batch4,,383,,,tol_toboard,,,,,,,,,tol_peg_2,383,383,0,"[[3,0,0],[2,1],[0]]",3,"[[3,0,0],[2,1],[0]]",9,0,,,,,,3,,
,,,,,poldrack-single-stim,338,881926,0.0-3.0-38.0,5d4821d9dfc9bc0015b5be60,D2,batch4,,-1,,,tol_feedback,TRUE,,,,,,,,,1000,1000,500,,,,,,-1,none,TRUE,4014,5093,,,
,,,,,html-button-response,339,882620,0.0-3.0-39.0,5d4821d9dfc9bc0015b5be60,D2,batch4,,692,<div class = centerbox><p class = center-block-text>problem <strong>11</strong> out of 25 problems</p></div>,0,tol_trial_num,,,,,,,,,,,,,,,,,,,,,,,,,
,,,,,single-stim-button,340,884318,0.0-3.0-40.0-0.0,5d4821d9dfc9bc0015b5be60,D2,batch4,,1697,,,tol_tohand,,,,,,,,,tol_peg_2,1697,1697,0,"[[1,2,0],[0,0],[0]]",1,"[[2,0,0],[1,3],[0]]",10,0,,,,,,6,,
,,,,,single-stim-button,341,884934,0.0-3.0-40.0-1.0,5d4821d9dfc9bc0015b5be60,D2,batch4,,614,,,tol_toboard,,,,,,,,,tol_peg_3,614,614,0,"[[1,2,0],[0,0],[3]]",1,"[[2,0,0],[1,3],[0]]",10,0,,,,,,6,,
,,,,,single-stim-button,342,897647,0.0-3.0-40.1-0.1,5d4821d9dfc9bc0015b5be60,D2,batch4,,12713,,,tol_tohand,,,,,,,,,tol_peg_3,12713,12713,0,"[[1,2,0],[0,0],[0]]",2,"[[2,0,0],[1,3],[0]]",10,0,,,,,,6,,
,,,,,single-stim-button,343,898031,0.0-3.0-40.1-1.1,5d4821d9dfc9bc0015b5be60,D2,batch4,,382,,,tol_toboard,,,,,,,,,tol_peg_2,382,382,0,"[[1,2,0],[3,0],[0]]",2,"[[2,0,0],[1,3],[0]]",10,0,,,,,,6,,
,,,,,single-stim-button,344,898525,0.0-3.0-40.2-0.2,5d4821d9dfc9bc0015b5be60,D2,batch4,,494,,,tol_tohand,,,,,,,,,tol_peg_1,494,494,0,"[[1,0,0],[3,0],[0]]",3,"[[2,0,0],[1,3],[0]]",10,0,,,,,,6,,
,,,,,single-stim-button,345,899077,0.0-3.0-40.2-1.2,5d4821d9dfc9bc0015b5be60,D2,batch4,,551,,,tol_toboard,,,,,,,,,tol_peg_3,551,551,0,"[[1,0,0],[3,0],[2]]",3,"[[2,0,0],[1,3],[0]]",10,0,,,,,,6,,
,,,,,single-stim-button,346,899997,0.0-3.0-40.3-0.3,5d4821d9dfc9bc0015b5be60,D2,batch4,,920,,,tol_tohand,,,,,,,,,tol_peg_1,920,920,0,"[[0,0,0],[3,0],[2]]",4,"[[2,0,0],[1,3],[0]]",10,0,,,,,,6,,
,,,,,single-stim-button,347,900437,0.0-3.0-40.3-1.3,5d4821d9dfc9bc0015b5be60,D2,batch4,,439,,,tol_toboard,,,,,,,,,tol_peg_2,439,439,0,"[[0,0,0],[3,1],[2]]",4,"[[2,0,0],[1,3],[0]]",10,0,,,,,,6,,
,,,,,single-stim-button,348,901166,0.0-3.0-40.4-0.4,5d4821d9dfc9bc0015b5be60,D2,batch4,,728,,,tol_tohand,,,,,,,,,tol_peg_3,728,728,0,"[[0,0,0],[3,1],[0]]",5,"[[2,0,0],[1,3],[0]]",10,0,,,,,,6,,
,,,,,single-stim-button,349,902805,0.0-3.0-40.4-1.4,5d4821d9dfc9bc0015b5be60,D2,batch4,,1638,,,tol_toboard,,,,,,,,,tol_peg_1,1638,1638,0,"[[2,0,0],[3,1],[0]]",5,"[[2,0,0],[1,3],[0]]",10,0,,,,,,6,,
,,,,,single-stim-button,350,903517,0.0-3.0-40.5-0.5,5d4821d9dfc9bc0015b5be60,D2,batch4,,711,,,tol_tohand,,,,,,,,,tol_peg_2,711,711,0,"[[2,0,0],[3,0],[0]]",6,"[[2,0,0],[1,3],[0]]",10,0,,,,,,6,,
,,,,,single-stim-button,351,904157,0.0-3.0-40.5-1.5,5d4821d9dfc9bc0015b5be60,D2,batch4,,639,,,tol_toboard,,,,,,,,,tol_peg_3,639,639,0,"[[2,0,0],[3,0],[1]]",6,"[[2,0,0],[1,3],[0]]",10,0,,,,,,6,,
,,,,,single-stim-button,352,904783,0.0-3.0-40.6-0.6,5d4821d9dfc9bc0015b5be60,D2,batch4,,624,,,tol_tohand,,,,,,,,,tol_peg_2,624,624,0,"[[2,0,0],[0,0],[1]]",7,"[[2,0,0],[1,3],[0]]",10,0,,,,,,6,,
,,,,,single-stim-button,353,905253,0.0-3.0-40.6-1.6,5d4821d9dfc9bc0015b5be60,D2,batch4,,470,,,tol_toboard,,,,,,,,,tol_peg_1,470,470,0,"[[2,3,0],[0,0],[1]]",7,"[[2,0,0],[1,3],[0]]",10,0,,,,,,6,,
,,,,,single-stim-button,354,905821,0.0-3.0-40.7-0.7,5d4821d9dfc9bc0015b5be60,D2,batch4,,567,,,tol_tohand,,,,,,,,,tol_peg_3,567,567,0,"[[2,3,0],[0,0],[0]]",8,"[[2,0,0],[1,3],[0]]",10,0,,,,,,6,,
,,,,,single-stim-button,355,906493,0.0-3.0-40.7-1.7,5d4821d9dfc9bc0015b5be60,D2,batch4,,671,,,tol_toboard,,,,,,,,,tol_peg_2,671,671,0,"[[2,3,0],[1,0],[0]]",8,"[[2,0,0],[1,3],[0]]",10,0,,,,,,6,,
,,,,,single-stim-button,356,907445,0.0-3.0-40.8-0.8,5d4821d9dfc9bc0015b5be60,D2,batch4,,951,,,tol_tohand,,,,,,,,,tol_peg_1,951,951,0,"[[2,0,0],[1,0],[0]]",9,"[[2,0,0],[1,3],[0]]",10,0,,,,,,6,,
,,,,,single-stim-button,357,907933,0.0-3.0-40.8-1.8,5d4821d9dfc9bc0015b5be60,D2,batch4,,487,,,tol_toboard,,,,,,,,,tol_peg_2,487,487,0,"[[2,0,0],[1,3],[0]]",9,"[[2,0,0],[1,3],[0]]",10,0,,,,,,6,,
,,,,,poldrack-single-stim,358,908934,0.0-3.0-41.0,5d4821d9dfc9bc0015b5be60,D2,batch4,,-1,,,tol_feedback,TRUE,,,,,,,,,1000,1000,500,,,,,,-1,none,TRUE,1697,19405,,,
,,,,,html-button-response,359,910029,0.0-3.0-42.0,5d4821d9dfc9bc0015b5be60,D2,batch4,,1093,<div class = centerbox><p class = center-block-text>problem <strong>12</strong> out of 25 problems</p></div>,0,tol_trial_num,,,,,,,,,,,,,,,,,,,,,,,,,
,,,,,single-stim-button,360,925118,0.0-3.0-43.0-0.0,5d4821d9dfc9bc0015b5be60,D2,batch4,,15088,,,tol_tohand,,,,,,,,,tol_peg_1,15088,15088,0,"[[1,0,0],[3,0],[0]]",1,"[[2,3,0],[0,0],[1]]",11,0,,,,,,4,,
,,,,,single-stim-button,361,925766,0.0-3.0-43.0-1.0,5d4821d9dfc9bc0015b5be60,D2,batch4,,647,,,tol_toboard,,,,,,,,,tol_peg_2,647,647,0,"[[1,0,0],[3,2],[0]]",1,"[[2,3,0],[0,0],[1]]",11,0,,,,,,4,,
,,,,,single-stim-button,362,926221,0.0-3.0-43.1-0.1,5d4821d9dfc9bc0015b5be60,D2,batch4,,454,,,tol_tohand,,,,,,,,,tol_peg_1,454,454,0,"[[0,0,0],[3,2],[0]]",2,"[[2,3,0],[0,0],[1]]",11,0,,,,,,4,,
,,,,,single-stim-button,363,927045,0.0-3.0-43.1-1.1,5d4821d9dfc9bc0015b5be60,D2,batch4,,824,,,tol_toboard,,,,,,,,,tol_peg_3,824,824,0,"[[0,0,0],[3,2],[1]]",2,"[[2,3,0],[0,0],[1]]",11,0,,,,,,4,,
,,,,,single-stim-button,364,927767,0.0-3.0-43.2-0.2,5d4821d9dfc9bc0015b5be60,D2,batch4,,721,,,tol_tohand,,,,,,,,,tol_peg_2,721,721,0,"[[0,0,0],[3,0],[1]]",3,"[[2,3,0],[0,0],[1]]",11,0,,,,,,4,,
,,,,,single-stim-button,365,928125,0.0-3.0-43.2-1.2,5d4821d9dfc9bc0015b5be60,D2,batch4,,357,,,tol_toboard,,,,,,,,,tol_peg_1,357,357,0,"[[2,0,0],[3,0],[1]]",3,"[[2,3,0],[0,0],[1]]",11,0,,,,,,4,,
,,,,,single-stim-button,366,928598,0.0-3.0-43.3-0.3,5d4821d9dfc9bc0015b5be60,D2,batch4,,472,,,tol_tohand,,,,,,,,,tol_peg_2,472,472,0,"[[2,0,0],[0,0],[1]]",4,"[[2,3,0],[0,0],[1]]",11,0,,,,,,4,,
,,,,,single-stim-button,367,928989,0.0-3.0-43.3-1.3,5d4821d9dfc9bc0015b5be60,D2,batch4,,390,,,tol_toboard,,,,,,,,,tol_peg_1,390,390,0,"[[2,3,0],[0,0],[1]]",4,"[[2,3,0],[0,0],[1]]",11,0,,,,,,4,,
,,,,,poldrack-single-stim,368,930006,0.0-3.0-44.0,5d4821d9dfc9bc0015b5be60,D2,batch4,,-1,,,tol_feedback,TRUE,,,,,,,,,1000,1000,500,,,,,,-1,none,TRUE,15088,16735,,,
,,,,,html-button-response,369,930966,0.0-3.0-45.0,5d4821d9dfc9bc0015b5be60,D2,batch4,,959,<div class = centerbox><p class = center-block-text>problem <strong>13</strong> out of 25 problems</p></div>,0,tol_trial_num,,,,,,,,,,,,,,,,,,,,,,,,,
,,,,,single-stim-button,370,933493,0.0-3.0-46.0-0.0,5d4821d9dfc9bc0015b5be60,D2,batch4,,2526,,,tol_tohand,,,,,,,,,tol_peg_1,2526,2526,0,"[[1,0,0],[3,0],[0]]",1,"[[0,0,0],[2,3],[1]]",12,0,,,,,,4,,
,,,,,single-stim-button,371,937615,0.0-3.0-46.0-1.0,5d4821d9dfc9bc0015b5be60,D2,batch4,,4120,,,tol_toboard,,,,,,,,,tol_peg_2,4120,4120,0,"[[1,0,0],[3,2],[0]]",1,"[[0,0,0],[2,3],[1]]",12,0,,,,,,4,,
,,,,,single-stim-button,372,938141,0.0-3.0-46.1-0.1,5d4821d9dfc9bc0015b5be60,D2,batch4,,526,,,tol_tohand,,,,,,,,,tol_peg_1,526,526,0,"[[0,0,0],[3,2],[0]]",2,"[[0,0,0],[2,3],[1]]",12,0,,,,,,4,,
,,,,,single-stim-button,373,938687,0.0-3.0-46.1-1.1,5d4821d9dfc9bc0015b5be60,D2,batch4,,545,,,tol_toboard,,,,,,,,,tol_peg_3,545,545,0,"[[0,0,0],[3,2],[1]]",2,"[[0,0,0],[2,3],[1]]",12,0,,,,,,4,,
,,,,,single-stim-button,374,939701,0.0-3.0-46.2-0.2,5d4821d9dfc9bc0015b5be60,D2,batch4,,1013,,,tol_tohand,,,,,,,,,tol_peg_2,1013,1013,0,"[[0,0,0],[3,0],[1]]",3,"[[0,0,0],[2,3],[1]]",12,0,,,,,,4,,
,,,,,single-stim-button,375,940661,0.0-3.0-46.2-1.2,5d4821d9dfc9bc0015b5be60,D2,batch4,,959,,,tol_toboard,,,,,,,,,tol_peg_1,959,959,0,"[[2,0,0],[3,0],[1]]",3,"[[0,0,0],[2,3],[1]]",12,0,,,,,,4,,
,,,,,single-stim-button,376,941149,0.0-3.0-46.3-0.3,5d4821d9dfc9bc0015b5be60,D2,batch4,,487,,,tol_tohand,,,,,,,,,tol_peg_2,487,487,0,"[[2,0,0],[0,0],[1]]",4,"[[0,0,0],[2,3],[1]]",12,0,,,,,,4,,
,,,,,single-stim-button,377,944757,0.0-3.0-46.3-1.3,5d4821d9dfc9bc0015b5be60,D2,batch4,,3607,,,tol_toboard,,,,,,,,,tol_peg_2,3607,3607,0,"[[2,0,0],[3,0],[1]]",4,"[[0,0,0],[2,3],[1]]",12,0,,,,,,4,,
,,,,,single-stim-button,378,947053,0.0-3.0-46.4-0.4,5d4821d9dfc9bc0015b5be60,D2,batch4,,2295,,,tol_tohand,,,,,,,,,tol_peg_3,2295,2295,0,"[[2,0,0],[3,0],[0]]",5,"[[0,0,0],[2,3],[1]]",12,0,,,,,,4,,
,,,,,single-stim-button,379,947149,0.0-3.0-46.4-1.4,5d4821d9dfc9bc0015b5be60,D2,batch4,,95,,,tol_toboard,,,,,,,,,tol_peg_3,95,95,0,"[[2,0,0],[3,0],[1]]",5,"[[0,0,0],[2,3],[1]]",12,0,,,,,,4,,
,,,,,single-stim-button,380,948029,0.0-3.0-46.5-0.5,5d4821d9dfc9bc0015b5be60,D2,batch4,,880,,,tol_tohand,,,,,,,,,tol_peg_3,880,880,0,"[[2,0,0],[3,0],[0]]",6,"[[0,0,0],[2,3],[1]]",12,0,,,,,,4,,
,,,,,single-stim-button,381,948071,0.0-3.0-46.5-1.5,5d4821d9dfc9bc0015b5be60,D2,batch4,,40,,,tol_toboard,,,,,,,,,tol_peg_3,40,40,0,"[[2,0,0],[3,0],[1]]",6,"[[0,0,0],[2,3],[1]]",12,0,,,,,,4,,
,,,,,single-stim-button,382,948717,0.0-3.0-46.6-0.6,5d4821d9dfc9bc0015b5be60,D2,batch4,,646,,,tol_tohand,,,,,,,,,tol_peg_3,646,646,0,"[[2,0,0],[3,0],[0]]",7,"[[0,0,0],[2,3],[1]]",12,0,,,,,,4,,
,,,,,single-stim-button,383,949501,0.0-3.0-46.6-1.6,5d4821d9dfc9bc0015b5be60,D2,batch4,,783,,,tol_toboard,,,,,,,,,tol_peg_1,783,783,0,"[[2,1,0],[3,0],[0]]",7,"[[0,0,0],[2,3],[1]]",12,0,,,,,,4,,
,,,,,single-stim-button,384,949981,0.0-3.0-46.7-0.7,5d4821d9dfc9bc0015b5be60,D2,batch4,,478,,,tol_tohand,,,,,,,,,tol_peg_2,478,478,0,"[[2,1,0],[0,0],[0]]",8,"[[0,0,0],[2,3],[1]]",12,0,,,,,,4,,
,,,,,single-stim-button,385,951045,0.0-3.0-46.7-1.7,5d4821d9dfc9bc0015b5be60,D2,batch4,,1063,,,tol_toboard,,,,,,,,,tol_peg_3,1063,1063,0,"[[2,1,0],[0,0],[3]]",8,"[[0,0,0],[2,3],[1]]",12,0,,,,,,4,,
,,,,,single-stim-button,386,954637,0.0-3.0-46.8-0.8,5d4821d9dfc9bc0015b5be60,D2,batch4,,3592,,,tol_tohand,,,,,,,,,tol_peg_1,3592,3592,0,"[[2,0,0],[0,0],[3]]",9,"[[0,0,0],[2,3],[1]]",12,0,,,,,,4,,
,,,,,single-stim-button,387,955381,0.0-3.0-46.8-1.8,5d4821d9dfc9bc0015b5be60,D2,batch4,,743,,,tol_toboard,,,,,,,,,tol_peg_2,743,743,0,"[[2,0,0],[1,0],[3]]",9,"[[0,0,0],[2,3],[1]]",12,0,,,,,,4,,
,,,,,single-stim-button,388,957173,0.0-3.0-46.9-0.9,5d4821d9dfc9bc0015b5be60,D2,batch4,,1790,,,tol_tohand,,,,,,,,,tol_peg_1,1790,1790,0,"[[0,0,0],[1,0],[3]]",10,"[[0,0,0],[2,3],[1]]",12,0,,,,,,4,,
,,,,,single-stim-button,389,959965,0.0-3.0-46.9-1.9,5d4821d9dfc9bc0015b5be60,D2,batch4,,2791,,,tol_toboard,,,,,,,,,tol_peg_1,2791,2791,0,"[[2,0,0],[1,0],[3]]",10,"[[0,0,0],[2,3],[1]]",12,0,,,,,,4,,
,,,,,single-stim-button,390,961453,0.0-3.0-46.10-0.10,5d4821d9dfc9bc0015b5be60,D2,batch4,,1486,,,tol_tohand,,,,,,,,,tol_peg_3,1486,1486,0,"[[2,0,0],[1,0],[0]]",11,"[[0,0,0],[2,3],[1]]",12,0,,,,,,4,,
,,,,,single-stim-button,391,962349,0.0-3.0-46.10-1.10,5d4821d9dfc9bc0015b5be60,D2,batch4,,895,,,tol_toboard,,,,,,,,,tol_peg_1,895,895,0,"[[2,3,0],[1,0],[0]]",11,"[[0,0,0],[2,3],[1]]",12,0,,,,,,4,,
,,,,,single-stim-button,392,964863,0.0-3.0-46.11-0.11,5d4821d9dfc9bc0015b5be60,D2,batch4,,2512,,,tol_tohand,,,,,,,,,tol_peg_2,2512,2512,0,"[[2,3,0],[0,0],[0]]",12,"[[0,0,0],[2,3],[1]]",12,0,,,,,,4,,
,,,,,single-stim-button,393,965461,0.0-3.0-46.11-1.11,5d4821d9dfc9bc0015b5be60,D2,batch4,,597,,,tol_toboard,,,,,,,,,tol_peg_3,597,597,0,"[[2,3,0],[0,0],[1]]",12,"[[0,0,0],[2,3],[1]]",12,0,,,,,,4,,
,,,,,single-stim-button,394,969085,0.0-3.0-46.12-0.12,5d4821d9dfc9bc0015b5be60,D2,batch4,,3624,,,tol_tohand,,,,,,,,,tol_peg_3,3624,3624,0,"[[2,3,0],[0,0],[0]]",13,"[[0,0,0],[2,3],[1]]",12,0,,,,,,4,,
,,,,,single-stim-button,395,971253,0.0-3.0-46.12-1.12,5d4821d9dfc9bc0015b5be60,D2,batch4,,2166,,,tol_toboard,,,,,,,,,tol_peg_3,2166,2166,0,"[[2,3,0],[0,0],[1]]",13,"[[0,0,0],[2,3],[1]]",12,0,,,,,,4,,
,,,,,single-stim-button,396,972269,0.0-3.0-46.13-0.13,5d4821d9dfc9bc0015b5be60,D2,batch4,,1015,,,tol_tohand,,,,,,,,,tol_peg_1,1015,1015,0,"[[2,0,0],[0,0],[1]]",14,"[[0,0,0],[2,3],[1]]",12,0,,,,,,4,,
,,,,,single-stim-button,397,972926,0.0-3.0-46.13-1.13,5d4821d9dfc9bc0015b5be60,D2,batch4,,656,,,tol_toboard,,,,,,,,,tol_peg_2,656,656,0,"[[2,0,0],[3,0],[1]]",14,"[[0,0,0],[2,3],[1]]",12,0,,,,,,4,,
,,,,,single-stim-button,398,973565,0.0-3.0-46.14-0.14,5d4821d9dfc9bc0015b5be60,D2,batch4,,637,,,tol_tohand,,,,,,,,,tol_peg_1,637,637,0,"[[0,0,0],[3,0],[1]]",15,"[[0,0,0],[2,3],[1]]",12,0,,,,,,4,,
,,,,,single-stim-button,399,974197,0.0-3.0-46.14-1.14,5d4821d9dfc9bc0015b5be60,D2,batch4,,630,,,tol_toboard,,,,,,,,,tol_peg_2,630,630,0,"[[0,0,0],[3,2],[1]]",15,"[[0,0,0],[2,3],[1]]",12,0,,,,,,4,,
,,,,,single-stim-button,400,979333,0.0-3.0-46.15-0.15,5d4821d9dfc9bc0015b5be60,D2,batch4,,5135,,,tol_tohand,,,,,,,,,tol_peg_2,5135,5135,0,"[[0,0,0],[3,0],[1]]",16,"[[0,0,0],[2,3],[1]]",12,0,,,,,,4,,
,,,,,single-stim-button,401,980333,0.0-3.0-46.15-1.15,5d4821d9dfc9bc0015b5be60,D2,batch4,,999,,,tol_toboard,,,,,,,,,tol_peg_2,999,999,0,"[[0,0,0],[3,2],[1]]",16,"[[0,0,0],[2,3],[1]]",12,0,,,,,,4,,
,,,,,single-stim-button,402,981301,0.0-3.0-46.16-0.16,5d4821d9dfc9bc0015b5be60,D2,batch4,,967,,,tol_tohand,,,,,,,,,tol_peg_2,967,967,0,"[[0,0,0],[3,0],[1]]",17,"[[0,0,0],[2,3],[1]]",12,0,,,,,,4,,
,,,,,single-stim-button,403,982077,0.0-3.0-46.16-1.16,5d4821d9dfc9bc0015b5be60,D2,batch4,,775,,,tol_toboard,,,,,,,,,tol_peg_1,775,775,0,"[[2,0,0],[3,0],[1]]",17,"[[0,0,0],[2,3],[1]]",12,0,,,,,,4,,
,,,,,single-stim-button,404,982557,0.0-3.0-46.17-0.17,5d4821d9dfc9bc0015b5be60,D2,batch4,,478,,,tol_tohand,,,,,,,,,tol_peg_2,478,478,0,"[[2,0,0],[0,0],[1]]",18,"[[0,0,0],[2,3],[1]]",12,0,,,,,,4,,
,,,,,single-stim-button,405,983165,0.0-3.0-46.17-1.17,5d4821d9dfc9bc0015b5be60,D2,batch4,,607,,,tol_toboard,,,,,,,,,tol_peg_1,607,607,0,"[[2,3,0],[0,0],[1]]",18,"[[0,0,0],[2,3],[1]]",12,0,,,,,,4,,
,,,,,single-stim-button,406,984839,0.0-3.0-46.18-0.18,5d4821d9dfc9bc0015b5be60,D2,batch4,,1673,,,tol_tohand,,,,,,,,,tol_peg_3,1673,1673,0,"[[2,3,0],[0,0],[0]]",19,"[[0,0,0],[2,3],[1]]",12,0,,,,,,4,,
,,,,,single-stim-button,407,986293,0.0-3.0-46.18-1.18,5d4821d9dfc9bc0015b5be60,D2,batch4,,1454,,,tol_toboard,,,,,,,,,tol_peg_2,1454,1454,0,"[[2,3,0],[1,0],[0]]",19,"[[0,0,0],[2,3],[1]]",12,0,,,,,,4,,
,,,,,single-stim-button,408,987061,0.0-3.0-46.19-0.19,5d4821d9dfc9bc0015b5be60,D2,batch4,,766,,,tol_tohand,,,,,,,,,tol_peg_1,766,766,0,"[[2,0,0],[1,0],[0]]",20,"[[0,0,0],[2,3],[1]]",12,0,,,,,,4,,
,,,,,single-stim-button,409,987717,0.0-3.0-46.19-1.19,5d4821d9dfc9bc0015b5be60,D2,batch4,,655,,,tol_toboard,,,,,,,,,tol_peg_3,655,655,0,"[[2,0,0],[1,0],[3]]",20,"[[0,0,0],[2,3],[1]]",12,0,,,,,,4,,
,,,,,single-stim-button,410,988221,0.0-3.0-46.20-0.20,5d4821d9dfc9bc0015b5be60,D2,batch4,,503,,,tol_tohand,,,,,,,,,tol_peg_2,503,503,0,"[[2,0,0],[0,0],[3]]",21,"[[0,0,0],[2,3],[1]]",12,0,,,,,,4,,
,,,,,single-stim-button,411,988813,0.0-3.0-46.20-1.20,5d4821d9dfc9bc0015b5be60,D2,batch4,,591,,,tol_toboard,,,,,,,,,tol_peg_1,591,591,0,"[[2,1,0],[0,0],[3]]",21,"[[0,0,0],[2,3],[1]]",12,0,,,,,,4,,
,,,,,single-stim-button,412,993661,0.0-3.0-46.21-0.21,5d4821d9dfc9bc0015b5be60,D2,batch4,,4848,,,tol_tohand,,,,,,,,,tol_peg_1,4848,4848,0,"[[2,0,0],[0,0],[3]]",22,"[[0,0,0],[2,3],[1]]",12,0,,,,,,4,,
,,,,,single-stim-button,413,994453,0.0-3.0-46.21-1.21,5d4821d9dfc9bc0015b5be60,D2,batch4,,790,,,tol_toboard,,,,,,,,,tol_peg_2,790,790,0,"[[2,0,0],[1,0],[3]]",22,"[[0,0,0],[2,3],[1]]",12,0,,,,,,4,,
,,,,,single-stim-button,414,995029,0.0-3.0-46.22-0.22,5d4821d9dfc9bc0015b5be60,D2,batch4,,575,,,tol_tohand,,,,,,,,,tol_peg_1,575,575,0,"[[0,0,0],[1,0],[3]]",23,"[[0,0,0],[2,3],[1]]",12,0,,,,,,4,,
,,,,,single-stim-button,415,995517,0.0-3.0-46.22-1.22,5d4821d9dfc9bc0015b5be60,D2,batch4,,487,,,tol_toboard,,,,,,,,,tol_peg_2,487,487,0,"[[0,0,0],[1,2],[3]]",23,"[[0,0,0],[2,3],[1]]",12,0,,,,,,4,,
,,,,,single-stim-button,416,996741,0.0-3.0-46.23-0.23,5d4821d9dfc9bc0015b5be60,D2,batch4,,1223,,,tol_tohand,,,,,,,,,tol_peg_3,1223,1223,0,"[[0,0,0],[1,2],[0]]",24,"[[0,0,0],[2,3],[1]]",12,0,,,,,,4,,
,,,,,single-stim-button,417,997557,0.0-3.0-46.23-1.23,5d4821d9dfc9bc0015b5be60,D2,batch4,,814,,,tol_toboard,,,,,,,,,tol_peg_1,814,814,0,"[[3,0,0],[1,2],[0]]",24,"[[0,0,0],[2,3],[1]]",12,0,,,,,,4,,
,,,,,single-stim-button,418,998269,0.0-3.0-46.24-0.24,5d4821d9dfc9bc0015b5be60,D2,batch4,,711,,,tol_tohand,,,,,,,,,tol_peg_2,711,711,0,"[[3,0,0],[1,0],[0]]",25,"[[0,0,0],[2,3],[1]]",12,0,,,,,,4,,
,,,,,single-stim-button,419,999477,0.0-3.0-46.24-1.24,5d4821d9dfc9bc0015b5be60,D2,batch4,,1206,,,tol_toboard,,,,,,,,,tol_peg_1,1206,1206,0,"[[3,2,0],[1,0],[0]]",25,"[[0,0,0],[2,3],[1]]",12,0,,,,,,4,,
,,,,,single-stim-button,420,1000181,0.0-3.0-46.25-0.25,5d4821d9dfc9bc0015b5be60,D2,batch4,,703,,,tol_tohand,,,,,,,,,tol_peg_2,703,703,0,"[[3,2,0],[0,0],[0]]",26,"[[0,0,0],[2,3],[1]]",12,0,,,,,,4,,
,,,,,single-stim-button,421,1000781,0.0-3.0-46.25-1.25,5d4821d9dfc9bc0015b5be60,D2,batch4,,599,,,tol_toboard,,,,,,,,,tol_peg_3,599,599,0,"[[3,2,0],[0,0],[1]]",26,"[[0,0,0],[2,3],[1]]",12,0,,,,,,4,,
,,,,,single-stim-button,422,1002030,0.0-3.0-46.26-0.26,5d4821d9dfc9bc0015b5be60,D2,batch4,,1249,,,tol_tohand,,,,,,,,,tol_peg_1,1249,1249,0,"[[3,0,0],[0,0],[1]]",27,"[[0,0,0],[2,3],[1]]",12,0,,,,,,4,,
,,,,,single-stim-button,423,1002541,0.0-3.0-46.26-1.26,5d4821d9dfc9bc0015b5be60,D2,batch4,,509,,,tol_toboard,,,,,,,,,tol_peg_2,509,509,0,"[[3,0,0],[2,0],[1]]",27,"[[0,0,0],[2,3],[1]]",12,0,,,,,,4,,
,,,,,single-stim-button,424,1003045,0.0-3.0-46.27-0.27,5d4821d9dfc9bc0015b5be60,D2,batch4,,504,,,tol_tohand,,,,,,,,,tol_peg_1,504,504,0,"[[0,0,0],[2,0],[1]]",28,"[[0,0,0],[2,3],[1]]",12,0,,,,,,4,,
,,,,,single-stim-button,425,1003565,0.0-3.0-46.27-1.27,5d4821d9dfc9bc0015b5be60,D2,batch4,,518,,,tol_toboard,,,,,,,,,tol_peg_2,518,518,0,"[[0,0,0],[2,3],[1]]",28,"[[0,0,0],[2,3],[1]]",12,0,,,,,,4,,
,,,,,poldrack-single-stim,426,1004568,0.0-3.0-47.0,5d4821d9dfc9bc0015b5be60,D2,batch4,,-1,,,tol_feedback,TRUE,,,,,,,,,1000,1000,500,,,,,,-1,none,TRUE,2526,42842,,,
,,,,,html-button-response,427,1006567,0.0-3.0-48.0,5d4821d9dfc9bc0015b5be60,D2,batch4,,1997,<p class = block-text>How many balls are in your board<br></p>,1,attention_check,TRUE,,,,,,,,,,,,,,,,,,,,,,,,
,,,,,html-button-response,428,1007341,0.0-3.0-49.0,5d4821d9dfc9bc0015b5be60,D2,batch4,,773,<div class = centerbox><p class = center-block-text>problem <strong>14</strong> out of 25 problems</p></div>,0,tol_trial_num,,,,,,,,,,,,,,,,,,,,,,,,,
,,,,,single-stim-button,429,1011813,0.0-3.0-50.0-0.0,5d4821d9dfc9bc0015b5be60,D2,batch4,,4472,,,tol_tohand,,,,,,,,,tol_peg_1,4472,4472,0,"[[2,0,0],[3,0],[0]]",1,"[[1,2,0],[3,0],[0]]",13,0,,,,,,4,,
,,,,,single-stim-button,430,1012421,0.0-3.0-50.0-1.0,5d4821d9dfc9bc0015b5be60,D2,batch4,,607,,,tol_toboard,,,,,,,,,tol_peg_3,607,607,0,"[[2,0,0],[3,0],[1]]",1,"[[1,2,0],[3,0],[0]]",13,0,,,,,,4,,
,,,,,single-stim-button,431,1012493,0.0-3.0-50.1-0.1,5d4821d9dfc9bc0015b5be60,D2,batch4,,71,,,tol_tohand,,,,,,,,,tol_peg_3,71,71,0,"[[2,0,0],[3,0],[0]]",2,"[[1,2,0],[3,0],[0]]",13,0,,,,,,4,,
,,,,,single-stim-button,432,1013773,0.0-3.0-50.1-1.1,5d4821d9dfc9bc0015b5be60,D2,batch4,,1280,,,tol_toboard,,,,,,,,,tol_peg_3,1280,1280,0,"[[2,0,0],[3,0],[1]]",2,"[[1,2,0],[3,0],[0]]",13,0,,,,,,4,,
,,,,,single-stim-button,433,1013853,0.0-3.0-50.2-0.2,5d4821d9dfc9bc0015b5be60,D2,batch4,,79,,,tol_tohand,,,,,,,,,tol_peg_3,79,79,0,"[[2,0,0],[3,0],[0]]",3,"[[1,2,0],[3,0],[0]]",13,0,,,,,,4,,
,,,,,single-stim-button,434,1015317,0.0-3.0-50.2-1.2,5d4821d9dfc9bc0015b5be60,D2,batch4,,1464,,,tol_toboard,,,,,,,,,tol_peg_3,1464,1464,0,"[[2,0,0],[3,0],[1]]",3,"[[1,2,0],[3,0],[0]]",13,0,,,,,,4,,
,,,,,single-stim-button,435,1016079,0.0-3.0-50.3-0.3,5d4821d9dfc9bc0015b5be60,D2,batch4,,760,,,tol_tohand,,,,,,,,,tol_peg_1,760,760,0,"[[0,0,0],[3,0],[1]]",4,"[[1,2,0],[3,0],[0]]",13,0,,,,,,4,,
,,,,,single-stim-button,436,1016693,0.0-3.0-50.3-1.3,5d4821d9dfc9bc0015b5be60,D2,batch4,,614,,,tol_toboard,,,,,,,,,tol_peg_2,614,614,0,"[[0,0,0],[3,2],[1]]",4,"[[1,2,0],[3,0],[0]]",13,0,,,,,,4,,
,,,,,single-stim-button,437,1017806,0.0-3.0-50.4-0.4,5d4821d9dfc9bc0015b5be60,D2,batch4,,1112,,,tol_tohand,,,,,,,,,tol_peg_3,1112,1112,0,"[[0,0,0],[3,2],[0]]",5,"[[1,2,0],[3,0],[0]]",13,0,,,,,,4,,
,,,,,single-stim-button,438,1018445,0.0-3.0-50.4-1.4,5d4821d9dfc9bc0015b5be60,D2,batch4,,638,,,tol_toboard,,,,,,,,,tol_peg_1,638,638,0,"[[1,0,0],[3,2],[0]]",5,"[[1,2,0],[3,0],[0]]",13,0,,,,,,4,,
,,,,,single-stim-button,439,1019301,0.0-3.0-50.5-0.5,5d4821d9dfc9bc0015b5be60,D2,batch4,,855,,,tol_tohand,,,,,,,,,tol_peg_1,855,855,0,"[[0,0,0],[3,2],[0]]",6,"[[1,2,0],[3,0],[0]]",13,0,,,,,,4,,
,,,,,single-stim-button,440,1020141,0.0-3.0-50.5-1.5,5d4821d9dfc9bc0015b5be60,D2,batch4,,839,,,tol_toboard,,,,,,,,,tol_peg_1,839,839,0,"[[1,0,0],[3,2],[0]]",6,"[[1,2,0],[3,0],[0]]",13,0,,,,,,4,,
,,,,,single-stim-button,441,1020695,0.0-3.0-50.6-0.6,5d4821d9dfc9bc0015b5be60,D2,batch4,,553,,,tol_tohand,,,,,,,,,tol_peg_2,553,553,0,"[[1,0,0],[3,0],[0]]",7,"[[1,2,0],[3,0],[0]]",13,0,,,,,,4,,
,,,,,single-stim-button,442,1021173,0.0-3.0-50.6-1.6,5d4821d9dfc9bc0015b5be60,D2,batch4,,477,,,tol_toboard,,,,,,,,,tol_peg_1,477,477,0,"[[1,2,0],[3,0],[0]]",7,"[[1,2,0],[3,0],[0]]",13,0,,,,,,4,,
,,,,,poldrack-single-stim,443,1022175,0.0-3.0-51.0,5d4821d9dfc9bc0015b5be60,D2,batch4,,-1,,,tol_feedback,TRUE,,,,,,,,,1000,1000,500,,,,,,-1,none,TRUE,4472,7902,,,
,,,,,html-button-response,444,1022901,0.0-3.0-52.0,5d4821d9dfc9bc0015b5be60,D2,batch4,,724,<div class = centerbox><p class = center-block-text>problem <strong>15</strong> out of 25 problems</p></div>,0,tol_trial_num,,,,,,,,,,,,,,,,,,,,,,,,,
,,,,,single-stim-button,445,1026117,0.0-3.0-53.0-0.0,5d4821d9dfc9bc0015b5be60,D2,batch4,,3215,,,tol_tohand,,,,,,,,,tol_peg_1,3215,3215,0,"[[1,0,0],[3,0],[0]]",1,"[[2,0,0],[3,0],[1]]",14,0,,,,,,3,,
,,,,,single-stim-button,446,1026935,0.0-3.0-53.0-1.0,5d4821d9dfc9bc0015b5be60,D2,batch4,,817,,,tol_toboard,,,,,,,,,tol_peg_2,817,817,0,"[[1,0,0],[3,2],[0]]",1,"[[2,0,0],[3,0],[1]]",14,0,,,,,,3,,
,,,,,single-stim-button,447,1027414,0.0-3.0-53.1-0.1,5d4821d9dfc9bc0015b5be60,D2,batch4,,478,,,tol_tohand,,,,,,,,,tol_peg_1,478,478,0,"[[0,0,0],[3,2],[0]]",2,"[[2,0,0],[3,0],[1]]",14,0,,,,,,3,,
,,,,,single-stim-button,448,1028245,0.0-3.0-53.1-1.1,5d4821d9dfc9bc0015b5be60,D2,batch4,,830,,,tol_toboard,,,,,,,,,tol_peg_3,830,830,0,"[[0,0,0],[3,2],[1]]",2,"[[2,0,0],[3,0],[1]]",14,0,,,,,,3,,
,,,,,single-stim-button,449,1029157,0.0-3.0-53.2-0.2,5d4821d9dfc9bc0015b5be60,D2,batch4,,911,,,tol_tohand,,,,,,,,,tol_peg_2,911,911,0,"[[0,0,0],[3,0],[1]]",3,"[[2,0,0],[3,0],[1]]",14,0,,,,,,3,,
,,,,,single-stim-button,450,1029789,0.0-3.0-53.2-1.2,5d4821d9dfc9bc0015b5be60,D2,batch4,,631,,,tol_toboard,,,,,,,,,tol_peg_1,631,631,0,"[[2,0,0],[3,0],[1]]",3,"[[2,0,0],[3,0],[1]]",14,0,,,,,,3,,
,,,,,poldrack-single-stim,451,1030795,0.0-3.0-54.0,5d4821d9dfc9bc0015b5be60,D2,batch4,,-1,,,tol_feedback,TRUE,,,,,,,,,1000,1000,500,,,,,,-1,none,TRUE,3215,4604,,,
,,,,,html-button-response,452,1031621,0.0-3.0-55.0,5d4821d9dfc9bc0015b5be60,D2,batch4,,825,<div class = centerbox><p class = center-block-text>problem <strong>16</strong> out of 25 problems</p></div>,0,tol_trial_num,,,,,,,,,,,,,,,,,,,,,,,,,
,,,,,single-stim-button,453,1035901,0.0-3.0-56.0-0.0,5d4821d9dfc9bc0015b5be60,D2,batch4,,4280,,,tol_tohand,,,,,,,,,tol_peg_2,4280,4280,0,"[[0,0,0],[2,0],[1]]",1,"[[2,3,0],[1,0],[0]]",15,0,,,,,,7,,
,,,,,single-stim-button,454,1038349,0.0-3.0-56.0-1.0,5d4821d9dfc9bc0015b5be60,D2,batch4,,2447,,,tol_toboard,,,,,,,,,tol_peg_1,2447,2447,0,"[[3,0,0],[2,0],[1]]",1,"[[2,3,0],[1,0],[0]]",15,0,,,,,,7,,
,,,,,single-stim-button,455,1039293,0.0-3.0-56.1-0.1,5d4821d9dfc9bc0015b5be60,D2,batch4,,943,,,tol_tohand,,,,,,,,,tol_peg_3,943,943,0,"[[3,0,0],[2,0],[0]]",2,"[[2,3,0],[1,0],[0]]",15,0,,,,,,7,,
,,,,,single-stim-button,456,1042733,0.0-3.0-56.1-1.1,5d4821d9dfc9bc0015b5be60,D2,batch4,,3439,,,tol_toboard,,,,,,,,,tol_peg_1,3439,3439,0,"[[3,1,0],[2,0],[0]]",2,"[[2,3,0],[1,0],[0]]",15,0,,,,,,7,,
,,,,,single-stim-button,457,1043469,0.0-3.0-56.2-0.2,5d4821d9dfc9bc0015b5be60,D2,batch4,,735,,,tol_tohand,,,,,,,,,tol_peg_2,735,735,0,"[[3,1,0],[0,0],[0]]",3,"[[2,3,0],[1,0],[0]]",15,0,,,,,,7,,
,,,,,single-stim-button,458,1046021,0.0-3.0-56.2-1.2,5d4821d9dfc9bc0015b5be60,D2,batch4,,2551,,,tol_toboard,,,,,,,,,tol_peg_3,2551,2551,0,"[[3,1,0],[0,0],[2]]",3,"[[2,3,0],[1,0],[0]]",15,0,,,,,,7,,
,,,,,single-stim-button,459,1046869,0.0-3.0-56.3-0.3,5d4821d9dfc9bc0015b5be60,D2,batch4,,847,,,tol_tohand,,,,,,,,,tol_peg_1,847,847,0,"[[3,0,0],[0,0],[2]]",4,"[[2,3,0],[1,0],[0]]",15,0,,,,,,7,,
,,,,,single-stim-button,460,1047983,0.0-3.0-56.3-1.3,5d4821d9dfc9bc0015b5be60,D2,batch4,,1113,,,tol_toboard,,,,,,,,,tol_peg_2,1113,1113,0,"[[3,0,0],[1,0],[2]]",4,"[[2,3,0],[1,0],[0]]",15,0,,,,,,7,,
,,,,,single-stim-button,461,1048549,0.0-3.0-56.4-0.4,5d4821d9dfc9bc0015b5be60,D2,batch4,,565,,,tol_tohand,,,,,,,,,tol_peg_1,565,565,0,"[[0,0,0],[1,0],[2]]",5,"[[2,3,0],[1,0],[0]]",15,0,,,,,,7,,
,,,,,single-stim-button,462,1048941,0.0-3.0-56.4-1.4,5d4821d9dfc9bc0015b5be60,D2,batch4,,391,,,tol_toboard,,,,,,,,,tol_peg_2,391,391,0,"[[0,0,0],[1,3],[2]]",5,"[[2,3,0],[1,0],[0]]",15,0,,,,,,7,,
,,,,,single-stim-button,463,1049541,0.0-3.0-56.5-0.5,5d4821d9dfc9bc0015b5be60,D2,batch4,,599,,,tol_tohand,,,,,,,,,tol_peg_3,599,599,0,"[[0,0,0],[1,3],[0]]",6,"[[2,3,0],[1,0],[0]]",15,0,,,,,,7,,
,,,,,single-stim-button,464,1050157,0.0-3.0-56.5-1.5,5d4821d9dfc9bc0015b5be60,D2,batch4,,615,,,tol_toboard,,,,,,,,,tol_peg_1,615,615,0,"[[2,0,0],[1,3],[0]]",6,"[[2,3,0],[1,0],[0]]",15,0,,,,,,7,,
,,,,,single-stim-button,465,1050645,0.0-3.0-56.6-0.6,5d4821d9dfc9bc0015b5be60,D2,batch4,,487,,,tol_tohand,,,,,,,,,tol_peg_2,487,487,0,"[[2,0,0],[1,0],[0]]",7,"[[2,3,0],[1,0],[0]]",15,0,,,,,,7,,
,,,,,single-stim-button,466,1051085,0.0-3.0-56.6-1.6,5d4821d9dfc9bc0015b5be60,D2,batch4,,439,,,tol_toboard,,,,,,,,,tol_peg_1,439,439,0,"[[2,3,0],[1,0],[0]]",7,"[[2,3,0],[1,0],[0]]",15,0,,,,,,7,,
,,,,,poldrack-single-stim,467,1052098,0.0-3.0-57.0,5d4821d9dfc9bc0015b5be60,D2,batch4,,-1,,,tol_feedback,TRUE,,,,,,,,,1000,1000,500,,,,,,-1,none,TRUE,4280,8456,,,
,,,,,html-button-response,468,1054109,0.0-3.0-58.0,5d4821d9dfc9bc0015b5be60,D2,batch4,,2010,<div class = centerbox><p class = center-block-text>problem <strong>17</strong> out of 25 problems</p></div>,0,tol_trial_num,,,,,,,,,,,,,,,,,,,,,,,,,
,,,,,single-stim-button,469,1057045,0.0-3.0-59.0-0.0,5d4821d9dfc9bc0015b5be60,D2,batch4,,2935,,,tol_tohand,,,,,,,,,tol_peg_1,2935,2935,0,"[[1,0,0],[3,0],[0]]",1,"[[3,1,0],[2,0],[0]]",16,0,,,,,,5,,
,,,,,single-stim-button,470,1060733,0.0-3.0-59.0-1.0,5d4821d9dfc9bc0015b5be60,D2,batch4,,3687,,,tol_toboard,,,,,,,,,tol_peg_2,3687,3687,0,"[[1,0,0],[3,2],[0]]",1,"[[3,1,0],[2,0],[0]]",16,0,,,,,,5,,
,,,,,single-stim-button,471,1071469,0.0-3.0-59.1-0.1,5d4821d9dfc9bc0015b5be60,D2,batch4,,10735,,,tol_tohand,,,,,,,,,tol_peg_1,10735,10735,0,"[[0,0,0],[3,2],[0]]",2,"[[3,1,0],[2,0],[0]]",16,0,,,,,,5,,
,,,,,single-stim-button,472,1072430,0.0-3.0-59.1-1.1,5d4821d9dfc9bc0015b5be60,D2,batch4,,959,,,tol_toboard,,,,,,,,,tol_peg_3,959,959,0,"[[0,0,0],[3,2],[1]]",2,"[[3,1,0],[2,0],[0]]",16,0,,,,,,5,,
,,,,,single-stim-button,473,1073390,0.0-3.0-59.2-0.2,5d4821d9dfc9bc0015b5be60,D2,batch4,,959,,,tol_tohand,,,,,,,,,tol_peg_2,959,959,0,"[[0,0,0],[3,0],[1]]",3,"[[3,1,0],[2,0],[0]]",16,0,,,,,,5,,
,,,,,single-stim-button,474,1074077,0.0-3.0-59.2-1.2,5d4821d9dfc9bc0015b5be60,D2,batch4,,687,,,tol_toboard,,,,,,,,,tol_peg_1,687,687,0,"[[2,0,0],[3,0],[1]]",3,"[[3,1,0],[2,0],[0]]",16,0,,,,,,5,,
,,,,,single-stim-button,475,1076342,0.0-3.0-59.3-0.3,5d4821d9dfc9bc0015b5be60,D2,batch4,,2263,,,tol_tohand,,,,,,,,,tol_peg_1,2263,2263,0,"[[0,0,0],[3,0],[1]]",4,"[[3,1,0],[2,0],[0]]",16,0,,,,,,5,,
,,,,,single-stim-button,476,1077182,0.0-3.0-59.3-1.3,5d4821d9dfc9bc0015b5be60,D2,batch4,,839,,,tol_toboard,,,,,,,,,tol_peg_2,839,839,0,"[[0,0,0],[3,2],[1]]",4,"[[3,1,0],[2,0],[0]]",16,0,,,,,,5,,
,,,,,single-stim-button,477,1077943,0.0-3.0-59.4-0.4,5d4821d9dfc9bc0015b5be60,D2,batch4,,761,,,tol_tohand,,,,,,,,,tol_peg_3,761,761,0,"[[0,0,0],[3,2],[0]]",5,"[[3,1,0],[2,0],[0]]",16,0,,,,,,5,,
,,,,,single-stim-button,478,1078685,0.0-3.0-59.4-1.4,5d4821d9dfc9bc0015b5be60,D2,batch4,,741,,,tol_toboard,,,,,,,,,tol_peg_1,741,741,0,"[[1,0,0],[3,2],[0]]",5,"[[3,1,0],[2,0],[0]]",16,0,,,,,,5,,
,,,,,single-stim-button,479,1079294,0.0-3.0-59.5-0.5,5d4821d9dfc9bc0015b5be60,D2,batch4,,607,,,tol_tohand,,,,,,,,,tol_peg_2,607,607,0,"[[1,0,0],[3,0],[0]]",6,"[[3,1,0],[2,0],[0]]",16,0,,,,,,5,,
,,,,,single-stim-button,480,1080238,0.0-3.0-59.5-1.5,5d4821d9dfc9bc0015b5be60,D2,batch4,,943,,,tol_toboard,,,,,,,,,tol_peg_3,943,943,0,"[[1,0,0],[3,0],[2]]",6,"[[3,1,0],[2,0],[0]]",16,0,,,,,,5,,
,,,,,single-stim-button,481,1081614,0.0-3.0-59.6-0.6,5d4821d9dfc9bc0015b5be60,D2,batch4,,1375,,,tol_tohand,,,,,,,,,tol_peg_1,1375,1375,0,"[[0,0,0],[3,0],[2]]",7,"[[3,1,0],[2,0],[0]]",16,0,,,,,,5,,
,,,,,single-stim-button,482,1082085,0.0-3.0-59.6-1.6,5d4821d9dfc9bc0015b5be60,D2,batch4,,471,,,tol_toboard,,,,,,,,,tol_peg_2,471,471,0,"[[0,0,0],[3,1],[2]]",7,"[[3,1,0],[2,0],[0]]",16,0,,,,,,5,,
,,,,,single-stim-button,483,1085470,0.0-3.0-59.7-0.7,5d4821d9dfc9bc0015b5be60,D2,batch4,,3383,,,tol_tohand,,,,,,,,,tol_peg_2,3383,3383,0,"[[0,0,0],[3,0],[2]]",8,"[[3,1,0],[2,0],[0]]",16,0,,,,,,5,,
,,,,,single-stim-button,484,1086333,0.0-3.0-59.7-1.7,5d4821d9dfc9bc0015b5be60,D2,batch4,,863,,,tol_toboard,,,,,,,,,tol_peg_1,863,863,0,"[[1,0,0],[3,0],[2]]",8,"[[3,1,0],[2,0],[0]]",16,0,,,,,,5,,
,,,,,single-stim-button,485,1086757,0.0-3.0-59.8-0.8,5d4821d9dfc9bc0015b5be60,D2,batch4,,423,,,tol_tohand,,,,,,,,,tol_peg_2,423,423,0,"[[1,0,0],[0,0],[2]]",9,"[[3,1,0],[2,0],[0]]",16,0,,,,,,5,,
,,,,,single-stim-button,486,1087653,0.0-3.0-59.8-1.8,5d4821d9dfc9bc0015b5be60,D2,batch4,,895,,,tol_toboard,,,,,,,,,tol_peg_1,895,895,0,"[[1,3,0],[0,0],[2]]",9,"[[3,1,0],[2,0],[0]]",16,0,,,,,,5,,
,,,,,single-stim-button,487,1088309,0.0-3.0-59.9-0.9,5d4821d9dfc9bc0015b5be60,D2,batch4,,655,,,tol_tohand,,,,,,,,,tol_peg_3,655,655,0,"[[1,3,0],[0,0],[0]]",10,"[[3,1,0],[2,0],[0]]",16,0,,,,,,5,,
,,,,,single-stim-button,488,1088781,0.0-3.0-59.9-1.9,5d4821d9dfc9bc0015b5be60,D2,batch4,,471,,,tol_toboard,,,,,,,,,tol_peg_2,471,471,0,"[[1,3,0],[2,0],[0]]",10,"[[3,1,0],[2,0],[0]]",16,0,,,,,,5,,
,,,,,single-stim-button,489,1090790,0.0-3.0-59.10-0.10,5d4821d9dfc9bc0015b5be60,D2,batch4,,2007,,,tol_tohand,,,,,,,,,tol_peg_1,2007,2007,0,"[[1,0,0],[2,0],[0]]",11,"[[3,1,0],[2,0],[0]]",16,0,,,,,,5,,
,,,,,single-stim-button,490,1091381,0.0-3.0-59.10-1.10,5d4821d9dfc9bc0015b5be60,D2,batch4,,591,,,tol_toboard,,,,,,,,,tol_peg_3,591,591,0,"[[1,0,0],[2,0],[3]]",11,"[[3,1,0],[2,0],[0]]",16,0,,,,,,5,,
,,,,,single-stim-button,491,1092047,0.0-3.0-59.11-0.11,5d4821d9dfc9bc0015b5be60,D2,batch4,,665,,,tol_tohand,,,,,,,,,tol_peg_1,665,665,0,"[[0,0,0],[2,0],[3]]",12,"[[3,1,0],[2,0],[0]]",16,0,,,,,,5,,
,,,,,single-stim-button,492,1092382,0.0-3.0-59.11-1.11,5d4821d9dfc9bc0015b5be60,D2,batch4,,334,,,tol_toboard,,,,,,,,,tol_peg_2,334,334,0,"[[0,0,0],[2,1],[3]]",12,"[[3,1,0],[2,0],[0]]",16,0,,,,,,5,,
,,,,,single-stim-button,493,1092845,0.0-3.0-59.12-0.12,5d4821d9dfc9bc0015b5be60,D2,batch4,,463,,,tol_tohand,,,,,,,,,tol_peg_3,463,463,0,"[[0,0,0],[2,1],[0]]",13,"[[3,1,0],[2,0],[0]]",16,0,,,,,,5,,
,,,,,single-stim-button,494,1093414,0.0-3.0-59.12-1.12,5d4821d9dfc9bc0015b5be60,D2,batch4,,567,,,tol_toboard,,,,,,,,,tol_peg_1,567,567,0,"[[3,0,0],[2,1],[0]]",13,"[[3,1,0],[2,0],[0]]",16,0,,,,,,5,,
,,,,,single-stim-button,495,1093805,0.0-3.0-59.13-0.13,5d4821d9dfc9bc0015b5be60,D2,batch4,,391,,,tol_tohand,,,,,,,,,tol_peg_2,391,391,0,"[[3,0,0],[2,0],[0]]",14,"[[3,1,0],[2,0],[0]]",16,0,,,,,,5,,
,,,,,single-stim-button,496,1094134,0.0-3.0-59.13-1.13,5d4821d9dfc9bc0015b5be60,D2,batch4,,328,,,tol_toboard,,,,,,,,,tol_peg_1,328,328,0,"[[3,1,0],[2,0],[0]]",14,"[[3,1,0],[2,0],[0]]",16,0,,,,,,5,,
,,,,,poldrack-single-stim,497,1095137,0.0-3.0-60.0,5d4821d9dfc9bc0015b5be60,D2,batch4,,-1,,,tol_feedback,TRUE,,,,,,,,,1000,1000,500,,,,,,-1,none,TRUE,2935,27622,,,
,,,,,html-button-response,498,1095869,0.0-3.0-61.0,5d4821d9dfc9bc0015b5be60,D2,batch4,,731,<div class = centerbox><p class = center-block-text>problem <strong>18</strong> out of 25 problems</p></div>,0,tol_trial_num,,,,,,,,,,,,,,,,,,,,,,,,,
,,,,,single-stim-button,499,1097543,0.0-3.0-62.0-0.0,5d4821d9dfc9bc0015b5be60,D2,batch4,,1673,,,tol_tohand,,,,,,,,,tol_peg_1,1673,1673,0,"[[1,0,0],[3,0],[0]]",1,"[[3,0,0],[2,0],[1]]",17,0,,,,,,5,,
,,,,,single-stim-button,500,1107910,0.0-3.0-62.0-1.0,5d4821d9dfc9bc0015b5be60,D2,batch4,,10365,,,tol_toboard,,,,,,,,,tol_peg_1,10365,10365,0,"[[1,2,0],[3,0],[0]]",1,"[[3,0,0],[2,0],[1]]",17,0,,,,,,5,,
,,,,,single-stim-button,501,1108590,0.0-3.0-62.1-0.1,5d4821d9dfc9bc0015b5be60,D2,batch4,,678,,,tol_tohand,,,,,,,,,tol_peg_2,678,678,0,"[[1,2,0],[0,0],[0]]",2,"[[3,0,0],[2,0],[1]]",17,0,,,,,,5,,
,,,,,single-stim-button,502,1109142,0.0-3.0-62.1-1.1,5d4821d9dfc9bc0015b5be60,D2,batch4,,551,,,tol_toboard,,,,,,,,,tol_peg_3,551,551,0,"[[1,2,0],[0,0],[3]]",2,"[[3,0,0],[2,0],[1]]",17,0,,,,,,5,,
,,,,,single-stim-button,503,1109943,0.0-3.0-62.2-0.2,5d4821d9dfc9bc0015b5be60,D2,batch4,,801,,,tol_tohand,,,,,,,,,tol_peg_1,801,801,0,"[[1,0,0],[0,0],[3]]",3,"[[3,0,0],[2,0],[1]]",17,0,,,,,,5,,
