"success","timeout","failed_images","failed_audio","failed_video","trial_type","trial_index","time_elapsed","internal_node_id","subject_id","study_id","session_id","view_history","rt","stimulus","response","task","correct","answer","item","fiar_detect_rt","fiar_detect_correct","total_correct_fiar_detect","post_trial_gap","choices","spm_correct","spm_rt","mouse_click","stim_duration","block_duration","timing_post_trial","current_position","tol_num_moves_made","tol_target","tol_problem_id","tol_rt","key_press","possible_responses","tol_correct","preplanning","tol_rt_per_trial","tol_min_moves"
"true","false","[]","[]","[]","preload","0","650","0.0-0.0","5d4b265b72db9d0015e8aac6","E1","batch5","","","","","","","","","","","","","","","","","","","","","","","","","","","","","",""
"true","","","","","fullscreen","1","14623","0.0-1.0-0.0","5d4b265b72db9d0015e8aac6","E1","batch5","","","","","","","","","","","","","","","","","","","","","","","","","","","","","",""
"true","","","","","fullscreen","2","19785","0.0-2.0-0.0","5d4b265b72db9d0015e8aac6","E1","batch5","","","","","","","","","","","","","","","","","","","","","","","","","","","","","",""
"","","","","","instructions","3","40113","0.0-2.0-1.0-0.0","5d4b265b72db9d0015e8aac6","E1","batch5","[{""page_index"":0,""viewing_time"":15048},{""page_index"":1,""viewing_time"":5278.0999999940395}]","20326.5","","","","","","","","","","","","","","","","","","","","","","","","","","","",""
"","","","","","html-button-response","4","41236","0.0-2.0-1.0-1.0-0.0","5d4b265b72db9d0015e8aac6","E1","batch5","","1120.199999988079","<p class=block-text> Let's answer a few questions <br>","0","pattern_enter_quiz","","","","","","","","","","","","","","","","","","","","","","","","",""
"","","","","","html-button-response","5","43340","0.0-2.0-1.0-1.0-1.0","5d4b265b72db9d0015e8aac6","E1","batch5","","2101.4000000059605","<p class = block-text>True or False: You will have as much time as you want to make each choice. <br></p>","1","pattern_quiz","true","","","","","","","","","","","","","","","","","","","","","","","",""
"","","","","","html-button-response","6","44564","0.0-2.0-1.0-1.0-2.0","5d4b265b72db9d0015e8aac6","E1","batch5","","1222.2000000029802","<p class = block-text>Correct! You should make your choice <strong> as fast as you can</strong>.</p>","0","pattern_quiz_feedback","","","","","","","","","","","","","","","","","","","","","","","","",""
"","","","","","html-button-response","7","47141","0.0-2.0-1.0-1.0-3.0","5d4b265b72db9d0015e8aac6","E1","batch5","","2576.199999988079","<p class = block-text>True or False: You will look for 4 pieces in black or white color connected in a row either horizontally, vertically or diagonally. <br></p>","0","pattern_quiz","true","","","","","","","","","","","","","","","","","","","","","","","",""
"","","","","","html-button-response","8","47808","0.0-2.0-1.0-1.0-4.0","5d4b265b72db9d0015e8aac6","E1","batch5","","664.4000000059605","<p class = block-text>Correct! </p>","0","pattern_quiz_feedback","","","","","","","","","","","","","","","","","","","","","","","","",""
"","","","","","html-button-response","9","49088","0.0-2.0-2.0","5d4b265b72db9d0015e8aac6","E1","batch5","","1277.5","<p class=block-text> Now that you've understood the game, let's do a few practice trials before we start!<br> <br>","0","pattern_enter_practice","","","","","","","","","","","","","","","","","","","","","","","","",""
"","","","","","image-keyboard-response","10","50477","0.0-2.0-3.0-0.0","5d4b265b72db9d0015e8aac6","E1","batch5","","1373.3999999910593","stim/prac_yes_16_ver_w1.png","f","pattern_practice","true","f","","","","","","","","","","","","","","","","","","","","","","",""
"","","","","","html-keyboard-response","11","51487","0.0-2.0-3.0-1.0","5d4b265b72db9d0015e8aac6","E1","batch5","","null","<p style=""font-size:30px;color:green;"">Correct!</p>","null","pattern_feedback","","","","","","","","","","","","","","","","","","","","","","","","",""
"","","","","","image-keyboard-response","12","52484","0.0-2.0-3.0-0.1","5d4b265b72db9d0015e8aac6","E1","batch5","","994.7000000029802","stim/prac_yes_18_hor_w1.png","f","pattern_practice","true","f","","","","","","","","","","","","","","","","","","","","","","",""
"","","","","","html-keyboard-response","13","53495","0.0-2.0-3.0-1.1","5d4b265b72db9d0015e8aac6","E1","batch5","","null","<p style=""font-size:30px;color:green;"">Correct!</p>","null","pattern_feedback","","","","","","","","","","","","","","","","","","","","","","","","",""
"","","","","","image-keyboard-response","14","54140","0.0-2.0-3.0-0.2","5d4b265b72db9d0015e8aac6","E1","batch5","","642.8000000119209","stim/prac_no_18_1.png","j","pattern_practice","true","j","","","","","","","","","","","","","","","","","","","","","","",""
"","","","","","html-keyboard-response","15","55151","0.0-2.0-3.0-1.2","5d4b265b72db9d0015e8aac6","E1","batch5","","null","<p style=""font-size:30px;color:green;"">Correct!</p>","null","pattern_feedback","","","","","","","","","","","","","","","","","","","","","","","","",""
"","","","","","image-keyboard-response","16","55908","0.0-2.0-3.0-0.3","5d4b265b72db9d0015e8aac6","E1","batch5","","755.2000000029802","stim/prac_no_16_1.png","j","pattern_practice","true","j","","","","","","","","","","","","","","","","","","","","","","",""
"","","","","","html-keyboard-response","17","56919","0.0-2.0-3.0-1.3","5d4b265b72db9d0015e8aac6","E1","batch5","","null","<p style=""font-size:30px;color:green;"">Correct!</p>","null","pattern_feedback","","","","","","","","","","","","","","","","","","","","","","","","",""
"","","","","","image-keyboard-response","18","57644","0.0-2.0-3.0-0.4","5d4b265b72db9d0015e8aac6","E1","batch5","","722.5","stim/prac_yes_20_dia_b1.png","j","pattern_practice","false","f","","","","","","","","","","","","","","","","","","","","","","",""
"","","","","","html-keyboard-response","19","58655","0.0-2.0-3.0-1.4","5d4b265b72db9d0015e8aac6","E1","batch5","","null","<p style=""font-size:30px;color:red;"">Wrong.</p>","null","pattern_feedback","","","","","","","","","","","","","","","","","","","","","","","","",""
"","","","","","html-button-response","20","61770","0.0-2.0-4.0","5d4b265b72db9d0015e8aac6","E1","batch5","","3112.7999999970198","<p class=block-text> Good job! You are done with practice trials!<br>
        You responded correctly on 80% of the trials.<br>
        Press the button below to start official trials. Now you won't see any feedback about your response</p>","0","pattern_enter_official_trials","","","","","","","","","","","","","","","","","","","","","","","","",""
"","","","","","html-keyboard-response","21","62575","0.0-2.0-5.0-0.0","5d4b265b72db9d0015e8aac6","E1","batch5","","null","<p class=block-text>Trial 1 out of 78</p>","null","pattern_show_trial_num","","","","","","","","","","","","","","","","","","","","","","","","",""
"","","","","","image-keyboard-response","22","63789","0.0-2.0-5.0-1.0","5d4b265b72db9d0015e8aac6","E1","batch5","","1210.5","stim/yes_29_hor_b1_b.png","f","pattern_response","true","f","pattern_52","1210.5","true","1","","","","","","","","","","","","","","","","","","",""
"","","","","","html-keyboard-response","23","65103","0.0-2.0-5.0-0.1","5d4b265b72db9d0015e8aac6","E1","batch5","","null","<p class=block-text>Trial 2 out of 78</p>","null","pattern_show_trial_num","","","","","","","","","","","","","","","","","","","","","","","","",""
"","","","","","image-keyboard-response","24","67653","0.0-2.0-5.0-1.1","5d4b265b72db9d0015e8aac6","E1","batch5","","2547.9000000059605","stim/yes_58_dia_w1_w.png","j","pattern_response","false","f","pattern_76","2547.9000000059605","false","1","","","","","","","","","","","","","","","","","","",""
"","","","","","html-keyboard-response","25","68967","0.0-2.0-5.0-0.2","5d4b265b72db9d0015e8aac6","E1","batch5","","null","<p class=block-text>Trial 3 out of 78</p>","null","pattern_show_trial_num","","","","","","","","","","","","","","","","","","","","","","","","",""
"","","","","","image-keyboard-response","26","71725","0.0-2.0-5.0-1.2","5d4b265b72db9d0015e8aac6","E1","batch5","","2755.699999988079","stim/no_43_2_b.png","j","pattern_response","true","j","pattern_23","2755.699999988079","true","2","","","","","","","","","","","","","","","","","","",""
"","","","","","html-keyboard-response","27","73039","0.0-2.0-5.0-0.3","5d4b265b72db9d0015e8aac6","E1","batch5","","null","<p class=block-text>Trial 4 out of 78</p>","null","pattern_show_trial_num","","","","","","","","","","","","","","","","","","","","","","","","",""
"","","","","","image-keyboard-response","28","76933","0.0-2.0-5.0-1.3","5d4b265b72db9d0015e8aac6","E1","batch5","","3890.800000011921","stim/no_39_1_w.png","j","pattern_response","true","j","pattern_21","3890.800000011921","true","3","","","","","","","","","","","","","","","","","","",""
"","","","","","html-keyboard-response","29","78247","0.0-2.0-5.0-0.4","5d4b265b72db9d0015e8aac6","E1","batch5","","null","<p class=block-text>Trial 5 out of 78</p>","null","pattern_show_trial_num","","","","","","","","","","","","","","","","","","","","","","","","",""
"","","","","","image-keyboard-response","30","79165","0.0-2.0-5.0-1.4","5d4b265b72db9d0015e8aac6","E1","batch5","","915","stim/yes_36_ver_w1_w.png","f","pattern_response","true","f","pattern_58","915","true","4","","","","","","","","","","","","","","","","","","",""
"","","","","","html-keyboard-response","31","80479","0.0-2.0-5.0-0.5","5d4b265b72db9d0015e8aac6","E1","batch5","","null","<p class=block-text>Trial 6 out of 78</p>","null","pattern_show_trial_num","","","","","","","","","","","","","","","","","","","","","","","","",""
"","","","","","image-keyboard-response","32","81374","0.0-2.0-5.0-1.5","5d4b265b72db9d0015e8aac6","E1","batch5","","892.2000000029802","stim/yes_70_ver_b1.png","f","pattern_response","true","f","pattern_80","892.2000000029802","true","5","","","","","","","","","","","","","","","","","","",""
"","","","","","html-keyboard-response","33","82687","0.0-2.0-5.0-0.6","5d4b265b72db9d0015e8aac6","E1","batch5","","null","<p class=block-text>Trial 7 out of 78</p>","null","pattern_show_trial_num","","","","","","","","","","","","","","","","","","","","","","","","",""
"","","","","","image-keyboard-response","34","83509","0.0-2.0-5.0-1.6","5d4b265b72db9d0015e8aac6","E1","batch5","","821.7000000029802","stim/yes_46_ver_b1_b.png","f","pattern_response","true","f","pattern_68","821.7000000029802","true","6","","","","","","","","","","","","","","","","","","",""
"","","","","","html-keyboard-response","35","84823","0.0-2.0-5.0-0.7","5d4b265b72db9d0015e8aac6","E1","batch5","","null","<p class=block-text>Trial 8 out of 78</p>","null","pattern_show_trial_num","","","","","","","","","","","","","","","","","","","","","","","","",""
"","","","","","image-keyboard-response","36","85749","0.0-2.0-5.0-1.7","5d4b265b72db9d0015e8aac6","E1","batch5","","924.1999999880791","stim/yes_37_hor_w1_w.png","f","pattern_response","true","f","pattern_60","924.1999999880791","true","7","","","","","","","","","","","","","","","","","","",""
"","","","","","html-keyboard-response","37","87063","0.0-2.0-5.0-0.8","5d4b265b72db9d0015e8aac6","E1","batch5","","null","<p class=block-text>Trial 9 out of 78</p>","null","pattern_show_trial_num","","","","","","","","","","","","","","","","","","","","","","","","",""
"","","","","","image-keyboard-response","38","88405","0.0-2.0-5.0-1.8","5d4b265b72db9d0015e8aac6","E1","batch5","","1340.2000000029802","stim/yes_23_ver_b1.png","j","pattern_response","false","f","pattern_48","1340.2000000029802","false","7","","","","","","","","","","","","","","","","","","",""
"","","","","","html-keyboard-response","39","89719","0.0-2.0-5.0-0.9","5d4b265b72db9d0015e8aac6","E1","batch5","","null","<p class=block-text>Trial 10 out of 78</p>","null","pattern_show_trial_num","","","","","","","","","","","","","","","","","","","","","","","","",""
"","","","","","image-keyboard-response","40","92670","0.0-2.0-5.0-1.9","5d4b265b72db9d0015e8aac6","E1","batch5","","2948","stim/no_28_2.png","j","pattern_response","true","j","pattern_11","2948","true","8","","","","","","","","","","","","","","","","","","",""
"","","","","","html-keyboard-response","41","93983","0.0-2.0-5.0-0.10","5d4b265b72db9d0015e8aac6","E1","batch5","","null","<p class=block-text>Trial 11 out of 78</p>","null","pattern_show_trial_num","","","","","","","","","","","","","","","","","","","","","","","","",""
"","","","","","image-keyboard-response","42","96254","0.0-2.0-5.0-1.10","5d4b265b72db9d0015e8aac6","E1","batch5","","2267.7999999970198","stim/no_30_1_b.png","j","pattern_response","true","j","pattern_13","2267.7999999970198","true","9","","","","","","","","","","","","","","","","","","",""
"","","","","","html-keyboard-response","43","97567","0.0-2.0-5.0-0.11","5d4b265b72db9d0015e8aac6","E1","batch5","","null","<p class=block-text>Trial 12 out of 78</p>","null","pattern_show_trial_num","","","","","","","","","","","","","","","","","","","","","","","","",""
"","","","","","image-keyboard-response","44","99190","0.0-2.0-5.0-1.11","5d4b265b72db9d0015e8aac6","E1","batch5","","1619.7000000029802","stim/no_22_1_b.png","j","pattern_response","true","j","pattern_07","1619.7000000029802","true","10","","","","","","","","","","","","","","","","","","",""
"","","","","","html-keyboard-response","45","100503","0.0-2.0-5.0-0.12","5d4b265b72db9d0015e8aac6","E1","batch5","","null","<p class=block-text>Trial 13 out of 78</p>","null","pattern_show_trial_num","","","","","","","","","","","","","","","","","","","","","","","","",""
"","","","","","image-keyboard-response","46","101310","0.0-2.0-5.0-1.12","5d4b265b72db9d0015e8aac6","E1","batch5","","804.9000000059605","stim/yes_12_hor_w1_w.png","f","pattern_response","true","f","pattern_42","804.9000000059605","true","11","","","","","","","","","","","","","","","","","","",""
"","","","","","html-keyboard-response","47","102623","0.0-2.0-5.0-0.13","5d4b265b72db9d0015e8aac6","E1","batch5","","null","<p class=block-text>Trial 14 out of 78</p>","null","pattern_show_trial_num","","","","","","","","","","","","","","","","","","","","","","","","",""
"","","","","","image-keyboard-response","48","106911","0.0-2.0-5.0-1.13","5d4b265b72db9d0015e8aac6","E1","batch5","","4285.5999999940395","stim/no_37_2_w.png","j","pattern_response","true","j","pattern_19","4285.5999999940395","true","12","","","","","","","","","","","","","","","","","","",""
"","","","","","html-keyboard-response","49","108223","0.0-2.0-5.0-0.14","5d4b265b72db9d0015e8aac6","E1","batch5","","null","<p class=block-text>Trial 15 out of 78</p>","null","pattern_show_trial_num","","","","","","","","","","","","","","","","","","","","","","","","",""
"","","","","","image-keyboard-response","50","110686","0.0-2.0-5.0-1.14","5d4b265b72db9d0015e8aac6","E1","batch5","","2459.8999999910593","stim/yes_26_dia_w2_w.png","f","pattern_response","true","f","pattern_50","2459.8999999910593","true","13","","","","","","","","","","","","","","","","","","",""
"","","","","","html-keyboard-response","51","111999","0.0-2.0-5.0-0.15","5d4b265b72db9d0015e8aac6","E1","batch5","","null","<p class=block-text>Trial 16 out of 78</p>","null","pattern_show_trial_num","","","","","","","","","","","","","","","","","","","","","","","","",""
"","","","","","image-keyboard-response","52","112735","0.0-2.0-5.0-1.15","5d4b265b72db9d0015e8aac6","E1","batch5","","732.6000000089407","stim/yes_39_hor_w1_w.png","f","pattern_response","true","f","pattern_62","732.6000000089407","true","14","","","","","","","","","","","","","","","","","","",""
"","","","","","html-keyboard-response","53","114047","0.0-2.0-5.0-0.16","5d4b265b72db9d0015e8aac6","E1","batch5","","null","<p class=block-text>Trial 17 out of 78</p>","null","pattern_show_trial_num","","","","","","","","","","","","","","","","","","","","","","","","",""
"","","","","","image-keyboard-response","54","115079","0.0-2.0-5.0-1.16","5d4b265b72db9d0015e8aac6","E1","batch5","","1029.5999999940395","stim/yes_15_dia_b1u_b.png","f","pattern_response","true","f","pattern_44","1029.5999999940395","true","15","","","","","","","","","","","","","","","","","","",""
"","","","","","html-keyboard-response","55","116391","0.0-2.0-5.0-0.17","5d4b265b72db9d0015e8aac6","E1","batch5","","null","<p class=block-text>Trial 18 out of 78</p>","null","pattern_show_trial_num","","","","","","","","","","","","","","","","","","","","","","","","",""
"","","","","","image-keyboard-response","56","117887","0.0-2.0-5.0-1.17","5d4b265b72db9d0015e8aac6","E1","batch5","","1494","stim/no_18_1_b.png","j","pattern_response","true","j","pattern_05","1494","true","16","","","","","","","","","","","","","","","","","","",""
"","","","","","html-keyboard-response","57","119199","0.0-2.0-5.0-0.18","5d4b265b72db9d0015e8aac6","E1","batch5","","null","<p class=block-text>Trial 19 out of 78</p>","null","pattern_show_trial_num","","","","","","","","","","","","","","","","","","","","","","","","",""
"","","","","","image-keyboard-response","58","123687","0.0-2.0-5.0-1.18","5d4b265b72db9d0015e8aac6","E1","batch5","","4486","stim/no_45_1_w.png","j","pattern_response","true","j","pattern_25","4486","true","17","","","","","","","","","","","","","","","","","","",""
"","","","","","html-keyboard-response","59","124999","0.0-2.0-5.0-0.19","5d4b265b72db9d0015e8aac6","E1","batch5","","null","<p class=block-text>Trial 20 out of 78</p>","null","pattern_show_trial_num","","","","","","","","","","","","","","","","","","","","","","","","",""
"","","","","","image-keyboard-response","60","125999","0.0-2.0-5.0-1.19","5d4b265b72db9d0015e8aac6","E1","batch5","","997","stim/yes_30_ver_b1_b.png","f","pattern_response","true","f","pattern_54","997","true","18","","","","","","","","","","","","","","","","","","",""
"","","","","","html-keyboard-response","61","127311","0.0-2.0-5.0-0.20","5d4b265b72db9d0015e8aac6","E1","batch5","","null","<p class=block-text>Trial 21 out of 78</p>","null","pattern_show_trial_num","","","","","","","","","","","","","","","","","","","","","","","","",""
"","","","","","image-keyboard-response","62","129584","0.0-2.0-5.0-1.20","5d4b265b72db9d0015e8aac6","E1","batch5","","2270.5999999940395","stim/yes_49_hor_w1_b.png","f","pattern_response","true","f","pattern_70","2270.5999999940395","true","19","","","","","","","","","","","","","","","","","","",""
"","","","","","html-keyboard-response","63","130895","0.0-2.0-5.0-0.21","5d4b265b72db9d0015e8aac6","E1","batch5","","null","<p class=block-text>Trial 22 out of 78</p>","null","pattern_show_trial_num","","","","","","","","","","","","","","","","","","","","","","","","",""
"","","","","","image-keyboard-response","64","134631","0.0-2.0-5.0-1.21","5d4b265b72db9d0015e8aac6","E1","batch5","","3733.3999999910593","stim/yes_42_dia_w1_w.png","f","pattern_response","true","f","pattern_64","3733.3999999910593","true","20","","","","","","","","","","","","","","","","","","",""
"","","","","","html-keyboard-response","65","135943","0.0-2.0-5.0-0.22","5d4b265b72db9d0015e8aac6","E1","batch5","","null","<p class=block-text>Trial 23 out of 78</p>","null","pattern_show_trial_num","","","","","","","","","","","","","","","","","","","","","","","","",""
"","","","","","image-keyboard-response","66","136792","0.0-2.0-5.0-1.22","5d4b265b72db9d0015e8aac6","E1","batch5","","845.5","stim/yes_17_ver_b1_b.png","f","pattern_response","true","f","pattern_46","845.5","true","21","","","","","","","","","","","","","","","","","","",""
"","","","","","html-keyboard-response","67","138103","0.0-2.0-5.0-0.23","5d4b265b72db9d0015e8aac6","E1","batch5","","null","<p class=block-text>Trial 24 out of 78</p>","null","pattern_show_trial_num","","","","","","","","","","","","","","","","","","","","","","","","",""
"","","","","","image-keyboard-response","68","141856","0.0-2.0-5.0-1.23","5d4b265b72db9d0015e8aac6","E1","batch5","","3751","stim/yes_51_dia_b1.png","f","pattern_response","true","f","pattern_72","3751","true","22","","","","","","","","","","","","","","","","","","",""
"","","","","","html-keyboard-response","69","143167","0.0-2.0-5.0-0.24","5d4b265b72db9d0015e8aac6","E1","batch5","","null","<p class=block-text>Trial 25 out of 78</p>","null","pattern_show_trial_num","","","","","","","","","","","","","","","","","","","","","","","","",""
"","","","","","image-keyboard-response","70","145264","0.0-2.0-5.0-1.24","5d4b265b72db9d0015e8aac6","E1","batch5","","2093","stim/no_25_1_b.png","j","pattern_response","true","j","pattern_09","2093","true","23","","","","","","","","","","","","","","","","","","",""
"","","","","","html-keyboard-response","71","146575","0.0-2.0-5.0-0.25","5d4b265b72db9d0015e8aac6","E1","batch5","","null","<p class=block-text>Trial 26 out of 78</p>","null","pattern_show_trial_num","","","","","","","","","","","","","","","","","","","","","","","","",""
"","","","","","image-keyboard-response","72","150704","0.0-2.0-5.0-1.25","5d4b265b72db9d0015e8aac6","E1","batch5","","4126.5","stim/no_67_1.png","j","pattern_response","true","j","pattern_39","4126.5","true","24","","","","","","","","","","","","","","","","","","",""
"","","","","","html-keyboard-response","73","152015","0.0-2.0-5.0-0.26","5d4b265b72db9d0015e8aac6","E1","batch5","","null","<p class=block-text>Trial 27 out of 78</p>","null","pattern_show_trial_num","","","","","","","","","","","","","","","","","","","","","","","","",""
"","","","","","image-keyboard-response","74","156449","0.0-2.0-5.0-1.26","5d4b265b72db9d0015e8aac6","E1","batch5","","4430.70000000298","stim/no_58_1_w.png","j","pattern_response","true","j","pattern_35","4430.70000000298","true","25","","","","","","","","","","","","","","","","","","",""
"","","","","","html-keyboard-response","75","157759","0.0-2.0-5.0-0.27","5d4b265b72db9d0015e8aac6","E1","batch5","","null","<p class=block-text>Trial 28 out of 78</p>","null","pattern_show_trial_num","","","","","","","","","","","","","","","","","","","","","","","","",""
"","","","","","image-keyboard-response","76","161385","0.0-2.0-5.0-1.27","5d4b265b72db9d0015e8aac6","E1","batch5","","3622.5999999940395","stim/no_47_1_b.png","j","pattern_response","true","j","pattern_27","3622.5999999940395","true","26","","","","","","","","","","","","","","","","","","",""
"","","","","","html-keyboard-response","77","162695","0.0-2.0-5.0-0.28","5d4b265b72db9d0015e8aac6","E1","batch5","","null","<p class=block-text>Trial 29 out of 78</p>","null","pattern_show_trial_num","","","","","","","","","","","","","","","","","","","","","","","","",""
"","","","","","image-keyboard-response","78","165881","0.0-2.0-5.0-1.28","5d4b265b72db9d0015e8aac6","E1","batch5","","3174.2000000029802","stim/no_36_1_b.png","j","pattern_response","true","j","pattern_17","3174.2000000029802","true","27","","","","","","","","","","","","","","","","","","",""
"","","","","","html-keyboard-response","79","167191","0.0-2.0-5.0-0.29","5d4b265b72db9d0015e8aac6","E1","batch5","","null","<p class=block-text>Trial 30 out of 78</p>","null","pattern_show_trial_num","","","","","","","","","","","","","","","","","","","","","","","","",""
"","","","","","image-keyboard-response","80","171521","0.0-2.0-5.0-1.29","5d4b265b72db9d0015e8aac6","E1","batch5","","4327.0999999940395","stim/no_53_1_b.png","j","pattern_response","true","j","pattern_33","4327.0999999940395","true","28","","","","","","","","","","","","","","","","","","",""
"","","","","","html-keyboard-response","81","172831","0.0-2.0-5.0-0.30","5d4b265b72db9d0015e8aac6","E1","batch5","","null","<p class=block-text>Trial 31 out of 78</p>","null","pattern_show_trial_num","","","","","","","","","","","","","","","","","","","","","","","","",""
"","","","","","image-keyboard-response","82","173737","0.0-2.0-5.0-1.30","5d4b265b72db9d0015e8aac6","E1","batch5","","903.0999999940395","stim/yes_44_ver_w1_w.png","f","pattern_response","true","f","pattern_66","903.0999999940395","true","29","","","","","","","","","","","","","","","","","","",""
"","","","","","html-keyboard-response","83","175047","0.0-2.0-5.0-0.31","5d4b265b72db9d0015e8aac6","E1","batch5","","null","<p class=block-text>Trial 32 out of 78</p>","null","pattern_show_trial_num","","","","","","","","","","","","","","","","","","","","","","","","",""
"","","","","","image-keyboard-response","84","177625","0.0-2.0-5.0-1.31","5d4b265b72db9d0015e8aac6","E1","batch5","","2576.2999999970198","stim/no_33_1_b.png","j","pattern_response","true","j","pattern_15","2576.2999999970198","true","30","","","","","","","","","","","","","","","","","","",""
"","","","","","html-keyboard-response","85","178935","0.0-2.0-5.0-0.32","5d4b265b72db9d0015e8aac6","E1","batch5","","null","<p class=block-text>Trial 33 out of 78</p>","null","pattern_show_trial_num","","","","","","","","","","","","","","","","","","","","","","","","",""
"","","","","","image-keyboard-response","86","180121","0.0-2.0-5.0-1.32","5d4b265b72db9d0015e8aac6","E1","batch5","","1183.7000000029802","stim/no_12_1.png","j","pattern_response","true","j","pattern_01","1183.7000000029802","true","31","","","","","","","","","","","","","","","","","","",""
"","","","","","html-keyboard-response","87","181431","0.0-2.0-5.0-0.33","5d4b265b72db9d0015e8aac6","E1","batch5","","null","<p class=block-text>Trial 34 out of 78</p>","null","pattern_show_trial_num","","","","","","","","","","","","","","","","","","","","","","","","",""
"","","","","","image-keyboard-response","88","185114","0.0-2.0-5.0-1.33","5d4b265b72db9d0015e8aac6","E1","batch5","","3681.1000000089407","stim/no_51_1.png","j","pattern_response","true","j","pattern_31","3681.1000000089407","true","32","","","","","","","","","","","","","","","","","","",""
"","","","","","html-keyboard-response","89","186423","0.0-2.0-5.0-0.34","5d4b265b72db9d0015e8aac6","E1","batch5","","null","<p class=block-text>Trial 35 out of 78</p>","null","pattern_show_trial_num","","","","","","","","","","","","","","","","","","","","","","","","",""
"","","","","","image-keyboard-response","90","189161","0.0-2.0-5.0-1.34","5d4b265b72db9d0015e8aac6","E1","batch5","","2734.8999999910593","stim/no_49_2_b.png","j","pattern_response","true","j","pattern_29","2734.8999999910593","true","33","","","","","","","","","","","","","","","","","","",""
"","","","","","html-keyboard-response","91","190471","0.0-2.0-5.0-0.35","5d4b265b72db9d0015e8aac6","E1","batch5","","null","<p class=block-text>Trial 36 out of 78</p>","null","pattern_show_trial_num","","","","","","","","","","","","","","","","","","","","","","","","",""
"","","","","","image-keyboard-response","92","195291","0.0-2.0-5.0-1.35","5d4b265b72db9d0015e8aac6","E1","batch5","","4816.600000008941","stim/yes_63_dia_b1.png","j","pattern_response","false","f","pattern_78","4816.600000008941","false","33","","","","","","","","","","","","","","","","","","",""
"","","","","","html-keyboard-response","93","196599","0.0-2.0-5.0-0.36","5d4b265b72db9d0015e8aac6","E1","batch5","","null","<p class=block-text>Trial 37 out of 78</p>","null","pattern_show_trial_num","","","","","","","","","","","","","","","","","","","","","","","","",""
"","","","","","image-keyboard-response","94","199306","0.0-2.0-5.0-1.36","5d4b265b72db9d0015e8aac6","E1","batch5","","2704.2000000029802","stim/yes_33_dia_w1_w.png","f","pattern_response","true","f","pattern_56","2704.2000000029802","true","34","","","","","","","","","","","","","","","","","","",""
"","","","","","html-keyboard-response","95","200615","0.0-2.0-5.0-0.37","5d4b265b72db9d0015e8aac6","E1","batch5","","null","<p class=block-text>Trial 38 out of 78</p>","null","pattern_show_trial_num","","","","","","","","","","","","","","","","","","","","","","","","",""
"","","","","","image-keyboard-response","96","202370","0.0-2.0-5.0-1.37","5d4b265b72db9d0015e8aac6","E1","batch5","","1752.5","stim/no_15_1_w.png","j","pattern_response","true","j","pattern_03","1752.5","true","35","","","","","","","","","","","","","","","","","","",""
"","","","","","html-keyboard-response","97","203679","0.0-2.0-5.0-0.38","5d4b265b72db9d0015e8aac6","E1","batch5","","null","<p class=block-text>Trial 39 out of 78</p>","null","pattern_show_trial_num","","","","","","","","","","","","","","","","","","","","","","","","",""
"","","","","","image-keyboard-response","98","206923","0.0-2.0-5.0-1.38","5d4b265b72db9d0015e8aac6","E1","batch5","","3241.9000000059605","stim/yes_53_ver_b1_b.png","j","pattern_response","false","f","pattern_74","3241.9000000059605","false","35","","","","","","","","","","","","","","","","","","",""
"","","","","","image-keyboard-response","99","208707","0.0-2.0-6.0","5d4b265b72db9d0015e8aac6","E1","batch5","","1273.9000000059605","stim/empty_board.png","j","attention_check","true","j","","","","","500","[""f"",""j""]","","","","","","","","","","","","","","","","",""
"","","","","","html-keyboard-response","100","209511","0.0-2.0-7.0-0.0","5d4b265b72db9d0015e8aac6","E1","batch5","","null","<p class=block-text>Trial 40 out of 78</p>","null","pattern_show_trial_num","","","","","","","","","","","","","","","","","","","","","","","","",""
"","","","","","image-keyboard-response","101","213778","0.0-2.0-7.0-1.0","5d4b265b72db9d0015e8aac6","E1","batch5","","4264.29999999702","stim/no_65_1_b.png","j","pattern_response","true","j","pattern_38","4264.29999999702","true","36","","","","","","","","","","","","","","","","","","",""
"","","","","","html-keyboard-response","102","215087","0.0-2.0-7.0-0.1","5d4b265b72db9d0015e8aac6","E1","batch5","","null","<p class=block-text>Trial 41 out of 78</p>","null","pattern_show_trial_num","","","","","","","","","","","","","","","","","","","","","","","","",""
"","","","","","image-keyboard-response","103","218612","0.0-2.0-7.0-1.1","5d4b265b72db9d0015e8aac6","E1","batch5","","3521.5","stim/yes_48_dia_w1_w.png","j","pattern_response","false","f","pattern_69","3521.5","false","36","","","","","","","","","","","","","","","","","","",""
"","","","","","html-keyboard-response","104","219927","0.0-2.0-7.0-0.2","5d4b265b72db9d0015e8aac6","E1","batch5","","null","<p class=block-text>Trial 42 out of 78</p>","null","pattern_show_trial_num","","","","","","","","","","","","","","","","","","","","","","","","",""
"","","","","","image-keyboard-response","105","221666","0.0-2.0-7.0-1.2","5d4b265b72db9d0015e8aac6","E1","batch5","","1736.5","stim/yes_38_hor_b1_b.png","f","pattern_response","true","f","pattern_61","1736.5","true","37","","","","","","","","","","","","","","","","","","",""
"","","","","","html-keyboard-response","106","222975","0.0-2.0-7.0-0.3","5d4b265b72db9d0015e8aac6","E1","batch5","","null","<p class=block-text>Trial 43 out of 78</p>","null","pattern_show_trial_num","","","","","","","","","","","","","","","","","","","","","","","","",""
"","","","","","image-keyboard-response","107","226491","0.0-2.0-7.0-1.3","5d4b265b72db9d0015e8aac6","E1","batch5","","3513.5999999940395","stim/no_62_1_w.png","j","pattern_response","true","j","pattern_36","3513.5999999940395","true","38","","","","","","","","","","","","","","","","","","",""
"","","","","","html-keyboard-response","108","227807","0.0-2.0-7.0-0.4","5d4b265b72db9d0015e8aac6","E1","batch5","","null","<p class=block-text>Trial 44 out of 78</p>","null","pattern_show_trial_num","","","","","","","","","","","","","","","","","","","","","","","","",""
"","","","","","image-keyboard-response","109","229604","0.0-2.0-7.0-1.4","5d4b265b72db9d0015e8aac6","E1","batch5","","1793.7999999970198","stim/no_29_1_b.png","j","pattern_response","true","j","pattern_12","1793.7999999970198","true","39","","","","","","","","","","","","","","","","","","",""
"","","","","","html-keyboard-response","110","230919","0.0-2.0-7.0-0.5","5d4b265b72db9d0015e8aac6","E1","batch5","","null","<p class=block-text>Trial 45 out of 78</p>","null","pattern_show_trial_num","","","","","","","","","","","","","","","","","","","","","","","","",""
"","","","","","image-keyboard-response","111","232548","0.0-2.0-7.0-1.5","5d4b265b72db9d0015e8aac6","E1","batch5","","1625.7999999970198","stim/yes_29_ver_w1.png","f","pattern_response","true","f","pattern_53","1625.7999999970198","true","40","","","","","","","","","","","","","","","","","","",""
"","","","","","html-keyboard-response","112","233863","0.0-2.0-7.0-0.6","5d4b265b72db9d0015e8aac6","E1","batch5","","null","<p class=block-text>Trial 46 out of 78</p>","null","pattern_show_trial_num","","","","","","","","","","","","","","","","","","","","","","","","",""
"","","","","","image-keyboard-response","113","234628","0.0-2.0-7.0-1.6","5d4b265b72db9d0015e8aac6","E1","batch5","","762.7999999970198","stim/no_17_1_w.png","j","pattern_response","true","j","pattern_04","762.7999999970198","true","41","","","","","","","","","","","","","","","","","","",""
"","","","","","html-keyboard-response","114","235943","0.0-2.0-7.0-0.7","5d4b265b72db9d0015e8aac6","E1","batch5","","null","<p class=block-text>Trial 47 out of 78</p>","null","pattern_show_trial_num","","","","","","","","","","","","","","","","","","","","","","","","",""
"","","","","","image-keyboard-response","115","238036","0.0-2.0-7.0-1.7","5d4b265b72db9d0015e8aac6","E1","batch5","","2091","stim/no_38_1_b.png","j","pattern_response","true","j","pattern_20","2091","true","42","","","","","","","","","","","","","","","","","","",""
"","","","","","html-keyboard-response","116","239351","0.0-2.0-7.0-0.8","5d4b265b72db9d0015e8aac6","E1","batch5","","null","<p class=block-text>Trial 48 out of 78</p>","null","pattern_show_trial_num","","","","","","","","","","","","","","","","","","","","","","","","",""
"","","","","","image-keyboard-response","117","242221","0.0-2.0-7.0-1.8","5d4b265b72db9d0015e8aac6","E1","batch5","","2866.6000000089407","stim/no_42_1_w.png","j","pattern_response","true","j","pattern_22","2866.6000000089407","true","43","","","","","","","","","","","","","","","","","","",""
"","","","","","html-keyboard-response","118","243535","0.0-2.0-7.0-0.9","5d4b265b72db9d0015e8aac6","E1","batch5","","null","<p class=block-text>Trial 49 out of 78</p>","null","pattern_show_trial_num","","","","","","","","","","","","","","","","","","","","","","","","",""
"","","","","","image-keyboard-response","119","248749","0.0-2.0-7.0-1.9","5d4b265b72db9d0015e8aac6","E1","batch5","","5210.5","stim/no_55_1_w.png","j","pattern_response","true","j","pattern_34","5210.5","true","44","","","","","","","","","","","","","","","","","","",""
"","","","","","html-keyboard-response","120","250063","0.0-2.0-7.0-0.10","5d4b265b72db9d0015e8aac6","E1","batch5","","null","<p class=block-text>Trial 50 out of 78</p>","null","pattern_show_trial_num","","","","","","","","","","","","","","","","","","","","","","","","",""
"","","","","","image-keyboard-response","121","251093","0.0-2.0-7.0-1.10","5d4b265b72db9d0015e8aac6","E1","batch5","","1026.5","stim/yes_25_hor_b1_b.png","f","pattern_response","true","f","pattern_49","1026.5","true","45","","","","","","","","","","","","","","","","","","",""
"","","","","","html-keyboard-response","122","252407","0.0-2.0-7.0-0.11","5d4b265b72db9d0015e8aac6","E1","batch5","","null","<p class=block-text>Trial 51 out of 78</p>","null","pattern_show_trial_num","","","","","","","","","","","","","","","","","","","","","","","","",""
"","","","","","image-keyboard-response","123","256981","0.0-2.0-7.0-1.11","5d4b265b72db9d0015e8aac6","E1","batch5","","4571.20000000298","stim/no_70_2.png","j","pattern_response","true","j","pattern_40","4571.20000000298","true","46","","","","","","","","","","","","","","","","","","",""
"","","","","","html-keyboard-response","124","258295","0.0-2.0-7.0-0.12","5d4b265b72db9d0015e8aac6","E1","batch5","","null","<p class=block-text>Trial 52 out of 78</p>","null","pattern_show_trial_num","","","","","","","","","","","","","","","","","","","","","","","","",""
"","","","","","image-keyboard-response","125","262253","0.0-2.0-7.0-1.12","5d4b265b72db9d0015e8aac6","E1","batch5","","3954.800000011921","stim/yes_50_dia_w1.png","j","pattern_response","false","f","pattern_71","3954.800000011921","false","46","","","","","","","","","","","","","","","","","","",""
"","","","","","html-keyboard-response","126","263567","0.0-2.0-7.0-0.13","5d4b265b72db9d0015e8aac6","E1","batch5","","null","<p class=block-text>Trial 53 out of 78</p>","null","pattern_show_trial_num","","","","","","","","","","","","","","","","","","","","","","","","",""
"","","","","","image-keyboard-response","127","266749","0.0-2.0-7.0-1.13","5d4b265b72db9d0015e8aac6","E1","batch5","","3179.0999999940395","stim/no_34_1_b.png","j","pattern_response","true","j","pattern_16","3179.0999999940395","true","47","","","","","","","","","","","","","","","","","","",""
"","","","","","html-keyboard-response","128","268063","0.0-2.0-7.0-0.14","5d4b265b72db9d0015e8aac6","E1","batch5","","null","<p class=block-text>Trial 54 out of 78</p>","null","pattern_show_trial_num","","","","","","","","","","","","","","","","","","","","","","","","",""
"","","","","","image-keyboard-response","129","269094","0.0-2.0-7.0-1.14","5d4b265b72db9d0015e8aac6","E1","batch5","","1027.5","stim/yes_14_hor_b1_w.png","f","pattern_response","true","f","pattern_43","1027.5","true","48","","","","","","","","","","","","","","","","","","",""
"","","","","","html-keyboard-response","130","270407","0.0-2.0-7.0-0.15","5d4b265b72db9d0015e8aac6","E1","batch5","","null","<p class=block-text>Trial 55 out of 78</p>","null","pattern_show_trial_num","","","","","","","","","","","","","","","","","","","","","","","","",""
"","","","","","image-keyboard-response","131","272790","0.0-2.0-7.0-1.15","5d4b265b72db9d0015e8aac6","E1","batch5","","2379.5","stim/no_32_1_w.png","j","pattern_response","true","j","pattern_14","2379.5","true","49","","","","","","","","","","","","","","","","","","",""
"","","","","","html-keyboard-response","132","274103","0.0-2.0-7.0-0.16","5d4b265b72db9d0015e8aac6","E1","batch5","","null","<p class=block-text>Trial 56 out of 78</p>","null","pattern_show_trial_num","","","","","","","","","","","","","","","","","","","","","","","","",""
"","","","","","image-keyboard-response","133","276670","0.0-2.0-7.0-1.16","5d4b265b72db9d0015e8aac6","E1","batch5","","2564.5999999940395","stim/yes_55_hor_w1_w.png","f","pattern_response","true","f","pattern_75","2564.5999999940395","true","50","","","","","","","","","","","","","","","","","","",""
"","","","","","html-keyboard-response","134","277983","0.0-2.0-7.0-0.17","5d4b265b72db9d0015e8aac6","E1","batch5","","null","<p class=block-text>Trial 57 out of 78</p>","null","pattern_show_trial_num","","","","","","","","","","","","","","","","","","","","","","","","",""
"","","","","","image-keyboard-response","135","279006","0.0-2.0-7.0-1.17","5d4b265b72db9d0015e8aac6","E1","batch5","","1019.5","stim/yes_67_hor_b1.png","f","pattern_response","true","f","pattern_79","1019.5","true","51","","","","","","","","","","","","","","","","","","",""
"","","","","","html-keyboard-response","136","280319","0.0-2.0-7.0-0.18","5d4b265b72db9d0015e8aac6","E1","batch5","","null","<p class=block-text>Trial 58 out of 78</p>","null","pattern_show_trial_num","","","","","","","","","","","","","","","","","","","","","","","","",""
"","","","","","image-keyboard-response","137","283654","0.0-2.0-7.0-1.18","5d4b265b72db9d0015e8aac6","E1","batch5","","3332.5","stim/no_50_1.png","j","pattern_response","true","j","pattern_30","3332.5","true","52","","","","","","","","","","","","","","","","","","",""
"","","","","","html-keyboard-response","138","284967","0.0-2.0-7.0-0.19","5d4b265b72db9d0015e8aac6","E1","batch5","","null","<p class=block-text>Trial 59 out of 78</p>","null","pattern_show_trial_num","","","","","","","","","","","","","","","","","","","","","","","","",""
"","","","","","image-keyboard-response","139","285878","0.0-2.0-7.0-1.19","5d4b265b72db9d0015e8aac6","E1","batch5","","908.2999999970198","stim/yes_43_ver_w1_w.png","f","pattern_response","true","f","pattern_65","908.2999999970198","true","53","","","","","","","","","","","","","","","","","","",""
"","","","","","html-keyboard-response","140","287191","0.0-2.0-7.0-0.20","5d4b265b72db9d0015e8aac6","E1","batch5","","null","<p class=block-text>Trial 60 out of 78</p>","null","pattern_show_trial_num","","","","","","","","","","","","","","","","","","","","","","","","",""
"","","","","","image-keyboard-response","141","288998","0.0-2.0-7.0-1.20","5d4b265b72db9d0015e8aac6","E1","batch5","","1805.0999999940395","stim/no_26_1_w.png","j","pattern_response","true","j","pattern_10","1805.0999999940395","true","54","","","","","","","","","","","","","","","","","","",""
"","","","","","html-keyboard-response","142","290311","0.0-2.0-7.0-0.21","5d4b265b72db9d0015e8aac6","E1","batch5","","null","<p class=block-text>Trial 61 out of 78</p>","null","pattern_show_trial_num","","","","","","","","","","","","","","","","","","","","","","","","",""
"","","","","","image-keyboard-response","143","291845","0.0-2.0-7.0-1.21","5d4b265b72db9d0015e8aac6","E1","batch5","","1531.7000000029802","stim/yes_22_ver_w1.png","f","pattern_response","true","f","pattern_47","1531.7000000029802","true","55","","","","","","","","","","","","","","","","","","",""
"","","","","","html-keyboard-response","144","293159","0.0-2.0-7.0-0.22","5d4b265b72db9d0015e8aac6","E1","batch5","","null","<p class=block-text>Trial 62 out of 78</p>","null","pattern_show_trial_num","","","","","","","","","","","","","","","","","","","","","","","","",""
"","","","","","image-keyboard-response","145","295583","0.0-2.0-7.0-1.22","5d4b265b72db9d0015e8aac6","E1","batch5","","2421.699999988079","stim/yes_37_dia_w1.png","j","pattern_response","false","f","pattern_59","2421.699999988079","false","55","","","","","","","","","","","","","","","","","","",""
"","","","","","html-keyboard-response","146","296895","0.0-2.0-7.0-0.23","5d4b265b72db9d0015e8aac6","E1","batch5","","null","<p class=block-text>Trial 63 out of 78</p>","null","pattern_show_trial_num","","","","","","","","","","","","","","","","","","","","","","","","",""
"","","","","","image-keyboard-response","147","297863","0.0-2.0-7.0-1.23","5d4b265b72db9d0015e8aac6","E1","batch5","","964.6000000089407","stim/yes_28_ver_b1.png","f","pattern_response","true","f","pattern_51","964.6000000089407","true","56","","","","","","","","","","","","","","","","","","",""
"","","","","","html-keyboard-response","148","299175","0.0-2.0-7.0-0.24","5d4b265b72db9d0015e8aac6","E1","batch5","","null","<p class=block-text>Trial 64 out of 78</p>","null","pattern_show_trial_num","","","","","","","","","","","","","","","","","","","","","","","","",""
"","","","","","image-keyboard-response","149","301815","0.0-2.0-7.0-1.24","5d4b265b72db9d0015e8aac6","E1","batch5","","2637.5999999940395","stim/yes_35_dia_b1.png","f","pattern_response","true","f","pattern_57","2637.5999999940395","true","57","","","","","","","","","","","","","","","","","","",""
"","","","","","html-keyboard-response","150","303127","0.0-2.0-7.0-0.25","5d4b265b72db9d0015e8aac6","E1","batch5","","null","<p class=block-text>Trial 65 out of 78</p>","null","pattern_show_trial_num","","","","","","","","","","","","","","","","","","","","","","","","",""
"","","","","","image-keyboard-response","151","306575","0.0-2.0-7.0-1.25","5d4b265b72db9d0015e8aac6","E1","batch5","","3445.0999999940395","stim/no_52_1.png","j","pattern_response","true","j","pattern_32","3445.0999999940395","true","58","","","","","","","","","","","","","","","","","","",""
"","","","","","html-keyboard-response","152","307887","0.0-2.0-7.0-0.26","5d4b265b72db9d0015e8aac6","E1","batch5","","null","<p class=block-text>Trial 66 out of 78</p>","null","pattern_show_trial_num","","","","","","","","","","","","","","","","","","","","","","","","",""
"","","","","","image-keyboard-response","153","309750","0.0-2.0-7.0-1.26","5d4b265b72db9d0015e8aac6","E1","batch5","","1860.2000000029802","stim/no_23_1.png","j","pattern_response","true","j","pattern_08","1860.2000000029802","true","59","","","","","","","","","","","","","","","","","","",""
"","","","","","html-keyboard-response","154","311063","0.0-2.0-7.0-0.27","5d4b265b72db9d0015e8aac6","E1","batch5","","null","<p class=block-text>Trial 67 out of 78</p>","null","pattern_show_trial_num","","","","","","","","","","","","","","","","","","","","","","","","",""
"","","","","","image-keyboard-response","155","314263","0.0-2.0-7.0-1.27","5d4b265b72db9d0015e8aac6","E1","batch5","","3197.6000000089407","stim/no_48_1_w.png","j","pattern_response","true","j","pattern_28","3197.6000000089407","true","60","","","","","","","","","","","","","","","","","","",""
"","","","","","html-keyboard-response","156","315575","0.0-2.0-7.0-0.28","5d4b265b72db9d0015e8aac6","E1","batch5","","null","<p class=block-text>Trial 68 out of 78</p>","null","pattern_show_trial_num","","","","","","","","","","","","","","","","","","","","","","","","",""
"","","","","","image-keyboard-response","157","316952","0.0-2.0-7.0-1.28","5d4b265b72db9d0015e8aac6","E1","batch5","","1373.699999988079","stim/no_20_1_w.png","j","pattern_response","true","j","pattern_06","1373.699999988079","true","61","","","","","","","","","","","","","","","","","","",""
"","","","","","html-keyboard-response","158","318263","0.0-2.0-7.0-0.29","5d4b265b72db9d0015e8aac6","E1","batch5","","null","<p class=block-text>Trial 69 out of 78</p>","null","pattern_show_trial_num","","","","","","","","","","","","","","","","","","","","","","","","",""
"","","","","","image-keyboard-response","159","319120","0.0-2.0-7.0-1.29","5d4b265b72db9d0015e8aac6","E1","batch5","","854.5","stim/yes_17_dia_w1.png","f","pattern_response","true","f","pattern_45","854.5","true","62","","","","","","","","","","","","","","","","","","",""
"","","","","","html-keyboard-response","160","320431","0.0-2.0-7.0-0.30","5d4b265b72db9d0015e8aac6","E1","batch5","","null","<p class=block-text>Trial 70 out of 78</p>","null","pattern_show_trial_num","","","","","","","","","","","","","","","","","","","","","","","","",""
"","","","","","image-keyboard-response","161","323144","0.0-2.0-7.0-1.30","5d4b265b72db9d0015e8aac6","E1","batch5","","2709.7999999970198","stim/no_46_1_b.png","j","pattern_response","true","j","pattern_26","2709.7999999970198","true","63","","","","","","","","","","","","","","","","","","",""
"","","","","","html-keyboard-response","162","324455","0.0-2.0-7.0-0.31","5d4b265b72db9d0015e8aac6","E1","batch5","","null","<p class=block-text>Trial 71 out of 78</p>","null","pattern_show_trial_num","","","","","","","","","","","","","","","","","","","","","","","","",""
"","","","","","image-keyboard-response","163","326160","0.0-2.0-7.0-1.31","5d4b265b72db9d0015e8aac6","E1","batch5","","1702","stim/yes_31_hor_b1.png","f","pattern_response","true","f","pattern_55","1702","true","64","","","","","","","","","","","","","","","","","","",""
"","","","","","html-keyboard-response","164","327471","0.0-2.0-7.0-0.32","5d4b265b72db9d0015e8aac6","E1","batch5","","null","<p class=block-text>Trial 72 out of 78</p>","null","pattern_show_trial_num","","","","","","","","","","","","","","","","","","","","","","","","",""
"","","","","","image-keyboard-response","165","328784","0.0-2.0-7.0-1.32","5d4b265b72db9d0015e8aac6","E1","batch5","","1311.0999999940395","stim/yes_60_ver_b1_b.png","f","pattern_response","true","f","pattern_77","1311.0999999940395","true","65","","","","","","","","","","","","","","","","","","",""
"","","","","","html-keyboard-response","166","330095","0.0-2.0-7.0-0.33","5d4b265b72db9d0015e8aac6","E1","batch5","","null","<p class=block-text>Trial 73 out of 78</p>","null","pattern_show_trial_num","","","","","","","","","","","","","","","","","","","","","","","","",""
"","","","","","image-keyboard-response","167","331536","0.0-2.0-7.0-1.33","5d4b265b72db9d0015e8aac6","E1","batch5","","1439","stim/no_36_2_w.png","j","pattern_response","true","j","pattern_18","1439","true","66","","","","","","","","","","","","","","","","","","",""
"","","","","","html-keyboard-response","168","332847","0.0-2.0-7.0-0.34","5d4b265b72db9d0015e8aac6","E1","batch5","","null","<p class=block-text>Trial 74 out of 78</p>","null","pattern_show_trial_num","","","","","","","","","","","","","","","","","","","","","","","","",""
"","","","","","image-keyboard-response","169","334024","0.0-2.0-7.0-1.34","5d4b265b72db9d0015e8aac6","E1","batch5","","1174.2000000029802","stim/yes_45_hor_b2_b.png","f","pattern_response","true","f","pattern_67","1174.2000000029802","true","67","","","","","","","","","","","","","","","","","","",""
"","","","","","html-keyboard-response","170","335335","0.0-2.0-7.0-0.35","5d4b265b72db9d0015e8aac6","E1","batch5","","null","<p class=block-text>Trial 75 out of 78</p>","null","pattern_show_trial_num","","","","","","","","","","","","","","","","","","","","","","","","",""
"","","","","","image-keyboard-response","171","336728","0.0-2.0-7.0-1.35","5d4b265b72db9d0015e8aac6","E1","batch5","","1391.199999988079","stim/yes_40_dia_b1_b.png","f","pattern_response","true","f","pattern_63","1391.199999988079","true","68","","","","","","","","","","","","","","","","","","",""
"","","","","","html-keyboard-response","172","338039","0.0-2.0-7.0-0.36","5d4b265b72db9d0015e8aac6","E1","batch5","","null","<p class=block-text>Trial 76 out of 78</p>","null","pattern_show_trial_num","","","","","","","","","","","","","","","","","","","","","","","","",""
"","","","","","image-keyboard-response","173","338768","0.0-2.0-7.0-1.36","5d4b265b72db9d0015e8aac6","E1","batch5","","727.2000000029802","stim/no_13_2_b.png","j","pattern_response","true","j","pattern_02","727.2000000029802","true","69","","","","","","","","","","","","","","","","","","",""
"","","","","","html-keyboard-response","174","340079","0.0-2.0-7.0-0.37","5d4b265b72db9d0015e8aac6","E1","batch5","","null","<p class=block-text>Trial 77 out of 78</p>","null","pattern_show_trial_num","","","","","","","","","","","","","","","","","","","","","","","","",""
"","","","","","image-keyboard-response","175","343185","0.0-2.0-7.0-1.37","5d4b265b72db9d0015e8aac6","E1","batch5","","3103.9000000059605","stim/no_44_1.png","j","pattern_response","true","j","pattern_24","3103.9000000059605","true","70","","","","","","","","","","","","","","","","","","",""
"","","","","","html-keyboard-response","176","344495","0.0-2.0-7.0-0.38","5d4b265b72db9d0015e8aac6","E1","batch5","","null","<p class=block-text>Trial 78 out of 78</p>","null","pattern_show_trial_num","","","","","","","","","","","","","","","","","","","","","","","","",""
"","","","","","image-keyboard-response","177","346209","0.0-2.0-7.0-1.38","5d4b265b72db9d0015e8aac6","E1","batch5","","1710.7000000029802","stim/yes_52_ver_w1.png","f","pattern_response","true","f","pattern_73","1710.7000000029802","true","71","","","","","","","","","","","","","","","","","","",""
"","","","","","html-button-response","178","350523","0.0-2.0-8.0","5d4b265b72db9d0015e8aac6","E1","batch5","","3810","<p class = block-text>This concludes the 4-in-a-row detection game.Thank you for your responses!<br>
            You responded correctly on 91% of the trials.<br>
            When you are ready, press ""Continue"" button to continue </p>","0","","","","","","","","","","","","","","","","","","","","","","","","","",""
"true","","","","","fullscreen","179","354559","0.0-3.0-0.0","5d4b265b72db9d0015e8aac6","E1","batch5","","","","","spm_fullscreen","","","","","","","","","","","","","","","","","","","","","","","","",""
"","","","","","html-button-response","180","361943","0.0-3.0-1.0","5d4b265b72db9d0015e8aac6","E1","batch5","","7381.79999999702","<p class = block-text><b>Instructions</b> <br>This is a widely used intelligence test in research. <br>In this test, a figure with a missing piece will be presented.<br>Below the figure are alternative pieces to complete the figure, only one of which is correct.<br> Different figures might involve different principles for obtaining the missing piece<br>Your job is to select the most logical piece to complete the figure.</p>","0","","","","","","","","","","","","","","","","","","","","","","","","","",""
"","","","","","html-keyboard-response","181","362751","0.0-3.0-2.0-0.0","5d4b265b72db9d0015e8aac6","E1","batch5","","null","<p class=block-text>Trial 1 out of 60</p>","null","spm_show_trial_num","","","","","","","","","","","","","","","","","","","","","","","","",""
"","","","","","image-button-response","182","371719","0.0-3.0-2.0-1.0","5d4b265b72db9d0015e8aac6","E1","batch5","","8961.90000000596","img/question_1_1.jpeg","3","spm_respsonse","1","4","mat_01","","","","","","1","8961.90000000596","","","","","","","","","","","","","","",""
"","","","","","html-keyboard-response","183","372782","0.0-3.0-2.0-0.1","5d4b265b72db9d0015e8aac6","E1","batch5","","null","<p class=block-text>Trial 2 out of 60</p>","null","spm_show_trial_num","","","","","","","","","","","","","","","","","","","","","","","","",""
"","","","","","image-button-response","184","377506","0.0-3.0-2.0-1.1","5d4b265b72db9d0015e8aac6","E1","batch5","","4720.5","img/question_1_2.jpeg","4","spm_respsonse","1","5","mat_02","","","","","","1","4720.5","","","","","","","","","","","","","","",""
"","","","","","html-keyboard-response","185","378567","0.0-3.0-2.0-0.2","5d4b265b72db9d0015e8aac6","E1","batch5","","null","<p class=block-text>Trial 3 out of 60</p>","null","spm_show_trial_num","","","","","","","","","","","","","","","","","","","","","","","","",""
"","","","","","image-button-response","186","390931","0.0-3.0-2.0-1.2","5d4b265b72db9d0015e8aac6","E1","batch5","","12360","img/question_1_3.jpeg","0","spm_respsonse","1","1","mat_03","","","","","","1","12360","","","","","","","","","","","","","","",""
"","","","","","html-keyboard-response","187","391983","0.0-3.0-2.0-0.3","5d4b265b72db9d0015e8aac6","E1","batch5","","null","<p class=block-text>Trial 4 out of 60</p>","null","spm_show_trial_num","","","","","","","","","","","","","","","","","","","","","","","","",""
"","","","","","image-button-response","188","400357","0.0-3.0-2.0-1.3","5d4b265b72db9d0015e8aac6","E1","batch5","","8370.20000000298","img/question_1_4.jpeg","1","spm_respsonse","1","2","mat_04","","","","","","1","8370.20000000298","","","","","","","","","","","","","","",""
"","","","","","html-keyboard-response","189","401415","0.0-3.0-2.0-0.4","5d4b265b72db9d0015e8aac6","E1","batch5","","null","<p class=block-text>Trial 5 out of 60</p>","null","spm_show_trial_num","","","","","","","","","","","","","","","","","","","","","","","","",""
"","","","","","image-button-response","190","423941","0.0-3.0-2.0-1.4","5d4b265b72db9d0015e8aac6","E1","batch5","","22522.90000000596","img/question_1_5.jpeg","5","spm_respsonse","1","6","mat_05","","","","","","1","22522.90000000596","","","","","","","","","","","","","","",""
"","","","","","html-keyboard-response","191","424999","0.0-3.0-2.0-0.5","5d4b265b72db9d0015e8aac6","E1","batch5","","null","<p class=block-text>Trial 6 out of 60</p>","null","spm_show_trial_num","","","","","","","","","","","","","","","","","","","","","","","","",""
"","","","","","image-button-response","192","432796","0.0-3.0-2.0-1.5","5d4b265b72db9d0015e8aac6","E1","batch5","","7792.79999999702","img/question_1_6.jpeg","2","spm_respsonse","1","3","mat_06","","","","","","1","7792.79999999702","","","","","","","","","","","","","","",""
"","","","","","html-keyboard-response","193","433855","0.0-3.0-2.0-0.6","5d4b265b72db9d0015e8aac6","E1","batch5","","null","<p class=block-text>Trial 7 out of 60</p>","null","spm_show_trial_num","","","","","","","","","","","","","","","","","","","","","","","","",""
"","","","","","image-button-response","194","444266","0.0-3.0-2.0-1.6","5d4b265b72db9d0015e8aac6","E1","batch5","","10407.10000000894","img/question_1_7.jpeg","1","spm_respsonse","0","6","mat_07","","","","","","0","10407.10000000894","","","","","","","","","","","","","","",""
"","","","","","html-keyboard-response","195","445327","0.0-3.0-2.0-0.7","5d4b265b72db9d0015e8aac6","E1","batch5","","null","<p class=block-text>Trial 8 out of 60</p>","null","spm_show_trial_num","","","","","","","","","","","","","","","","","","","","","","","","",""
"","","","","","image-button-response","196","456538","0.0-3.0-2.0-1.7","5d4b265b72db9d0015e8aac6","E1","batch5","","11207.79999999702","img/question_1_8.jpeg","1","spm_respsonse","1","2","mat_08","","","","","","1","11207.79999999702","","","","","","","","","","","","","","",""
"","","","","","html-keyboard-response","197","457599","0.0-3.0-2.0-0.8","5d4b265b72db9d0015e8aac6","E1","batch5","","null","<p class=block-text>Trial 9 out of 60</p>","null","spm_show_trial_num","","","","","","","","","","","","","","","","","","","","","","","","",""
"","","","","","image-button-response","198","467361","0.0-3.0-2.0-1.8","5d4b265b72db9d0015e8aac6","E1","batch5","","9758","img/question_1_9.jpeg","0","spm_respsonse","1","1","mat_09","","","","","","1","9758","","","","","","","","","","","","","","",""
"","","","","","html-keyboard-response","199","468415","0.0-3.0-2.0-0.9","5d4b265b72db9d0015e8aac6","E1","batch5","","null","<p class=block-text>Trial 10 out of 60</p>","null","spm_show_trial_num","","","","","","","","","","","","","","","","","","","","","","","","",""
"","","","","","image-button-response","200","475510","0.0-3.0-2.0-1.9","5d4b265b72db9d0015e8aac6","E1","batch5","","7091.600000008941","img/question_1_10.jpeg","2","spm_respsonse","1","3","mat_10","","","","","","1","7091.600000008941","","","","","","","","","","","","","","",""
"","","","","","html-keyboard-response","201","476562","0.0-3.0-2.0-0.10","5d4b265b72db9d0015e8aac6","E1","batch5","","null","<p class=block-text>Trial 11 out of 60</p>","null","spm_show_trial_num","","","","","","","","","","","","","","","","","","","","","","","","",""
"","","","","","image-button-response","202","500487","0.0-3.0-2.0-1.10","5d4b265b72db9d0015e8aac6","E1","batch5","","23921.40000000596","img/question_1_11.jpeg","3","spm_respsonse","1","4","mat_11","","","","","","1","23921.40000000596","","","","","","","","","","","","","","",""
"","","","","","html-keyboard-response","203","501543","0.0-3.0-2.0-0.11","5d4b265b72db9d0015e8aac6","E1","batch5","","null","<p class=block-text>Trial 12 out of 60</p>","null","spm_show_trial_num","","","","","","","","","","","","","","","","","","","","","","","","",""
"","","","","","image-button-response","204","525230","0.0-3.0-2.0-1.11","5d4b265b72db9d0015e8aac6","E1","batch5","","23683.59999999404","img/question_1_12.jpeg","4","spm_respsonse","1","5","mat_12","","","","","","1","23683.59999999404","","","","","","","","","","","","","","",""
"","","","","","html-keyboard-response","205","526290","0.0-3.0-2.0-0.12","5d4b265b72db9d0015e8aac6","E1","batch5","","null","<p class=block-text>Trial 13 out of 60</p>","null","spm_show_trial_num","","","","","","","","","","","","","","","","","","","","","","","","",""
"","","","","","image-button-response","206","529818","0.0-3.0-2.0-1.12","5d4b265b72db9d0015e8aac6","E1","batch5","","3524.3999999910593","img/question_2_1.jpeg","1","spm_respsonse","1","2","mat_13","","","","","","1","3524.3999999910593","","","","","","","","","","","","","","",""
"","","","","","html-keyboard-response","207","530875","0.0-3.0-2.0-0.13","5d4b265b72db9d0015e8aac6","E1","batch5","","null","<p class=block-text>Trial 14 out of 60</p>","null","spm_show_trial_num","","","","","","","","","","","","","","","","","","","","","","","","",""
"","","","","","image-button-response","208","536116","0.0-3.0-2.0-1.13","5d4b265b72db9d0015e8aac6","E1","batch5","","5237","img/question_2_2.jpeg","5","spm_respsonse","1","6","mat_14","","","","","","1","5237","","","","","","","","","","","","","","",""
"","","","","","html-keyboard-response","209","537169","0.0-3.0-2.0-0.14","5d4b265b72db9d0015e8aac6","E1","batch5","","null","<p class=block-text>Trial 15 out of 60</p>","null","spm_show_trial_num","","","","","","","","","","","","","","","","","","","","","","","","",""
"","","","","","image-button-response","210","541740","0.0-3.0-2.0-1.14","5d4b265b72db9d0015e8aac6","E1","batch5","","4567.399999991059","img/question_2_3.jpeg","0","spm_respsonse","1","1","mat_15","","","","","","1","4567.399999991059","","","","","","","","","","","","","","",""
"","","","","","html-keyboard-response","211","542795","0.0-3.0-2.0-0.15","5d4b265b72db9d0015e8aac6","E1","batch5","","null","<p class=block-text>Trial 16 out of 60</p>","null","spm_show_trial_num","","","","","","","","","","","","","","","","","","","","","","","","",""
"","","","","","image-button-response","212","560264","0.0-3.0-2.0-1.15","5d4b265b72db9d0015e8aac6","E1","batch5","","17466.29999999702","img/question_2_4.jpeg","1","spm_respsonse","1","2","mat_16","","","","","","1","17466.29999999702","","","","","","","","","","","","","","",""
"","","","","","html-keyboard-response","213","561327","0.0-3.0-2.0-0.16","5d4b265b72db9d0015e8aac6","E1","batch5","","null","<p class=block-text>Trial 17 out of 60</p>","null","spm_show_trial_num","","","","","","","","","","","","","","","","","","","","","","","","",""
"","","","","","image-button-response","214","580632","0.0-3.0-2.0-1.16","5d4b265b72db9d0015e8aac6","E1","batch5","","19301.20000000298","img/question_2_5.jpeg","0","spm_respsonse","1","1","mat_17","","","","","","1","19301.20000000298","","","","","","","","","","","","","","",""
"","","","","","html-keyboard-response","215","581690","0.0-3.0-2.0-0.17","5d4b265b72db9d0015e8aac6","E1","batch5","","null","<p class=block-text>Trial 18 out of 60</p>","null","spm_show_trial_num","","","","","","","","","","","","","","","","","","","","","","","","",""
"","","","","","image-button-response","216","642206","0.0-3.0-2.0-1.17","5d4b265b72db9d0015e8aac6","E1","batch5","","60512.20000000298","img/question_2_6.jpeg","2","spm_respsonse","1","3","mat_18","","","","","","1","60512.20000000298","","","","","","","","","","","","","","",""
"","","","","","html-keyboard-response","217","643271","0.0-3.0-2.0-0.18","5d4b265b72db9d0015e8aac6","E1","batch5","","null","<p class=block-text>Trial 19 out of 60</p>","null","spm_show_trial_num","","","","","","","","","","","","","","","","","","","","","","","","",""
"","","","","","image-button-response","218","658030","0.0-3.0-2.0-1.18","5d4b265b72db9d0015e8aac6","E1","batch5","","14755.39999999106","img/question_2_7.jpeg","4","spm_respsonse","1","5","mat_19","","","","","","1","14755.39999999106","","","","","","","","","","","","","","",""
"","","","","","html-keyboard-response","219","659095","0.0-3.0-2.0-0.19","5d4b265b72db9d0015e8aac6","E1","batch5","","null","<p class=block-text>Trial 20 out of 60</p>","null","spm_show_trial_num","","","","","","","","","","","","","","","","","","","","","","","","",""
"","","","","","image-button-response","220","667610","0.0-3.0-2.0-1.19","5d4b265b72db9d0015e8aac6","E1","batch5","","8511.20000000298","img/question_2_8.jpeg","5","spm_respsonse","1","6","mat_20","","","","","","1","8511.20000000298","","","","","","","","","","","","","","",""
"","","","","","html-keyboard-response","221","668671","0.0-3.0-2.0-0.20","5d4b265b72db9d0015e8aac6","E1","batch5","","null","<p class=block-text>Trial 21 out of 60</p>","null","spm_show_trial_num","","","","","","","","","","","","","","","","","","","","","","","","",""
"","","","","","image-button-response","222","673333","0.0-3.0-2.0-1.20","5d4b265b72db9d0015e8aac6","E1","batch5","","4658.20000000298","img/question_2_9.jpeg","3","spm_respsonse","1","4","mat_21","","","","","","1","4658.20000000298","","","","","","","","","","","","","","",""
"","","","","","html-keyboard-response","223","674391","0.0-3.0-2.0-0.21","5d4b265b72db9d0015e8aac6","E1","batch5","","null","<p class=block-text>Trial 22 out of 60</p>","null","spm_show_trial_num","","","","","","","","","","","","","","","","","","","","","","","","",""
"","","","","","image-button-response","224","679381","0.0-3.0-2.0-1.21","5d4b265b72db9d0015e8aac6","E1","batch5","","4986.79999999702","img/question_2_10.jpeg","2","spm_respsonse","1","3","mat_22","","","","","","1","4986.79999999702","","","","","","","","","","","","","","",""
"","","","","","html-keyboard-response","225","680439","0.0-3.0-2.0-0.22","5d4b265b72db9d0015e8aac6","E1","batch5","","null","<p class=block-text>Trial 23 out of 60</p>","null","spm_show_trial_num","","","","","","","","","","","","","","","","","","","","","","","","",""
"","","","","","image-button-response","226","683787","0.0-3.0-2.0-1.22","5d4b265b72db9d0015e8aac6","E1","batch5","","3344.7000000029802","img/question_2_11.jpeg","3","spm_respsonse","1","4","mat_23","","","","","","1","3344.7000000029802","","","","","","","","","","","","","","",""
"","","","","","html-keyboard-response","227","684847","0.0-3.0-2.0-0.23","5d4b265b72db9d0015e8aac6","E1","batch5","","null","<p class=block-text>Trial 24 out of 60</p>","null","spm_show_trial_num","","","","","","","","","","","","","","","","","","","","","","","","",""
"","","","","","image-button-response","228","693230","0.0-3.0-2.0-1.23","5d4b265b72db9d0015e8aac6","E1","batch5","","8379.29999999702","img/question_2_12.jpeg","4","spm_respsonse","1","5","mat_24","","","","","","1","8379.29999999702","","","","","","","","","","","","","","",""
"","","","","","html-button-response","229","695046","0.0-3.0-3.0","5d4b265b72db9d0015e8aac6","E1","batch5","","1558.0999999940395","<p class = block-text>Attention check: Please choose 1<br></p>","0","attention_check","true","","","","","","","","","","","","","","","","","","","","","","","",""
"","","","","","html-keyboard-response","230","695847","0.0-3.0-4.0-0.0","5d4b265b72db9d0015e8aac6","E1","batch5","","null","<p class=block-text>Trial 25 out of 60</p>","null","spm_show_trial_num","","","","","","","","","","","","","","","","","","","","","","","","",""
"","","","","","image-button-response","231","704274","0.0-3.0-4.0-1.0","5d4b265b72db9d0015e8aac6","E1","batch5","","8423.20000000298","img/question_3_1.jpeg","7","spm_respsonse","1","8","mat_25","","","","","","1","8423.20000000298","","","","","","","","","","","","","","",""
"","","","","","html-keyboard-response","232","705335","0.0-3.0-4.0-0.1","5d4b265b72db9d0015e8aac6","E1","batch5","","null","<p class=block-text>Trial 26 out of 60</p>","null","spm_show_trial_num","","","","","","","","","","","","","","","","","","","","","","","","",""
"","","","","","image-button-response","233","719487","0.0-3.0-4.0-1.1","5d4b265b72db9d0015e8aac6","E1","batch5","","14148","img/question_3_2.jpeg","1","spm_respsonse","1","2","mat_26","","","","","","1","14148","","","","","","","","","","","","","","",""
"","","","","","html-keyboard-response","234","720543","0.0-3.0-4.0-0.2","5d4b265b72db9d0015e8aac6","E1","batch5","","null","<p class=block-text>Trial 27 out of 60</p>","null","spm_show_trial_num","","","","","","","","","","","","","","","","","","","","","","","","",""
"","","","","","image-button-response","235","730226","0.0-3.0-4.0-1.2","5d4b265b72db9d0015e8aac6","E1","batch5","","9681.70000000298","img/question_3_3.jpeg","2","spm_respsonse","1","3","mat_27","","","","","","1","9681.70000000298","","","","","","","","","","","","","","",""
"","","","","","html-keyboard-response","236","731284","0.0-3.0-4.0-0.3","5d4b265b72db9d0015e8aac6","E1","batch5","","null","<p class=block-text>Trial 28 out of 60</p>","null","spm_show_trial_num","","","","","","","","","","","","","","","","","","","","","","","","",""
"","","","","","image-button-response","237","746149","0.0-3.0-4.0-1.3","5d4b265b72db9d0015e8aac6","E1","batch5","","14861.59999999404","img/question_3_4.jpeg","7","spm_respsonse","1","8","mat_28","","","","","","1","14861.59999999404","","","","","","","","","","","","","","",""
"","","","","","html-keyboard-response","238","747206","0.0-3.0-4.0-0.4","5d4b265b72db9d0015e8aac6","E1","batch5","","null","<p class=block-text>Trial 29 out of 60</p>","null","spm_show_trial_num","","","","","","","","","","","","","","","","","","","","","","","","",""
"","","","","","image-button-response","239","757040","0.0-3.0-4.0-1.4","5d4b265b72db9d0015e8aac6","E1","batch5","","9829.90000000596","img/question_3_5.jpeg","6","spm_respsonse","1","7","mat_29","","","","","","1","9829.90000000596","","","","","","","","","","","","","","",""
"","","","","","html-keyboard-response","240","758099","0.0-3.0-4.0-0.5","5d4b265b72db9d0015e8aac6","E1","batch5","","null","<p class=block-text>Trial 30 out of 60</p>","null","spm_show_trial_num","","","","","","","","","","","","","","","","","","","","","","","","",""
"","","","","","image-button-response","241","786689","0.0-3.0-4.0-1.5","5d4b265b72db9d0015e8aac6","E1","batch5","","28585.5","img/question_3_6.jpeg","3","spm_respsonse","1","4","mat_30","","","","","","1","28585.5","","","","","","","","","","","","","","",""
"","","","","","html-keyboard-response","242","787751","0.0-3.0-4.0-0.6","5d4b265b72db9d0015e8aac6","E1","batch5","","null","<p class=block-text>Trial 31 out of 60</p>","null","spm_show_trial_num","","","","","","","","","","","","","","","","","","","","","","","","",""
"","","","","","image-button-response","243","800662","0.0-3.0-4.0-1.6","5d4b265b72db9d0015e8aac6","E1","batch5","","12907.59999999404","img/question_3_7.jpeg","4","spm_respsonse","1","5","mat_31","","","","","","1","12907.59999999404","","","","","","","","","","","","","","",""
"","","","","","html-keyboard-response","244","801719","0.0-3.0-4.0-0.7","5d4b265b72db9d0015e8aac6","E1","batch5","","null","<p class=block-text>Trial 32 out of 60</p>","null","spm_show_trial_num","","","","","","","","","","","","","","","","","","","","","","","","",""
"","","","","","image-button-response","245","831598","0.0-3.0-4.0-1.7","5d4b265b72db9d0015e8aac6","E1","batch5","","29874.89999999106","img/question_3_8.jpeg","0","spm_respsonse","1","1","mat_32","","","","","","1","29874.89999999106","","","","","","","","","","","","","","",""
"","","","","","html-keyboard-response","246","832663","0.0-3.0-4.0-0.8","5d4b265b72db9d0015e8aac6","E1","batch5","","null","<p class=block-text>Trial 33 out of 60</p>","null","spm_show_trial_num","","","","","","","","","","","","","","","","","","","","","","","","",""
"","","","","","image-button-response","247","851269","0.0-3.0-4.0-1.8","5d4b265b72db9d0015e8aac6","E1","batch5","","18601.59999999404","img/question_3_9.jpeg","6","spm_respsonse","1","7","mat_33","","","","","","1","18601.59999999404","","","","","","","","","","","","","","",""
"","","","","","html-keyboard-response","248","852327","0.0-3.0-4.0-0.9","5d4b265b72db9d0015e8aac6","E1","batch5","","null","<p class=block-text>Trial 34 out of 60</p>","null","spm_show_trial_num","","","","","","","","","","","","","","","","","","","","","","","","",""
"","","","","","image-button-response","249","888132","0.0-3.0-4.0-1.9","5d4b265b72db9d0015e8aac6","E1","batch5","","35801.10000000894","img/question_3_10.jpeg","5","spm_respsonse","1","6","mat_34","","","","","","1","35801.10000000894","","","","","","","","","","","","","","",""
"","","","","","html-keyboard-response","250","889191","0.0-3.0-4.0-0.10","5d4b265b72db9d0015e8aac6","E1","batch5","","null","<p class=block-text>Trial 35 out of 60</p>","null","spm_show_trial_num","","","","","","","","","","","","","","","","","","","","","","","","",""
"","","","","","image-button-response","251","926815","0.0-3.0-4.0-1.10","5d4b265b72db9d0015e8aac6","E1","batch5","","37620.20000000298","img/question_3_11.jpeg","0","spm_respsonse","1","1","mat_35","","","","","","1","37620.20000000298","","","","","","","","","","","","","","",""
"","","","","","html-keyboard-response","252","927879","0.0-3.0-4.0-0.11","5d4b265b72db9d0015e8aac6","E1","batch5","","null","<p class=block-text>Trial 36 out of 60</p>","null","spm_show_trial_num","","","","","","","","","","","","","","","","","","","","","","","","",""
"","","","","","image-button-response","253","1011597","0.0-3.0-4.0-1.11","5d4b265b72db9d0015e8aac6","E1","batch5","","83714","img/question_3_12.jpeg","1","spm_respsonse","1","2","mat_36","","","","","","1","83714","","","","","","","","","","","","","","",""
"","","","","","html-keyboard-response","254","1012657","0.0-3.0-4.0-0.12","5d4b265b72db9d0015e8aac6","E1","batch5","","null","<p class=block-text>Trial 37 out of 60</p>","null","spm_show_trial_num","","","","","","","","","","","","","","","","","","","","","","","","",""
"","","","","","image-button-response","255","1017015","0.0-3.0-4.0-1.12","5d4b265b72db9d0015e8aac6","E1","batch5","","4354.5","img/question_4_1.jpeg","2","spm_respsonse","1","3","mat_37","","","","","","1","4354.5","","","","","","","","","","","","","","",""
"","","","","","html-keyboard-response","256","1018079","0.0-3.0-4.0-0.13","5d4b265b72db9d0015e8aac6","E1","batch5","","null","<p class=block-text>Trial 38 out of 60</p>","null","spm_show_trial_num","","","","","","","","","","","","","","","","","","","","","","","","",""
"","","","","","image-button-response","257","1025288","0.0-3.0-4.0-1.13","5d4b265b72db9d0015e8aac6","E1","batch5","","7205.300000011921","img/question_4_2.jpeg","3","spm_respsonse","1","4","mat_38","","","","","","1","7205.300000011921","","","","","","","","","","","","","","",""
"","","","","","html-keyboard-response","258","1026343","0.0-3.0-4.0-0.14","5d4b265b72db9d0015e8aac6","E1","batch5","","null","<p class=block-text>Trial 39 out of 60</p>","null","spm_show_trial_num","","","","","","","","","","","","","","","","","","","","","","","","",""
"","","","","","image-button-response","259","1035599","0.0-3.0-4.0-1.14","5d4b265b72db9d0015e8aac6","E1","batch5","","9252.10000000894","img/question_4_3.jpeg","2","spm_respsonse","1","3","mat_39","","","","","","1","9252.10000000894","","","","","","","","","","","","","","",""
"","","","","","html-keyboard-response","260","1036663","0.0-3.0-4.0-0.15","5d4b265b72db9d0015e8aac6","E1","batch5","","null","<p class=block-text>Trial 40 out of 60</p>","null","spm_show_trial_num","","","","","","","","","","","","","","","","","","","","","","","","",""
"","","","","","image-button-response","261","1045384","0.0-3.0-4.0-1.15","5d4b265b72db9d0015e8aac6","E1","batch5","","8717.29999999702","img/question_4_4.jpeg","6","spm_respsonse","1","7","mat_40","","","","","","1","8717.29999999702","","","","","","","","","","","","","","",""
"","","","","","html-keyboard-response","262","1046440","0.0-3.0-4.0-0.16","5d4b265b72db9d0015e8aac6","E1","batch5","","null","<p class=block-text>Trial 41 out of 60</p>","null","spm_show_trial_num","","","","","","","","","","","","","","","","","","","","","","","","",""
"","","","","","image-button-response","263","1053849","0.0-3.0-4.0-1.16","5d4b265b72db9d0015e8aac6","E1","batch5","","7404.70000000298","img/question_4_5.jpeg","7","spm_respsonse","1","8","mat_41","","","","","","1","7404.70000000298","","","","","","","","","","","","","","",""
"","","","","","html-keyboard-response","264","1054905","0.0-3.0-4.0-0.17","5d4b265b72db9d0015e8aac6","E1","batch5","","null","<p class=block-text>Trial 42 out of 60</p>","null","spm_show_trial_num","","","","","","","","","","","","","","","","","","","","","","","","",""
"","","","","","image-button-response","265","1068857","0.0-3.0-4.0-1.17","5d4b265b72db9d0015e8aac6","E1","batch5","","13948.79999999702","img/question_4_6.jpeg","5","spm_respsonse","1","6","mat_42","","","","","","1","13948.79999999702","","","","","","","","","","","","","","",""
"","","","","","html-keyboard-response","266","1069913","0.0-3.0-4.0-0.18","5d4b265b72db9d0015e8aac6","E1","batch5","","null","<p class=block-text>Trial 43 out of 60</p>","null","spm_show_trial_num","","","","","","","","","","","","","","","","","","","","","","","","",""
"","","","","","image-button-response","267","1085342","0.0-3.0-4.0-1.18","5d4b265b72db9d0015e8aac6","E1","batch5","","15425.29999999702","img/question_4_7.jpeg","4","spm_respsonse","1","5","mat_43","","","","","","1","15425.29999999702","","","","","","","","","","","","","","",""
"","","","","","html-keyboard-response","268","1086407","0.0-3.0-4.0-0.19","5d4b265b72db9d0015e8aac6","E1","batch5","","null","<p class=block-text>Trial 44 out of 60</p>","null","spm_show_trial_num","","","","","","","","","","","","","","","","","","","","","","","","",""
"","","","","","image-button-response","269","1096043","0.0-3.0-4.0-1.19","5d4b265b72db9d0015e8aac6","E1","batch5","","9632.60000000894","img/question_4_8.jpeg","3","spm_respsonse","1","4","mat_44","","","","","","1","9632.60000000894","","","","","","","","","","","","","","",""
"","","","","","html-keyboard-response","270","1097103","0.0-3.0-4.0-0.20","5d4b265b72db9d0015e8aac6","E1","batch5","","null","<p class=block-text>Trial 45 out of 60</p>","null","spm_show_trial_num","","","","","","","","","","","","","","","","","","","","","","","","",""
"","","","","","image-button-response","271","1120509","0.0-3.0-4.0-1.20","5d4b265b72db9d0015e8aac6","E1","batch5","","23403.09999999404","img/question_4_9.jpeg","0","spm_respsonse","1","1","mat_45","","","","","","1","23403.09999999404","","","","","","","","","","","","","","",""
"","","","","","html-keyboard-response","272","1121568","0.0-3.0-4.0-0.21","5d4b265b72db9d0015e8aac6","E1","batch5","","null","<p class=block-text>Trial 46 out of 60</p>","null","spm_show_trial_num","","","","","","","","","","","","","","","","","","","","","","","","",""
"","","","","","image-button-response","273","1135518","0.0-3.0-4.0-1.21","5d4b265b72db9d0015e8aac6","E1","batch5","","13946.10000000894","img/question_4_10.jpeg","1","spm_respsonse","1","2","mat_46","","","","","","1","13946.10000000894","","","","","","","","","","","","","","",""
"","","","","","html-keyboard-response","274","1136583","0.0-3.0-4.0-0.22","5d4b265b72db9d0015e8aac6","E1","batch5","","null","<p class=block-text>Trial 47 out of 60</p>","null","spm_show_trial_num","","","","","","","","","","","","","","","","","","","","","","","","",""
"","","","","","image-button-response","275","1171655","0.0-3.0-4.0-1.22","5d4b265b72db9d0015e8aac6","E1","batch5","","35068.79999999702","img/question_4_11.jpeg","4","spm_respsonse","1","5","mat_47","","","","","","1","35068.79999999702","","","","","","","","","","","","","","",""
"","","","","","html-keyboard-response","276","1172717","0.0-3.0-4.0-0.23","5d4b265b72db9d0015e8aac6","E1","batch5","","null","<p class=block-text>Trial 48 out of 60</p>","null","spm_show_trial_num","","","","","","","","","","","","","","","","","","","","","","","","",""
"","","","","","image-button-response","277","1242610","0.0-3.0-4.0-1.23","5d4b265b72db9d0015e8aac6","E1","batch5","","69889.80000001192","img/question_4_12.jpeg","7","spm_respsonse","0","6","mat_48","","","","","","0","69889.80000001192","","","","","","","","","","","","","","",""
"","","","","","html-keyboard-response","278","1243663","0.0-3.0-4.0-0.24","5d4b265b72db9d0015e8aac6","E1","batch5","","null","<p class=block-text>Trial 49 out of 60</p>","null","spm_show_trial_num","","","","","","","","","","","","","","","","","","","","","","","","",""
"","","","","","image-button-response","279","1270886","0.0-3.0-4.0-1.24","5d4b265b72db9d0015e8aac6","E1","batch5","","27219.59999999404","img/question_5_1.jpeg","5","spm_respsonse","0","7","mat_49","","","","","","0","27219.59999999404","","","","","","","","","","","","","","",""
"","","","","","html-keyboard-response","280","1271951","0.0-3.0-4.0-0.25","5d4b265b72db9d0015e8aac6","E1","batch5","","null","<p class=block-text>Trial 50 out of 60</p>","null","spm_show_trial_num","","","","","","","","","","","","","","","","","","","","","","","","",""
"","","","","","image-button-response","281","1316227","0.0-3.0-4.0-1.25","5d4b265b72db9d0015e8aac6","E1","batch5","","44271.79999999702","img/question_5_2.jpeg","5","spm_respsonse","1","6","mat_50","","","","","","1","44271.79999999702","","","","","","","","","","","","","","",""
"","","","","","html-keyboard-response","282","1317287","0.0-3.0-4.0-0.26","5d4b265b72db9d0015e8aac6","E1","batch5","","null","<p class=block-text>Trial 51 out of 60</p>","null","spm_show_trial_num","","","","","","","","","","","","","","","","","","","","","","","","",""
"","","","","","image-button-response","283","1336959","0.0-3.0-4.0-1.26","5d4b265b72db9d0015e8aac6","E1","batch5","","19668.59999999404","img/question_5_3.jpeg","7","spm_respsonse","1","8","mat_51","","","","","","1","19668.59999999404","","","","","","","","","","","","","","",""
"","","","","","html-keyboard-response","284","1338015","0.0-3.0-4.0-0.27","5d4b265b72db9d0015e8aac6","E1","batch5","","null","<p class=block-text>Trial 52 out of 60</p>","null","spm_show_trial_num","","","","","","","","","","","","","","","","","","","","","","","","",""
"","","","","","image-button-response","285","1352452","0.0-3.0-4.0-1.27","5d4b265b72db9d0015e8aac6","E1","batch5","","14434","img/question_5_4.jpeg","1","spm_respsonse","1","2","mat_52","","","","","","1","14434","","","","","","","","","","","","","","",""
"","","","","","html-keyboard-response","286","1353511","0.0-3.0-4.0-0.28","5d4b265b72db9d0015e8aac6","E1","batch5","","null","<p class=block-text>Trial 53 out of 60</p>","null","spm_show_trial_num","","","","","","","","","","","","","","","","","","","","","","","","",""
"","","","","","image-button-response","287","1360142","0.0-3.0-4.0-1.28","5d4b265b72db9d0015e8aac6","E1","batch5","","6626.899999991059","img/question_5_5.jpeg","0","spm_respsonse","1","1","mat_53","","","","","","1","6626.899999991059","","","","","","","","","","","","","","",""
"","","","","","html-keyboard-response","288","1361199","0.0-3.0-4.0-0.29","5d4b265b72db9d0015e8aac6","E1","batch5","","null","<p class=block-text>Trial 54 out of 60</p>","null","spm_show_trial_num","","","","","","","","","","","","","","","","","","","","","","","","",""
"","","","","","image-button-response","289","1390070","0.0-3.0-4.0-1.29","5d4b265b72db9d0015e8aac6","E1","batch5","","28867.40000000596","img/question_5_6.jpeg","4","spm_respsonse","1","5","mat_54","","","","","","1","28867.40000000596","","","","","","","","","","","","","","",""
"","","","","","html-keyboard-response","290","1391127","0.0-3.0-4.0-0.30","5d4b265b72db9d0015e8aac6","E1","batch5","","null","<p class=block-text>Trial 55 out of 60</p>","null","spm_show_trial_num","","","","","","","","","","","","","","","","","","","","","","","","",""
"","","","","","image-button-response","291","1409900","0.0-3.0-4.0-1.30","5d4b265b72db9d0015e8aac6","E1","batch5","","18769.29999999702","img/question_5_7.jpeg","0","spm_respsonse","1","1","mat_55","","","","","","1","18769.29999999702","","","","","","","","","","","","","","",""
"","","","","","html-keyboard-response","292","1410957","0.0-3.0-4.0-0.31","5d4b265b72db9d0015e8aac6","E1","batch5","","null","<p class=block-text>Trial 56 out of 60</p>","null","spm_show_trial_num","","","","","","","","","","","","","","","","","","","","","","","","",""
"","","","","","image-button-response","293","1429292","0.0-3.0-4.0-1.31","5d4b265b72db9d0015e8aac6","E1","batch5","","18331.19999998808","img/question_5_8.jpeg","5","spm_respsonse","1","6","mat_56","","","","","","1","18331.19999998808","","","","","","","","","","","","","","",""
"","","","","","html-keyboard-response","294","1430351","0.0-3.0-4.0-0.32","5d4b265b72db9d0015e8aac6","E1","batch5","","null","<p class=block-text>Trial 57 out of 60</p>","null","spm_show_trial_num","","","","","","","","","","","","","","","","","","","","","","","","",""
"","","","","","image-button-response","295","1465224","0.0-3.0-4.0-1.32","5d4b265b72db9d0015e8aac6","E1","batch5","","34869.19999998808","img/question_5_9.jpeg","2","spm_respsonse","1","3","mat_57","","","","","","1","34869.19999998808","","","","","","","","","","","","","","",""
"","","","","","html-keyboard-response","296","1466287","0.0-3.0-4.0-0.33","5d4b265b72db9d0015e8aac6","E1","batch5","","null","<p class=block-text>Trial 58 out of 60</p>","null","spm_show_trial_num","","","","","","","","","","","","","","","","","","","","","","","","",""
"","","","","","image-button-response","297","1569132","0.0-3.0-4.0-1.33","5d4b265b72db9d0015e8aac6","E1","batch5","","102840.69999998808","img/question_5_10.jpeg","5","spm_respsonse","0","2","mat_58","","","","","","0","102840.69999998808","","","","","","","","","","","","","","",""
"","","","","","html-keyboard-response","298","1570191","0.0-3.0-4.0-0.34","5d4b265b72db9d0015e8aac6","E1","batch5","","null","<p class=block-text>Trial 59 out of 60</p>","null","spm_show_trial_num","","","","","","","","","","","","","","","","","","","","","","","","",""
"","","","","","image-button-response","299","1615119","0.0-3.0-4.0-1.34","5d4b265b72db9d0015e8aac6","E1","batch5","","44923.79999999702","img/question_5_11.jpeg","4","spm_respsonse","0","4","mat_59","","","","","","0","44923.79999999702","","","","","","","","","","","","","","",""
"","","","","","html-keyboard-response","300","1616183","0.0-3.0-4.0-0.35","5d4b265b72db9d0015e8aac6","E1","batch5","","null","<p class=block-text>Trial 60 out of 60</p>","null","spm_show_trial_num","","","","","","","","","","","","","","","","","","","","","","","","",""
"","","","","","image-button-response","301","1641337","0.0-3.0-4.0-1.35","5d4b265b72db9d0015e8aac6","E1","batch5","","25150.09999999404","img/question_5_12.jpeg","1","spm_respsonse","0","5","mat_60","","","","","","0","25150.09999999404","","","","","","","","","","","","","","",""
"","","","","","html-button-response","302","1643299","0.0-3.0-5.0","5d4b265b72db9d0015e8aac6","E1","batch5","","1706.4000000059605","<p class= block-text>This concludes the Standard Progressive Matrix game. Thank you for your responses!<br> When you are ready, click the button continue</p>","0","spm_goodbye","","","","","","","","","","","","","","","","","","","","","","","","",""
"true","","","","","fullscreen","303","1645855","0.0-4.0-0.0","5d4b265b72db9d0015e8aac6","E1","batch5","","","","","","","","","","","","","","","","","","","","","","","","","","","","","",""
"","","","","","instructions","304","1691123","0.0-4.0-1.0-0.0-0.0","5d4b265b72db9d0015e8aac6","E1","batch5","[{""page_index"":0,""viewing_time"":6811.79999999702},{""page_index"":1,""viewing_time"":4063.7000000029802},{""page_index"":2,""viewing_time"":2909.2999999970198},{""page_index"":3,""viewing_time"":9356.300000011921},{""page_index"":4,""viewing_time"":6286.29999999702},{""page_index"":5,""viewing_time"":12727.5},{""page_index"":6,""viewing_time"":3111.2000000029802}]","45266.60000000894","","","tol-instructions","","","","","","","","","","","","","","","","","","","","","","","","",""
"","","","","","html-button-response","305","1691850","0.0-4.0-1.0-1.0-0.0","5d4b265b72db9d0015e8aac6","E1","batch5","","725.5","<p class=block-text> Let's answer a few questions <br>","0","tol_enter_quiz","","","","","","","","","","","","","","","","","","","","","","","","",""
"","","","","","html-button-response","306","1694320","0.0-4.0-1.0-1.0-1.0","5d4b265b72db9d0015e8aac6","E1","batch5","","2468.5","<p class = block-text>True or False: You can only move the ball on top of a peg. <br></p>","0","tol_quiz","true","","","","","","","","","","","","","","","","","","","","","","","",""
"","","","","","html-button-response","307","1695215","0.0-4.0-1.0-1.0-2.0","5d4b265b72db9d0015e8aac6","E1","batch5","","892.5","<p class = block-text>Correct! You can only move the ball on top of a peg.</p>","0","tol_quiz_feedback","","","","","","","","","","","","","","","","","","","","","","","","",""
"","","","","","html-button-response","308","1697322","0.0-4.0-1.0-1.0-3.0","5d4b265b72db9d0015e8aac6","E1","batch5","","2105.5999999940395","<p class = block-text>True or False: You should try to match your board with the target board with fewest moves possible. <br></p>","0","tol_quiz","true","","","","","","","","","","","","","","","","","","","","","","","",""
"","","","","","html-button-response","309","1697789","0.0-4.0-1.0-1.0-4.0","5d4b265b72db9d0015e8aac6","E1","batch5","","465.5","<p class = block-text>Correct! </p>","0","tol_quiz_feedback","","","","","","","","","","","","","","","","","","","","","","","","",""
"","","","","","html-button-response","310","1699070","0.0-4.0-2.0","5d4b265b72db9d0015e8aac6","E1","batch5","","1278.9000000059605","<p class=block-text> Now that you've understood the game, let's practice a few easier examples before we start!<br> <br>","0","","","","","","","","","","","","","","","","","","","","","","","","","",""
"","","","","","single-stim-button","311","1702725","0.0-4.0-3.0-0.0","5d4b265b72db9d0015e8aac6","E1","batch5","","3651","","","tol_practice","","","","","","","","","","","tol_peg_2","3651","3651","0","[[1,2,0],[0,0],[0]]","1","[[1,2,0],[0,0],[3]]","practice","3651","","","","","",""
"","","","","","single-stim-button","312","1703796","0.0-4.0-3.0-1.0","5d4b265b72db9d0015e8aac6","E1","batch5","","1069","","","tol_practice","","","","","","","","","","","tol_peg_3","1069","1069","0","[[1,2,0],[0,0],[3]]","1","[[1,2,0],[0,0],[3]]","practice","1069","","","","","",""
"","","","","","poldrack-single-stim","313","1704800","0.0-4.0-4.0","5d4b265b72db9d0015e8aac6","E1","batch5","","-1","","","tol_feedback","true","","","","","","","","","","","1000","1000","500","","","","","","-1","none","true","","0",""
"","","","","","single-stim-button","314","1707424","0.0-4.0-5.0-0.0","5d4b265b72db9d0015e8aac6","E1","batch5","","2622","","","tol_practice","","","","","","","","","","","tol_peg_1","2622","2622","0","[[1,0,0],[3,0],[0]]","2","[[0,0,0],[3,1],[2]]","practice","2622","","","","","",""
"","","","","","single-stim-button","315","1708747","0.0-4.0-5.0-1.0","5d4b265b72db9d0015e8aac6","E1","batch5","","1321","","","tol_practice","","","","","","","","","","","tol_peg_3","1321","1321","0","[[1,0,0],[3,0],[2]]","2","[[0,0,0],[3,1],[2]]","practice","1321","","","","","",""
"","","","","","single-stim-button","316","1709367","0.0-4.0-5.1-0.1","5d4b265b72db9d0015e8aac6","E1","batch5","","618","","","tol_practice","","","","","","","","","","","tol_peg_1","618","618","0","[[0,0,0],[3,0],[2]]","3","[[0,0,0],[3,1],[2]]","practice","618","","","","","",""
"","","","","","single-stim-button","317","1710339","0.0-4.0-5.1-1.1","5d4b265b72db9d0015e8aac6","E1","batch5","","970","","","tol_practice","","","","","","","","","","","tol_peg_2","970","970","0","[[0,0,0],[3,1],[2]]","3","[[0,0,0],[3,1],[2]]","practice","970","","","","","",""
"","","","","","poldrack-single-stim","318","1711343","0.0-4.0-6.0","5d4b265b72db9d0015e8aac6","E1","batch5","","-1","","","tol_feedback","true","","","","","","","","","","","1000","1000","500","","","","","","-1","none","true","","0",""
"","","","","","single-stim-button","319","1713133","0.0-4.0-7.0-0.0","5d4b265b72db9d0015e8aac6","E1","batch5","","1789","","","tol_practice","","","","","","","","","","","tol_peg_2","1789","1789","0","[[1,2,0],[0,0],[0]]","4","[[1,0,0],[2,0],[3]]","practice","1789","","","","","",""
"","","","","","single-stim-button","320","1713987","0.0-4.0-7.0-1.0","5d4b265b72db9d0015e8aac6","E1","batch5","","852","","","tol_practice","","","","","","","","","","","tol_peg_3","852","852","0","[[1,2,0],[0,0],[3]]","4","[[1,0,0],[2,0],[3]]","practice","852","","","","","",""
"","","","","","single-stim-button","321","1714776","0.0-4.0-7.1-0.1","5d4b265b72db9d0015e8aac6","E1","batch5","","788","","","tol_practice","","","","","","","","","","","tol_peg_1","788","788","0","[[1,0,0],[0,0],[3]]","5","[[1,0,0],[2,0],[3]]","practice","788","","","","","",""
"","","","","","single-stim-button","322","1715198","0.0-4.0-7.1-1.1","5d4b265b72db9d0015e8aac6","E1","batch5","","420","","","tol_practice","","","","","","","","","","","tol_peg_2","420","420","0","[[1,0,0],[2,0],[3]]","5","[[1,0,0],[2,0],[3]]","practice","420","","","","","",""
"","","","","","poldrack-single-stim","323","1716207","0.0-4.0-8.0","5d4b265b72db9d0015e8aac6","E1","batch5","","-1","","","tol_feedback","true","","","","","","","","","","","1000","1000","500","","","","","","-1","none","true","","0",""
"","","","","","html-button-response","324","1717982","0.0-4.0-9.0","5d4b265b72db9d0015e8aac6","E1","batch5","","1773.2000000029802","<div class = centerbox><p class = center-block-text>Great job! You are done with practice trials<br>You are about to start official trials.<br> <br> Problem <strong>1</strong> out of 25 problems</p></div>","0","tol_instruction","","","","","","","","","","","","","","","","","","","","","","","","",""
"","","","","","single-stim-button","325","1721407","0.0-4.0-10.0-0.0","5d4b265b72db9d0015e8aac6","E1","batch5","","2423","","","tol_tohand","","","","","","","","","","","tol_peg_1","2423","2423","0","[[1,0,0],[3,0],[0]]","1","[[1,3,0],[2,0],[0]]","0","0","","","","","","3"
"","","","","","single-stim-button","326","1722255","0.0-4.0-10.0-1.0","5d4b265b72db9d0015e8aac6","E1","batch5","","847","","","tol_toboard","","","","","","","","","","","tol_peg_3","847","847","0","[[1,0,0],[3,0],[2]]","1","[[1,3,0],[2,0],[0]]","0","0","","","","","","3"
"","","","","","single-stim-button","327","1722627","0.0-4.0-10.1-0.1","5d4b265b72db9d0015e8aac6","E1","batch5","","370","","","tol_tohand","","","","","","","","","","","tol_peg_2","370","370","0","[[1,0,0],[0,0],[2]]","2","[[1,3,0],[2,0],[0]]","0","0","","","","","","3"
"","","","","","single-stim-button","328","1723071","0.0-4.0-10.1-1.1","5d4b265b72db9d0015e8aac6","E1","batch5","","443","","","tol_toboard","","","","","","","","","","","tol_peg_1","443","443","0","[[1,3,0],[0,0],[2]]","2","[[1,3,0],[2,0],[0]]","0","0","","","","","","3"
"","","","","","single-stim-button","329","1723619","0.0-4.0-10.2-0.2","5d4b265b72db9d0015e8aac6","E1","batch5","","547","","","tol_tohand","","","","","","","","","","","tol_peg_3","547","547","0","[[1,3,0],[0,0],[0]]","3","[[1,3,0],[2,0],[0]]","0","0","","","","","","3"
"","","","","","single-stim-button","330","1724064","0.0-4.0-10.2-1.2","5d4b265b72db9d0015e8aac6","E1","batch5","","444","","","tol_toboard","","","","","","","","","","","tol_peg_2","444","444","0","[[1,3,0],[2,0],[0]]","3","[[1,3,0],[2,0],[0]]","0","0","","","","","","3"
"","","","","","poldrack-single-stim","331","1725067","0.0-4.0-11.0","5d4b265b72db9d0015e8aac6","E1","batch5","","-1","","","tol_feedback","true","","","","","","","","","","","1000","1000","500","","","","","","-1","none","true","2423","3340",""
"","","","","","html-button-response","332","1725727","0.0-4.0-12.0","5d4b265b72db9d0015e8aac6","E1","batch5","","659.2000000029802","<div class = centerbox><p class = center-block-text>problem <strong>2</strong> out of 25 problems</p></div>","0","tol_trial_num","","","","","","","","","","","","","","","","","","","","","","","","",""
"","","","","","single-stim-button","333","1728821","0.0-4.0-13.0-0.0","5d4b265b72db9d0015e8aac6","E1","batch5","","3092","","","tol_tohand","","","","","","","","","","","tol_peg_1","3092","3092","0","[[1,0,0],[3,0],[0]]","1","[[2,1,3],[0,0],[0]]","1","0","","","","","","5"
"","","","","","single-stim-button","334","1739325","0.0-4.0-13.0-1.0","5d4b265b72db9d0015e8aac6","E1","batch5","","10503","","","tol_toboard","","","","","","","","","","","tol_peg_2","10503","10503","0","[[1,0,0],[3,2],[0]]","1","[[2,1,3],[0,0],[0]]","1","0","","","","","","5"
"","","","","","single-stim-button","335","1739839","0.0-4.0-13.1-0.1","5d4b265b72db9d0015e8aac6","E1","batch5","","512","","","tol_tohand","","","","","","","","","","","tol_peg_1","512","512","0","[[0,0,0],[3,2],[0]]","2","[[2,1,3],[0,0],[0]]","1","0","","","","","","5"
"","","","","","single-stim-button","336","1742816","0.0-4.0-13.1-1.1","5d4b265b72db9d0015e8aac6","E1","batch5","","2976","","","tol_toboard","","","","","","","","","","","tol_peg_3","2976","2976","0","[[0,0,0],[3,2],[1]]","2","[[2,1,3],[0,0],[0]]","1","0","","","","","","5"
"","","","","","single-stim-button","337","1743226","0.0-4.0-13.2-0.2","5d4b265b72db9d0015e8aac6","E1","batch5","","409","","","tol_tohand","","","","","","","","","","","tol_peg_2","409","409","0","[[0,0,0],[3,0],[1]]","3","[[2,1,3],[0,0],[0]]","1","0","","","","","","5"
"","","","","","single-stim-button","338","1743634","0.0-4.0-13.2-1.2","5d4b265b72db9d0015e8aac6","E1","batch5","","407","","","tol_toboard","","","","","","","","","","","tol_peg_1","407","407","0","[[2,0,0],[3,0],[1]]","3","[[2,1,3],[0,0],[0]]","1","0","","","","","","5"
"","","","","","single-stim-button","339","1744312","0.0-4.0-13.3-0.3","5d4b265b72db9d0015e8aac6","E1","batch5","","677","","","tol_tohand","","","","","","","","","","","tol_peg_3","677","677","0","[[2,0,0],[3,0],[0]]","4","[[2,1,3],[0,0],[0]]","1","0","","","","","","5"
"","","","","","single-stim-button","340","1745135","0.0-4.0-13.3-1.3","5d4b265b72db9d0015e8aac6","E1","batch5","","822","","","tol_toboard","","","","","","","","","","","tol_peg_1","822","822","0","[[2,1,0],[3,0],[0]]","4","[[2,1,3],[0,0],[0]]","1","0","","","","","","5"
"","","","","","single-stim-button","341","1745384","0.0-4.0-13.4-0.4","5d4b265b72db9d0015e8aac6","E1","batch5","","248","","","tol_tohand","","","","","","","","","","","tol_peg_1","248","248","0","[[2,0,0],[3,0],[0]]","5","[[2,1,3],[0,0],[0]]","1","0","","","","","","5"
"","","","","","single-stim-button","342","1746083","0.0-4.0-13.4-1.4","5d4b265b72db9d0015e8aac6","E1","batch5","","698","","","tol_toboard","","","","","","","","","","","tol_peg_1","698","698","0","[[2,1,0],[3,0],[0]]","5","[[2,1,3],[0,0],[0]]","1","0","","","","","","5"
"","","","","","single-stim-button","343","1747029","0.0-4.0-13.5-0.5","5d4b265b72db9d0015e8aac6","E1","batch5","","945","","","tol_tohand","","","","","","","","","","","tol_peg_2","945","945","0","[[2,1,0],[0,0],[0]]","6","[[2,1,3],[0,0],[0]]","1","0","","","","","","5"
"","","","","","single-stim-button","344","1747635","0.0-4.0-13.5-1.5","5d4b265b72db9d0015e8aac6","E1","batch5","","605","","","tol_toboard","","","","","","","","","","","tol_peg_1","605","605","0","[[2,1,3],[0,0],[0]]","6","[[2,1,3],[0,0],[0]]","1","0","","","","","","5"
"","","","","","poldrack-single-stim","345","1748639","0.0-4.0-14.0","5d4b265b72db9d0015e8aac6","E1","batch5","","-1","","","tol_feedback","true","","","","","","","","","","","1000","1000","500","","","","","","-1","none","true","3092","5883",""
"","","","","","html-button-response","346","1749261","0.0-4.0-15.0","5d4b265b72db9d0015e8aac6","E1","batch5","","620.7000000029802","<div class = centerbox><p class = center-block-text>problem <strong>3</strong> out of 25 problems</p></div>","0","tol_trial_num","","","","","","","","","","","","","","","","","","","","","","","","",""
"","","","","","single-stim-button","347","1759979","0.0-4.0-16.0-0.0","5d4b265b72db9d0015e8aac6","E1","batch5","","10717","","","tol_tohand","","","","","","","","","","","tol_peg_1","10717","10717","0","[[2,0,0],[0,0],[1]]","1","[[1,2,0],[3,0],[0]]","2","0","","","","","","4"
"","","","","","single-stim-button","348","1760526","0.0-4.0-16.0-1.0","5d4b265b72db9d0015e8aac6","E1","batch5","","545","","","tol_toboard","","","","","","","","","","","tol_peg_2","545","545","0","[[2,0,0],[3,0],[1]]","1","[[1,2,0],[3,0],[0]]","2","0","","","","","","4"
