"success","timeout","failed_images","failed_audio","failed_video","trial_type","trial_index","time_elapsed","internal_node_id","subject_id","study_id","session_id","task","rt","stimulus","response","item","answer","correct","spm_correct","spm_rt","view_history","mouse_click","stim_duration","block_duration","timing_post_trial","current_position","tol_num_moves_made","tol_target","tol_problem_id","tol_rt","key_press","possible_responses","tol_correct","preplanning","tol_rt_per_trial","tol_min_moves","fiar_detect_rt","fiar_detect_correct","total_correct_fiar_detect","post_trial_gap","choices"
"true","false","[]","[]","[]","preload","0","12645","0.0-0.0","5d520a2a08c3b00019384072","E1","batch5","","","","","","","","","","","","","","","","","","","","","","","","","","","","","",""
"true","","","","","fullscreen","1","59450","0.0-1.0-0.0","5d520a2a08c3b00019384072","E1","batch5","","","","","","","","","","","","","","","","","","","","","","","","","","","","","",""
"true","","","","","fullscreen","2","65827","0.0-2.0-0.0","5d520a2a08c3b00019384072","E1","batch5","spm_fullscreen","","","","","","","","","","","","","","","","","","","","","","","","","","","","",""
"","","","","","html-button-response","3","79737","0.0-2.0-1.0","5d520a2a08c3b00019384072","E1","batch5","","13907.299999952316","<p class = block-text><b>Instructions</b> <br>This is a widely used intelligence test in research. <br>In this test, a figure with a missing piece will be presented.<br>Below the figure are alternative pieces to complete the figure, only one of which is correct.<br> Different figures might involve different principles for obtaining the missing piece<br>Your job is to select the most logical piece to complete the figure.</p>","0","","","","","","","","","","","","","","","","","","","","","","","","","",""
"","","","","","html-keyboard-response","4","80539","0.0-2.0-2.0-0.0","5d520a2a08c3b00019384072","E1","batch5","spm_show_trial_num","null","<p class=block-text>Trial 1 out of 60</p>","null","","","","","","","","","","","","","","","","","","","","","","","","","",""
"","","","","","image-button-response","5","94611","0.0-2.0-2.0-1.0","5d520a2a08c3b00019384072","E1","batch5","spm_respsonse","14067.699999809265","img/question_1_1.jpeg","5","mat_01","4","0","0","14067.699999809265","","","","","","","","","","","","","","","","","","","","",""
"","","","","","html-keyboard-response","6","95664","0.0-2.0-2.0-0.1","5d520a2a08c3b00019384072","E1","batch5","spm_show_trial_num","null","<p class=block-text>Trial 2 out of 60</p>","null","","","","","","","","","","","","","","","","","","","","","","","","","",""
"","","","","","image-button-response","7","104608","0.0-2.0-2.0-1.1","5d520a2a08c3b00019384072","E1","batch5","spm_respsonse","8941.200000047684","img/question_1_2.jpeg","4","mat_02","5","1","1","8941.200000047684","","","","","","","","","","","","","","","","","","","","",""
"","","","","","html-keyboard-response","8","105660","0.0-2.0-2.0-0.2","5d520a2a08c3b00019384072","E1","batch5","spm_show_trial_num","null","<p class=block-text>Trial 3 out of 60</p>","null","","","","","","","","","","","","","","","","","","","","","","","","","",""
"","","","","","image-button-response","9","111205","0.0-2.0-2.0-1.2","5d520a2a08c3b00019384072","E1","batch5","spm_respsonse","5541.900000095367","img/question_1_3.jpeg","0","mat_03","1","1","1","5541.900000095367","","","","","","","","","","","","","","","","","","","","",""
"","","","","","html-keyboard-response","10","112258","0.0-2.0-2.0-0.3","5d520a2a08c3b00019384072","E1","batch5","spm_show_trial_num","null","<p class=block-text>Trial 4 out of 60</p>","null","","","","","","","","","","","","","","","","","","","","","","","","","",""
"","","","","","image-button-response","11","122559","0.0-2.0-2.0-1.3","5d520a2a08c3b00019384072","E1","batch5","spm_respsonse","10298.099999904633","img/question_1_4.jpeg","1","mat_04","2","1","1","10298.099999904633","","","","","","","","","","","","","","","","","","","","",""
"","","","","","html-keyboard-response","12","123611","0.0-2.0-2.0-0.4","5d520a2a08c3b00019384072","E1","batch5","spm_show_trial_num","null","<p class=block-text>Trial 5 out of 60</p>","null","","","","","","","","","","","","","","","","","","","","","","","","","",""
"","","","","","image-button-response","13","131439","0.0-2.0-2.0-1.4","5d520a2a08c3b00019384072","E1","batch5","spm_respsonse","7824.600000143051","img/question_1_5.jpeg","5","mat_05","6","1","1","7824.600000143051","","","","","","","","","","","","","","","","","","","","",""
"","","","","","html-keyboard-response","14","132490","0.0-2.0-2.0-0.5","5d520a2a08c3b00019384072","E1","batch5","spm_show_trial_num","null","<p class=block-text>Trial 6 out of 60</p>","null","","","","","","","","","","","","","","","","","","","","","","","","","",""
"","","","","","image-button-response","15","140898","0.0-2.0-2.0-1.5","5d520a2a08c3b00019384072","E1","batch5","spm_respsonse","8405.200000047684","img/question_1_6.jpeg","2","mat_06","3","1","1","8405.200000047684","","","","","","","","","","","","","","","","","","","","",""
"","","","","","html-keyboard-response","16","141951","0.0-2.0-2.0-0.6","5d520a2a08c3b00019384072","E1","batch5","spm_show_trial_num","null","<p class=block-text>Trial 7 out of 60</p>","null","","","","","","","","","","","","","","","","","","","","","","","","","",""
"","","","","","image-button-response","17","155711","0.0-2.0-2.0-1.6","5d520a2a08c3b00019384072","E1","batch5","spm_respsonse","13756.699999809265","img/question_1_7.jpeg","5","mat_07","6","1","1","13756.699999809265","","","","","","","","","","","","","","","","","","","","",""
"","","","","","html-keyboard-response","18","156764","0.0-2.0-2.0-0.7","5d520a2a08c3b00019384072","E1","batch5","spm_show_trial_num","null","<p class=block-text>Trial 8 out of 60</p>","null","","","","","","","","","","","","","","","","","","","","","","","","","",""
"","","","","","image-button-response","19","166439","0.0-2.0-2.0-1.7","5d520a2a08c3b00019384072","E1","batch5","spm_respsonse","9672.899999856949","img/question_1_8.jpeg","1","mat_08","2","1","1","9672.899999856949","","","","","","","","","","","","","","","","","","","","",""
"","","","","","html-keyboard-response","20","167492","0.0-2.0-2.0-0.8","5d520a2a08c3b00019384072","E1","batch5","spm_show_trial_num","null","<p class=block-text>Trial 9 out of 60</p>","null","","","","","","","","","","","","","","","","","","","","","","","","","",""
"","","","","","image-button-response","21","177148","0.0-2.0-2.0-1.8","5d520a2a08c3b00019384072","E1","batch5","spm_respsonse","9653.600000143051","img/question_1_9.jpeg","0","mat_09","1","1","1","9653.600000143051","","","","","","","","","","","","","","","","","","","","",""
"","","","","","html-keyboard-response","22","178200","0.0-2.0-2.0-0.9","5d520a2a08c3b00019384072","E1","batch5","spm_show_trial_num","null","<p class=block-text>Trial 10 out of 60</p>","null","","","","","","","","","","","","","","","","","","","","","","","","","",""
"","","","","","image-button-response","23","186355","0.0-2.0-2.0-1.9","5d520a2a08c3b00019384072","E1","batch5","spm_respsonse","8152.900000095367","img/question_1_10.jpeg","2","mat_10","3","1","1","8152.900000095367","","","","","","","","","","","","","","","","","","","","",""
"","","","","","html-keyboard-response","24","187407","0.0-2.0-2.0-0.10","5d520a2a08c3b00019384072","E1","batch5","spm_show_trial_num","null","<p class=block-text>Trial 11 out of 60</p>","null","","","","","","","","","","","","","","","","","","","","","","","","","",""
"","","","","","image-button-response","25","201305","0.0-2.0-2.0-1.10","5d520a2a08c3b00019384072","E1","batch5","spm_respsonse","13895.899999856949","img/question_1_11.jpeg","3","mat_11","4","1","1","13895.899999856949","","","","","","","","","","","","","","","","","","","","",""
"","","","","","html-keyboard-response","26","202357","0.0-2.0-2.0-0.11","5d520a2a08c3b00019384072","E1","batch5","spm_show_trial_num","null","<p class=block-text>Trial 12 out of 60</p>","null","","","","","","","","","","","","","","","","","","","","","","","","","",""
"","","","","","image-button-response","27","218097","0.0-2.0-2.0-1.11","5d520a2a08c3b00019384072","E1","batch5","spm_respsonse","15736.900000095367","img/question_1_12.jpeg","4","mat_12","5","1","1","15736.900000095367","","","","","","","","","","","","","","","","","","","","",""
"","","","","","html-keyboard-response","28","219151","0.0-2.0-2.0-0.12","5d520a2a08c3b00019384072","E1","batch5","spm_show_trial_num","null","<p class=block-text>Trial 13 out of 60</p>","null","","","","","","","","","","","","","","","","","","","","","","","","","",""
"","","","","","image-button-response","29","225624","0.0-2.0-2.0-1.12","5d520a2a08c3b00019384072","E1","batch5","spm_respsonse","6470.599999904633","img/question_2_1.jpeg","1","mat_13","2","1","1","6470.599999904633","","","","","","","","","","","","","","","","","","","","",""
"","","","","","html-keyboard-response","30","226676","0.0-2.0-2.0-0.13","5d520a2a08c3b00019384072","E1","batch5","spm_show_trial_num","null","<p class=block-text>Trial 14 out of 60</p>","null","","","","","","","","","","","","","","","","","","","","","","","","","",""
"","","","","","image-button-response","31","232379","0.0-2.0-2.0-1.13","5d520a2a08c3b00019384072","E1","batch5","spm_respsonse","5701","img/question_2_2.jpeg","5","mat_14","6","1","1","5701","","","","","","","","","","","","","","","","","","","","",""
"","","","","","html-keyboard-response","32","233432","0.0-2.0-2.0-0.14","5d520a2a08c3b00019384072","E1","batch5","spm_show_trial_num","null","<p class=block-text>Trial 15 out of 60</p>","null","","","","","","","","","","","","","","","","","","","","","","","","","",""
"","","","","","image-button-response","33","237479","0.0-2.0-2.0-1.14","5d520a2a08c3b00019384072","E1","batch5","spm_respsonse","4044.399999856949","img/question_2_3.jpeg","0","mat_15","1","1","1","4044.399999856949","","","","","","","","","","","","","","","","","","","","",""
"","","","","","html-keyboard-response","34","238531","0.0-2.0-2.0-0.15","5d520a2a08c3b00019384072","E1","batch5","spm_show_trial_num","null","<p class=block-text>Trial 16 out of 60</p>","null","","","","","","","","","","","","","","","","","","","","","","","","","",""
"","","","","","image-button-response","35","245950","0.0-2.0-2.0-1.15","5d520a2a08c3b00019384072","E1","batch5","spm_respsonse","7416.5","img/question_2_4.jpeg","1","mat_16","2","1","1","7416.5","","","","","","","","","","","","","","","","","","","","",""
"","","","","","html-keyboard-response","36","247004","0.0-2.0-2.0-0.16","5d520a2a08c3b00019384072","E1","batch5","spm_show_trial_num","null","<p class=block-text>Trial 17 out of 60</p>","null","","","","","","","","","","","","","","","","","","","","","","","","","",""
"","","","","","image-button-response","37","253353","0.0-2.0-2.0-1.16","5d520a2a08c3b00019384072","E1","batch5","spm_respsonse","6347.100000143051","img/question_2_5.jpeg","0","mat_17","1","1","1","6347.100000143051","","","","","","","","","","","","","","","","","","","","",""
"","","","","","html-keyboard-response","38","254407","0.0-2.0-2.0-0.17","5d520a2a08c3b00019384072","E1","batch5","spm_show_trial_num","null","<p class=block-text>Trial 18 out of 60</p>","null","","","","","","","","","","","","","","","","","","","","","","","","","",""
"","","","","","image-button-response","39","264557","0.0-2.0-2.0-1.17","5d520a2a08c3b00019384072","E1","batch5","spm_respsonse","10148.200000047684","img/question_2_6.jpeg","2","mat_18","3","1","1","10148.200000047684","","","","","","","","","","","","","","","","","","","","",""
"","","","","","html-keyboard-response","40","265610","0.0-2.0-2.0-0.18","5d520a2a08c3b00019384072","E1","batch5","spm_show_trial_num","null","<p class=block-text>Trial 19 out of 60</p>","null","","","","","","","","","","","","","","","","","","","","","","","","","",""
"","","","","","image-button-response","41","277566","0.0-2.0-2.0-1.18","5d520a2a08c3b00019384072","E1","batch5","spm_respsonse","11953.099999904633","img/question_2_7.jpeg","4","mat_19","5","1","1","11953.099999904633","","","","","","","","","","","","","","","","","","","","",""
"","","","","","html-keyboard-response","42","278619","0.0-2.0-2.0-0.19","5d520a2a08c3b00019384072","E1","batch5","spm_show_trial_num","null","<p class=block-text>Trial 20 out of 60</p>","null","","","","","","","","","","","","","","","","","","","","","","","","","",""
"","","","","","image-button-response","43","285382","0.0-2.0-2.0-1.19","5d520a2a08c3b00019384072","E1","batch5","spm_respsonse","6760.699999809265","img/question_2_8.jpeg","5","mat_20","6","1","1","6760.699999809265","","","","","","","","","","","","","","","","","","","","",""
"","","","","","html-keyboard-response","44","286435","0.0-2.0-2.0-0.20","5d520a2a08c3b00019384072","E1","batch5","spm_show_trial_num","null","<p class=block-text>Trial 21 out of 60</p>","null","","","","","","","","","","","","","","","","","","","","","","","","","",""
"","","","","","image-button-response","45","294306","0.0-2.0-2.0-1.20","5d520a2a08c3b00019384072","E1","batch5","spm_respsonse","7869.300000190735","img/question_2_9.jpeg","3","mat_21","4","1","1","7869.300000190735","","","","","","","","","","","","","","","","","","","","",""
"","","","","","html-keyboard-response","46","295358","0.0-2.0-2.0-0.21","5d520a2a08c3b00019384072","E1","batch5","spm_show_trial_num","null","<p class=block-text>Trial 22 out of 60</p>","null","","","","","","","","","","","","","","","","","","","","","","","","","",""
"","","","","","image-button-response","47","302529","0.0-2.0-2.0-1.21","5d520a2a08c3b00019384072","E1","batch5","spm_respsonse","7168.400000095367","img/question_2_10.jpeg","2","mat_22","3","1","1","7168.400000095367","","","","","","","","","","","","","","","","","","","","",""
"","","","","","html-keyboard-response","48","303581","0.0-2.0-2.0-0.22","5d520a2a08c3b00019384072","E1","batch5","spm_show_trial_num","null","<p class=block-text>Trial 23 out of 60</p>","null","","","","","","","","","","","","","","","","","","","","","","","","","",""
"","","","","","image-button-response","49","312779","0.0-2.0-2.0-1.22","5d520a2a08c3b00019384072","E1","batch5","spm_respsonse","9195.600000143051","img/question_2_11.jpeg","3","mat_23","4","1","1","9195.600000143051","","","","","","","","","","","","","","","","","","","","",""
"","","","","","html-keyboard-response","50","313831","0.0-2.0-2.0-0.23","5d520a2a08c3b00019384072","E1","batch5","spm_show_trial_num","null","<p class=block-text>Trial 24 out of 60</p>","null","","","","","","","","","","","","","","","","","","","","","","","","","",""
"","","","","","image-button-response","51","336502","0.0-2.0-2.0-1.23","5d520a2a08c3b00019384072","E1","batch5","spm_respsonse","22669","img/question_2_12.jpeg","4","mat_24","5","1","1","22669","","","","","","","","","","","","","","","","","","","","",""
"","","","","","html-button-response","52","339474","0.0-2.0-3.0","5d520a2a08c3b00019384072","E1","batch5","attention_check","2720.2000000476837","<p class = block-text>Attention check: Please choose 1<br></p>","0","","","true","","","","","","","","","","","","","","","","","","","","","","",""
"","","","","","html-keyboard-response","53","340276","0.0-2.0-4.0-0.0","5d520a2a08c3b00019384072","E1","batch5","spm_show_trial_num","null","<p class=block-text>Trial 25 out of 60</p>","null","","","","","","","","","","","","","","","","","","","","","","","","","",""
"","","","","","image-button-response","54","351588","0.0-2.0-4.0-1.0","5d520a2a08c3b00019384072","E1","batch5","spm_respsonse","11309.299999952316","img/question_3_1.jpeg","7","mat_25","8","1","1","11309.299999952316","","","","","","","","","","","","","","","","","","","","",""
"","","","","","html-keyboard-response","55","352641","0.0-2.0-4.0-0.1","5d520a2a08c3b00019384072","E1","batch5","spm_show_trial_num","null","<p class=block-text>Trial 26 out of 60</p>","null","","","","","","","","","","","","","","","","","","","","","","","","","",""
"","","","","","image-button-response","56","362409","0.0-2.0-4.0-1.1","5d520a2a08c3b00019384072","E1","batch5","spm_respsonse","9765.299999952316","img/question_3_2.jpeg","1","mat_26","2","1","1","9765.299999952316","","","","","","","","","","","","","","","","","","","","",""
"","","","","","html-keyboard-response","57","363462","0.0-2.0-4.0-0.2","5d520a2a08c3b00019384072","E1","batch5","spm_show_trial_num","null","<p class=block-text>Trial 27 out of 60</p>","null","","","","","","","","","","","","","","","","","","","","","","","","","",""
"","","","","","image-button-response","58","381607","0.0-2.0-4.0-1.2","5d520a2a08c3b00019384072","E1","batch5","spm_respsonse","18142.39999985695","img/question_3_3.jpeg","2","mat_27","3","1","1","18142.39999985695","","","","","","","","","","","","","","","","","","","","",""
"","","","","","html-keyboard-response","59","382660","0.0-2.0-4.0-0.3","5d520a2a08c3b00019384072","E1","batch5","spm_show_trial_num","null","<p class=block-text>Trial 28 out of 60</p>","null","","","","","","","","","","","","","","","","","","","","","","","","","",""
"","","","","","image-button-response","60","398655","0.0-2.0-4.0-1.3","5d520a2a08c3b00019384072","E1","batch5","spm_respsonse","15992.799999952316","img/question_3_4.jpeg","7","mat_28","8","1","1","15992.799999952316","","","","","","","","","","","","","","","","","","","","",""
"","","","","","html-keyboard-response","61","399707","0.0-2.0-4.0-0.4","5d520a2a08c3b00019384072","E1","batch5","spm_show_trial_num","null","<p class=block-text>Trial 29 out of 60</p>","null","","","","","","","","","","","","","","","","","","","","","","","","","",""
"","","","","","image-button-response","62","413807","0.0-2.0-4.0-1.4","5d520a2a08c3b00019384072","E1","batch5","spm_respsonse","14098","img/question_3_5.jpeg","6","mat_29","7","1","1","14098","","","","","","","","","","","","","","","","","","","","",""
"","","","","","html-keyboard-response","63","414860","0.0-2.0-4.0-0.5","5d520a2a08c3b00019384072","E1","batch5","spm_show_trial_num","null","<p class=block-text>Trial 30 out of 60</p>","null","","","","","","","","","","","","","","","","","","","","","","","","","",""
"","","","","","image-button-response","64","441142","0.0-2.0-4.0-1.5","5d520a2a08c3b00019384072","E1","batch5","spm_respsonse","26279.700000047684","img/question_3_6.jpeg","3","mat_30","4","1","1","26279.700000047684","","","","","","","","","","","","","","","","","","","","",""
"","","","","","html-keyboard-response","65","442197","0.0-2.0-4.0-0.6","5d520a2a08c3b00019384072","E1","batch5","spm_show_trial_num","null","<p class=block-text>Trial 31 out of 60</p>","null","","","","","","","","","","","","","","","","","","","","","","","","","",""
"","","","","","image-button-response","66","454806","0.0-2.0-4.0-1.6","5d520a2a08c3b00019384072","E1","batch5","spm_respsonse","12606.600000143051","img/question_3_7.jpeg","4","mat_31","5","1","1","12606.600000143051","","","","","","","","","","","","","","","","","","","","",""
"","","","","","html-keyboard-response","67","455859","0.0-2.0-4.0-0.7","5d520a2a08c3b00019384072","E1","batch5","spm_show_trial_num","null","<p class=block-text>Trial 32 out of 60</p>","null","","","","","","","","","","","","","","","","","","","","","","","","","",""
"","","","","","image-button-response","68","467743","0.0-2.0-4.0-1.7","5d520a2a08c3b00019384072","E1","batch5","spm_respsonse","11882.299999952316","img/question_3_8.jpeg","0","mat_32","1","1","1","11882.299999952316","","","","","","","","","","","","","","","","","","","","",""
"","","","","","html-keyboard-response","69","468796","0.0-2.0-4.0-0.8","5d520a2a08c3b00019384072","E1","batch5","spm_show_trial_num","null","<p class=block-text>Trial 33 out of 60</p>","null","","","","","","","","","","","","","","","","","","","","","","","","","",""
"","","","","","image-button-response","70","484274","0.0-2.0-4.0-1.8","5d520a2a08c3b00019384072","E1","batch5","spm_respsonse","15477","img/question_3_9.jpeg","6","mat_33","7","1","1","15477","","","","","","","","","","","","","","","","","","","","",""
"","","","","","html-keyboard-response","71","485325","0.0-2.0-4.0-0.9","5d520a2a08c3b00019384072","E1","batch5","spm_show_trial_num","null","<p class=block-text>Trial 34 out of 60</p>","null","","","","","","","","","","","","","","","","","","","","","","","","","",""
"","","","","","image-button-response","72","509359","0.0-2.0-4.0-1.9","5d520a2a08c3b00019384072","E1","batch5","spm_respsonse","24031.300000190735","img/question_3_10.jpeg","3","mat_34","6","0","0","24031.300000190735","","","","","","","","","","","","","","","","","","","","",""
"","","","","","html-keyboard-response","73","510411","0.0-2.0-4.0-0.10","5d520a2a08c3b00019384072","E1","batch5","spm_show_trial_num","null","<p class=block-text>Trial 35 out of 60</p>","null","","","","","","","","","","","","","","","","","","","","","","","","","",""
"","","","","","image-button-response","74","564197","0.0-2.0-4.0-1.10","5d520a2a08c3b00019384072","E1","batch5","spm_respsonse","53783.5","img/question_3_11.jpeg","0","mat_35","1","1","1","53783.5","","","","","","","","","","","","","","","","","","","","",""
"","","","","","html-keyboard-response","75","565250","0.0-2.0-4.0-0.11","5d520a2a08c3b00019384072","E1","batch5","spm_show_trial_num","null","<p class=block-text>Trial 36 out of 60</p>","null","","","","","","","","","","","","","","","","","","","","","","","","","",""
"","","","","","image-button-response","76","603372","0.0-2.0-4.0-1.11","5d520a2a08c3b00019384072","E1","batch5","spm_respsonse","38119.800000190735","img/question_3_12.jpeg","2","mat_36","2","0","0","38119.800000190735","","","","","","","","","","","","","","","","","","","","",""
"","","","","","html-keyboard-response","77","604425","0.0-2.0-4.0-0.12","5d520a2a08c3b00019384072","E1","batch5","spm_show_trial_num","null","<p class=block-text>Trial 37 out of 60</p>","null","","","","","","","","","","","","","","","","","","","","","","","","","",""
"","","","","","image-button-response","78","609789","0.0-2.0-4.0-1.12","5d520a2a08c3b00019384072","E1","batch5","spm_respsonse","5363.200000047684","img/question_4_1.jpeg","2","mat_37","3","1","1","5363.200000047684","","","","","","","","","","","","","","","","","","","","",""
"","","","","","html-keyboard-response","79","610842","0.0-2.0-4.0-0.13","5d520a2a08c3b00019384072","E1","batch5","spm_show_trial_num","null","<p class=block-text>Trial 38 out of 60</p>","null","","","","","","","","","","","","","","","","","","","","","","","","","",""
"","","","","","image-button-response","80","621197","0.0-2.0-4.0-1.13","5d520a2a08c3b00019384072","E1","batch5","spm_respsonse","10352.899999856949","img/question_4_2.jpeg","3","mat_38","4","1","1","10352.899999856949","","","","","","","","","","","","","","","","","","","","",""
"","","","","","html-keyboard-response","81","622250","0.0-2.0-4.0-0.14","5d520a2a08c3b00019384072","E1","batch5","spm_show_trial_num","null","<p class=block-text>Trial 39 out of 60</p>","null","","","","","","","","","","","","","","","","","","","","","","","","","",""
"","","","","","image-button-response","82","638780","0.0-2.0-4.0-1.14","5d520a2a08c3b00019384072","E1","batch5","spm_respsonse","16527.400000095367","img/question_4_3.jpeg","2","mat_39","3","1","1","16527.400000095367","","","","","","","","","","","","","","","","","","","","",""
"","","","","","html-keyboard-response","83","639832","0.0-2.0-4.0-0.15","5d520a2a08c3b00019384072","E1","batch5","spm_show_trial_num","null","<p class=block-text>Trial 40 out of 60</p>","null","","","","","","","","","","","","","","","","","","","","","","","","","",""
"","","","","","image-button-response","84","650246","0.0-2.0-4.0-1.15","5d520a2a08c3b00019384072","E1","batch5","spm_respsonse","10412.400000095367","img/question_4_4.jpeg","6","mat_40","7","1","1","10412.400000095367","","","","","","","","","","","","","","","","","","","","",""
"","","","","","html-keyboard-response","85","651299","0.0-2.0-4.0-0.16","5d520a2a08c3b00019384072","E1","batch5","spm_show_trial_num","null","<p class=block-text>Trial 41 out of 60</p>","null","","","","","","","","","","","","","","","","","","","","","","","","","",""
"","","","","","image-button-response","86","664566","0.0-2.0-4.0-1.16","5d520a2a08c3b00019384072","E1","batch5","spm_respsonse","13264.599999904633","img/question_4_5.jpeg","7","mat_41","8","1","1","13264.599999904633","","","","","","","","","","","","","","","","","","","","",""
"","","","","","html-keyboard-response","87","665619","0.0-2.0-4.0-0.17","5d520a2a08c3b00019384072","E1","batch5","spm_show_trial_num","null","<p class=block-text>Trial 42 out of 60</p>","null","","","","","","","","","","","","","","","","","","","","","","","","","",""
"","","","","","image-button-response","88","683407","0.0-2.0-4.0-1.17","5d520a2a08c3b00019384072","E1","batch5","spm_respsonse","17785.099999904633","img/question_4_6.jpeg","5","mat_42","6","1","1","17785.099999904633","","","","","","","","","","","","","","","","","","","","",""
"","","","","","html-keyboard-response","89","684459","0.0-2.0-4.0-0.18","5d520a2a08c3b00019384072","E1","batch5","spm_show_trial_num","null","<p class=block-text>Trial 43 out of 60</p>","null","","","","","","","","","","","","","","","","","","","","","","","","","",""
"","","","","","image-button-response","90","701923","0.0-2.0-4.0-1.18","5d520a2a08c3b00019384072","E1","batch5","spm_respsonse","17461.60000014305","img/question_4_7.jpeg","4","mat_43","5","1","1","17461.60000014305","","","","","","","","","","","","","","","","","","","","",""
"","","","","","html-keyboard-response","91","702975","0.0-2.0-4.0-0.19","5d520a2a08c3b00019384072","E1","batch5","spm_show_trial_num","null","<p class=block-text>Trial 44 out of 60</p>","null","","","","","","","","","","","","","","","","","","","","","","","","","",""
"","","","","","image-button-response","92","729071","0.0-2.0-4.0-1.19","5d520a2a08c3b00019384072","E1","batch5","spm_respsonse","26094.599999904633","img/question_4_8.jpeg","1","mat_44","4","0","0","26094.599999904633","","","","","","","","","","","","","","","","","","","","",""
"","","","","","html-keyboard-response","93","730125","0.0-2.0-4.0-0.20","5d520a2a08c3b00019384072","E1","batch5","spm_show_trial_num","null","<p class=block-text>Trial 45 out of 60</p>","null","","","","","","","","","","","","","","","","","","","","","","","","","",""
"","","","","","image-button-response","94","759995","0.0-2.0-4.0-1.20","5d520a2a08c3b00019384072","E1","batch5","spm_respsonse","29868.5","img/question_4_9.jpeg","0","mat_45","1","1","1","29868.5","","","","","","","","","","","","","","","","","","","","",""
"","","","","","html-keyboard-response","95","761047","0.0-2.0-4.0-0.21","5d520a2a08c3b00019384072","E1","batch5","spm_show_trial_num","null","<p class=block-text>Trial 46 out of 60</p>","null","","","","","","","","","","","","","","","","","","","","","","","","","",""
"","","","","","image-button-response","96","797583","0.0-2.0-4.0-1.21","5d520a2a08c3b00019384072","E1","batch5","spm_respsonse","36534.299999952316","img/question_4_10.jpeg","1","mat_46","2","1","1","36534.299999952316","","","","","","","","","","","","","","","","","","","","",""
"","","","","","html-keyboard-response","97","798636","0.0-2.0-4.0-0.22","5d520a2a08c3b00019384072","E1","batch5","spm_show_trial_num","null","<p class=block-text>Trial 47 out of 60</p>","null","","","","","","","","","","","","","","","","","","","","","","","","","",""
"","","","","","image-button-response","98","828455","0.0-2.0-4.0-1.22","5d520a2a08c3b00019384072","E1","batch5","spm_respsonse","29817.799999952316","img/question_4_11.jpeg","4","mat_47","5","1","1","29817.799999952316","","","","","","","","","","","","","","","","","","","","",""
"","","","","","html-keyboard-response","99","829508","0.0-2.0-4.0-0.23","5d520a2a08c3b00019384072","E1","batch5","spm_show_trial_num","null","<p class=block-text>Trial 48 out of 60</p>","null","","","","","","","","","","","","","","","","","","","","","","","","","",""
"","","","","","image-button-response","100","867457","0.0-2.0-4.0-1.23","5d520a2a08c3b00019384072","E1","batch5","spm_respsonse","37945.59999990463","img/question_4_12.jpeg","7","mat_48","6","0","0","37945.59999990463","","","","","","","","","","","","","","","","","","","","",""
"","","","","","html-keyboard-response","101","868509","0.0-2.0-4.0-0.24","5d520a2a08c3b00019384072","E1","batch5","spm_show_trial_num","null","<p class=block-text>Trial 49 out of 60</p>","null","","","","","","","","","","","","","","","","","","","","","","","","","",""
"","","","","","image-button-response","102","898124","0.0-2.0-4.0-1.24","5d520a2a08c3b00019384072","E1","batch5","spm_respsonse","29613.299999952316","img/question_5_1.jpeg","6","mat_49","7","1","1","29613.299999952316","","","","","","","","","","","","","","","","","","","","",""
"","","","","","html-keyboard-response","103","899177","0.0-2.0-4.0-0.25","5d520a2a08c3b00019384072","E1","batch5","spm_show_trial_num","null","<p class=block-text>Trial 50 out of 60</p>","null","","","","","","","","","","","","","","","","","","","","","","","","","",""
"","","","","","image-button-response","104","930353","0.0-2.0-4.0-1.25","5d520a2a08c3b00019384072","E1","batch5","spm_respsonse","31173.799999952316","img/question_5_2.jpeg","2","mat_50","6","0","0","31173.799999952316","","","","","","","","","","","","","","","","","","","","",""
"","","","","","html-keyboard-response","105","931407","0.0-2.0-4.0-0.26","5d520a2a08c3b00019384072","E1","batch5","spm_show_trial_num","null","<p class=block-text>Trial 51 out of 60</p>","null","","","","","","","","","","","","","","","","","","","","","","","","","",""
"","","","","","image-button-response","106","945997","0.0-2.0-4.0-1.26","5d520a2a08c3b00019384072","E1","batch5","spm_respsonse","14588.299999952316","img/question_5_3.jpeg","7","mat_51","8","1","1","14588.299999952316","","","","","","","","","","","","","","","","","","","","",""
"","","","","","html-keyboard-response","107","947050","0.0-2.0-4.0-0.27","5d520a2a08c3b00019384072","E1","batch5","spm_show_trial_num","null","<p class=block-text>Trial 52 out of 60</p>","null","","","","","","","","","","","","","","","","","","","","","","","","","",""
"","","","","","image-button-response","108","960825","0.0-2.0-4.0-1.27","5d520a2a08c3b00019384072","E1","batch5","spm_respsonse","13772.5","img/question_5_4.jpeg","2","mat_52","2","0","0","13772.5","","","","","","","","","","","","","","","","","","","","",""
"","","","","","html-keyboard-response","109","961877","0.0-2.0-4.0-0.28","5d520a2a08c3b00019384072","E1","batch5","spm_show_trial_num","null","<p class=block-text>Trial 53 out of 60</p>","null","","","","","","","","","","","","","","","","","","","","","","","","","",""
"","","","","","image-button-response","110","970812","0.0-2.0-4.0-1.28","5d520a2a08c3b00019384072","E1","batch5","spm_respsonse","8933.899999856949","img/question_5_5.jpeg","0","mat_53","1","1","1","8933.899999856949","","","","","","","","","","","","","","","","","","","","",""
"","","","","","html-keyboard-response","111","971865","0.0-2.0-4.0-0.29","5d520a2a08c3b00019384072","E1","batch5","spm_show_trial_num","null","<p class=block-text>Trial 54 out of 60</p>","null","","","","","","","","","","","","","","","","","","","","","","","","","",""
"","","","","","image-button-response","112","999112","0.0-2.0-4.0-1.29","5d520a2a08c3b00019384072","E1","batch5","spm_respsonse","27244.799999952316","img/question_5_6.jpeg","4","mat_54","5","1","1","27244.799999952316","","","","","","","","","","","","","","","","","","","","",""
"","","","","","html-keyboard-response","113","1000166","0.0-2.0-4.0-0.30","5d520a2a08c3b00019384072","E1","batch5","spm_show_trial_num","null","<p class=block-text>Trial 55 out of 60</p>","null","","","","","","","","","","","","","","","","","","","","","","","","","",""
"","","","","","image-button-response","114","1021764","0.0-2.0-4.0-1.30","5d520a2a08c3b00019384072","E1","batch5","spm_respsonse","21596.299999952316","img/question_5_7.jpeg","0","mat_55","1","1","1","21596.299999952316","","","","","","","","","","","","","","","","","","","","",""
"","","","","","html-keyboard-response","115","1022818","0.0-2.0-4.0-0.31","5d520a2a08c3b00019384072","E1","batch5","spm_show_trial_num","null","<p class=block-text>Trial 56 out of 60</p>","null","","","","","","","","","","","","","","","","","","","","","","","","","",""
"","","","","","image-button-response","116","1043594","0.0-2.0-4.0-1.31","5d520a2a08c3b00019384072","E1","batch5","spm_respsonse","20774","img/question_5_8.jpeg","6","mat_56","6","0","0","20774","","","","","","","","","","","","","","","","","","","","",""
"","","","","","html-keyboard-response","117","1044647","0.0-2.0-4.0-0.32","5d520a2a08c3b00019384072","E1","batch5","spm_show_trial_num","null","<p class=block-text>Trial 57 out of 60</p>","null","","","","","","","","","","","","","","","","","","","","","","","","","",""
"","","","","","image-button-response","118","1067624","0.0-2.0-4.0-1.32","5d520a2a08c3b00019384072","E1","batch5","spm_respsonse","22975.39999985695","img/question_5_9.jpeg","2","mat_57","3","1","1","22975.39999985695","","","","","","","","","","","","","","","","","","","","",""
"","","","","","html-keyboard-response","119","1068677","0.0-2.0-4.0-0.33","5d520a2a08c3b00019384072","E1","batch5","spm_show_trial_num","null","<p class=block-text>Trial 58 out of 60</p>","null","","","","","","","","","","","","","","","","","","","","","","","","","",""
"","","","","","image-button-response","120","1102350","0.0-2.0-4.0-1.33","5d520a2a08c3b00019384072","E1","batch5","spm_respsonse","33670.700000047684","img/question_5_10.jpeg","5","mat_58","2","0","0","33670.700000047684","","","","","","","","","","","","","","","","","","","","",""
"","","","","","html-keyboard-response","121","1103402","0.0-2.0-4.0-0.34","5d520a2a08c3b00019384072","E1","batch5","spm_show_trial_num","null","<p class=block-text>Trial 59 out of 60</p>","null","","","","","","","","","","","","","","","","","","","","","","","","","",""
"","","","","","image-button-response","122","1150882","0.0-2.0-4.0-1.34","5d520a2a08c3b00019384072","E1","batch5","spm_respsonse","47477.799999952316","img/question_5_11.jpeg","6","mat_59","4","0","0","47477.799999952316","","","","","","","","","","","","","","","","","","","","",""
"","","","","","html-keyboard-response","123","1151934","0.0-2.0-4.0-0.35","5d520a2a08c3b00019384072","E1","batch5","spm_show_trial_num","null","<p class=block-text>Trial 60 out of 60</p>","null","","","","","","","","","","","","","","","","","","","","","","","","","",""
"","","","","","image-button-response","124","1201345","0.0-2.0-4.0-1.35","5d520a2a08c3b00019384072","E1","batch5","spm_respsonse","49408.59999990463","img/question_5_12.jpeg","0","mat_60","5","0","0","49408.59999990463","","","","","","","","","","","","","","","","","","","","",""
"","","","","","html-button-response","125","1344647","0.0-2.0-5.0","5d520a2a08c3b00019384072","E1","batch5","spm_goodbye","143049.5","<p class= block-text>This concludes the Standard Progressive Matrix game. Thank you for your responses!<br> When you are ready, click the button continue</p>","0","","","","","","","","","","","","","","","","","","","","","","","","","",""
"true","","","","","fullscreen","126","1347468","0.0-3.0-0.0","5d520a2a08c3b00019384072","E1","batch5","","","","","","","","","","","","","","","","","","","","","","","","","","","","","",""
"","","","","","instructions","127","1425563","0.0-3.0-1.0-0.0-0.0","5d520a2a08c3b00019384072","E1","batch5","tol-instructions","78093.59999990463","","","","","","","","[{""page_index"":0,""viewing_time"":13189.099999904633},{""page_index"":1,""viewing_time"":7596.100000143051},{""page_index"":2,""viewing_time"":3907.0999999046326},{""page_index"":3,""viewing_time"":11248.799999952316},{""page_index"":4,""viewing_time"":19119.5},{""page_index"":5,""viewing_time"":19900.700000047684},{""page_index"":6,""viewing_time"":3131.9000000953674}]","","","","","","","","","","","","","","","","","","","",""
"","","","","","html-button-response","128","1427459","0.0-3.0-1.0-1.0-0.0","5d520a2a08c3b00019384072","E1","batch5","tol_enter_quiz","1895.7999999523163","<p class=block-text> Let's answer a few questions <br>","0","","","","","","","","","","","","","","","","","","","","","","","","","",""
"","","","","","html-button-response","129","1433722","0.0-3.0-1.0-1.0-1.0","5d520a2a08c3b00019384072","E1","batch5","tol_quiz","6261.299999952316","<p class = block-text>True or False: You can only move the ball on top of a peg. <br></p>","0","","","true","","","","","","","","","","","","","","","","","","","","","","",""
"","","","","","html-button-response","130","1435224","0.0-3.0-1.0-1.0-2.0","5d520a2a08c3b00019384072","E1","batch5","tol_quiz_feedback","1500.3000001907349","<p class = block-text>Correct! You can only move the ball on top of a peg.</p>","0","","","","","","","","","","","","","","","","","","","","","","","","","",""
"","","","","","html-button-response","131","1438150","0.0-3.0-1.0-1.0-3.0","5d520a2a08c3b00019384072","E1","batch5","tol_quiz","2924.7999999523163","<p class = block-text>True or False: You should try to match your board with the target board with fewest moves possible. <br></p>","0","","","true","","","","","","","","","","","","","","","","","","","","","","",""
"","","","","","html-button-response","132","1439775","0.0-3.0-1.0-1.0-4.0","5d520a2a08c3b00019384072","E1","batch5","tol_quiz_feedback","1623.2999999523163","<p class = block-text>Correct! </p>","0","","","","","","","","","","","","","","","","","","","","","","","","","",""
"","","","","","html-button-response","133","1442088","0.0-3.0-2.0","5d520a2a08c3b00019384072","E1","batch5","","2311.2000000476837","<p class=block-text> Now that you've understood the game, let's practice a few easier examples before we start!<br> <br>","0","","","","","","","","","","","","","","","","","","","","","","","","","",""
"","","","","","single-stim-button","134","1444611","0.0-3.0-3.0-0.0","5d520a2a08c3b00019384072","E1","batch5","tol_practice","2521","","","","","","","","","tol_peg_2","2521","2521","0","[[1,2,0],[0,0],[0]]","1","[[1,2,0],[0,0],[3]]","practice","2521","","","","","","","","","","",""
"","","","","","single-stim-button","135","1446430","0.0-3.0-3.0-1.0","5d520a2a08c3b00019384072","E1","batch5","tol_practice","1817","","","","","","","","","tol_peg_3","1817","1817","0","[[1,2,0],[0,0],[3]]","1","[[1,2,0],[0,0],[3]]","practice","1817","","","","","","","","","","",""
"","","","","","poldrack-single-stim","136","1447433","0.0-3.0-4.0","5d520a2a08c3b00019384072","E1","batch5","tol_feedback","-1","","","","","true","","","","","1000","1000","500","","","","","","-1","none","true","","0","","","","","",""
"","","","","","single-stim-button","137","1451303","0.0-3.0-5.0-0.0","5d520a2a08c3b00019384072","E1","batch5","tol_practice","3869","","","","","","","","","tol_peg_1","3869","3869","0","[[1,0,0],[3,0],[0]]","2","[[0,0,0],[3,1],[2]]","practice","3869","","","","","","","","","","",""
"","","","","","single-stim-button","138","1453213","0.0-3.0-5.0-1.0","5d520a2a08c3b00019384072","E1","batch5","tol_practice","1909","","","","","","","","","tol_peg_3","1909","1909","0","[[1,0,0],[3,0],[2]]","2","[[0,0,0],[3,1],[2]]","practice","1909","","","","","","","","","","",""
"","","","","","single-stim-button","139","1454670","0.0-3.0-5.1-0.1","5d520a2a08c3b00019384072","E1","batch5","tol_practice","1457","","","","","","","","","tol_peg_1","1457","1457","0","[[0,0,0],[3,0],[2]]","3","[[0,0,0],[3,1],[2]]","practice","1457","","","","","","","","","","",""
"","","","","","single-stim-button","140","1455579","0.0-3.0-5.1-1.1","5d520a2a08c3b00019384072","E1","batch5","tol_practice","909","","","","","","","","","tol_peg_2","909","909","0","[[0,0,0],[3,1],[2]]","3","[[0,0,0],[3,1],[2]]","practice","909","","","","","","","","","","",""
"","","","","","poldrack-single-stim","141","1456581","0.0-3.0-6.0","5d520a2a08c3b00019384072","E1","batch5","tol_feedback","-1","","","","","true","","","","","1000","1000","500","","","","","","-1","none","true","","0","","","","","",""
"","","","","","single-stim-button","142","1463412","0.0-3.0-7.0-0.0","5d520a2a08c3b00019384072","E1","batch5","tol_practice","6831","","","","","","","","","tol_peg_2","6831","6831","0","[[1,2,0],[0,0],[0]]","4","[[1,0,0],[2,0],[3]]","practice","6831","","","","","","","","","","",""
"","","","","","single-stim-button","143","1464839","0.0-3.0-7.0-1.0","5d520a2a08c3b00019384072","E1","batch5","tol_practice","1425","","","","","","","","","tol_peg_3","1425","1425","0","[[1,2,0],[0,0],[3]]","4","[[1,0,0],[2,0],[3]]","practice","1425","","","","","","","","","","",""
"","","","","","single-stim-button","144","1467046","0.0-3.0-7.1-0.1","5d520a2a08c3b00019384072","E1","batch5","tol_practice","2206","","","","","","","","","tol_peg_1","2206","2206","0","[[1,0,0],[0,0],[3]]","5","[[1,0,0],[2,0],[3]]","practice","2206","","","","","","","","","","",""
"","","","","","single-stim-button","145","1468685","0.0-3.0-7.1-1.1","5d520a2a08c3b00019384072","E1","batch5","tol_practice","1638","","","","","","","","","tol_peg_2","1638","1638","0","[[1,0,0],[2,0],[3]]","5","[[1,0,0],[2,0],[3]]","practice","1638","","","","","","","","","","",""
"","","","","","poldrack-single-stim","146","1469687","0.0-3.0-8.0","5d520a2a08c3b00019384072","E1","batch5","tol_feedback","-1","","","","","true","","","","","1000","1000","500","","","","","","-1","none","true","","0","","","","","",""
"","","","","","html-button-response","147","1473029","0.0-3.0-9.0","5d520a2a08c3b00019384072","E1","batch5","tol_instruction","3339.9000000953674","<div class = centerbox><p class = center-block-text>Great job! You are done with practice trials<br>You are about to start official trials.<br> <br> Problem <strong>1</strong> out of 25 problems</p></div>","0","","","","","","","","","","","","","","","","","","","","","","","","","",""
"","","","","","single-stim-button","148","1493104","0.0-3.0-10.0-0.0","5d520a2a08c3b00019384072","E1","batch5","tol_tohand","19074","","","","","","","","","tol_peg_2","19074","19074","0","[[1,2,0],[0,0],[0]]","1","[[1,3,0],[2,0],[0]]","0","0","","","","","","3","","","","",""
"","","","","","single-stim-button","149","1494187","0.0-3.0-10.0-1.0","5d520a2a08c3b00019384072","E1","batch5","tol_toboard","1082","","","","","","","","","tol_peg_3","1082","1082","0","[[1,2,0],[0,0],[3]]","1","[[1,3,0],[2,0],[0]]","0","0","","","","","","3","","","","",""
"","","","","","single-stim-button","150","1495483","0.0-3.0-10.1-0.1","5d520a2a08c3b00019384072","E1","batch5","tol_tohand","1295","","","","","","","","","tol_peg_1","1295","1295","0","[[1,0,0],[0,0],[3]]","2","[[1,3,0],[2,0],[0]]","0","0","","","","","","3","","","","",""
"","","","","","single-stim-button","151","1496975","0.0-3.0-10.1-1.1","5d520a2a08c3b00019384072","E1","batch5","tol_toboard","1492","","","","","","","","","tol_peg_2","1492","1492","0","[[1,0,0],[2,0],[3]]","2","[[1,3,0],[2,0],[0]]","0","0","","","","","","3","","","","",""
"","","","","","single-stim-button","152","1498235","0.0-3.0-10.2-0.2","5d520a2a08c3b00019384072","E1","batch5","tol_tohand","1258","","","","","","","","","tol_peg_3","1258","1258","0","[[1,0,0],[2,0],[0]]","3","[[1,3,0],[2,0],[0]]","0","0","","","","","","3","","","","",""
"","","","","","single-stim-button","153","1499522","0.0-3.0-10.2-1.2","5d520a2a08c3b00019384072","E1","batch5","tol_toboard","1287","","","","","","","","","tol_peg_1","1287","1287","0","[[1,3,0],[2,0],[0]]","3","[[1,3,0],[2,0],[0]]","0","0","","","","","","3","","","","",""
"","","","","","poldrack-single-stim","154","1500525","0.0-3.0-11.0","5d520a2a08c3b00019384072","E1","batch5","tol_feedback","-1","","","","","true","","","","","1000","1000","500","","","","","","-1","none","true","19074","21627","","","","","",""
"","","","","","html-button-response","155","1501641","0.0-3.0-12.0","5d520a2a08c3b00019384072","E1","batch5","tol_trial_num","1115.2000000476837","<div class = centerbox><p class = center-block-text>problem <strong>2</strong> out of 25 problems</p></div>","0","","","","","","","","","","","","","","","","","","","","","","","","","",""
"","","","","","single-stim-button","156","1505238","0.0-3.0-13.0-0.0","5d520a2a08c3b00019384072","E1","batch5","tol_tohand","3595","","","","","","","","","tol_peg_1","3595","3595","0","[[1,0,0],[3,0],[0]]","1","[[2,1,3],[0,0],[0]]","1","0","","","","","","5","","","","",""
"","","","","","single-stim-button","157","1506371","0.0-3.0-13.0-1.0","5d520a2a08c3b00019384072","E1","batch5","tol_toboard","1132","","","","","","","","","tol_peg_3","1132","1132","0","[[1,0,0],[3,0],[2]]","1","[[2,1,3],[0,0],[0]]","1","0","","","","","","5","","","","",""
"","","","","","single-stim-button","158","1512632","0.0-3.0-13.1-0.1","5d520a2a08c3b00019384072","E1","batch5","tol_tohand","6261","","","","","","","","","tol_peg_1","6261","6261","0","[[0,0,0],[3,0],[2]]","2","[[2,1,3],[0,0],[0]]","1","0","","","","","","5","","","","",""
"","","","","","single-stim-button","159","1514016","0.0-3.0-13.1-1.1","5d520a2a08c3b00019384072","E1","batch5","tol_toboard","1382","","","","","","","","","tol_peg_1","1382","1382","0","[[1,0,0],[3,0],[2]]","2","[[2,1,3],[0,0],[0]]","1","0","","","","","","5","","","","",""
"","","","","","single-stim-button","160","1515385","0.0-3.0-13.2-0.2","5d520a2a08c3b00019384072","E1","batch5","tol_tohand","1369","","","","","","","","","tol_peg_3","1369","1369","0","[[1,0,0],[3,0],[0]]","3","[[2,1,3],[0,0],[0]]","1","0","","","","","","5","","","","",""
"","","","","","single-stim-button","161","1516530","0.0-3.0-13.2-1.2","5d520a2a08c3b00019384072","E1","batch5","tol_toboard","1144","","","","","","","","","tol_peg_3","1144","1144","0","[[1,0,0],[3,0],[2]]","3","[[2,1,3],[0,0],[0]]","1","0","","","","","","5","","","","",""
"","","","","","single-stim-button","162","1517467","0.0-3.0-13.3-0.3","5d520a2a08c3b00019384072","E1","batch5","tol_tohand","936","","","","","","","","","tol_peg_1","936","936","0","[[0,0,0],[3,0],[2]]","4","[[2,1,3],[0,0],[0]]","1","0","","","","","","5","","","","",""
"","","","","","single-stim-button","163","1518758","0.0-3.0-13.3-1.3","5d520a2a08c3b00019384072","E1","batch5","tol_toboard","1289","","","","","","","","","tol_peg_2","1289","1289","0","[[0,0,0],[3,1],[2]]","4","[[2,1,3],[0,0],[0]]","1","0","","","","","","5","","","","",""
"","","","","","single-stim-button","164","1520865","0.0-3.0-13.4-0.4","5d520a2a08c3b00019384072","E1","batch5","tol_tohand","2106","","","","","","","","","tol_peg_3","2106","2106","0","[[0,0,0],[3,1],[0]]","5","[[2,1,3],[0,0],[0]]","1","0","","","","","","5","","","","",""
"","","","","","single-stim-button","165","1522446","0.0-3.0-13.4-1.4","5d520a2a08c3b00019384072","E1","batch5","tol_toboard","1580","","","","","","","","","tol_peg_1","1580","1580","0","[[2,0,0],[3,1],[0]]","5","[[2,1,3],[0,0],[0]]","1","0","","","","","","5","","","","",""
"","","","","","single-stim-button","166","1523259","0.0-3.0-13.5-0.5","5d520a2a08c3b00019384072","E1","batch5","tol_tohand","812","","","","","","","","","tol_peg_2","812","812","0","[[2,0,0],[3,0],[0]]","6","[[2,1,3],[0,0],[0]]","1","0","","","","","","5","","","","",""
"","","","","","single-stim-button","167","1524164","0.0-3.0-13.5-1.5","5d520a2a08c3b00019384072","E1","batch5","tol_toboard","904","","","","","","","","","tol_peg_1","904","904","0","[[2,1,0],[3,0],[0]]","6","[[2,1,3],[0,0],[0]]","1","0","","","","","","5","","","","",""
"","","","","","single-stim-button","168","1525184","0.0-3.0-13.6-0.6","5d520a2a08c3b00019384072","E1","batch5","tol_tohand","1019","","","","","","","","","tol_peg_2","1019","1019","0","[[2,1,0],[0,0],[0]]","7","[[2,1,3],[0,0],[0]]","1","0","","","","","","5","","","","",""
"","","","","","single-stim-button","169","1526353","0.0-3.0-13.6-1.6","5d520a2a08c3b00019384072","E1","batch5","tol_toboard","1169","","","","","","","","","tol_peg_1","1169","1169","0","[[2,1,3],[0,0],[0]]","7","[[2,1,3],[0,0],[0]]","1","0","","","","","","5","","","","",""
"","","","","","poldrack-single-stim","170","1527355","0.0-3.0-14.0","5d520a2a08c3b00019384072","E1","batch5","tol_feedback","-1","","","","","true","","","","","1000","1000","500","","","","","","-1","none","true","3595","16098","","","","","",""
"","","","","","html-button-response","171","1528507","0.0-3.0-15.0","5d520a2a08c3b00019384072","E1","batch5","tol_trial_num","1150.9000000953674","<div class = centerbox><p class = center-block-text>problem <strong>3</strong> out of 25 problems</p></div>","0","","","","","","","","","","","","","","","","","","","","","","","","","",""
"","","","","","single-stim-button","172","1541783","0.0-3.0-16.0-0.0","5d520a2a08c3b00019384072","E1","batch5","tol_tohand","13275","","","","","","","","","tol_peg_1","13275","13275","0","[[2,0,0],[0,0],[1]]","1","[[1,2,0],[3,0],[0]]","2","0","","","","","","4","","","","",""
"","","","","","single-stim-button","173","1542987","0.0-3.0-16.0-1.0","5d520a2a08c3b00019384072","E1","batch5","tol_toboard","1203","","","","","","","","","tol_peg_2","1203","1203","0","[[2,0,0],[3,0],[1]]","1","[[1,2,0],[3,0],[0]]","2","0","","","","","","4","","","","",""
"","","","","","single-stim-button","174","1543931","0.0-3.0-16.1-0.1","5d520a2a08c3b00019384072","E1","batch5","tol_tohand","943","","","","","","","","","tol_peg_1","943","943","0","[[0,0,0],[3,0],[1]]","2","[[1,2,0],[3,0],[0]]","2","0","","","","","","4","","","","",""
"","","","","","single-stim-button","175","1545186","0.0-3.0-16.1-1.1","5d520a2a08c3b00019384072","E1","batch5","tol_toboard","1255","","","","","","","","","tol_peg_2","1255","1255","0","[[0,0,0],[3,2],[1]]","2","[[1,2,0],[3,0],[0]]","2","0","","","","","","4","","","","",""
"","","","","","single-stim-button","176","1546269","0.0-3.0-16.2-0.2","5d520a2a08c3b00019384072","E1","batch5","tol_tohand","1081","","","","","","","","","tol_peg_3","1081","1081","0","[[0,0,0],[3,2],[0]]","3","[[1,2,0],[3,0],[0]]","2","0","","","","","","4","","","","",""
"","","","","","single-stim-button","177","1548050","0.0-3.0-16.2-1.2","5d520a2a08c3b00019384072","E1","batch5","tol_toboard","1780","","","","","","","","","tol_peg_1","1780","1780","0","[[1,0,0],[3,2],[0]]","3","[[1,2,0],[3,0],[0]]","2","0","","","","","","4","","","","",""
"","","","","","single-stim-button","178","1549095","0.0-3.0-16.3-0.3","5d520a2a08c3b00019384072","E1","batch5","tol_tohand","1044","","","","","","","","","tol_peg_2","1044","1044","0","[[1,0,0],[3,0],[0]]","4","[[1,2,0],[3,0],[0]]","2","0","","","","","","4","","","","",""
"","","","","","single-stim-button","179","1550460","0.0-3.0-16.3-1.3","5d520a2a08c3b00019384072","E1","batch5","tol_toboard","1364","","","","","","","","","tol_peg_1","1364","1364","0","[[1,2,0],[3,0],[0]]","4","[[1,2,0],[3,0],[0]]","2","0","","","","","","4","","","","",""
"","","","","","poldrack-single-stim","180","1551461","0.0-3.0-17.0","5d520a2a08c3b00019384072","E1","batch5","tol_feedback","-1","","","","","true","","","","","1000","1000","500","","","","","","-1","none","true","13275","16343","","","","","",""
"","","","","","html-button-response","181","1552680","0.0-3.0-18.0","5d520a2a08c3b00019384072","E1","batch5","tol_trial_num","1218.0999999046326","<div class = centerbox><p class = center-block-text>problem <strong>4</strong> out of 25 problems</p></div>","0","","","","","","","","","","","","","","","","","","","","","","","","","",""
"","","","","","single-stim-button","182","1558689","0.0-3.0-19.0-0.0","5d520a2a08c3b00019384072","E1","batch5","tol_tohand","6008","","","","","","","","","tol_peg_2","6008","6008","0","[[3,0,0],[2,0],[0]]","1","[[3,0,0],[1,0],[2]]","3","0","","","","","","3","","","","",""
"","","","","","single-stim-button","183","1560459","0.0-3.0-19.0-1.0","5d520a2a08c3b00019384072","E1","batch5","tol_toboard","1768","","","","","","","","","tol_peg_1","1768","1768","0","[[3,1,0],[2,0],[0]]","1","[[3,0,0],[1,0],[2]]","3","0","","","","","","3","","","","",""
"","","","","","single-stim-button","184","1561474","0.0-3.0-19.1-0.1","5d520a2a08c3b00019384072","E1","batch5","tol_tohand","1014","","","","","","","","","tol_peg_2","1014","1014","0","[[3,1,0],[0,0],[0]]","2","[[3,0,0],[1,0],[2]]","3","0","","","","","","3","","","","",""
"","","","","","single-stim-button","185","1562505","0.0-3.0-19.1-1.1","5d520a2a08c3b00019384072","E1","batch5","tol_toboard","1030","","","","","","","","","tol_peg_3","1030","1030","0","[[3,1,0],[0,0],[2]]","2","[[3,0,0],[1,0],[2]]","3","0","","","","","","3","","","","",""
"","","","","","single-stim-button","186","1563533","0.0-3.0-19.2-0.2","5d520a2a08c3b00019384072","E1","batch5","tol_tohand","1028","","","","","","","","","tol_peg_1","1028","1028","0","[[3,0,0],[0,0],[2]]","3","[[3,0,0],[1,0],[2]]","3","0","","","","","","3","","","","",""
"","","","","","single-stim-button","187","1564527","0.0-3.0-19.2-1.2","5d520a2a08c3b00019384072","E1","batch5","tol_toboard","993","","","","","","","","","tol_peg_2","993","993","0","[[3,0,0],[1,0],[2]]","3","[[3,0,0],[1,0],[2]]","3","0","","","","","","3","","","","",""
"","","","","","poldrack-single-stim","188","1565529","0.0-3.0-20.0","5d520a2a08c3b00019384072","E1","batch5","tol_feedback","-1","","","","","true","","","","","1000","1000","500","","","","","","-1","none","true","6008","8050","","","","","",""
"","","","","","html-button-response","189","1567479","0.0-3.0-21.0","5d520a2a08c3b00019384072","E1","batch5","tol_trial_num","1948.9000000953674","<div class = centerbox><p class = center-block-text>problem <strong>5</strong> out of 25 problems</p></div>","0","","","","","","","","","","","","","","","","","","","","","","","","","",""
"","","","","","single-stim-button","190","1572013","0.0-3.0-22.0-0.0","5d520a2a08c3b00019384072","E1","batch5","tol_tohand","4533","","","","","","","","","tol_peg_2","4533","4533","0","[[1,0,0],[0,0],[3]]","1","[[0,0,0],[1,2],[3]]","4","0","","","","","","7","","","","",""
"","","","","","single-stim-button","191","1573022","0.0-3.0-22.0-1.0","5d520a2a08c3b00019384072","E1","batch5","tol_toboard","1008","","","","","","","","","tol_peg_1","1008","1008","0","[[1,2,0],[0,0],[3]]","1","[[0,0,0],[1,2],[3]]","4","0","","","","","","7","","","","",""
"","","","","","single-stim-button","192","1578374","0.0-3.0-22.1-0.1","5d520a2a08c3b00019384072","E1","batch5","tol_tohand","5351","","","","","","","","","tol_peg_3","5351","5351","0","[[1,2,0],[0,0],[0]]","2","[[0,0,0],[1,2],[3]]","4","0","","","","","","7","","","","",""
"","","","","","single-stim-button","193","1579421","0.0-3.0-22.1-1.1","5d520a2a08c3b00019384072","E1","batch5","tol_toboard","1046","","","","","","","","","tol_peg_2","1046","1046","0","[[1,2,0],[3,0],[0]]","2","[[0,0,0],[1,2],[3]]","4","0","","","","","","7","","","","",""
"","","","","","single-stim-button","194","1580579","0.0-3.0-22.2-0.2","5d520a2a08c3b00019384072","E1","batch5","tol_tohand","1156","","","","","","","","","tol_peg_1","1156","1156","0","[[1,0,0],[3,0],[0]]","3","[[0,0,0],[1,2],[3]]","4","0","","","","","","7","","","","",""
"","","","","","single-stim-button","195","1581810","0.0-3.0-22.2-1.2","5d520a2a08c3b00019384072","E1","batch5","tol_toboard","1231","","","","","","","","","tol_peg_3","1231","1231","0","[[1,0,0],[3,0],[2]]","3","[[0,0,0],[1,2],[3]]","4","0","","","","","","7","","","","",""
"","","","","","single-stim-button","196","1583830","0.0-3.0-22.3-0.3","5d520a2a08c3b00019384072","E1","batch5","tol_tohand","2019","","","","","","","","","tol_peg_2","2019","2019","0","[[1,0,0],[0,0],[2]]","4","[[0,0,0],[1,2],[3]]","4","0","","","","","","7","","","","",""
"","","","","","single-stim-button","197","1584928","0.0-3.0-22.3-1.3","5d520a2a08c3b00019384072","E1","batch5","tol_toboard","1097","","","","","","","","","tol_peg_1","1097","1097","0","[[1,3,0],[0,0],[2]]","4","[[0,0,0],[1,2],[3]]","4","0","","","","","","7","","","","",""
"","","","","","single-stim-button","198","1593090","0.0-3.0-22.4-0.4","5d520a2a08c3b00019384072","E1","batch5","tol_tohand","8161","","","","","","","","","tol_peg_3","8161","8161","0","[[1,3,0],[0,0],[0]]","5","[[0,0,0],[1,2],[3]]","4","0","","","","","","7","","","","",""
"","","","","","single-stim-button","199","1594167","0.0-3.0-22.4-1.4","5d520a2a08c3b00019384072","E1","batch5","tol_toboard","1077","","","","","","","","","tol_peg_2","1077","1077","0","[[1,3,0],[2,0],[0]]","5","[[0,0,0],[1,2],[3]]","4","0","","","","","","7","","","","",""
"","","","","","single-stim-button","200","1596379","0.0-3.0-22.5-0.5","5d520a2a08c3b00019384072","E1","batch5","tol_tohand","2210","","","","","","","","","tol_peg_1","2210","2210","0","[[1,0,0],[2,0],[0]]","6","[[0,0,0],[1,2],[3]]","4","0","","","","","","7","","","","",""
"","","","","","single-stim-button","201","1597377","0.0-3.0-22.5-1.5","5d520a2a08c3b00019384072","E1","batch5","tol_toboard","996","","","","","","","","","tol_peg_2","996","996","0","[[1,0,0],[2,3],[0]]","6","[[0,0,0],[1,2],[3]]","4","0","","","","","","7","","","","",""
"","","","","","single-stim-button","202","1598324","0.0-3.0-22.6-0.6","5d520a2a08c3b00019384072","E1","batch5","tol_tohand","947","","","","","","","","","tol_peg_1","947","947","0","[[0,0,0],[2,3],[0]]","7","[[0,0,0],[1,2],[3]]","4","0","","","","","","7","","","","",""
"","","","","","single-stim-button","203","1599543","0.0-3.0-22.6-1.6","5d520a2a08c3b00019384072","E1","batch5","tol_toboard","1217","","","","","","","","","tol_peg_3","1217","1217","0","[[0,0,0],[2,3],[1]]","7","[[0,0,0],[1,2],[3]]","4","0","","","","","","7","","","","",""
"","","","","","single-stim-button","204","1600401","0.0-3.0-22.7-0.7","5d520a2a08c3b00019384072","E1","batch5","tol_tohand","858","","","","","","","","","tol_peg_2","858","858","0","[[0,0,0],[2,0],[1]]","8","[[0,0,0],[1,2],[3]]","4","0","","","","","","7","","","","",""
"","","","","","single-stim-button","205","1601258","0.0-3.0-22.7-1.7","5d520a2a08c3b00019384072","E1","batch5","tol_toboard","856","","","","","","","","","tol_peg_1","856","856","0","[[3,0,0],[2,0],[1]]","8","[[0,0,0],[1,2],[3]]","4","0","","","","","","7","","","","",""
"","","","","","single-stim-button","206","1602225","0.0-3.0-22.8-0.8","5d520a2a08c3b00019384072","E1","batch5","tol_tohand","966","","","","","","","","","tol_peg_2","966","966","0","[[3,0,0],[0,0],[1]]","9","[[0,0,0],[1,2],[3]]","4","0","","","","","","7","","","","",""
"","","","","","single-stim-button","207","1603024","0.0-3.0-22.8-1.8","5d520a2a08c3b00019384072","E1","batch5","tol_toboard","799","","","","","","","","","tol_peg_1","799","799","0","[[3,2,0],[0,0],[1]]","9","[[0,0,0],[1,2],[3]]","4","0","","","","","","7","","","","",""
"","","","","","single-stim-button","208","1604131","0.0-3.0-22.9-0.9","5d520a2a08c3b00019384072","E1","batch5","tol_tohand","1107","","","","","","","","","tol_peg_3","1107","1107","0","[[3,2,0],[0,0],[0]]","10","[[0,0,0],[1,2],[3]]","4","0","","","","","","7","","","","",""
"","","","","","single-stim-button","209","1604975","0.0-3.0-22.9-1.9","5d520a2a08c3b00019384072","E1","batch5","tol_toboard","843","","","","","","","","","tol_peg_2","843","843","0","[[3,2,0],[1,0],[0]]","10","[[0,0,0],[1,2],[3]]","4","0","","","","","","7","","","","",""
"","","","","","single-stim-button","210","1606004","0.0-3.0-22.10-0.10","5d520a2a08c3b00019384072","E1","batch5","tol_tohand","1028","","","","","","","","","tol_peg_1","1028","1028","0","[[3,0,0],[1,0],[0]]","11","[[0,0,0],[1,2],[3]]","4","0","","","","","","7","","","","",""
"","","","","","single-stim-button","211","1606877","0.0-3.0-22.10-1.10","5d520a2a08c3b00019384072","E1","batch5","tol_toboard","871","","","","","","","","","tol_peg_2","871","871","0","[[3,0,0],[1,2],[0]]","11","[[0,0,0],[1,2],[3]]","4","0","","","","","","7","","","","",""
"","","","","","single-stim-button","212","1607756","0.0-3.0-22.11-0.11","5d520a2a08c3b00019384072","E1","batch5","tol_tohand","878","","","","","","","","","tol_peg_1","878","878","0","[[0,0,0],[1,2],[0]]","12","[[0,0,0],[1,2],[3]]","4","0","","","","","","7","","","","",""
"","","","","","single-stim-button","213","1608785","0.0-3.0-22.11-1.11","5d520a2a08c3b00019384072","E1","batch5","tol_toboard","1028","","","","","","","","","tol_peg_3","1028","1028","0","[[0,0,0],[1,2],[3]]","12","[[0,0,0],[1,2],[3]]","4","0","","","","","","7","","","","",""
"","","","","","poldrack-single-stim","214","1609787","0.0-3.0-23.0","5d520a2a08c3b00019384072","E1","batch5","tol_feedback","-1","","","","","true","","","","","1000","1000","500","","","","","","-1","none","true","4533","29214","","","","","",""
"","","","","","html-button-response","215","1610860","0.0-3.0-24.0","5d520a2a08c3b00019384072","E1","batch5","tol_trial_num","1071.2000000476837","<div class = centerbox><p class = center-block-text>problem <strong>6</strong> out of 25 problems</p></div>","0","","","","","","","","","","","","","","","","","","","","","","","","","",""
"","","","","","single-stim-button","216","1617726","0.0-3.0-25.0-0.0","5d520a2a08c3b00019384072","E1","batch5","tol_tohand","6866","","","","","","","","","tol_peg_2","6866","6866","0","[[0,0,0],[1,0],[3]]","1","[[1,0,0],[2,3],[0]]","5","0","","","","","","6","","","","",""
"","","","","","single-stim-button","217","1618530","0.0-3.0-25.0-1.0","5d520a2a08c3b00019384072","E1","batch5","tol_toboard","802","","","","","","","","","tol_peg_1","802","802","0","[[2,0,0],[1,0],[3]]","1","[[1,0,0],[2,3],[0]]","5","0","","","","","","6","","","","",""
"","","","","","single-stim-button","218","1619590","0.0-3.0-25.1-0.1","5d520a2a08c3b00019384072","E1","batch5","tol_tohand","1059","","","","","","","","","tol_peg_2","1059","1059","0","[[2,0,0],[0,0],[3]]","2","[[1,0,0],[2,3],[0]]","5","0","","","","","","6","","","","",""
"","","","","","single-stim-button","219","1620361","0.0-3.0-25.1-1.1","5d520a2a08c3b00019384072","E1","batch5","tol_toboard","771","","","","","","","","","tol_peg_1","771","771","0","[[2,1,0],[0,0],[3]]","2","[[1,0,0],[2,3],[0]]","5","0","","","","","","6","","","","",""
"","","","","","single-stim-button","220","1630867","0.0-3.0-25.2-0.2","5d520a2a08c3b00019384072","E1","batch5","tol_tohand","10505","","","","","","","","","tol_peg_3","10505","10505","0","[[2,1,0],[0,0],[0]]","3","[[1,0,0],[2,3],[0]]","5","0","","","","","","6","","","","",""
"","","","","","single-stim-button","221","1631839","0.0-3.0-25.2-1.2","5d520a2a08c3b00019384072","E1","batch5","tol_toboard","970","","","","","","","","","tol_peg_2","970","970","0","[[2,1,0],[3,0],[0]]","3","[[1,0,0],[2,3],[0]]","5","0","","","","","","6","","","","",""
"","","","","","single-stim-button","222","1637994","0.0-3.0-25.3-0.3","5d520a2a08c3b00019384072","E1","batch5","tol_tohand","6155","","","","","","","","","tol_peg_1","6155","6155","0","[[2,0,0],[3,0],[0]]","4","[[1,0,0],[2,3],[0]]","5","0","","","","","","6","","","","",""
"","","","","","single-stim-button","223","1639209","0.0-3.0-25.3-1.3","5d520a2a08c3b00019384072","E1","batch5","tol_toboard","1214","","","","","","","","","tol_peg_2","1214","1214","0","[[2,0,0],[3,1],[0]]","4","[[1,0,0],[2,3],[0]]","5","0","","","","","","6","","","","",""
"","","","","","single-stim-button","224","1640238","0.0-3.0-25.4-0.4","5d520a2a08c3b00019384072","E1","batch5","tol_tohand","1028","","","","","","","","","tol_peg_1","1028","1028","0","[[0,0,0],[3,1],[0]]","5","[[1,0,0],[2,3],[0]]","5","0","","","","","","6","","","","",""
"","","","","","single-stim-button","225","1641373","0.0-3.0-25.4-1.4","5d520a2a08c3b00019384072","E1","batch5","tol_toboard","1134","","","","","","","","","tol_peg_3","1134","1134","0","[[0,0,0],[3,1],[2]]","5","[[1,0,0],[2,3],[0]]","5","0","","","","","","6","","","","",""
"","","","","","single-stim-button","226","1642527","0.0-3.0-25.5-0.5","5d520a2a08c3b00019384072","E1","batch5","tol_tohand","1153","","","","","","","","","tol_peg_2","1153","1153","0","[[0,0,0],[3,0],[2]]","6","[[1,0,0],[2,3],[0]]","5","0","","","","","","6","","","","",""
"","","","","","single-stim-button","227","1643964","0.0-3.0-25.5-1.5","5d520a2a08c3b00019384072","E1","batch5","tol_toboard","1437","","","","","","","","","tol_peg_1","1437","1437","0","[[1,0,0],[3,0],[2]]","6","[[1,0,0],[2,3],[0]]","5","0","","","","","","6","","","","",""
"","","","","","single-stim-button","228","1644875","0.0-3.0-25.6-0.6","5d520a2a08c3b00019384072","E1","batch5","tol_tohand","910","","","","","","","","","tol_peg_2","910","910","0","[[1,0,0],[0,0],[2]]","7","[[1,0,0],[2,3],[0]]","5","0","","","","","","6","","","","",""
"","","","","","single-stim-button","229","1645843","0.0-3.0-25.6-1.6","5d520a2a08c3b00019384072","E1","batch5","tol_toboard","968","","","","","","","","","tol_peg_1","968","968","0","[[1,3,0],[0,0],[2]]","7","[[1,0,0],[2,3],[0]]","5","0","","","","","","6","","","","",""
"","","","","","single-stim-button","230","1646810","0.0-3.0-25.7-0.7","5d520a2a08c3b00019384072","E1","batch5","tol_tohand","965","","","","","","","","","tol_peg_3","965","965","0","[[1,3,0],[0,0],[0]]","8","[[1,0,0],[2,3],[0]]","5","0","","","","","","6","","","","",""
"","","","","","single-stim-button","231","1647759","0.0-3.0-25.7-1.7","5d520a2a08c3b00019384072","E1","batch5","tol_toboard","949","","","","","","","","","tol_peg_2","949","949","0","[[1,3,0],[2,0],[0]]","8","[[1,0,0],[2,3],[0]]","5","0","","","","","","6","","","","",""
"","","","","","single-stim-button","232","1648852","0.0-3.0-25.8-0.8","5d520a2a08c3b00019384072","E1","batch5","tol_tohand","1092","","","","","","","","","tol_peg_1","1092","1092","0","[[1,0,0],[2,0],[0]]","9","[[1,0,0],[2,3],[0]]","5","0","","","","","","6","","","","",""
"","","","","","single-stim-button","233","1649730","0.0-3.0-25.8-1.8","5d520a2a08c3b00019384072","E1","batch5","tol_toboard","877","","","","","","","","","tol_peg_2","877","877","0","[[1,0,0],[2,3],[0]]","9","[[1,0,0],[2,3],[0]]","5","0","","","","","","6","","","","",""
"","","","","","poldrack-single-stim","234","1650732","0.0-3.0-26.0","5d520a2a08c3b00019384072","E1","batch5","tol_feedback","-1","","","","","true","","","","","1000","1000","500","","","","","","-1","none","true","6866","29733","","","","","",""
"","","","","","html-button-response","235","1651869","0.0-3.0-27.0","5d520a2a08c3b00019384072","E1","batch5","tol_trial_num","1134.8999998569489","<div class = centerbox><p class = center-block-text>problem <strong>7</strong> out of 25 problems</p></div>","0","","","","","","","","","","","","","","","","","","","","","","","","","",""
"","","","","","single-stim-button","236","1656506","0.0-3.0-28.0-0.0","5d520a2a08c3b00019384072","E1","batch5","tol_tohand","4636","","","","","","","","","tol_peg_1","4636","4636","0","[[2,0,0],[0,0],[3]]","1","[[1,2,0],[3,0],[0]]","6","0","","","","","","5","","","","",""
"","","","","","single-stim-button","237","1659269","0.0-3.0-28.0-1.0","5d520a2a08c3b00019384072","E1","batch5","tol_toboard","2762","","","","","","","","","tol_peg_2","2762","2762","0","[[2,0,0],[1,0],[3]]","1","[[1,2,0],[3,0],[0]]","6","0","","","","","","5","","","","",""
"","","","","","single-stim-button","238","1660727","0.0-3.0-28.1-0.1","5d520a2a08c3b00019384072","E1","batch5","tol_tohand","1458","","","","","","","","","tol_peg_1","1458","1458","0","[[0,0,0],[1,0],[3]]","2","[[1,2,0],[3,0],[0]]","6","0","","","","","","5","","","","",""
"","","","","","single-stim-button","239","1661912","0.0-3.0-28.1-1.1","5d520a2a08c3b00019384072","E1","batch5","tol_toboard","1184","","","","","","","","","tol_peg_2","1184","1184","0","[[0,0,0],[1,2],[3]]","2","[[1,2,0],[3,0],[0]]","6","0","","","","","","5","","","","",""
"","","","","","single-stim-button","240","1662719","0.0-3.0-28.2-0.2","5d520a2a08c3b00019384072","E1","batch5","tol_tohand","806","","","","","","","","","tol_peg_3","806","806","0","[[0,0,0],[1,2],[0]]","3","[[1,2,0],[3,0],[0]]","6","0","","","","","","5","","","","",""
"","","","","","single-stim-button","241","1663660","0.0-3.0-28.2-1.2","5d520a2a08c3b00019384072","E1","batch5","tol_toboard","939","","","","","","","","","tol_peg_1","939","939","0","[[3,0,0],[1,2],[0]]","3","[[1,2,0],[3,0],[0]]","6","0","","","","","","5","","","","",""
"","","","","","single-stim-button","242","1668687","0.0-3.0-28.3-0.3","5d520a2a08c3b00019384072","E1","batch5","tol_tohand","5026","","","","","","","","","tol_peg_2","5026","5026","0","[[3,0,0],[1,0],[0]]","4","[[1,2,0],[3,0],[0]]","6","0","","","","","","5","","","","",""
"","","","","","single-stim-button","243","1669098","0.0-3.0-28.3-1.3","5d520a2a08c3b00019384072","E1","batch5","tol_toboard","411","","","","","","","","","tol_peg_2","411","411","0","[[3,0,0],[1,2],[0]]","4","[[1,2,0],[3,0],[0]]","6","0","","","","","","5","","","","",""
"","","","","","single-stim-button","244","1670855","0.0-3.0-28.4-0.4","5d520a2a08c3b00019384072","E1","batch5","tol_tohand","1756","","","","","","","","","tol_peg_2","1756","1756","0","[[3,0,0],[1,0],[0]]","5","[[1,2,0],[3,0],[0]]","6","0","","","","","","5","","","","",""
"","","","","","single-stim-button","245","1671852","0.0-3.0-28.4-1.4","5d520a2a08c3b00019384072","E1","batch5","tol_toboard","996","","","","","","","","","tol_peg_3","996","996","0","[[3,0,0],[1,0],[2]]","5","[[1,2,0],[3,0],[0]]","6","0","","","","","","5","","","","",""
"","","","","","single-stim-button","246","1672955","0.0-3.0-28.5-0.5","5d520a2a08c3b00019384072","E1","batch5","tol_tohand","1101","","","","","","","","","tol_peg_1","1101","1101","0","[[0,0,0],[1,0],[2]]","6","[[1,2,0],[3,0],[0]]","6","0","","","","","","5","","","","",""
"","","","","","single-stim-button","247","1674775","0.0-3.0-28.5-1.5","5d520a2a08c3b00019384072","E1","batch5","tol_toboard","1819","","","","","","","","","tol_peg_2","1819","1819","0","[[0,0,0],[1,3],[2]]","6","[[1,2,0],[3,0],[0]]","6","0","","","","","","5","","","","",""
"","","","","","single-stim-button","248","1678862","0.0-3.0-28.6-0.6","5d520a2a08c3b00019384072","E1","batch5","tol_tohand","4087","","","","","","","","","tol_peg_2","4087","4087","0","[[0,0,0],[1,0],[2]]","7","[[1,2,0],[3,0],[0]]","6","0","","","","","","5","","","","",""
"","","","","","single-stim-button","249","1679829","0.0-3.0-28.6-1.6","5d520a2a08c3b00019384072","E1","batch5","tol_toboard","966","","","","","","","","","tol_peg_1","966","966","0","[[3,0,0],[1,0],[2]]","7","[[1,2,0],[3,0],[0]]","6","0","","","","","","5","","","","",""
"","","","","","single-stim-button","250","1681171","0.0-3.0-28.7-0.7","5d520a2a08c3b00019384072","E1","batch5","tol_tohand","1342","","","","","","","","","tol_peg_3","1342","1342","0","[[3,0,0],[1,0],[0]]","8","[[1,2,0],[3,0],[0]]","6","0","","","","","","5","","","","",""
"","","","","","single-stim-button","251","1682123","0.0-3.0-28.7-1.7","5d520a2a08c3b00019384072","E1","batch5","tol_toboard","952","","","","","","","","","tol_peg_2","952","952","0","[[3,0,0],[1,2],[0]]","8","[[1,2,0],[3,0],[0]]","6","0","","","","","","5","","","","",""
"","","","","","single-stim-button","252","1686520","0.0-3.0-28.8-0.8","5d520a2a08c3b00019384072","E1","batch5","tol_tohand","4396","","","","","","","","","tol_peg_2","4396","4396","0","[[3,0,0],[1,0],[0]]","9","[[1,2,0],[3,0],[0]]","6","0","","","","","","5","","","","",""
"","","","","","single-stim-button","253","1687359","0.0-3.0-28.8-1.8","5d520a2a08c3b00019384072","E1","batch5","tol_toboard","839","","","","","","","","","tol_peg_1","839","839","0","[[3,2,0],[1,0],[0]]","9","[[1,2,0],[3,0],[0]]","6","0","","","","","","5","","","","",""
"","","","","","single-stim-button","254","1688202","0.0-3.0-28.9-0.9","5d520a2a08c3b00019384072","E1","batch5","tol_tohand","842","","","","","","","","","tol_peg_2","842","842","0","[[3,2,0],[0,0],[0]]","10","[[1,2,0],[3,0],[0]]","6","0","","","","","","5","","","","",""
"","","","","","single-stim-button","255","1691620","0.0-3.0-28.9-1.9","5d520a2a08c3b00019384072","E1","batch5","tol_toboard","3416","","","","","","","","","tol_peg_3","3416","3416","0","[[3,2,0],[0,0],[1]]","10","[[1,2,0],[3,0],[0]]","6","0","","","","","","5","","","","",""
"","","","","","single-stim-button","256","1692937","0.0-3.0-28.10-0.10","5d520a2a08c3b00019384072","E1","batch5","tol_tohand","1316","","","","","","","","","tol_peg_1","1316","1316","0","[[3,0,0],[0,0],[1]]","11","[[1,2,0],[3,0],[0]]","6","0","","","","","","5","","","","",""
"","","","","","single-stim-button","257","1693936","0.0-3.0-28.10-1.10","5d520a2a08c3b00019384072","E1","batch5","tol_toboard","999","","","","","","","","","tol_peg_2","999","999","0","[[3,0,0],[2,0],[1]]","11","[[1,2,0],[3,0],[0]]","6","0","","","","","","5","","","","",""
"","","","","","single-stim-button","258","1695482","0.0-3.0-28.11-0.11","5d520a2a08c3b00019384072","E1","batch5","tol_tohand","1546","","","","","","","","","tol_peg_1","1546","1546","0","[[0,0,0],[2,0],[1]]","12","[[1,2,0],[3,0],[0]]","6","0","","","","","","5","","","","",""
"","","","","","single-stim-button","259","1696635","0.0-3.0-28.11-1.11","5d520a2a08c3b00019384072","E1","batch5","tol_toboard","1151","","","","","","","","","tol_peg_2","1151","1151","0","[[0,0,0],[2,3],[1]]","12","[[1,2,0],[3,0],[0]]","6","0","","","","","","5","","","","",""
"","","","","","single-stim-button","260","1697553","0.0-3.0-28.12-0.12","5d520a2a08c3b00019384072","E1","batch5","tol_tohand","917","","","","","","","","","tol_peg_3","917","917","0","[[0,0,0],[2,3],[0]]","13","[[1,2,0],[3,0],[0]]","6","0","","","","","","5","","","","",""
"","","","","","single-stim-button","261","1698492","0.0-3.0-28.12-1.12","5d520a2a08c3b00019384072","E1","batch5","tol_toboard","939","","","","","","","","","tol_peg_1","939","939","0","[[1,0,0],[2,3],[0]]","13","[[1,2,0],[3,0],[0]]","6","0","","","","","","5","","","","",""
"","","","","","single-stim-button","262","1701321","0.0-3.0-28.13-0.13","5d520a2a08c3b00019384072","E1","batch5","tol_tohand","2828","","","","","","","","","tol_peg_2","2828","2828","0","[[1,0,0],[2,0],[0]]","14","[[1,2,0],[3,0],[0]]","6","0","","","","","","5","","","","",""
"","","","","","single-stim-button","263","1702472","0.0-3.0-28.13-1.13","5d520a2a08c3b00019384072","E1","batch5","tol_toboard","1151","","","","","","","","","tol_peg_3","1151","1151","0","[[1,0,0],[2,0],[3]]","14","[[1,2,0],[3,0],[0]]","6","0","","","","","","5","","","","",""
"","","","","","single-stim-button","264","1703283","0.0-3.0-28.14-0.14","5d520a2a08c3b00019384072","E1","batch5","tol_tohand","810","","","","","","","","","tol_peg_2","810","810","0","[[1,0,0],[0,0],[3]]","15","[[1,2,0],[3,0],[0]]","6","0","","","","","","5","","","","",""
"","","","","","single-stim-button","265","1704360","0.0-3.0-28.14-1.14","5d520a2a08c3b00019384072","E1","batch5","tol_toboard","1076","","","","","","","","","tol_peg_1","1076","1076","0","[[1,2,0],[0,0],[3]]","15","[[1,2,0],[3,0],[0]]","6","0","","","","","","5","","","","",""
"","","","","","single-stim-button","266","1705501","0.0-3.0-28.15-0.15","5d520a2a08c3b00019384072","E1","batch5","tol_tohand","1140","","","","","","","","","tol_peg_3","1140","1140","0","[[1,2,0],[0,0],[0]]","16","[[1,2,0],[3,0],[0]]","6","0","","","","","","5","","","","",""
"","","","","","single-stim-button","267","1706232","0.0-3.0-28.15-1.15","5d520a2a08c3b00019384072","E1","batch5","tol_toboard","730","","","","","","","","","tol_peg_2","730","730","0","[[1,2,0],[3,0],[0]]","16","[[1,2,0],[3,0],[0]]","6","0","","","","","","5","","","","",""
"","","","","","poldrack-single-stim","268","1707235","0.0-3.0-29.0","5d520a2a08c3b00019384072","E1","batch5","tol_feedback","-1","","","","","true","","","","","1000","1000","500","","","","","","-1","none","true","4636","34007","","","","","",""
"","","","","","html-button-response","269","1715422","0.0-3.0-30.0","5d520a2a08c3b00019384072","E1","batch5","tol_trial_num","8185.900000095367","<div class = centerbox><p class = center-block-text>problem <strong>8</strong> out of 25 problems</p></div>","0","","","","","","","","","","","","","","","","","","","","","","","","","",""
"","","","","","single-stim-button","270","1718474","0.0-3.0-31.0-0.0","5d520a2a08c3b00019384072","E1","batch5","tol_tohand","3051","","","","","","","","","tol_peg_3","3051","3051","0","[[0,0,0],[2,3],[0]]","1","[[1,2,0],[3,0],[0]]","7","0","","","","","","4","","","","",""
"","","","","","single-stim-button","271","1719597","0.0-3.0-31.0-1.0","5d520a2a08c3b00019384072","E1","batch5","tol_toboard","1123","","","","","","","","","tol_peg_1","1123","1123","0","[[1,0,0],[2,3],[0]]","1","[[1,2,0],[3,0],[0]]","7","0","","","","","","4","","","","",""
"","","","","","single-stim-button","272","1721273","0.0-3.0-31.1-0.1","5d520a2a08c3b00019384072","E1","batch5","tol_tohand","1674","","","","","","","","","tol_peg_2","1674","1674","0","[[1,0,0],[2,0],[0]]","2","[[1,2,0],[3,0],[0]]","7","0","","","","","","4","","","","",""
"","","","","","single-stim-button","273","1722210","0.0-3.0-31.1-1.1","5d520a2a08c3b00019384072","E1","batch5","tol_toboard","937","","","","","","","","","tol_peg_3","937","937","0","[[1,0,0],[2,0],[3]]","2","[[1,2,0],[3,0],[0]]","7","0","","","","","","4","","","","",""
"","","","","","single-stim-button","274","1722991","0.0-3.0-31.2-0.2","5d520a2a08c3b00019384072","E1","batch5","tol_tohand","780","","","","","","","","","tol_peg_2","780","780","0","[[1,0,0],[0,0],[3]]","3","[[1,2,0],[3,0],[0]]","7","0","","","","","","4","","","","",""
"","","","","","single-stim-button","275","1723932","0.0-3.0-31.2-1.2","5d520a2a08c3b00019384072","E1","batch5","tol_toboard","941","","","","","","","","","tol_peg_1","941","941","0","[[1,2,0],[0,0],[3]]","3","[[1,2,0],[3,0],[0]]","7","0","","","","","","4","","","","",""
"","","","","","single-stim-button","276","1725466","0.0-3.0-31.3-0.3","5d520a2a08c3b00019384072","E1","batch5","tol_tohand","1533","","","","","","","","","tol_peg_3","1533","1533","0","[[1,2,0],[0,0],[0]]","4","[[1,2,0],[3,0],[0]]","7","0","","","","","","4","","","","",""
"","","","","","single-stim-button","277","1726457","0.0-3.0-31.3-1.3","5d520a2a08c3b00019384072","E1","batch5","tol_toboard","991","","","","","","","","","tol_peg_2","991","991","0","[[1,2,0],[3,0],[0]]","4","[[1,2,0],[3,0],[0]]","7","0","","","","","","4","","","","",""
"","","","","","poldrack-single-stim","278","1727460","0.0-3.0-32.0","5d520a2a08c3b00019384072","E1","batch5","tol_feedback","-1","","","","","true","","","","","1000","1000","500","","","","","","-1","none","true","3051","7038","","","","","",""
"","","","","","html-button-response","279","1728752","0.0-3.0-33.0","5d520a2a08c3b00019384072","E1","batch5","tol_trial_num","1291.7999999523163","<div class = centerbox><p class = center-block-text>problem <strong>9</strong> out of 25 problems</p></div>","0","","","","","","","","","","","","","","","","","","","","","","","","","",""
"","","","","","single-stim-button","280","1734210","0.0-3.0-34.0-0.0","5d520a2a08c3b00019384072","E1","batch5","tol_tohand","5457","","","","","","","","","tol_peg_1","5457","5457","0","[[3,0,0],[0,0],[1]]","1","[[2,1,0],[3,0],[0]]","8","0","","","","","","6","","","","",""
"","","","","","single-stim-button","281","1735057","0.0-3.0-34.0-1.0","5d520a2a08c3b00019384072","E1","batch5","tol_toboard","845","","","","","","","","","tol_peg_2","845","845","0","[[3,0,0],[2,0],[1]]","1","[[2,1,0],[3,0],[0]]","8","0","","","","","","6","","","","",""
"","","","","","single-stim-button","282","1736014","0.0-3.0-34.1-0.1","5d520a2a08c3b00019384072","E1","batch5","tol_tohand","957","","","","","","","","","tol_peg_1","957","957","0","[[0,0,0],[2,0],[1]]","2","[[2,1,0],[3,0],[0]]","8","0","","","","","","6","","","","",""
"","","","","","single-stim-button","283","1741241","0.0-3.0-34.1-1.1","5d520a2a08c3b00019384072","E1","batch5","tol_toboard","5225","","","","","","","","","tol_peg_2","5225","5225","0","[[0,0,0],[2,3],[1]]","2","[[2,1,0],[3,0],[0]]","8","0","","","","","","6","","","","",""
"","","","","","single-stim-button","284","1743714","0.0-3.0-34.2-0.2","5d520a2a08c3b00019384072","E1","batch5","tol_tohand","2473","","","","","","","","","tol_peg_3","2473","2473","0","[[0,0,0],[2,3],[0]]","3","[[2,1,0],[3,0],[0]]","8","0","","","","","","6","","","","",""
"","","","","","single-stim-button","285","1744630","0.0-3.0-34.2-1.2","5d520a2a08c3b00019384072","E1","batch5","tol_toboard","914","","","","","","","","","tol_peg_1","914","914","0","[[1,0,0],[2,3],[0]]","3","[[2,1,0],[3,0],[0]]","8","0","","","","","","6","","","","",""
"","","","","","single-stim-button","286","1747425","0.0-3.0-34.3-0.3","5d520a2a08c3b00019384072","E1","batch5","tol_tohand","2795","","","","","","","","","tol_peg_2","2795","2795","0","[[1,0,0],[2,0],[0]]","4","[[2,1,0],[3,0],[0]]","8","0","","","","","","6","","","","",""
"","","","","","single-stim-button","287","1748381","0.0-3.0-34.3-1.3","5d520a2a08c3b00019384072","E1","batch5","tol_toboard","955","","","","","","","","","tol_peg_3","955","955","0","[[1,0,0],[2,0],[3]]","4","[[2,1,0],[3,0],[0]]","8","0","","","","","","6","","","","",""
"","","","","","single-stim-button","288","1750407","0.0-3.0-34.4-0.4","5d520a2a08c3b00019384072","E1","batch5","tol_tohand","2025","","","","","","","","","tol_peg_1","2025","2025","0","[[0,0,0],[2,0],[3]]","5","[[2,1,0],[3,0],[0]]","8","0","","","","","","6","","","","",""
"","","","","","single-stim-button","289","1751361","0.0-3.0-34.4-1.4","5d520a2a08c3b00019384072","E1","batch5","tol_toboard","953","","","","","","","","","tol_peg_2","953","953","0","[[0,0,0],[2,1],[3]]","5","[[2,1,0],[3,0],[0]]","8","0","","","","","","6","","","","",""
"","","","","","single-stim-button","290","1753975","0.0-3.0-34.5-0.5","5d520a2a08c3b00019384072","E1","batch5","tol_tohand","2612","","","","","","","","","tol_peg_3","2612","2612","0","[[0,0,0],[2,1],[0]]","6","[[2,1,0],[3,0],[0]]","8","0","","","","","","6","","","","",""
"","","","","","single-stim-button","291","1755162","0.0-3.0-34.5-1.5","5d520a2a08c3b00019384072","E1","batch5","tol_toboard","1187","","","","","","","","","tol_peg_1","1187","1187","0","[[3,0,0],[2,1],[0]]","6","[[2,1,0],[3,0],[0]]","8","0","","","","","","6","","","","",""
"","","","","","single-stim-button","292","1758863","0.0-3.0-34.6-0.6","5d520a2a08c3b00019384072","E1","batch5","tol_tohand","3701","","","","","","","","","tol_peg_2","3701","3701","0","[[3,0,0],[2,0],[0]]","7","[[2,1,0],[3,0],[0]]","8","0","","","","","","6","","","","",""
"","","","","","single-stim-button","293","1759780","0.0-3.0-34.6-1.6","5d520a2a08c3b00019384072","E1","batch5","tol_toboard","916","","","","","","","","","tol_peg_3","916","916","0","[[3,0,0],[2,0],[1]]","7","[[2,1,0],[3,0],[0]]","8","0","","","","","","6","","","","",""
"","","","","","single-stim-button","294","1762528","0.0-3.0-34.7-0.7","5d520a2a08c3b00019384072","E1","batch5","tol_tohand","2748","","","","","","","","","tol_peg_3","2748","2748","0","[[3,0,0],[2,0],[0]]","8","[[2,1,0],[3,0],[0]]","8","0","","","","","","6","","","","",""
"","","","","","single-stim-button","295","1764072","0.0-3.0-34.7-1.7","5d520a2a08c3b00019384072","E1","batch5","tol_toboard","1544","","","","","","","","","tol_peg_3","1544","1544","0","[[3,0,0],[2,0],[1]]","8","[[2,1,0],[3,0],[0]]","8","0","","","","","","6","","","","",""
"","","","","","single-stim-button","296","1764850","0.0-3.0-34.8-0.8","5d520a2a08c3b00019384072","E1","batch5","tol_tohand","777","","","","","","","","","tol_peg_2","777","777","0","[[3,0,0],[0,0],[1]]","9","[[2,1,0],[3,0],[0]]","8","0","","","","","","6","","","","",""
"","","","","","single-stim-button","297","1765848","0.0-3.0-34.8-1.8","5d520a2a08c3b00019384072","E1","batch5","tol_toboard","997","","","","","","","","","tol_peg_1","997","997","0","[[3,2,0],[0,0],[1]]","9","[[2,1,0],[3,0],[0]]","8","0","","","","","","6","","","","",""
"","","","","","single-stim-button","298","1767391","0.0-3.0-34.9-0.9","5d520a2a08c3b00019384072","E1","batch5","tol_tohand","1543","","","","","","","","","tol_peg_1","1543","1543","0","[[3,0,0],[0,0],[1]]","10","[[2,1,0],[3,0],[0]]","8","0","","","","","","6","","","","",""
"","","","","","single-stim-button","299","1768266","0.0-3.0-34.9-1.9","5d520a2a08c3b00019384072","E1","batch5","tol_toboard","873","","","","","","","","","tol_peg_2","873","873","0","[[3,0,0],[2,0],[1]]","10","[[2,1,0],[3,0],[0]]","8","0","","","","","","6","","","","",""
"","","","","","single-stim-button","300","1769508","0.0-3.0-34.10-0.10","5d520a2a08c3b00019384072","E1","batch5","tol_tohand","1241","","","","","","","","","tol_peg_1","1241","1241","0","[[0,0,0],[2,0],[1]]","11","[[2,1,0],[3,0],[0]]","8","0","","","","","","6","","","","",""
"","","","","","single-stim-button","301","1770570","0.0-3.0-34.10-1.10","5d520a2a08c3b00019384072","E1","batch5","tol_toboard","1061","","","","","","","","","tol_peg_2","1061","1061","0","[[0,0,0],[2,3],[1]]","11","[[2,1,0],[3,0],[0]]","8","0","","","","","","6","","","","",""
"","","","","","single-stim-button","302","1772266","0.0-3.0-34.11-0.11","5d520a2a08c3b00019384072","E1","batch5","tol_tohand","1695","","","","","","","","","tol_peg_2","1695","1695","0","[[0,0,0],[2,0],[1]]","12","[[2,1,0],[3,0],[0]]","8","0","","","","","","6","","","","",""
"","","","","","single-stim-button","303","1773090","0.0-3.0-34.11-1.11","5d520a2a08c3b00019384072","E1","batch5","tol_toboard","823","","","","","","","","","tol_peg_1","823","823","0","[[3,0,0],[2,0],[1]]","12","[[2,1,0],[3,0],[0]]","8","0","","","","","","6","","","","",""
"","","","","","single-stim-button","304","1773902","0.0-3.0-34.12-0.12","5d520a2a08c3b00019384072","E1","batch5","tol_tohand","811","","","","","","","","","tol_peg_3","811","811","0","[[3,0,0],[2,0],[0]]","13","[[2,1,0],[3,0],[0]]","8","0","","","","","","6","","","","",""
"","","","","","single-stim-button","305","1774732","0.0-3.0-34.12-1.12","5d520a2a08c3b00019384072","E1","batch5","tol_toboard","829","","","","","","","","","tol_peg_1","829","829","0","[[3,1,0],[2,0],[0]]","13","[[2,1,0],[3,0],[0]]","8","0","","","","","","6","","","","",""
"","","","","","single-stim-button","306","1775684","0.0-3.0-34.13-0.13","5d520a2a08c3b00019384072","E1","batch5","tol_tohand","951","","","","","","","","","tol_peg_2","951","951","0","[[3,1,0],[0,0],[0]]","14","[[2,1,0],[3,0],[0]]","8","0","","","","","","6","","","","",""
"","","","","","single-stim-button","307","1776500","0.0-3.0-34.13-1.13","5d520a2a08c3b00019384072","E1","batch5","tol_toboard","816","","","","","","","","","tol_peg_3","816","816","0","[[3,1,0],[0,0],[2]]","14","[[2,1,0],[3,0],[0]]","8","0","","","","","","6","","","","",""
"","","","","","single-stim-button","308","1778121","0.0-3.0-34.14-0.14","5d520a2a08c3b00019384072","E1","batch5","tol_tohand","1619","","","","","","","","","tol_peg_1","1619","1619","0","[[3,0,0],[0,0],[2]]","15","[[2,1,0],[3,0],[0]]","8","0","","","","","","6","","","","",""
"","","","","","single-stim-button","309","1781479","0.0-3.0-34.14-1.14","5d520a2a08c3b00019384072","E1","batch5","tol_toboard","3358","","","","","","","","","tol_peg_2","3358","3358","0","[[3,0,0],[1,0],[2]]","15","[[2,1,0],[3,0],[0]]","8","0","","","","","","6","","","","",""
"","","","","","single-stim-button","310","1782609","0.0-3.0-34.15-0.15","5d520a2a08c3b00019384072","E1","batch5","tol_tohand","1129","","","","","","","","","tol_peg_1","1129","1129","0","[[0,0,0],[1,0],[2]]","16","[[2,1,0],[3,0],[0]]","8","0","","","","","","6","","","","",""
"","","","","","single-stim-button","311","1783778","0.0-3.0-34.15-1.15","5d520a2a08c3b00019384072","E1","batch5","tol_toboard","1167","","","","","","","","","tol_peg_2","1167","1167","0","[[0,0,0],[1,3],[2]]","16","[[2,1,0],[3,0],[0]]","8","0","","","","","","6","","","","",""
"","","","","","single-stim-button","312","1784590","0.0-3.0-34.16-0.16","5d520a2a08c3b00019384072","E1","batch5","tol_tohand","810","","","","","","","","","tol_peg_3","810","810","0","[[0,0,0],[1,3],[0]]","17","[[2,1,0],[3,0],[0]]","8","0","","","","","","6","","","","",""
"","","","","","single-stim-button","313","1786436","0.0-3.0-34.16-1.16","5d520a2a08c3b00019384072","E1","batch5","tol_toboard","1846","","","","","","","","","tol_peg_1","1846","1846","0","[[2,0,0],[1,3],[0]]","17","[[2,1,0],[3,0],[0]]","8","0","","","","","","6","","","","",""
"","","","","","single-stim-button","314","1787390","0.0-3.0-34.17-0.17","5d520a2a08c3b00019384072","E1","batch5","tol_tohand","953","","","","","","","","","tol_peg_2","953","953","0","[[2,0,0],[1,0],[0]]","18","[[2,1,0],[3,0],[0]]","8","0","","","","","","6","","","","",""
"","","","","","single-stim-button","315","1788595","0.0-3.0-34.17-1.17","5d520a2a08c3b00019384072","E1","batch5","tol_toboard","1204","","","","","","","","","tol_peg_3","1204","1204","0","[[2,0,0],[1,0],[3]]","18","[[2,1,0],[3,0],[0]]","8","0","","","","","","6","","","","",""
"","","","","","single-stim-button","316","1789440","0.0-3.0-34.18-0.18","5d520a2a08c3b00019384072","E1","batch5","tol_tohand","844","","","","","","","","","tol_peg_2","844","844","0","[[2,0,0],[0,0],[3]]","19","[[2,1,0],[3,0],[0]]","8","0","","","","","","6","","","","",""
"","","","","","single-stim-button","317","1791141","0.0-3.0-34.18-1.18","5d520a2a08c3b00019384072","E1","batch5","tol_toboard","1701","","","","","","","","","tol_peg_1","1701","1701","0","[[2,1,0],[0,0],[3]]","19","[[2,1,0],[3,0],[0]]","8","0","","","","","","6","","","","",""
"","","","","","single-stim-button","318","1792123","0.0-3.0-34.19-0.19","5d520a2a08c3b00019384072","E1","batch5","tol_tohand","980","","","","","","","","","tol_peg_3","980","980","0","[[2,1,0],[0,0],[0]]","20","[[2,1,0],[3,0],[0]]","8","0","","","","","","6","","","","",""
"","","","","","single-stim-button","319","1793014","0.0-3.0-34.19-1.19","5d520a2a08c3b00019384072","E1","batch5","tol_toboard","890","","","","","","","","","tol_peg_2","890","890","0","[[2,1,0],[3,0],[0]]","20","[[2,1,0],[3,0],[0]]","8","0","","","","","","6","","","","",""
"","","","","","poldrack-single-stim","320","1794016","0.0-3.0-35.0","5d520a2a08c3b00019384072","E1","batch5","tol_feedback","-1","","","","","true","","","","","1000","1000","500","","","","","","-1","none","true","5457","36121","","","","","",""
"","","","","","html-button-response","321","1795417","0.0-3.0-36.0","5d520a2a08c3b00019384072","E1","batch5","tol_trial_num","1400.9000000953674","<div class = centerbox><p class = center-block-text>problem <strong>10</strong> out of 25 problems</p></div>","0","","","","","","","","","","","","","","","","","","","","","","","","","",""
"","","","","","single-stim-button","322","1823933","0.0-3.0-37.0-0.0","5d520a2a08c3b00019384072","E1","batch5","tol_tohand","28514","","","","","","","","","tol_peg_2","28514","28514","0","[[3,0,0],[0,0],[2]]","1","[[3,0,0],[2,1],[0]]","9","0","","","","","","3","","","","",""
"","","","","","single-stim-button","323","1824880","0.0-3.0-37.0-1.0","5d520a2a08c3b00019384072","E1","batch5","tol_toboard","946","","","","","","","","","tol_peg_1","946","946","0","[[3,1,0],[0,0],[2]]","1","[[3,0,0],[2,1],[0]]","9","0","","","","","","3","","","","",""
"","","","","","single-stim-button","324","1825969","0.0-3.0-37.1-0.1","5d520a2a08c3b00019384072","E1","batch5","tol_tohand","1087","","","","","","","","","tol_peg_3","1087","1087","0","[[3,1,0],[0,0],[0]]","2","[[3,0,0],[2,1],[0]]","9","0","","","","","","3","","","","",""
"","","","","","single-stim-button","325","1827074","0.0-3.0-37.1-1.1","5d520a2a08c3b00019384072","E1","batch5","tol_toboard","1103","","","","","","","","","tol_peg_2","1103","1103","0","[[3,1,0],[2,0],[0]]","2","[[3,0,0],[2,1],[0]]","9","0","","","","","","3","","","","",""
"","","","","","single-stim-button","326","1828136","0.0-3.0-37.2-0.2","5d520a2a08c3b00019384072","E1","batch5","tol_tohand","1062","","","","","","","","","tol_peg_1","1062","1062","0","[[3,0,0],[2,0],[0]]","3","[[3,0,0],[2,1],[0]]","9","0","","","","","","3","","","","",""
"","","","","","single-stim-button","327","1829066","0.0-3.0-37.2-1.2","5d520a2a08c3b00019384072","E1","batch5","tol_toboard","930","","","","","","","","","tol_peg_2","930","930","0","[[3,0,0],[2,1],[0]]","3","[[3,0,0],[2,1],[0]]","9","0","","","","","","3","","","","",""
"","","","","","poldrack-single-stim","328","1830069","0.0-3.0-38.0","5d520a2a08c3b00019384072","E1","batch5","tol_feedback","-1","","","","","true","","","","","1000","1000","500","","","","","","-1","none","true","28514","30663","","","","","",""
"","","","","","html-button-response","329","1831502","0.0-3.0-39.0","5d520a2a08c3b00019384072","E1","batch5","tol_trial_num","1431.7000000476837","<div class = centerbox><p class = center-block-text>problem <strong>11</strong> out of 25 problems</p></div>","0","","","","","","","","","","","","","","","","","","","","","","","","","",""
"","","","","","single-stim-button","330","1835770","0.0-3.0-40.0-0.0","5d520a2a08c3b00019384072","E1","batch5","tol_tohand","4267","","","","","","","","","tol_peg_2","4267","4267","0","[[1,2,0],[0,0],[0]]","1","[[2,0,0],[1,3],[0]]","10","0","","","","","","6","","","","",""
"","","","","","single-stim-button","331","1837292","0.0-3.0-40.0-1.0","5d520a2a08c3b00019384072","E1","batch5","tol_toboard","1520","","","","","","","","","tol_peg_3","1520","1520","0","[[1,2,0],[0,0],[3]]","1","[[2,0,0],[1,3],[0]]","10","0","","","","","","6","","","","",""
"","","","","","single-stim-button","332","1841336","0.0-3.0-40.1-0.1","5d520a2a08c3b00019384072","E1","batch5","tol_tohand","4044","","","","","","","","","tol_peg_1","4044","4044","0","[[1,0,0],[0,0],[3]]","2","[[2,0,0],[1,3],[0]]","10","0","","","","","","6","","","","",""
"","","","","","single-stim-button","333","1846577","0.0-3.0-40.1-1.1","5d520a2a08c3b00019384072","E1","batch5","tol_toboard","5239","","","","","","","","","tol_peg_2","5239","5239","0","[[1,0,0],[2,0],[3]]","2","[[2,0,0],[1,3],[0]]","10","0","","","","","","6","","","","",""
"","","","","","single-stim-button","334","1847545","0.0-3.0-40.2-0.2","5d520a2a08c3b00019384072","E1","batch5","tol_tohand","968","","","","","","","","","tol_peg_1","968","968","0","[[0,0,0],[2,0],[3]]","3","[[2,0,0],[1,3],[0]]","10","0","","","","","","6","","","","",""
"","","","","","single-stim-button","335","1848514","0.0-3.0-40.2-1.2","5d520a2a08c3b00019384072","E1","batch5","tol_toboard","967","","","","","","","","","tol_peg_2","967","967","0","[[0,0,0],[2,1],[3]]","3","[[2,0,0],[1,3],[0]]","10","0","","","","","","6","","","","",""
"","","","","","single-stim-button","336","1849868","0.0-3.0-40.3-0.3","5d520a2a08c3b00019384072","E1","batch5","tol_tohand","1354","","","","","","","","","tol_peg_3","1354","1354","0","[[0,0,0],[2,1],[0]]","4","[[2,0,0],[1,3],[0]]","10","0","","","","","","6","","","","",""
"","","","","","single-stim-button","337","1850885","0.0-3.0-40.3-1.3","5d520a2a08c3b00019384072","E1","batch5","tol_toboard","1015","","","","","","","","","tol_peg_1","1015","1015","0","[[3,0,0],[2,1],[0]]","4","[[2,0,0],[1,3],[0]]","10","0","","","","","","6","","","","",""
"","","","","","single-stim-button","338","1851885","0.0-3.0-40.4-0.4","5d520a2a08c3b00019384072","E1","batch5","tol_tohand","1000","","","","","","","","","tol_peg_2","1000","1000","0","[[3,0,0],[2,0],[0]]","5","[[2,0,0],[1,3],[0]]","10","0","","","","","","6","","","","",""
"","","","","","single-stim-button","339","1852761","0.0-3.0-40.4-1.4","5d520a2a08c3b00019384072","E1","batch5","tol_toboard","876","","","","","","","","","tol_peg_3","876","876","0","[[3,0,0],[2,0],[1]]","5","[[2,0,0],[1,3],[0]]","10","0","","","","","","6","","","","",""
"","","","","","single-stim-button","340","1853568","0.0-3.0-40.5-0.5","5d520a2a08c3b00019384072","E1","batch5","tol_tohand","805","","","","","","","","","tol_peg_2","805","805","0","[[3,0,0],[0,0],[1]]","6","[[2,0,0],[1,3],[0]]","10","0","","","","","","6","","","","",""
"","","","","","single-stim-button","341","1854505","0.0-3.0-40.5-1.5","5d520a2a08c3b00019384072","E1","batch5","tol_toboard","937","","","","","","","","","tol_peg_1","937","937","0","[[3,2,0],[0,0],[1]]","6","[[2,0,0],[1,3],[0]]","10","0","","","","","","6","","","","",""
"","","","","","single-stim-button","342","1855253","0.0-3.0-40.6-0.6","5d520a2a08c3b00019384072","E1","batch5","tol_tohand","747","","","","","","","","","tol_peg_3","747","747","0","[[3,2,0],[0,0],[0]]","7","[[2,0,0],[1,3],[0]]","10","0","","","","","","6","","","","",""
"","","","","","single-stim-button","343","1856171","0.0-3.0-40.6-1.6","5d520a2a08c3b00019384072","E1","batch5","tol_toboard","917","","","","","","","","","tol_peg_2","917","917","0","[[3,2,0],[1,0],[0]]","7","[[2,0,0],[1,3],[0]]","10","0","","","","","","6","","","","",""
"","","","","","single-stim-button","344","1857120","0.0-3.0-40.7-0.7","5d520a2a08c3b00019384072","E1","batch5","tol_tohand","948","","","","","","","","","tol_peg_1","948","948","0","[[3,0,0],[1,0],[0]]","8","[[2,0,0],[1,3],[0]]","10","0","","","","","","6","","","","",""
"","","","","","single-stim-button","345","1857974","0.0-3.0-40.7-1.7","5d520a2a08c3b00019384072","E1","batch5","tol_toboard","853","","","","","","","","","tol_peg_3","853","853","0","[[3,0,0],[1,0],[2]]","8","[[2,0,0],[1,3],[0]]","10","0","","","","","","6","","","","",""
"","","","","","single-stim-button","346","1858867","0.0-3.0-40.8-0.8","5d520a2a08c3b00019384072","E1","batch5","tol_tohand","893","","","","","","","","","tol_peg_1","893","893","0","[[0,0,0],[1,0],[2]]","9","[[2,0,0],[1,3],[0]]","10","0","","","","","","6","","","","",""
"","","","","","single-stim-button","347","1859708","0.0-3.0-40.8-1.8","5d520a2a08c3b00019384072","E1","batch5","tol_toboard","839","","","","","","","","","tol_peg_2","839","839","0","[[0,0,0],[1,3],[2]]","9","[[2,0,0],[1,3],[0]]","10","0","","","","","","6","","","","",""
"","","","","","single-stim-button","348","1860643","0.0-3.0-40.9-0.9","5d520a2a08c3b00019384072","E1","batch5","tol_tohand","935","","","","","","","","","tol_peg_3","935","935","0","[[0,0,0],[1,3],[0]]","10","[[2,0,0],[1,3],[0]]","10","0","","","","","","6","","","","",""
"","","","","","single-stim-button","349","1861553","0.0-3.0-40.9-1.9","5d520a2a08c3b00019384072","E1","batch5","tol_toboard","908","","","","","","","","","tol_peg_1","908","908","0","[[2,0,0],[1,3],[0]]","10","[[2,0,0],[1,3],[0]]","10","0","","","","","","6","","","","",""
"","","","","","poldrack-single-stim","350","1862556","0.0-3.0-41.0","5d520a2a08c3b00019384072","E1","batch5","tol_feedback","-1","","","","","true","","","","","1000","1000","500","","","","","","-1","none","true","4267","15961","","","","","",""
"","","","","","html-button-response","351","1864395","0.0-3.0-42.0","5d520a2a08c3b00019384072","E1","batch5","tol_trial_num","1838.2999999523163","<div class = centerbox><p class = center-block-text>problem <strong>12</strong> out of 25 problems</p></div>","0","","","","","","","","","","","","","","","","","","","","","","","","","",""
"","","","","","single-stim-button","352","1868125","0.0-3.0-43.0-0.0","5d520a2a08c3b00019384072","E1","batch5","tol_tohand","3729","","","","","","","","","tol_peg_1","3729","3729","0","[[1,0,0],[3,0],[0]]","1","[[2,3,0],[0,0],[1]]","11","0","","","","","","4","","","","",""
"","","","","","single-stim-button","353","1868857","0.0-3.0-43.0-1.0","5d520a2a08c3b00019384072","E1","batch5","tol_toboard","731","","","","","","","","","tol_peg_2","731","731","0","[[1,0,0],[3,2],[0]]","1","[[2,3,0],[0,0],[1]]","11","0","","","","","","4","","","","",""
