"success","timeout","failed_images","failed_audio","failed_video","trial_type","trial_index","time_elapsed","internal_node_id","subject_id","study_id","session_id","view_history","rt","task","stimulus","response","correct","mouse_click","stim_duration","block_duration","timing_post_trial","current_position","tol_num_moves_made","tol_target","tol_problem_id","tol_rt","key_press","possible_responses","tol_correct","preplanning","tol_rt_per_trial","tol_min_moves","item","answer","spm_correct","spm_rt","fiar_detect_rt","fiar_detect_correct","total_correct_fiar_detect","post_trial_gap","choices"
"true","false","[]","[]","[]","preload","0","25096","0.0-0.0","5d5798f81da7d1001ca1a86e","C3","batch3","","","","","","","","","","","","","","","","","","","","","","","","","","","","","",""
"true","","","","","fullscreen","1","42207","0.0-1.0-0.0","5d5798f81da7d1001ca1a86e","C3","batch3","","","","","","","","","","","","","","","","","","","","","","","","","","","","","",""
"true","","","","","fullscreen","2","50419","0.0-2.0-0.0","5d5798f81da7d1001ca1a86e","C3","batch3","","","","","","","","","","","","","","","","","","","","","","","","","","","","","",""
"","","","","","instructions","3","112310","0.0-2.0-1.0-0.0-0.0","5d5798f81da7d1001ca1a86e","C3","batch3","[{""page_index"":0,""viewing_time"":13253.40000000596},{""page_index"":1,""viewing_time"":6562.399999976158},{""page_index"":2,""viewing_time"":4868.600000023842},{""page_index"":3,""viewing_time"":10466.199999988079},{""page_index"":4,""viewing_time"":10768.40000000596},{""page_index"":5,""viewing_time"":12182.09999999404},{""page_index"":6,""viewing_time"":3787.5}]","61889.09999999404","tol-instructions","","","","","","","","","","","","","","","","","","","","","","","","","","",""
"","","","","","html-button-response","4","113298","0.0-2.0-1.0-1.0-0.0","5d5798f81da7d1001ca1a86e","C3","batch3","","984.8999999761581","tol_enter_quiz","<p class=block-text> Let's answer a few questions <br>","0","","","","","","","","","","","","","","","","","","","","","","","","",""
"","","","","","html-button-response","5","148997","0.0-2.0-1.0-1.0-1.0","5d5798f81da7d1001ca1a86e","C3","batch3","","35696.09999999404","tol_quiz","<p class = block-text>True or False: You can only move the ball on top of a peg. <br></p>","1","false","","","","","","","","","","","","","","","","","","","","","","","",""
"","","","","","html-button-response","6","150610","0.0-2.0-1.0-1.0-2.0","5d5798f81da7d1001ca1a86e","C3","batch3","","1610","tol_quiz_feedback","<p class = block-text>Incorrect. Remember, you can only move the ball on top of a peg.</p>","0","","","","","","","","","","","","","","","","","","","","","","","","",""
"","","","","","html-button-response","7","151809","0.0-2.0-1.0-1.0-3.0","5d5798f81da7d1001ca1a86e","C3","batch3","","1197","tol_quiz","<p class = block-text>True or False: You should try to match your board with the target board with fewest moves possible. <br></p>","0","true","","","","","","","","","","","","","","","","","","","","","","","",""
"","","","","","html-button-response","8","153210","0.0-2.0-1.0-1.0-4.0","5d5798f81da7d1001ca1a86e","C3","batch3","","1399.5","tol_quiz_feedback","<p class = block-text>Correct! </p>","0","","","","","","","","","","","","","","","","","","","","","","","","",""
"","","","","","html-button-response","9","155548","0.0-2.0-1.0-2.0-0.0","5d5798f81da7d1001ca1a86e","C3","batch3","","2334.7000000178814","","<p class = block-text>You made too many incorrect choices.</p><p class = block-text>You will now repeat the instructions and quiz</p>","0","","","","","","","","","","","","","","","","","","","","","","","","",""
"","","","","","instructions","10","186524","0.0-2.0-1.1-0.1-0.1","5d5798f81da7d1001ca1a86e","C3","batch3","[{""page_index"":0,""viewing_time"":3987},{""page_index"":1,""viewing_time"":2599.7999999821186},{""page_index"":2,""viewing_time"":1510.4000000059605},{""page_index"":1,""viewing_time"":1259.0999999940395},{""page_index"":2,""viewing_time"":1299.2000000178814},{""page_index"":3,""viewing_time"":8405.09999999404},{""page_index"":4,""viewing_time"":4058.800000011921},{""page_index"":5,""viewing_time"":5578.5999999940395},{""page_index"":6,""viewing_time"":2276.2999999821186}]","30974.90000000596","tol-instructions","","","","","","","","","","","","","","","","","","","","","","","","","","",""
"","","","","","html-button-response","11","187552","0.0-2.0-1.1-1.1-0.1","5d5798f81da7d1001ca1a86e","C3","batch3","","1025.800000011921","tol_enter_quiz","<p class=block-text> Let's answer a few questions <br>","0","","","","","","","","","","","","","","","","","","","","","","","","",""
"","","","","","html-button-response","12","195073","0.0-2.0-1.1-1.1-1.1","5d5798f81da7d1001ca1a86e","C3","batch3","","7519.199999988079","tol_quiz","<p class = block-text>True or False: You can only move the ball on top of a peg. <br></p>","1","false","","","","","","","","","","","","","","","","","","","","","","","",""
"","","","","","html-button-response","13","196322","0.0-2.0-1.1-1.1-2.1","5d5798f81da7d1001ca1a86e","C3","batch3","","1246.9000000059605","tol_quiz_feedback","<p class = block-text>Incorrect. Remember, you can only move the ball on top of a peg.</p>","0","","","","","","","","","","","","","","","","","","","","","","","","",""
"","","","","","html-button-response","14","198789","0.0-2.0-1.1-1.1-3.1","5d5798f81da7d1001ca1a86e","C3","batch3","","2465.5","tol_quiz","<p class = block-text>True or False: You should try to match your board with the target board with fewest moves possible. <br></p>","0","true","","","","","","","","","","","","","","","","","","","","","","","",""
"","","","","","html-button-response","15","199694","0.0-2.0-1.1-1.1-4.1","5d5798f81da7d1001ca1a86e","C3","batch3","","903.8000000119209","tol_quiz_feedback","<p class = block-text>Correct! </p>","0","","","","","","","","","","","","","","","","","","","","","","","","",""
"","","","","","html-button-response","16","201215","0.0-2.0-1.1-2.1-0.1","5d5798f81da7d1001ca1a86e","C3","batch3","","1519.1000000238419","","<p class = block-text>You made too many incorrect choices.</p><p class = block-text>You will now repeat the instructions and quiz</p>","0","","","","","","","","","","","","","","","","","","","","","","","","",""
"","","","","","instructions","17","205121","0.0-2.0-1.2-0.2-0.2","5d5798f81da7d1001ca1a86e","C3","batch3","[{""page_index"":0,""viewing_time"":984.5999999940395},{""page_index"":1,""viewing_time"":453.5},{""page_index"":2,""viewing_time"":422.19999998807907},{""page_index"":3,""viewing_time"":416.2000000178814},{""page_index"":4,""viewing_time"":6.0999999940395355},{""page_index"":5,""viewing_time"":474.09999999403954},{""page_index"":6,""viewing_time"":1147.0999999940395}]","3904.399999976158","tol-instructions","","","","","","","","","","","","","","","","","","","","","","","","","","",""
"","","","","","html-button-response","18","206017","0.0-2.0-1.2-1.2-0.2","5d5798f81da7d1001ca1a86e","C3","batch3","","894.8000000119209","tol_enter_quiz","<p class=block-text> Let's answer a few questions <br>","0","","","","","","","","","","","","","","","","","","","","","","","","",""
"","","","","","html-button-response","19","207396","0.0-2.0-1.2-1.2-1.2","5d5798f81da7d1001ca1a86e","C3","batch3","","1377.5","tol_quiz","<p class = block-text>True or False: You can only move the ball on top of a peg. <br></p>","0","true","","","","","","","","","","","","","","","","","","","","","","","",""
"","","","","","html-button-response","20","208271","0.0-2.0-1.2-1.2-2.2","5d5798f81da7d1001ca1a86e","C3","batch3","","874.5","tol_quiz_feedback","<p class = block-text>Correct! You can only move the ball on top of a peg.</p>","0","","","","","","","","","","","","","","","","","","","","","","","","",""
"","","","","","html-button-response","21","209520","0.0-2.0-1.2-1.2-3.2","5d5798f81da7d1001ca1a86e","C3","batch3","","1247.3999999761581","tol_quiz","<p class = block-text>True or False: You should try to match your board with the target board with fewest moves possible. <br></p>","0","true","","","","","","","","","","","","","","","","","","","","","","","",""
"","","","","","html-button-response","22","210788","0.0-2.0-1.2-1.2-4.2","5d5798f81da7d1001ca1a86e","C3","batch3","","1266.0999999940395","tol_quiz_feedback","<p class = block-text>Correct! </p>","0","","","","","","","","","","","","","","","","","","","","","","","","",""
"","","","","","html-button-response","23","213355","0.0-2.0-2.0","5d5798f81da7d1001ca1a86e","C3","batch3","","2565.2000000178814","","<p class=block-text> Now that you've understood the game, let's practice a few easier examples before we start!<br> <br>","0","","","","","","","","","","","","","","","","","","","","","","","","",""
"","","","","","single-stim-button","24","227348","0.0-2.0-3.0-0.0","5d5798f81da7d1001ca1a86e","C3","batch3","","13989","tol_practice","","","","tol_peg_2","13989","13989","0","[[1,2,0],[0,0],[0]]","1","[[1,2,0],[0,0],[3]]","practice","13989","","","","","","","","","","","","","","",""
"","","","","","single-stim-button","25","230224","0.0-2.0-3.0-1.0","5d5798f81da7d1001ca1a86e","C3","batch3","","2873","tol_practice","","","","tol_peg_3","2873","2873","0","[[1,2,0],[0,0],[3]]","1","[[1,2,0],[0,0],[3]]","practice","2873","","","","","","","","","","","","","","",""
"","","","","","poldrack-single-stim","26","231232","0.0-2.0-4.0","5d5798f81da7d1001ca1a86e","C3","batch3","","-1","tol_feedback","","","true","","1000","1000","500","","","","","","-1","none","true","","0","","","","","","","","","",""
"","","","","","single-stim-button","27","235035","0.0-2.0-5.0-0.0","5d5798f81da7d1001ca1a86e","C3","batch3","","3800","tol_practice","","","","tol_peg_1","3800","3800","0","[[1,0,0],[3,0],[0]]","2","[[0,0,0],[3,1],[2]]","practice","3800","","","","","","","","","","","","","","",""
"","","","","","single-stim-button","28","236213","0.0-2.0-5.0-1.0","5d5798f81da7d1001ca1a86e","C3","batch3","","1177","tol_practice","","","","tol_peg_3","1177","1177","0","[[1,0,0],[3,0],[2]]","2","[[0,0,0],[3,1],[2]]","practice","1177","","","","","","","","","","","","","","",""
"","","","","","single-stim-button","29","238778","0.0-2.0-5.1-0.1","5d5798f81da7d1001ca1a86e","C3","batch3","","2564","tol_practice","","","","tol_peg_3","2564","2564","0","[[1,0,0],[3,0],[0]]","3","[[0,0,0],[3,1],[2]]","practice","2564","","","","","","","","","","","","","","",""
"","","","","","single-stim-button","30","240006","0.0-2.0-5.1-1.1","5d5798f81da7d1001ca1a86e","C3","batch3","","1226","tol_practice","","","","tol_peg_1","1226","1226","0","[[1,2,0],[3,0],[0]]","3","[[0,0,0],[3,1],[2]]","practice","1226","","","","","","","","","","","","","","",""
"","","","","","single-stim-button","31","245631","0.0-2.0-5.2-0.2","5d5798f81da7d1001ca1a86e","C3","batch3","","5623","tol_practice","","","","tol_peg_1","5623","5623","0","[[1,0,0],[3,0],[0]]","4","[[0,0,0],[3,1],[2]]","practice","5623","","","","","","","","","","","","","","",""
"","","","","","single-stim-button","32","247734","0.0-2.0-5.2-1.2","5d5798f81da7d1001ca1a86e","C3","batch3","","2101","tol_practice","","","","tol_peg_2","2101","2101","0","[[1,0,0],[3,2],[0]]","4","[[0,0,0],[3,1],[2]]","practice","2101","","","","","","","","","","","","","","",""
"","","","","","single-stim-button","33","249052","0.0-2.0-5.3-0.3","5d5798f81da7d1001ca1a86e","C3","batch3","","1317","tol_practice","","","","tol_peg_1","1317","1317","0","[[0,0,0],[3,2],[0]]","5","[[0,0,0],[3,1],[2]]","practice","1317","","","","","","","","","","","","","","",""
"","","","","","single-stim-button","34","249947","0.0-2.0-5.3-1.3","5d5798f81da7d1001ca1a86e","C3","batch3","","893","tol_practice","","","","tol_peg_3","893","893","0","[[0,0,0],[3,2],[1]]","5","[[0,0,0],[3,1],[2]]","practice","893","","","","","","","","","","","","","","",""
"","","","","","single-stim-button","35","250631","0.0-2.0-5.4-0.4","5d5798f81da7d1001ca1a86e","C3","batch3","","683","tol_practice","","","","tol_peg_2","683","683","0","[[0,0,0],[3,0],[1]]","6","[[0,0,0],[3,1],[2]]","practice","683","","","","","","","","","","","","","","",""
"","","","","","single-stim-button","36","251759","0.0-2.0-5.4-1.4","5d5798f81da7d1001ca1a86e","C3","batch3","","1126","tol_practice","","","","tol_peg_1","1126","1126","0","[[2,0,0],[3,0],[1]]","6","[[0,0,0],[3,1],[2]]","practice","1126","","","","","","","","","","","","","","",""
"","","","","","single-stim-button","37","252886","0.0-2.0-5.5-0.5","5d5798f81da7d1001ca1a86e","C3","batch3","","1125","tol_practice","","","","tol_peg_3","1125","1125","0","[[2,0,0],[3,0],[0]]","7","[[0,0,0],[3,1],[2]]","practice","1125","","","","","","","","","","","","","","",""
"","","","","","single-stim-button","38","253458","0.0-2.0-5.5-1.5","5d5798f81da7d1001ca1a86e","C3","batch3","","571","tol_practice","","","","tol_peg_2","571","571","0","[[2,0,0],[3,1],[0]]","7","[[0,0,0],[3,1],[2]]","practice","571","","","","","","","","","","","","","","",""
"","","","","","single-stim-button","39","254124","0.0-2.0-5.6-0.6","5d5798f81da7d1001ca1a86e","C3","batch3","","664","tol_practice","","","","tol_peg_1","664","664","0","[[0,0,0],[3,1],[0]]","8","[[0,0,0],[3,1],[2]]","practice","664","","","","","","","","","","","","","","",""
"","","","","","single-stim-button","40","255028","0.0-2.0-5.6-1.6","5d5798f81da7d1001ca1a86e","C3","batch3","","903","tol_practice","","","","tol_peg_3","903","903","0","[[0,0,0],[3,1],[2]]","8","[[0,0,0],[3,1],[2]]","practice","903","","","","","","","","","","","","","","",""
"","","","","","poldrack-single-stim","41","256030","0.0-2.0-6.0","5d5798f81da7d1001ca1a86e","C3","batch3","","-1","tol_feedback","","","true","","1000","1000","500","","","","","","-1","none","true","","0","","","","","","","","","",""
"","","","","","single-stim-button","42","267232","0.0-2.0-7.0-0.0","5d5798f81da7d1001ca1a86e","C3","batch3","","11201","tol_practice","","","","tol_peg_2","11201","11201","0","[[1,2,0],[0,0],[0]]","9","[[1,0,0],[2,0],[3]]","practice","11201","","","","","","","","","","","","","","",""
"","","","","","single-stim-button","43","268127","0.0-2.0-7.0-1.0","5d5798f81da7d1001ca1a86e","C3","batch3","","893","tol_practice","","","","tol_peg_3","893","893","0","[[1,2,0],[0,0],[3]]","9","[[1,0,0],[2,0],[3]]","practice","893","","","","","","","","","","","","","","",""
"","","","","","single-stim-button","44","268922","0.0-2.0-7.1-0.1","5d5798f81da7d1001ca1a86e","C3","batch3","","793","tol_practice","","","","tol_peg_1","793","793","0","[[1,0,0],[0,0],[3]]","10","[[1,0,0],[2,0],[3]]","practice","793","","","","","","","","","","","","","","",""
"","","","","","single-stim-button","45","269636","0.0-2.0-7.1-1.1","5d5798f81da7d1001ca1a86e","C3","batch3","","712","tol_practice","","","","tol_peg_2","712","712","0","[[1,0,0],[2,0],[3]]","10","[[1,0,0],[2,0],[3]]","practice","712","","","","","","","","","","","","","","",""
"","","","","","poldrack-single-stim","46","270642","0.0-2.0-8.0","5d5798f81da7d1001ca1a86e","C3","batch3","","-1","tol_feedback","","","true","","1000","1000","500","","","","","","-1","none","true","","0","","","","","","","","","",""
"","","","","","html-button-response","47","272151","0.0-2.0-9.0","5d5798f81da7d1001ca1a86e","C3","batch3","","1506","tol_instruction","<div class = centerbox><p class = center-block-text>Great job! You are done with practice trials<br>You are about to start official trials.<br> <br> Problem <strong>1</strong> out of 25 problems</p></div>","0","","","","","","","","","","","","","","","","","","","","","","","","",""
"","","","","","single-stim-button","48","278239","0.0-2.0-10.0-0.0","5d5798f81da7d1001ca1a86e","C3","batch3","","5080","tol_tohand","","","","tol_peg_2","5080","5080","0","[[1,2,0],[0,0],[0]]","1","[[1,3,0],[2,0],[0]]","0","0","","","","","","3","","","","","","","","",""
"","","","","","single-stim-button","49","279576","0.0-2.0-10.0-1.0","5d5798f81da7d1001ca1a86e","C3","batch3","","1335","tol_toboard","","","","tol_peg_3","1335","1335","0","[[1,2,0],[0,0],[3]]","1","[[1,3,0],[2,0],[0]]","0","0","","","","","","3","","","","","","","","",""
"","","","","","single-stim-button","50","281467","0.0-2.0-10.1-0.1","5d5798f81da7d1001ca1a86e","C3","batch3","","1889","tol_tohand","","","","tol_peg_1","1889","1889","0","[[1,0,0],[0,0],[3]]","2","[[1,3,0],[2,0],[0]]","0","0","","","","","","3","","","","","","","","",""
"","","","","","single-stim-button","51","284072","0.0-2.0-10.1-1.1","5d5798f81da7d1001ca1a86e","C3","batch3","","2603","tol_toboard","","","","tol_peg_2","2603","2603","0","[[1,0,0],[2,0],[3]]","2","[[1,3,0],[2,0],[0]]","0","0","","","","","","3","","","","","","","","",""
"","","","","","single-stim-button","52","285017","0.0-2.0-10.2-0.2","5d5798f81da7d1001ca1a86e","C3","batch3","","944","tol_tohand","","","","tol_peg_3","944","944","0","[[1,0,0],[2,0],[0]]","3","[[1,3,0],[2,0],[0]]","0","0","","","","","","3","","","","","","","","",""
"","","","","","single-stim-button","53","286304","0.0-2.0-10.2-1.2","5d5798f81da7d1001ca1a86e","C3","batch3","","1287","tol_toboard","","","","tol_peg_1","1287","1287","0","[[1,3,0],[2,0],[0]]","3","[[1,3,0],[2,0],[0]]","0","0","","","","","","3","","","","","","","","",""
"","","","","","poldrack-single-stim","54","287306","0.0-2.0-11.0","5d5798f81da7d1001ca1a86e","C3","batch3","","-1","tol_feedback","","","true","","1000","1000","500","","","","","","-1","none","true","5080","7913","","","","","","","","","",""
"","","","","","html-button-response","55","288225","0.0-2.0-12.0","5d5798f81da7d1001ca1a86e","C3","batch3","","917.1999999880791","tol_trial_num","<div class = centerbox><p class = center-block-text>problem <strong>2</strong> out of 25 problems</p></div>","0","","","","","","","","","","","","","","","","","","","","","","","","",""
"","","","","","single-stim-button","56","294382","0.0-2.0-13.0-0.0","5d5798f81da7d1001ca1a86e","C3","batch3","","6154","tol_tohand","","","","tol_peg_1","6154","6154","0","[[1,0,0],[3,0],[0]]","1","[[2,1,3],[0,0],[0]]","1","0","","","","","","5","","","","","","","","",""
"","","","","","single-stim-button","57","298275","0.0-2.0-13.0-1.0","5d5798f81da7d1001ca1a86e","C3","batch3","","3891","tol_toboard","","","","tol_peg_2","3891","3891","0","[[1,0,0],[3,2],[0]]","1","[[2,1,3],[0,0],[0]]","1","0","","","","","","5","","","","","","","","",""
"","","","","","single-stim-button","58","299179","0.0-2.0-13.1-0.1","5d5798f81da7d1001ca1a86e","C3","batch3","","904","tol_tohand","","","","tol_peg_1","904","904","0","[[0,0,0],[3,2],[0]]","2","[[2,1,3],[0,0],[0]]","1","0","","","","","","5","","","","","","","","",""
"","","","","","single-stim-button","59","300174","0.0-2.0-13.1-1.1","5d5798f81da7d1001ca1a86e","C3","batch3","","993","tol_toboard","","","","tol_peg_3","993","993","0","[[0,0,0],[3,2],[1]]","2","[[2,1,3],[0,0],[0]]","1","0","","","","","","5","","","","","","","","",""
"","","","","","single-stim-button","60","300939","0.0-2.0-13.2-0.2","5d5798f81da7d1001ca1a86e","C3","batch3","","764","tol_tohand","","","","tol_peg_2","764","764","0","[[0,0,0],[3,0],[1]]","3","[[2,1,3],[0,0],[0]]","1","0","","","","","","5","","","","","","","","",""
"","","","","","single-stim-button","61","301804","0.0-2.0-13.2-1.2","5d5798f81da7d1001ca1a86e","C3","batch3","","864","tol_toboard","","","","tol_peg_1","864","864","0","[[2,0,0],[3,0],[1]]","3","[[2,1,3],[0,0],[0]]","1","0","","","","","","5","","","","","","","","",""
"","","","","","single-stim-button","62","302809","0.0-2.0-13.3-0.3","5d5798f81da7d1001ca1a86e","C3","batch3","","1003","tol_tohand","","","","tol_peg_3","1003","1003","0","[[2,0,0],[3,0],[0]]","4","[[2,1,3],[0,0],[0]]","1","0","","","","","","5","","","","","","","","",""
"","","","","","single-stim-button","63","303745","0.0-2.0-13.3-1.3","5d5798f81da7d1001ca1a86e","C3","batch3","","935","tol_toboard","","","","tol_peg_1","935","935","0","[[2,1,0],[3,0],[0]]","4","[[2,1,3],[0,0],[0]]","1","0","","","","","","5","","","","","","","","",""
"","","","","","single-stim-button","64","304378","0.0-2.0-13.4-0.4","5d5798f81da7d1001ca1a86e","C3","batch3","","633","tol_tohand","","","","tol_peg_2","633","633","0","[[2,1,0],[0,0],[0]]","5","[[2,1,3],[0,0],[0]]","1","0","","","","","","5","","","","","","","","",""
"","","","","","single-stim-button","65","305052","0.0-2.0-13.4-1.4","5d5798f81da7d1001ca1a86e","C3","batch3","","672","tol_toboard","","","","tol_peg_1","672","672","0","[[2,1,3],[0,0],[0]]","5","[[2,1,3],[0,0],[0]]","1","0","","","","","","5","","","","","","","","",""
"","","","","","poldrack-single-stim","66","306054","0.0-2.0-14.0","5d5798f81da7d1001ca1a86e","C3","batch3","","-1","tol_feedback","","","true","","1000","1000","500","","","","","","-1","none","true","6154","9458","","","","","","","","","",""
"","","","","","html-button-response","67","307194","0.0-2.0-15.0","5d5798f81da7d1001ca1a86e","C3","batch3","","1137.9000000059605","tol_trial_num","<div class = centerbox><p class = center-block-text>problem <strong>3</strong> out of 25 problems</p></div>","0","","","","","","","","","","","","","","","","","","","","","","","","",""
"","","","","","single-stim-button","68","314273","0.0-2.0-16.0-0.0","5d5798f81da7d1001ca1a86e","C3","batch3","","7078","tol_tohand","","","","tol_peg_1","7078","7078","0","[[2,0,0],[0,0],[1]]","1","[[1,2,0],[3,0],[0]]","2","0","","","","","","4","","","","","","","","",""
"","","","","","single-stim-button","69","317651","0.0-2.0-16.0-1.0","5d5798f81da7d1001ca1a86e","C3","batch3","","3377","tol_toboard","","","","tol_peg_1","3377","3377","0","[[2,3,0],[0,0],[1]]","1","[[1,2,0],[3,0],[0]]","2","0","","","","","","4","","","","","","","","",""
"","","","","","single-stim-button","70","318555","0.0-2.0-16.1-0.1","5d5798f81da7d1001ca1a86e","C3","batch3","","902","tol_tohand","","","","tol_peg_3","902","902","0","[[2,3,0],[0,0],[0]]","2","[[1,2,0],[3,0],[0]]","2","0","","","","","","4","","","","","","","","",""
"","","","","","single-stim-button","71","319189","0.0-2.0-16.1-1.1","5d5798f81da7d1001ca1a86e","C3","batch3","","633","tol_toboard","","","","tol_peg_2","633","633","0","[[2,3,0],[1,0],[0]]","2","[[1,2,0],[3,0],[0]]","2","0","","","","","","4","","","","","","","","",""
"","","","","","single-stim-button","72","319903","0.0-2.0-16.2-0.2","5d5798f81da7d1001ca1a86e","C3","batch3","","712","tol_tohand","","","","tol_peg_1","712","712","0","[[2,0,0],[1,0],[0]]","3","[[1,2,0],[3,0],[0]]","2","0","","","","","","4","","","","","","","","",""
"","","","","","single-stim-button","73","320537","0.0-2.0-16.2-1.2","5d5798f81da7d1001ca1a86e","C3","batch3","","633","tol_toboard","","","","tol_peg_3","633","633","0","[[2,0,0],[1,0],[3]]","3","[[1,2,0],[3,0],[0]]","2","0","","","","","","4","","","","","","","","",""
"","","","","","single-stim-button","74","325644","0.0-2.0-16.3-0.3","5d5798f81da7d1001ca1a86e","C3","batch3","","5106","tol_tohand","","","","tol_peg_3","5106","5106","0","[[2,0,0],[1,0],[0]]","4","[[1,2,0],[3,0],[0]]","2","0","","","","","","4","","","","","","","","",""
"","","","","","single-stim-button","75","326499","0.0-2.0-16.3-1.3","5d5798f81da7d1001ca1a86e","C3","batch3","","853","tol_toboard","","","","tol_peg_2","853","853","0","[[2,0,0],[1,3],[0]]","4","[[1,2,0],[3,0],[0]]","2","0","","","","","","4","","","","","","","","",""
"","","","","","single-stim-button","76","328288","0.0-2.0-16.4-0.4","5d5798f81da7d1001ca1a86e","C3","batch3","","1787","tol_tohand","","","","tol_peg_1","1787","1787","0","[[0,0,0],[1,3],[0]]","5","[[1,2,0],[3,0],[0]]","2","0","","","","","","4","","","","","","","","",""
"","","","","","single-stim-button","77","328921","0.0-2.0-16.4-1.4","5d5798f81da7d1001ca1a86e","C3","batch3","","632","tol_toboard","","","","tol_peg_3","632","632","0","[[0,0,0],[1,3],[2]]","5","[[1,2,0],[3,0],[0]]","2","0","","","","","","4","","","","","","","","",""
"","","","","","single-stim-button","78","330006","0.0-2.0-16.5-0.5","5d5798f81da7d1001ca1a86e","C3","batch3","","1085","tol_tohand","","","","tol_peg_2","1085","1085","0","[[0,0,0],[1,0],[2]]","6","[[1,2,0],[3,0],[0]]","2","0","","","","","","4","","","","","","","","",""
"","","","","","single-stim-button","79","332077","0.0-2.0-16.5-1.5","5d5798f81da7d1001ca1a86e","C3","batch3","","2070","tol_toboard","","","","tol_peg_1","2070","2070","0","[[3,0,0],[1,0],[2]]","6","[[1,2,0],[3,0],[0]]","2","0","","","","","","4","","","","","","","","",""
"","","","","","single-stim-button","80","332761","0.0-2.0-16.6-0.6","5d5798f81da7d1001ca1a86e","C3","batch3","","682","tol_tohand","","","","tol_peg_3","682","682","0","[[3,0,0],[1,0],[0]]","7","[[1,2,0],[3,0],[0]]","2","0","","","","","","4","","","","","","","","",""
"","","","","","single-stim-button","81","333596","0.0-2.0-16.6-1.6","5d5798f81da7d1001ca1a86e","C3","batch3","","833","tol_toboard","","","","tol_peg_2","833","833","0","[[3,0,0],[1,2],[0]]","7","[[1,2,0],[3,0],[0]]","2","0","","","","","","4","","","","","","","","",""
"","","","","","single-stim-button","82","335083","0.0-2.0-16.7-0.7","5d5798f81da7d1001ca1a86e","C3","batch3","","1486","tol_tohand","","","","tol_peg_1","1486","1486","0","[[0,0,0],[1,2],[0]]","8","[[1,2,0],[3,0],[0]]","2","0","","","","","","4","","","","","","","","",""
"","","","","","single-stim-button","83","336108","0.0-2.0-16.7-1.7","5d5798f81da7d1001ca1a86e","C3","batch3","","1023","tol_toboard","","","","tol_peg_3","1023","1023","0","[[0,0,0],[1,2],[3]]","8","[[1,2,0],[3,0],[0]]","2","0","","","","","","4","","","","","","","","",""
"","","","","","single-stim-button","84","337233","0.0-2.0-16.8-0.8","5d5798f81da7d1001ca1a86e","C3","batch3","","1124","tol_tohand","","","","tol_peg_2","1124","1124","0","[[0,0,0],[1,0],[3]]","9","[[1,2,0],[3,0],[0]]","2","0","","","","","","4","","","","","","","","",""
"","","","","","single-stim-button","85","338169","0.0-2.0-16.8-1.8","5d5798f81da7d1001ca1a86e","C3","batch3","","934","tol_toboard","","","","tol_peg_1","934","934","0","[[2,0,0],[1,0],[3]]","9","[[1,2,0],[3,0],[0]]","2","0","","","","","","4","","","","","","","","",""
"","","","","","single-stim-button","86","338924","0.0-2.0-16.9-0.9","5d5798f81da7d1001ca1a86e","C3","batch3","","753","tol_tohand","","","","tol_peg_2","753","753","0","[[2,0,0],[0,0],[3]]","10","[[1,2,0],[3,0],[0]]","2","0","","","","","","4","","","","","","","","",""
"","","","","","single-stim-button","87","339838","0.0-2.0-16.9-1.9","5d5798f81da7d1001ca1a86e","C3","batch3","","913","tol_toboard","","","","tol_peg_1","913","913","0","[[2,1,0],[0,0],[3]]","10","[[1,2,0],[3,0],[0]]","2","0","","","","","","4","","","","","","","","",""
"","","","","","single-stim-button","88","342079","0.0-2.0-16.10-0.10","5d5798f81da7d1001ca1a86e","C3","batch3","","2240","tol_tohand","","","","tol_peg_3","2240","2240","0","[[2,1,0],[0,0],[0]]","11","[[1,2,0],[3,0],[0]]","2","0","","","","","","4","","","","","","","","",""
"","","","","","single-stim-button","89","342713","0.0-2.0-16.10-1.10","5d5798f81da7d1001ca1a86e","C3","batch3","","632","tol_toboard","","","","tol_peg_2","632","632","0","[[2,1,0],[3,0],[0]]","11","[[1,2,0],[3,0],[0]]","2","0","","","","","","4","","","","","","","","",""
"","","","","","single-stim-button","90","343697","0.0-2.0-16.11-0.11","5d5798f81da7d1001ca1a86e","C3","batch3","","983","tol_tohand","","","","tol_peg_1","983","983","0","[[2,0,0],[3,0],[0]]","12","[[1,2,0],[3,0],[0]]","2","0","","","","","","4","","","","","","","","",""
"","","","","","single-stim-button","91","344532","0.0-2.0-16.11-1.11","5d5798f81da7d1001ca1a86e","C3","batch3","","834","tol_toboard","","","","tol_peg_2","834","834","0","[[2,0,0],[3,1],[0]]","12","[[1,2,0],[3,0],[0]]","2","0","","","","","","4","","","","","","","","",""
"","","","","","single-stim-button","92","345627","0.0-2.0-16.12-0.12","5d5798f81da7d1001ca1a86e","C3","batch3","","1094","tol_tohand","","","","tol_peg_1","1094","1094","0","[[0,0,0],[3,1],[0]]","13","[[1,2,0],[3,0],[0]]","2","0","","","","","","4","","","","","","","","",""
"","","","","","single-stim-button","93","346803","0.0-2.0-16.12-1.12","5d5798f81da7d1001ca1a86e","C3","batch3","","1174","tol_toboard","","","","tol_peg_3","1174","1174","0","[[0,0,0],[3,1],[2]]","13","[[1,2,0],[3,0],[0]]","2","0","","","","","","4","","","","","","","","",""
"","","","","","single-stim-button","94","347426","0.0-2.0-16.13-0.13","5d5798f81da7d1001ca1a86e","C3","batch3","","623","tol_tohand","","","","tol_peg_2","623","623","0","[[0,0,0],[3,0],[2]]","14","[[1,2,0],[3,0],[0]]","2","0","","","","","","4","","","","","","","","",""
"","","","","","single-stim-button","95","348311","0.0-2.0-16.13-1.13","5d5798f81da7d1001ca1a86e","C3","batch3","","884","tol_toboard","","","","tol_peg_1","884","884","0","[[1,0,0],[3,0],[2]]","14","[[1,2,0],[3,0],[0]]","2","0","","","","","","4","","","","","","","","",""
"","","","","","single-stim-button","96","350292","0.0-2.0-16.14-0.14","5d5798f81da7d1001ca1a86e","C3","batch3","","1979","tol_tohand","","","","tol_peg_3","1979","1979","0","[[1,0,0],[3,0],[0]]","15","[[1,2,0],[3,0],[0]]","2","0","","","","","","4","","","","","","","","",""
"","","","","","single-stim-button","97","351027","0.0-2.0-16.14-1.14","5d5798f81da7d1001ca1a86e","C3","batch3","","733","tol_toboard","","","","tol_peg_1","733","733","0","[[1,2,0],[3,0],[0]]","15","[[1,2,0],[3,0],[0]]","2","0","","","","","","4","","","","","","","","",""
"","","","","","poldrack-single-stim","98","352040","0.0-2.0-17.0","5d5798f81da7d1001ca1a86e","C3","batch3","","-1","tol_feedback","","","true","","1000","1000","500","","","","","","-1","none","true","7078","27634","","","","","","","","","",""
"","","","","","html-button-response","99","353337","0.0-2.0-18.0","5d5798f81da7d1001ca1a86e","C3","batch3","","1294.199999988079","tol_trial_num","<div class = centerbox><p class = center-block-text>problem <strong>4</strong> out of 25 problems</p></div>","0","","","","","","","","","","","","","","","","","","","","","","","","",""
"","","","","","single-stim-button","100","358252","0.0-2.0-19.0-0.0","5d5798f81da7d1001ca1a86e","C3","batch3","","4914","tol_tohand","","","","tol_peg_2","4914","4914","0","[[3,0,0],[2,0],[0]]","1","[[3,0,0],[1,0],[2]]","3","0","","","","","","3","","","","","","","","",""
"","","","","","single-stim-button","101","359249","0.0-2.0-19.0-1.0","5d5798f81da7d1001ca1a86e","C3","batch3","","995","tol_toboard","","","","tol_peg_1","995","995","0","[[3,1,0],[2,0],[0]]","1","[[3,0,0],[1,0],[2]]","3","0","","","","","","3","","","","","","","","",""
"","","","","","single-stim-button","102","360373","0.0-2.0-19.1-0.1","5d5798f81da7d1001ca1a86e","C3","batch3","","1123","tol_tohand","","","","tol_peg_2","1123","1123","0","[[3,1,0],[0,0],[0]]","2","[[3,0,0],[1,0],[2]]","3","0","","","","","","3","","","","","","","","",""
"","","","","","single-stim-button","103","361600","0.0-2.0-19.1-1.1","5d5798f81da7d1001ca1a86e","C3","batch3","","1225","tol_toboard","","","","tol_peg_3","1225","1225","0","[[3,1,0],[0,0],[2]]","2","[[3,0,0],[1,0],[2]]","3","0","","","","","","3","","","","","","","","",""
"","","","","","single-stim-button","104","362655","0.0-2.0-19.2-0.2","5d5798f81da7d1001ca1a86e","C3","batch3","","1054","tol_tohand","","","","tol_peg_1","1054","1054","0","[[3,0,0],[0,0],[2]]","3","[[3,0,0],[1,0],[2]]","3","0","","","","","","3","","","","","","","","",""
"","","","","","single-stim-button","105","363259","0.0-2.0-19.2-1.2","5d5798f81da7d1001ca1a86e","C3","batch3","","602","tol_toboard","","","","tol_peg_2","602","602","0","[[3,0,0],[1,0],[2]]","3","[[3,0,0],[1,0],[2]]","3","0","","","","","","3","","","","","","","","",""
"","","","","","poldrack-single-stim","106","364276","0.0-2.0-20.0","5d5798f81da7d1001ca1a86e","C3","batch3","","-1","tol_feedback","","","true","","1000","1000","500","","","","","","-1","none","true","4914","7091","","","","","","","","","",""
"","","","","","html-button-response","107","365149","0.0-2.0-21.0","5d5798f81da7d1001ca1a86e","C3","batch3","","870.6999999880791","tol_trial_num","<div class = centerbox><p class = center-block-text>problem <strong>5</strong> out of 25 problems</p></div>","0","","","","","","","","","","","","","","","","","","","","","","","","",""
"","","","","","single-stim-button","108","374455","0.0-2.0-22.0-0.0","5d5798f81da7d1001ca1a86e","C3","batch3","","9305","tol_tohand","","","","tol_peg_3","9305","9305","0","[[1,0,0],[2,0],[0]]","1","[[0,0,0],[1,2],[3]]","4","0","","","","","","7","","","","","","","","",""
"","","","","","single-stim-button","109","375429","0.0-2.0-22.0-1.0","5d5798f81da7d1001ca1a86e","C3","batch3","","973","tol_toboard","","","","tol_peg_2","973","973","0","[[1,0,0],[2,3],[0]]","1","[[0,0,0],[1,2],[3]]","4","0","","","","","","7","","","","","","","","",""
"","","","","","single-stim-button","110","376294","0.0-2.0-22.1-0.1","5d5798f81da7d1001ca1a86e","C3","batch3","","864","tol_tohand","","","","tol_peg_1","864","864","0","[[0,0,0],[2,3],[0]]","2","[[0,0,0],[1,2],[3]]","4","0","","","","","","7","","","","","","","","",""
"","","","","","single-stim-button","111","377791","0.0-2.0-22.1-1.1","5d5798f81da7d1001ca1a86e","C3","batch3","","1496","tol_toboard","","","","tol_peg_3","1496","1496","0","[[0,0,0],[2,3],[1]]","2","[[0,0,0],[1,2],[3]]","4","0","","","","","","7","","","","","","","","",""
"","","","","","single-stim-button","112","378656","0.0-2.0-22.2-0.2","5d5798f81da7d1001ca1a86e","C3","batch3","","863","tol_tohand","","","","tol_peg_2","863","863","0","[[0,0,0],[2,0],[1]]","3","[[0,0,0],[1,2],[3]]","4","0","","","","","","7","","","","","","","","",""
"","","","","","single-stim-button","113","380446","0.0-2.0-22.2-1.2","5d5798f81da7d1001ca1a86e","C3","batch3","","1789","tol_toboard","","","","tol_peg_1","1789","1789","0","[[3,0,0],[2,0],[1]]","3","[[0,0,0],[1,2],[3]]","4","0","","","","","","7","","","","","","","","",""
"","","","","","single-stim-button","114","381078","0.0-2.0-22.3-0.3","5d5798f81da7d1001ca1a86e","C3","batch3","","631","tol_tohand","","","","tol_peg_2","631","631","0","[[3,0,0],[0,0],[1]]","4","[[0,0,0],[1,2],[3]]","4","0","","","","","","7","","","","","","","","",""
"","","","","","single-stim-button","115","381852","0.0-2.0-22.3-1.3","5d5798f81da7d1001ca1a86e","C3","batch3","","773","tol_toboard","","","","tol_peg_1","773","773","0","[[3,2,0],[0,0],[1]]","4","[[0,0,0],[1,2],[3]]","4","0","","","","","","7","","","","","","","","",""
"","","","","","single-stim-button","116","382777","0.0-2.0-22.4-0.4","5d5798f81da7d1001ca1a86e","C3","batch3","","923","tol_tohand","","","","tol_peg_3","923","923","0","[[3,2,0],[0,0],[0]]","5","[[0,0,0],[1,2],[3]]","4","0","","","","","","7","","","","","","","","",""
"","","","","","single-stim-button","117","383530","0.0-2.0-22.4-1.4","5d5798f81da7d1001ca1a86e","C3","batch3","","752","tol_toboard","","","","tol_peg_2","752","752","0","[[3,2,0],[1,0],[0]]","5","[[0,0,0],[1,2],[3]]","4","0","","","","","","7","","","","","","","","",""
"","","","","","single-stim-button","118","384657","0.0-2.0-22.5-0.5","5d5798f81da7d1001ca1a86e","C3","batch3","","1125","tol_tohand","","","","tol_peg_1","1125","1125","0","[[3,0,0],[1,0],[0]]","6","[[0,0,0],[1,2],[3]]","4","0","","","","","","7","","","","","","","","",""
"","","","","","single-stim-button","119","385459","0.0-2.0-22.5-1.5","5d5798f81da7d1001ca1a86e","C3","batch3","","801","tol_toboard","","","","tol_peg_2","801","801","0","[[3,0,0],[1,2],[0]]","6","[[0,0,0],[1,2],[3]]","4","0","","","","","","7","","","","","","","","",""
"","","","","","single-stim-button","120","386102","0.0-2.0-22.6-0.6","5d5798f81da7d1001ca1a86e","C3","batch3","","642","tol_tohand","","","","tol_peg_1","642","642","0","[[0,0,0],[1,2],[0]]","7","[[0,0,0],[1,2],[3]]","4","0","","","","","","7","","","","","","","","",""
"","","","","","single-stim-button","121","389399","0.0-2.0-22.6-1.6","5d5798f81da7d1001ca1a86e","C3","batch3","","3295","tol_toboard","","","","tol_peg_3","3295","3295","0","[[0,0,0],[1,2],[3]]","7","[[0,0,0],[1,2],[3]]","4","0","","","","","","7","","","","","","","","",""
"","","","","","poldrack-single-stim","122","390411","0.0-2.0-23.0","5d5798f81da7d1001ca1a86e","C3","batch3","","-1","tol_feedback","","","true","","1000","1000","500","","","","","","-1","none","true","9305","14353","","","","","","","","","",""
"","","","","","html-button-response","123","391740","0.0-2.0-24.0","5d5798f81da7d1001ca1a86e","C3","batch3","","1327.6000000238419","tol_trial_num","<div class = centerbox><p class = center-block-text>problem <strong>6</strong> out of 25 problems</p></div>","0","","","","","","","","","","","","","","","","","","","","","","","","",""
"","","","","","single-stim-button","124","398865","0.0-2.0-25.0-0.0","5d5798f81da7d1001ca1a86e","C3","batch3","","7124","tol_tohand","","","","tol_peg_3","7124","7124","0","[[0,0,0],[1,2],[0]]","1","[[1,0,0],[2,3],[0]]","5","0","","","","","","6","","","","","","","","",""
"","","","","","single-stim-button","125","400513","0.0-2.0-25.0-1.0","5d5798f81da7d1001ca1a86e","C3","batch3","","1647","tol_toboard","","","","tol_peg_1","1647","1647","0","[[3,0,0],[1,2],[0]]","1","[[1,0,0],[2,3],[0]]","5","0","","","","","","6","","","","","","","","",""
"","","","","","single-stim-button","126","401992","0.0-2.0-25.1-0.1","5d5798f81da7d1001ca1a86e","C3","batch3","","1477","tol_tohand","","","","tol_peg_2","1477","1477","0","[[3,0,0],[1,0],[0]]","2","[[1,0,0],[2,3],[0]]","5","0","","","","","","6","","","","","","","","",""
"","","","","","single-stim-button","127","402635","0.0-2.0-25.1-1.1","5d5798f81da7d1001ca1a86e","C3","batch3","","642","tol_toboard","","","","tol_peg_1","642","642","0","[[3,2,0],[1,0],[0]]","2","[[1,0,0],[2,3],[0]]","5","0","","","","","","6","","","","","","","","",""
"","","","","","single-stim-button","128","403288","0.0-2.0-25.2-0.2","5d5798f81da7d1001ca1a86e","C3","batch3","","652","tol_tohand","","","","tol_peg_2","652","652","0","[[3,2,0],[0,0],[0]]","3","[[1,0,0],[2,3],[0]]","5","0","","","","","","6","","","","","","","","",""
"","","","","","single-stim-button","129","404261","0.0-2.0-25.2-1.2","5d5798f81da7d1001ca1a86e","C3","batch3","","972","tol_toboard","","","","tol_peg_3","972","972","0","[[3,2,0],[0,0],[1]]","3","[[1,0,0],[2,3],[0]]","5","0","","","","","","6","","","","","","","","",""
"","","","","","single-stim-button","130","406403","0.0-2.0-25.3-0.3","5d5798f81da7d1001ca1a86e","C3","batch3","","2140","tol_tohand","","","","tol_peg_1","2140","2140","0","[[3,0,0],[0,0],[1]]","4","[[1,0,0],[2,3],[0]]","5","0","","","","","","6","","","","","","","","",""
"","","","","","single-stim-button","131","406724","0.0-2.0-25.3-1.3","5d5798f81da7d1001ca1a86e","C3","batch3","","320","tol_toboard","","","","tol_peg_2","320","320","0","[[3,0,0],[2,0],[1]]","4","[[1,0,0],[2,3],[0]]","5","0","","","","","","6","","","","","","","","",""
"","","","","","single-stim-button","132","406924","0.0-2.0-25.4-0.4","5d5798f81da7d1001ca1a86e","C3","batch3","","199","tol_tohand","","","","tol_peg_2","199","199","0","[[3,0,0],[0,0],[1]]","5","[[1,0,0],[2,3],[0]]","5","0","","","","","","6","","","","","","","","",""
"","","","","","single-stim-button","133","407198","0.0-2.0-25.4-1.4","5d5798f81da7d1001ca1a86e","C3","batch3","","273","tol_toboard","","","","tol_peg_2","273","273","0","[[3,0,0],[2,0],[1]]","5","[[1,0,0],[2,3],[0]]","5","0","","","","","","6","","","","","","","","",""
"","","","","","single-stim-button","134","407207","0.0-2.0-25.5-0.5","5d5798f81da7d1001ca1a86e","C3","batch3","","7","tol_tohand","","","","tol_peg_2","7","7","0","[[3,0,0],[0,0],[1]]","6","[[1,0,0],[2,3],[0]]","5","0","","","","","","6","","","","","","","","",""
"","","","","","single-stim-button","135","407908","0.0-2.0-25.5-1.5","5d5798f81da7d1001ca1a86e","C3","batch3","","700","tol_toboard","","","","tol_peg_2","700","700","0","[[3,0,0],[2,0],[1]]","6","[[1,0,0],[2,3],[0]]","5","0","","","","","","6","","","","","","","","",""
"","","","","","single-stim-button","136","409938","0.0-2.0-25.6-0.6","5d5798f81da7d1001ca1a86e","C3","batch3","","2029","tol_tohand","","","","tol_peg_1","2029","2029","0","[[0,0,0],[2,0],[1]]","7","[[1,0,0],[2,3],[0]]","5","0","","","","","","6","","","","","","","","",""
"","","","","","single-stim-button","137","410863","0.0-2.0-25.6-1.6","5d5798f81da7d1001ca1a86e","C3","batch3","","924","tol_toboard","","","","tol_peg_2","924","924","0","[[0,0,0],[2,3],[1]]","7","[[1,0,0],[2,3],[0]]","5","0","","","","","","6","","","","","","","","",""
"","","","","","single-stim-button","138","411767","0.0-2.0-25.7-0.7","5d5798f81da7d1001ca1a86e","C3","batch3","","903","tol_tohand","","","","tol_peg_3","903","903","0","[[0,0,0],[2,3],[0]]","8","[[1,0,0],[2,3],[0]]","5","0","","","","","","6","","","","","","","","",""
"","","","","","single-stim-button","139","412772","0.0-2.0-25.7-1.7","5d5798f81da7d1001ca1a86e","C3","batch3","","1003","tol_toboard","","","","tol_peg_1","1003","1003","0","[[1,0,0],[2,3],[0]]","8","[[1,0,0],[2,3],[0]]","5","0","","","","","","6","","","","","","","","",""
"","","","","","poldrack-single-stim","140","413779","0.0-2.0-26.0","5d5798f81da7d1001ca1a86e","C3","batch3","","-1","tol_feedback","","","true","","1000","1000","500","","","","","","-1","none","true","7124","14531","","","","","","","","","",""
"","","","","","html-button-response","141","414601","0.0-2.0-27.0","5d5798f81da7d1001ca1a86e","C3","batch3","","819","tol_trial_num","<div class = centerbox><p class = center-block-text>problem <strong>7</strong> out of 25 problems</p></div>","0","","","","","","","","","","","","","","","","","","","","","","","","",""
"","","","","","single-stim-button","142","418429","0.0-2.0-28.0-0.0","5d5798f81da7d1001ca1a86e","C3","batch3","","3826","tol_tohand","","","","tol_peg_3","3826","3826","0","[[2,1,0],[0,0],[0]]","1","[[1,2,0],[3,0],[0]]","6","0","","","","","","5","","","","","","","","",""
"","","","","","single-stim-button","143","419232","0.0-2.0-28.0-1.0","5d5798f81da7d1001ca1a86e","C3","batch3","","802","tol_toboard","","","","tol_peg_2","802","802","0","[[2,1,0],[3,0],[0]]","1","[[1,2,0],[3,0],[0]]","6","0","","","","","","5","","","","","","","","",""
"","","","","","single-stim-button","144","419997","0.0-2.0-28.1-0.1","5d5798f81da7d1001ca1a86e","C3","batch3","","763","tol_tohand","","","","tol_peg_1","763","763","0","[[2,0,0],[3,0],[0]]","2","[[1,2,0],[3,0],[0]]","6","0","","","","","","5","","","","","","","","",""
"","","","","","single-stim-button","145","420669","0.0-2.0-28.1-1.1","5d5798f81da7d1001ca1a86e","C3","batch3","","670","tol_toboard","","","","tol_peg_2","670","670","0","[[2,0,0],[3,1],[0]]","2","[[1,2,0],[3,0],[0]]","6","0","","","","","","5","","","","","","","","",""
"","","","","","single-stim-button","146","421373","0.0-2.0-28.2-0.2","5d5798f81da7d1001ca1a86e","C3","batch3","","702","tol_tohand","","","","tol_peg_1","702","702","0","[[0,0,0],[3,1],[0]]","3","[[1,2,0],[3,0],[0]]","6","0","","","","","","5","","","","","","","","",""
"","","","","","single-stim-button","147","422136","0.0-2.0-28.2-1.2","5d5798f81da7d1001ca1a86e","C3","batch3","","763","tol_toboard","","","","tol_peg_3","763","763","0","[[0,0,0],[3,1],[2]]","3","[[1,2,0],[3,0],[0]]","6","0","","","","","","5","","","","","","","","",""
"","","","","","single-stim-button","148","423021","0.0-2.0-28.3-0.3","5d5798f81da7d1001ca1a86e","C3","batch3","","883","tol_tohand","","","","tol_peg_2","883","883","0","[[0,0,0],[3,0],[2]]","4","[[1,2,0],[3,0],[0]]","6","0","","","","","","5","","","","","","","","",""
"","","","","","single-stim-button","149","423794","0.0-2.0-28.3-1.3","5d5798f81da7d1001ca1a86e","C3","batch3","","773","tol_toboard","","","","tol_peg_1","773","773","0","[[1,0,0],[3,0],[2]]","4","[[1,2,0],[3,0],[0]]","6","0","","","","","","5","","","","","","","","",""
"","","","","","single-stim-button","150","424508","0.0-2.0-28.4-0.4","5d5798f81da7d1001ca1a86e","C3","batch3","","712","tol_tohand","","","","tol_peg_3","712","712","0","[[1,0,0],[3,0],[0]]","5","[[1,2,0],[3,0],[0]]","6","0","","","","","","5","","","","","","","","",""
"","","","","","single-stim-button","151","425170","0.0-2.0-28.4-1.4","5d5798f81da7d1001ca1a86e","C3","batch3","","661","tol_toboard","","","","tol_peg_1","661","661","0","[[1,2,0],[3,0],[0]]","5","[[1,2,0],[3,0],[0]]","6","0","","","","","","5","","","","","","","","",""
"","","","","","poldrack-single-stim","152","426174","0.0-2.0-29.0","5d5798f81da7d1001ca1a86e","C3","batch3","","-1","tol_feedback","","","true","","1000","1000","500","","","","","","-1","none","true","3826","6886","","","","","","","","","",""
"","","","","","html-button-response","153","427110","0.0-2.0-30.0","5d5798f81da7d1001ca1a86e","C3","batch3","","934.0999999940395","tol_trial_num","<div class = centerbox><p class = center-block-text>problem <strong>8</strong> out of 25 problems</p></div>","0","","","","","","","","","","","","","","","","","","","","","","","","",""
"","","","","","single-stim-button","154","431913","0.0-2.0-31.0-0.0","5d5798f81da7d1001ca1a86e","C3","batch3","","4801","tol_tohand","","","","tol_peg_2","4801","4801","0","[[0,0,0],[2,0],[1]]","1","[[1,2,0],[3,0],[0]]","7","0","","","","","","4","","","","","","","","",""
"","","","","","single-stim-button","155","432766","0.0-2.0-31.0-1.0","5d5798f81da7d1001ca1a86e","C3","batch3","","853","tol_toboard","","","","tol_peg_1","853","853","0","[[3,0,0],[2,0],[1]]","1","[[1,2,0],[3,0],[0]]","7","0","","","","","","4","","","","","","","","",""
"","","","","","single-stim-button","156","433419","0.0-2.0-31.1-0.1","5d5798f81da7d1001ca1a86e","C3","batch3","","652","tol_tohand","","","","tol_peg_2","652","652","0","[[3,0,0],[0,0],[1]]","2","[[1,2,0],[3,0],[0]]","7","0","","","","","","4","","","","","","","","",""
"","","","","","single-stim-button","157","434173","0.0-2.0-31.1-1.1","5d5798f81da7d1001ca1a86e","C3","batch3","","753","tol_toboard","","","","tol_peg_1","753","753","0","[[3,2,0],[0,0],[1]]","2","[[1,2,0],[3,0],[0]]","7","0","","","","","","4","","","","","","","","",""
"","","","","","single-stim-button","158","435007","0.0-2.0-31.2-0.2","5d5798f81da7d1001ca1a86e","C3","batch3","","833","tol_tohand","","","","tol_peg_3","833","833","0","[[3,2,0],[0,0],[0]]","3","[[1,2,0],[3,0],[0]]","7","0","","","","","","4","","","","","","","","",""
"","","","","","single-stim-button","159","439770","0.0-2.0-31.2-1.2","5d5798f81da7d1001ca1a86e","C3","batch3","","4761","tol_toboard","","","","tol_peg_3","4761","4761","0","[[3,2,0],[0,0],[1]]","3","[[1,2,0],[3,0],[0]]","7","0","","","","","","4","","","","","","","","",""
"","","","","","single-stim-button","160","444963","0.0-2.0-31.3-0.3","5d5798f81da7d1001ca1a86e","C3","batch3","","5191","tol_tohand","","","","tol_peg_3","5191","5191","0","[[3,2,0],[0,0],[0]]","4","[[1,2,0],[3,0],[0]]","7","0","","","","","","4","","","","","","","","",""
"","","","","","single-stim-button","161","445837","0.0-2.0-31.3-1.3","5d5798f81da7d1001ca1a86e","C3","batch3","","872","tol_toboard","","","","tol_peg_2","872","872","0","[[3,2,0],[1,0],[0]]","4","[[1,2,0],[3,0],[0]]","7","0","","","","","","4","","","","","","","","",""
"","","","","","single-stim-button","162","446782","0.0-2.0-31.4-0.4","5d5798f81da7d1001ca1a86e","C3","batch3","","943","tol_tohand","","","","tol_peg_1","943","943","0","[[3,0,0],[1,0],[0]]","5","[[1,2,0],[3,0],[0]]","7","0","","","","","","4","","","","","","","","",""
"","","","","","single-stim-button","163","448118","0.0-2.0-31.4-1.4","5d5798f81da7d1001ca1a86e","C3","batch3","","1334","tol_toboard","","","","tol_peg_3","1334","1334","0","[[3,0,0],[1,0],[2]]","5","[[1,2,0],[3,0],[0]]","7","0","","","","","","4","","","","","","","","",""
"","","","","","single-stim-button","164","450499","0.0-2.0-31.5-0.5","5d5798f81da7d1001ca1a86e","C3","batch3","","2379","tol_tohand","","","","tol_peg_1","2379","2379","0","[[0,0,0],[1,0],[2]]","6","[[1,2,0],[3,0],[0]]","7","0","","","","","","4","","","","","","","","",""
"","","","","","single-stim-button","165","451303","0.0-2.0-31.5-1.5","5d5798f81da7d1001ca1a86e","C3","batch3","","802","tol_toboard","","","","tol_peg_2","802","802","0","[[0,0,0],[1,3],[2]]","6","[[1,2,0],[3,0],[0]]","7","0","","","","","","4","","","","","","","","",""
"","","","","","single-stim-button","166","452690","0.0-2.0-31.6-0.6","5d5798f81da7d1001ca1a86e","C3","batch3","","1385","tol_tohand","","","","tol_peg_3","1385","1385","0","[[0,0,0],[1,3],[0]]","7","[[1,2,0],[3,0],[0]]","7","0","","","","","","4","","","","","","","","",""
"","","","","","single-stim-button","167","453463","0.0-2.0-31.6-1.6","5d5798f81da7d1001ca1a86e","C3","batch3","","772","tol_toboard","","","","tol_peg_1","772","772","0","[[2,0,0],[1,3],[0]]","7","[[1,2,0],[3,0],[0]]","7","0","","","","","","4","","","","","","","","",""
"","","","","","single-stim-button","168","455211","0.0-2.0-31.7-0.7","5d5798f81da7d1001ca1a86e","C3","batch3","","1748","tol_tohand","","","","tol_peg_2","1748","1748","0","[[2,0,0],[1,0],[0]]","8","[[1,2,0],[3,0],[0]]","7","0","","","","","","4","","","","","","","","",""
"","","","","","single-stim-button","169","456395","0.0-2.0-31.7-1.7","5d5798f81da7d1001ca1a86e","C3","batch3","","1183","tol_toboard","","","","tol_peg_3","1183","1183","0","[[2,0,0],[1,0],[3]]","8","[[1,2,0],[3,0],[0]]","7","0","","","","","","4","","","","","","","","",""
"","","","","","single-stim-button","170","458336","0.0-2.0-31.8-0.8","5d5798f81da7d1001ca1a86e","C3","batch3","","1939","tol_tohand","","","","tol_peg_2","1939","1939","0","[[2,0,0],[0,0],[3]]","9","[[1,2,0],[3,0],[0]]","7","0","","","","","","4","","","","","","","","",""
"","","","","","single-stim-button","171","459380","0.0-2.0-31.8-1.8","5d5798f81da7d1001ca1a86e","C3","batch3","","1042","tol_toboard","","","","tol_peg_1","1042","1042","0","[[2,1,0],[0,0],[3]]","9","[[1,2,0],[3,0],[0]]","7","0","","","","","","4","","","","","","","","",""
"","","","","","single-stim-button","172","461068","0.0-2.0-31.9-0.9","5d5798f81da7d1001ca1a86e","C3","batch3","","1687","tol_tohand","","","","tol_peg_3","1687","1687","0","[[2,1,0],[0,0],[0]]","10","[[1,2,0],[3,0],[0]]","7","0","","","","","","4","","","","","","","","",""
"","","","","","single-stim-button","173","461831","0.0-2.0-31.9-1.9","5d5798f81da7d1001ca1a86e","C3","batch3","","761","tol_toboard","","","","tol_peg_2","761","761","0","[[2,1,0],[3,0],[0]]","10","[[1,2,0],[3,0],[0]]","7","0","","","","","","4","","","","","","","","",""
"","","","","","single-stim-button","174","462775","0.0-2.0-31.10-0.10","5d5798f81da7d1001ca1a86e","C3","batch3","","943","tol_tohand","","","","tol_peg_1","943","943","0","[[2,0,0],[3,0],[0]]","11","[[1,2,0],[3,0],[0]]","7","0","","","","","","4","","","","","","","","",""
"","","","","","single-stim-button","175","463629","0.0-2.0-31.10-1.10","5d5798f81da7d1001ca1a86e","C3","batch3","","852","tol_toboard","","","","tol_peg_3","852","852","0","[[2,0,0],[3,0],[1]]","11","[[1,2,0],[3,0],[0]]","7","0","","","","","","4","","","","","","","","",""
"","","","","","single-stim-button","176","464401","0.0-2.0-31.11-0.11","5d5798f81da7d1001ca1a86e","C3","batch3","","771","tol_tohand","","","","tol_peg_3","771","771","0","[[2,0,0],[3,0],[0]]","12","[[1,2,0],[3,0],[0]]","7","0","","","","","","4","","","","","","","","",""
"","","","","","single-stim-button","177","466562","0.0-2.0-31.11-1.11","5d5798f81da7d1001ca1a86e","C3","batch3","","2160","tol_toboard","","","","tol_peg_3","2160","2160","0","[[2,0,0],[3,0],[1]]","12","[[1,2,0],[3,0],[0]]","7","0","","","","","","4","","","","","","","","",""
"","","","","","single-stim-button","178","467467","0.0-2.0-31.12-0.12","5d5798f81da7d1001ca1a86e","C3","batch3","","903","tol_tohand","","","","tol_peg_1","903","903","0","[[0,0,0],[3,0],[1]]","13","[[1,2,0],[3,0],[0]]","7","0","","","","","","4","","","","","","","","",""
"","","","","","single-stim-button","179","468311","0.0-2.0-31.12-1.12","5d5798f81da7d1001ca1a86e","C3","batch3","","843","tol_toboard","","","","tol_peg_2","843","843","0","[[0,0,0],[3,2],[1]]","13","[[1,2,0],[3,0],[0]]","7","0","","","","","","4","","","","","","","","",""
"","","","","","single-stim-button","180","469146","0.0-2.0-31.13-0.13","5d5798f81da7d1001ca1a86e","C3","batch3","","833","tol_tohand","","","","tol_peg_3","833","833","0","[[0,0,0],[3,2],[0]]","14","[[1,2,0],[3,0],[0]]","7","0","","","","","","4","","","","","","","","",""
"","","","","","single-stim-button","181","469939","0.0-2.0-31.13-1.13","5d5798f81da7d1001ca1a86e","C3","batch3","","792","tol_toboard","","","","tol_peg_1","792","792","0","[[1,0,0],[3,2],[0]]","14","[[1,2,0],[3,0],[0]]","7","0","","","","","","4","","","","","","","","",""
"","","","","","single-stim-button","182","470782","0.0-2.0-31.14-0.14","5d5798f81da7d1001ca1a86e","C3","batch3","","842","tol_tohand","","","","tol_peg_2","842","842","0","[[1,0,0],[3,0],[0]]","15","[[1,2,0],[3,0],[0]]","7","0","","","","","","4","","","","","","","","",""
"","","","","","single-stim-button","183","471516","0.0-2.0-31.14-1.14","5d5798f81da7d1001ca1a86e","C3","batch3","","733","tol_toboard","","","","tol_peg_1","733","733","0","[[1,2,0],[3,0],[0]]","15","[[1,2,0],[3,0],[0]]","7","0","","","","","","4","","","","","","","","",""
"","","","","","poldrack-single-stim","184","472532","0.0-2.0-32.0","5d5798f81da7d1001ca1a86e","C3","batch3","","-1","tol_feedback","","","true","","1000","1000","500","","","","","","-1","none","true","4801","25850","","","","","","","","","",""
"","","","","","html-button-response","185","474731","0.0-2.0-33.0","5d5798f81da7d1001ca1a86e","C3","batch3","","2197.4000000059605","tol_trial_num","<div class = centerbox><p class = center-block-text>problem <strong>9</strong> out of 25 problems</p></div>","0","","","","","","","","","","","","","","","","","","","","","","","","",""
"","","","","","single-stim-button","186","479774","0.0-2.0-34.0-0.0","5d5798f81da7d1001ca1a86e","C3","batch3","","5040","tol_tohand","","","","tol_peg_1","5040","5040","0","[[3,0,0],[0,0],[1]]","1","[[2,1,0],[3,0],[0]]","8","0","","","","","","6","","","","","","","","",""
"","","","","","single-stim-button","187","480596","0.0-2.0-34.0-1.0","5d5798f81da7d1001ca1a86e","C3","batch3","","820","tol_toboard","","","","tol_peg_2","820","820","0","[[3,0,0],[2,0],[1]]","1","[[2,1,0],[3,0],[0]]","8","0","","","","","","6","","","","","","","","",""
"","","","","","single-stim-button","188","482354","0.0-2.0-34.1-0.1","5d5798f81da7d1001ca1a86e","C3","batch3","","1758","tol_tohand","","","","tol_peg_3","1758","1758","0","[[3,0,0],[2,0],[0]]","2","[[2,1,0],[3,0],[0]]","8","0","","","","","","6","","","","","","","","",""
"","","","","","single-stim-button","189","483098","0.0-2.0-34.1-1.1","5d5798f81da7d1001ca1a86e","C3","batch3","","742","tol_toboard","","","","tol_peg_2","742","742","0","[[3,0,0],[2,1],[0]]","2","[[2,1,0],[3,0],[0]]","8","0","","","","","","6","","","","","","","","",""
"","","","","","single-stim-button","190","483822","0.0-2.0-34.2-0.2","5d5798f81da7d1001ca1a86e","C3","batch3","","722","tol_tohand","","","","tol_peg_1","722","722","0","[[0,0,0],[2,1],[0]]","3","[[2,1,0],[3,0],[0]]","8","0","","","","","","6","","","","","","","","",""
"","","","","","single-stim-button","191","486423","0.0-2.0-34.2-1.2","5d5798f81da7d1001ca1a86e","C3","batch3","","2599","tol_toboard","","","","tol_peg_1","2599","2599","0","[[3,0,0],[2,1],[0]]","3","[[2,1,0],[3,0],[0]]","8","0","","","","","","6","","","","","","","","",""
"","","","","","single-stim-button","192","487106","0.0-2.0-34.3-0.3","5d5798f81da7d1001ca1a86e","C3","batch3","","682","tol_tohand","","","","tol_peg_2","682","682","0","[[3,0,0],[2,0],[0]]","4","[[2,1,0],[3,0],[0]]","8","0","","","","","","6","","","","","","","","",""
"","","","","","single-stim-button","193","487649","0.0-2.0-34.3-1.3","5d5798f81da7d1001ca1a86e","C3","batch3","","541","tol_toboard","","","","tol_peg_3","541","541","0","[[3,0,0],[2,0],[1]]","4","[[2,1,0],[3,0],[0]]","8","0","","","","","","6","","","","","","","","",""
"","","","","","single-stim-button","194","488422","0.0-2.0-34.4-0.4","5d5798f81da7d1001ca1a86e","C3","batch3","","772","tol_tohand","","","","tol_peg_1","772","772","0","[[0,0,0],[2,0],[1]]","5","[[2,1,0],[3,0],[0]]","8","0","","","","","","6","","","","","","","","",""
"","","","","","single-stim-button","195","489106","0.0-2.0-34.4-1.4","5d5798f81da7d1001ca1a86e","C3","batch3","","682","tol_toboard","","","","tol_peg_2","682","682","0","[[0,0,0],[2,3],[1]]","5","[[2,1,0],[3,0],[0]]","8","0","","","","","","6","","","","","","","","",""
"","","","","","single-stim-button","196","492210","0.0-2.0-34.5-0.5","5d5798f81da7d1001ca1a86e","C3","batch3","","3102","tol_tohand","","","","tol_peg_3","3102","3102","0","[[0,0,0],[2,3],[0]]","6","[[2,1,0],[3,0],[0]]","8","0","","","","","","6","","","","","","","","",""
"","","","","","single-stim-button","197","493265","0.0-2.0-34.5-1.5","5d5798f81da7d1001ca1a86e","C3","batch3","","1054","tol_toboard","","","","tol_peg_1","1054","1054","0","[[1,0,0],[2,3],[0]]","6","[[2,1,0],[3,0],[0]]","8","0","","","","","","6","","","","","","","","",""
"","","","","","single-stim-button","198","494017","0.0-2.0-34.6-0.6","5d5798f81da7d1001ca1a86e","C3","batch3","","752","tol_tohand","","","","tol_peg_2","752","752","0","[[1,0,0],[2,0],[0]]","7","[[2,1,0],[3,0],[0]]","8","0","","","","","","6","","","","","","","","",""
"","","","","","single-stim-button","199","494891","0.0-2.0-34.6-1.6","5d5798f81da7d1001ca1a86e","C3","batch3","","873","tol_toboard","","","","tol_peg_3","873","873","0","[[1,0,0],[2,0],[3]]","7","[[2,1,0],[3,0],[0]]","8","0","","","","","","6","","","","","","","","",""
"","","","","","single-stim-button","200","495741","0.0-2.0-34.7-0.7","5d5798f81da7d1001ca1a86e","C3","batch3","","848","tol_tohand","","","","tol_peg_1","848","848","0","[[0,0,0],[2,0],[3]]","8","[[2,1,0],[3,0],[0]]","8","0","","","","","","6","","","","","","","","",""
"","","","","","single-stim-button","201","495747","0.0-2.0-34.7-1.7","5d5798f81da7d1001ca1a86e","C3","batch3","","5","tol_toboard","","","","tol_peg_1","5","5","0","[[1,0,0],[2,0],[3]]","8","[[2,1,0],[3,0],[0]]","8","0","","","","","","6","","","","","","","","",""
"","","","","","single-stim-button","202","499634","0.0-2.0-34.8-0.8","5d5798f81da7d1001ca1a86e","C3","batch3","","3886","tol_tohand","","","","tol_peg_3","3886","3886","0","[[1,0,0],[2,0],[0]]","9","[[2,1,0],[3,0],[0]]","8","0","","","","","","6","","","","","","","","",""
"","","","","","single-stim-button","203","501210","0.0-2.0-34.8-1.8","5d5798f81da7d1001ca1a86e","C3","batch3","","1574","tol_toboard","","","","tol_peg_2","1574","1574","0","[[1,0,0],[2,3],[0]]","9","[[2,1,0],[3,0],[0]]","8","0","","","","","","6","","","","","","","","",""
"","","","","","single-stim-button","204","501866","0.0-2.0-34.9-0.9","5d5798f81da7d1001ca1a86e","C3","batch3","","653","tol_tohand","","","","tol_peg_1","653","653","0","[[0,0,0],[2,3],[0]]","10","[[2,1,0],[3,0],[0]]","8","0","","","","","","6","","","","","","","","",""
"","","","","","single-stim-button","205","502485","0.0-2.0-34.9-1.9","5d5798f81da7d1001ca1a86e","C3","batch3","","618","tol_toboard","","","","tol_peg_3","618","618","0","[[0,0,0],[2,3],[1]]","10","[[2,1,0],[3,0],[0]]","8","0","","","","","","6","","","","","","","","",""
"","","","","","single-stim-button","206","504164","0.0-2.0-34.10-0.10","5d5798f81da7d1001ca1a86e","C3","batch3","","1677","tol_tohand","","","","tol_peg_2","1677","1677","0","[[0,0,0],[2,0],[1]]","11","[[2,1,0],[3,0],[0]]","8","0","","","","","","6","","","","","","","","",""
"","","","","","single-stim-button","207","505438","0.0-2.0-34.10-1.10","5d5798f81da7d1001ca1a86e","C3","batch3","","1273","tol_toboard","","","","tol_peg_1","1273","1273","0","[[3,0,0],[2,0],[1]]","11","[[2,1,0],[3,0],[0]]","8","0","","","","","","6","","","","","","","","",""
"","","","","","single-stim-button","208","509186","0.0-2.0-34.11-0.11","5d5798f81da7d1001ca1a86e","C3","batch3","","3746","tol_tohand","","","","tol_peg_1","3746","3746","0","[[0,0,0],[2,0],[1]]","12","[[2,1,0],[3,0],[0]]","8","0","","","","","","6","","","","","","","","",""
"","","","","","single-stim-button","209","509788","0.0-2.0-34.11-1.11","5d5798f81da7d1001ca1a86e","C3","batch3","","600","tol_toboard","","","","tol_peg_2","600","600","0","[[0,0,0],[2,3],[1]]","12","[[2,1,0],[3,0],[0]]","8","0","","","","","","6","","","","","","","","",""
"","","","","","single-stim-button","210","512008","0.0-2.0-34.12-0.12","5d5798f81da7d1001ca1a86e","C3","batch3","","2219","tol_tohand","","","","tol_peg_2","2219","2219","0","[[0,0,0],[2,0],[1]]","13","[[2,1,0],[3,0],[0]]","8","0","","","","","","6","","","","","","","","",""
"","","","","","single-stim-button","211","512781","0.0-2.0-34.12-1.12","5d5798f81da7d1001ca1a86e","C3","batch3","","772","tol_toboard","","","","tol_peg_1","772","772","0","[[3,0,0],[2,0],[1]]","13","[[2,1,0],[3,0],[0]]","8","0","","","","","","6","","","","","","","","",""
"","","","","","single-stim-button","212","513495","0.0-2.0-34.13-0.13","5d5798f81da7d1001ca1a86e","C3","batch3","","712","tol_tohand","","","","tol_peg_3","712","712","0","[[3,0,0],[2,0],[0]]","14","[[2,1,0],[3,0],[0]]","8","0","","","","","","6","","","","","","","","",""
"","","","","","single-stim-button","213","514088","0.0-2.0-34.13-1.13","5d5798f81da7d1001ca1a86e","C3","batch3","","592","tol_toboard","","","","tol_peg_2","592","592","0","[[3,0,0],[2,1],[0]]","14","[[2,1,0],[3,0],[0]]","8","0","","","","","","6","","","","","","","","",""
"","","","","","single-stim-button","214","514498","0.0-2.0-34.14-0.14","5d5798f81da7d1001ca1a86e","C3","batch3","","410","tol_tohand","","","","tol_peg_1","410","410","0","[[0,0,0],[2,1],[0]]","15","[[2,1,0],[3,0],[0]]","8","0","","","","","","6","","","","","","","","",""
"","","","","","single-stim-button","215","514669","0.0-2.0-34.14-1.14","5d5798f81da7d1001ca1a86e","C3","batch3","","170","tol_toboard","","","","tol_peg_1","170","170","0","[[3,0,0],[2,1],[0]]","15","[[2,1,0],[3,0],[0]]","8","0","","","","","","6","","","","","","","","",""
"","","","","","single-stim-button","216","516297","0.0-2.0-34.15-0.15","5d5798f81da7d1001ca1a86e","C3","batch3","","1626","tol_tohand","","","","tol_peg_1","1626","1626","0","[[0,0,0],[2,1],[0]]","16","[[2,1,0],[3,0],[0]]","8","0","","","","","","6","","","","","","","","",""
"","","","","","single-stim-button","217","517090","0.0-2.0-34.15-1.15","5d5798f81da7d1001ca1a86e","C3","batch3","","792","tol_toboard","","","","tol_peg_3","792","792","0","[[0,0,0],[2,1],[3]]","16","[[2,1,0],[3,0],[0]]","8","0","","","","","","6","","","","","","","","",""
"","","","","","single-stim-button","218","521288","0.0-2.0-34.16-0.16","5d5798f81da7d1001ca1a86e","C3","batch3","","4196","tol_tohand","","","","tol_peg_3","4196","4196","0","[[0,0,0],[2,1],[0]]","17","[[2,1,0],[3,0],[0]]","8","0","","","","","","6","","","","","","","","",""
"","","","","","single-stim-button","219","522593","0.0-2.0-34.16-1.16","5d5798f81da7d1001ca1a86e","C3","batch3","","1304","tol_toboard","","","","tol_peg_1","1304","1304","0","[[3,0,0],[2,1],[0]]","17","[[2,1,0],[3,0],[0]]","8","0","","","","","","6","","","","","","","","",""
"","","","","","single-stim-button","220","523407","0.0-2.0-34.17-0.17","5d5798f81da7d1001ca1a86e","C3","batch3","","813","tol_tohand","","","","tol_peg_2","813","813","0","[[3,0,0],[2,0],[0]]","18","[[2,1,0],[3,0],[0]]","8","0","","","","","","6","","","","","","","","",""
"","","","","","single-stim-button","221","523950","0.0-2.0-34.17-1.17","5d5798f81da7d1001ca1a86e","C3","batch3","","541","tol_toboard","","","","tol_peg_3","541","541","0","[[3,0,0],[2,0],[1]]","18","[[2,1,0],[3,0],[0]]","8","0","","","","","","6","","","","","","","","",""
"","","","","","single-stim-button","222","525306","0.0-2.0-34.18-0.18","5d5798f81da7d1001ca1a86e","C3","batch3","","1355","tol_tohand","","","","tol_peg_2","1355","1355","0","[[3,0,0],[0,0],[1]]","19","[[2,1,0],[3,0],[0]]","8","0","","","","","","6","","","","","","","","",""
"","","","","","single-stim-button","223","526049","0.0-2.0-34.18-1.18","5d5798f81da7d1001ca1a86e","C3","batch3","","740","tol_toboard","","","","tol_peg_1","740","740","0","[[3,2,0],[0,0],[1]]","19","[[2,1,0],[3,0],[0]]","8","0","","","","","","6","","","","","","","","",""
"","","","","","single-stim-button","224","527013","0.0-2.0-34.19-0.19","5d5798f81da7d1001ca1a86e","C3","batch3","","963","tol_tohand","","","","tol_peg_3","963","963","0","[[3,2,0],[0,0],[0]]","20","[[2,1,0],[3,0],[0]]","8","0","","","","","","6","","","","","","","","",""
"","","","","","single-stim-button","225","527640","0.0-2.0-34.19-1.19","5d5798f81da7d1001ca1a86e","C3","batch3","","624","tol_toboard","","","","tol_peg_2","624","624","0","[[3,2,0],[1,0],[0]]","20","[[2,1,0],[3,0],[0]]","8","0","","","","","","6","","","","","","","","",""
"","","","","","single-stim-button","226","528348","0.0-2.0-34.20-0.20","5d5798f81da7d1001ca1a86e","C3","batch3","","707","tol_tohand","","","","tol_peg_1","707","707","0","[[3,0,0],[1,0],[0]]","21","[[2,1,0],[3,0],[0]]","8","0","","","","","","6","","","","","","","","",""
"","","","","","single-stim-button","227","528992","0.0-2.0-34.20-1.20","5d5798f81da7d1001ca1a86e","C3","batch3","","642","tol_toboard","","","","tol_peg_3","642","642","0","[[3,0,0],[1,0],[2]]","21","[[2,1,0],[3,0],[0]]","8","0","","","","","","6","","","","","","","","",""
"","","","","","single-stim-button","228","530207","0.0-2.0-34.21-0.21","5d5798f81da7d1001ca1a86e","C3","batch3","","1214","tol_tohand","","","","tol_peg_1","1214","1214","0","[[0,0,0],[1,0],[2]]","22","[[2,1,0],[3,0],[0]]","8","0","","","","","","6","","","","","","","","",""
"","","","","","single-stim-button","229","530819","0.0-2.0-34.21-1.21","5d5798f81da7d1001ca1a86e","C3","batch3","","610","tol_toboard","","","","tol_peg_2","610","610","0","[[0,0,0],[1,3],[2]]","22","[[2,1,0],[3,0],[0]]","8","0","","","","","","6","","","","","","","","",""
"","","","","","single-stim-button","230","531543","0.0-2.0-34.22-0.22","5d5798f81da7d1001ca1a86e","C3","batch3","","722","tol_tohand","","","","tol_peg_3","722","722","0","[[0,0,0],[1,3],[0]]","23","[[2,1,0],[3,0],[0]]","8","0","","","","","","6","","","","","","","","",""
"","","","","","single-stim-button","231","532425","0.0-2.0-34.22-1.22","5d5798f81da7d1001ca1a86e","C3","batch3","","882","tol_toboard","","","","tol_peg_1","882","882","0","[[2,0,0],[1,3],[0]]","23","[[2,1,0],[3,0],[0]]","8","0","","","","","","6","","","","","","","","",""
"","","","","","single-stim-button","232","533199","0.0-2.0-34.23-0.23","5d5798f81da7d1001ca1a86e","C3","batch3","","773","tol_tohand","","","","tol_peg_2","773","773","0","[[2,0,0],[1,0],[0]]","24","[[2,1,0],[3,0],[0]]","8","0","","","","","","6","","","","","","","","",""
"","","","","","single-stim-button","233","533832","0.0-2.0-34.23-1.23","5d5798f81da7d1001ca1a86e","C3","batch3","","631","tol_toboard","","","","tol_peg_3","631","631","0","[[2,0,0],[1,0],[3]]","24","[[2,1,0],[3,0],[0]]","8","0","","","","","","6","","","","","","","","",""
"","","","","","single-stim-button","234","534605","0.0-2.0-34.24-0.24","5d5798f81da7d1001ca1a86e","C3","batch3","","771","tol_tohand","","","","tol_peg_2","771","771","0","[[2,0,0],[0,0],[3]]","25","[[2,1,0],[3,0],[0]]","8","0","","","","","","6","","","","","","","","",""
"","","","","","single-stim-button","235","535309","0.0-2.0-34.24-1.24","5d5798f81da7d1001ca1a86e","C3","batch3","","702","tol_toboard","","","","tol_peg_1","702","702","0","[[2,1,0],[0,0],[3]]","25","[[2,1,0],[3,0],[0]]","8","0","","","","","","6","","","","","","","","",""
"","","","","","single-stim-button","236","536404","0.0-2.0-34.25-0.25","5d5798f81da7d1001ca1a86e","C3","batch3","","1094","tol_tohand","","","","tol_peg_3","1094","1094","0","[[2,1,0],[0,0],[0]]","26","[[2,1,0],[3,0],[0]]","8","0","","","","","","6","","","","","","","","",""
"","","","","","single-stim-button","237","536985","0.0-2.0-34.25-1.25","5d5798f81da7d1001ca1a86e","C3","batch3","","579","tol_toboard","","","","tol_peg_2","579","579","0","[[2,1,0],[3,0],[0]]","26","[[2,1,0],[3,0],[0]]","8","0","","","","","","6","","","","","","","","",""
"","","","","","poldrack-single-stim","238","537990","0.0-2.0-35.0","5d5798f81da7d1001ca1a86e","C3","batch3","","-1","tol_feedback","","","true","","1000","1000","500","","","","","","-1","none","true","5040","41213","","","","","","","","","",""
"","","","","","html-button-response","239","540128","0.0-2.0-36.0","5d5798f81da7d1001ca1a86e","C3","batch3","","2137.199999988079","tol_trial_num","<div class = centerbox><p class = center-block-text>problem <strong>10</strong> out of 25 problems</p></div>","0","","","","","","","","","","","","","","","","","","","","","","","","",""
"","","","","","single-stim-button","240","544969","0.0-2.0-37.0-0.0","5d5798f81da7d1001ca1a86e","C3","batch3","","4839","tol_tohand","","","","tol_peg_3","4839","4839","0","[[3,0,0],[1,0],[0]]","1","[[3,0,0],[2,1],[0]]","9","0","","","","","","3","","","","","","","","",""
"","","","","","single-stim-button","241","547068","0.0-2.0-37.0-1.0","5d5798f81da7d1001ca1a86e","C3","batch3","","2097","tol_toboard","","","","tol_peg_1","2097","2097","0","[[3,2,0],[1,0],[0]]","1","[[3,0,0],[2,1],[0]]","9","0","","","","","","3","","","","","","","","",""
"","","","","","single-stim-button","242","547731","0.0-2.0-37.1-0.1","5d5798f81da7d1001ca1a86e","C3","batch3","","661","tol_tohand","","","","tol_peg_2","661","661","0","[[3,2,0],[0,0],[0]]","2","[[3,0,0],[2,1],[0]]","9","0","","","","","","3","","","","","","","","",""
"","","","","","single-stim-button","243","548494","0.0-2.0-37.1-1.1","5d5798f81da7d1001ca1a86e","C3","batch3","","761","tol_toboard","","","","tol_peg_3","761","761","0","[[3,2,0],[0,0],[1]]","2","[[3,0,0],[2,1],[0]]","9","0","","","","","","3","","","","","","","","",""
"","","","","","single-stim-button","244","549388","0.0-2.0-37.2-0.2","5d5798f81da7d1001ca1a86e","C3","batch3","","893","tol_tohand","","","","tol_peg_1","893","893","0","[[3,0,0],[0,0],[1]]","3","[[3,0,0],[2,1],[0]]","9","0","","","","","","3","","","","","","","","",""
"","","","","","single-stim-button","245","550211","0.0-2.0-37.2-1.2","5d5798f81da7d1001ca1a86e","C3","batch3","","822","tol_toboard","","","","tol_peg_2","822","822","0","[[3,0,0],[2,0],[1]]","3","[[3,0,0],[2,1],[0]]","9","0","","","","","","3","","","","","","","","",""
"","","","","","single-stim-button","246","550894","0.0-2.0-37.3-0.3","5d5798f81da7d1001ca1a86e","C3","batch3","","682","tol_tohand","","","","tol_peg_3","682","682","0","[[3,0,0],[2,0],[0]]","4","[[3,0,0],[2,1],[0]]","9","0","","","","","","3","","","","","","","","",""
"","","","","","single-stim-button","247","551567","0.0-2.0-37.3-1.3","5d5798f81da7d1001ca1a86e","C3","batch3","","671","tol_toboard","","","","tol_peg_2","671","671","0","[[3,0,0],[2,1],[0]]","4","[[3,0,0],[2,1],[0]]","9","0","","","","","","3","","","","","","","","",""
"","","","","","poldrack-single-stim","248","552578","0.0-2.0-38.0","5d5798f81da7d1001ca1a86e","C3","batch3","","-1","tol_feedback","","","true","","1000","1000","500","","","","","","-1","none","true","4839","7075","","","","","","","","","",""
"","","","","","html-button-response","249","553705","0.0-2.0-39.0","5d5798f81da7d1001ca1a86e","C3","batch3","","1125.9000000059605","tol_trial_num","<div class = centerbox><p class = center-block-text>problem <strong>11</strong> out of 25 problems</p></div>","0","","","","","","","","","","","","","","","","","","","","","","","","",""
"","","","","","single-stim-button","250","556698","0.0-2.0-40.0-0.0","5d5798f81da7d1001ca1a86e","C3","batch3","","2991","tol_tohand","","","","tol_peg_2","2991","2991","0","[[1,2,0],[0,0],[0]]","1","[[2,0,0],[1,3],[0]]","10","0","","","","","","6","","","","","","","","",""
"","","","","","single-stim-button","251","557873","0.0-2.0-40.0-1.0","5d5798f81da7d1001ca1a86e","C3","batch3","","1173","tol_toboard","","","","tol_peg_3","1173","1173","0","[[1,2,0],[0,0],[3]]","1","[[2,0,0],[1,3],[0]]","10","0","","","","","","6","","","","","","","","",""
"","","","","","single-stim-button","252","559032","0.0-2.0-40.1-0.1","5d5798f81da7d1001ca1a86e","C3","batch3","","1158","tol_tohand","","","","tol_peg_1","1158","1158","0","[[1,0,0],[0,0],[3]]","2","[[2,0,0],[1,3],[0]]","10","0","","","","","","6","","","","","","","","",""
"","","","","","single-stim-button","253","559040","0.0-2.0-40.1-1.1","5d5798f81da7d1001ca1a86e","C3","batch3","","8","tol_toboard","","","","tol_peg_1","8","8","0","[[1,2,0],[0,0],[3]]","2","[[2,0,0],[1,3],[0]]","10","0","","","","","","6","","","","","","","","",""
"","","","","","single-stim-button","254","559046","0.0-2.0-40.2-0.2","5d5798f81da7d1001ca1a86e","C3","batch3","","5","tol_tohand","","","","tol_peg_1","5","5","0","[[1,0,0],[0,0],[3]]","3","[[2,0,0],[1,3],[0]]","10","0","","","","","","6","","","","","","","","",""
"","","","","","single-stim-button","255","560445","0.0-2.0-40.2-1.2","5d5798f81da7d1001ca1a86e","C3","batch3","","1397","tol_toboard","","","","tol_peg_2","1397","1397","0","[[1,0,0],[2,0],[3]]","3","[[2,0,0],[1,3],[0]]","10","0","","","","","","6","","","","","","","","",""
"","","","","","single-stim-button","256","561137","0.0-2.0-40.3-0.3","5d5798f81da7d1001ca1a86e","C3","batch3","","691","tol_tohand","","","","tol_peg_3","691","691","0","[[1,0,0],[2,0],[0]]","4","[[2,0,0],[1,3],[0]]","10","0","","","","","","6","","","","","","","","",""
"","","","","","single-stim-button","257","561729","0.0-2.0-40.3-1.3","5d5798f81da7d1001ca1a86e","C3","batch3","","592","tol_toboard","","","","tol_peg_2","592","592","0","[[1,0,0],[2,3],[0]]","4","[[2,0,0],[1,3],[0]]","10","0","","","","","","6","","","","","","","","",""
"","","","","","single-stim-button","258","563627","0.0-2.0-40.4-0.4","5d5798f81da7d1001ca1a86e","C3","batch3","","1896","tol_tohand","","","","tol_peg_1","1896","1896","0","[[0,0,0],[2,3],[0]]","5","[[2,0,0],[1,3],[0]]","10","0","","","","","","6","","","","","","","","",""
"","","","","","single-stim-button","259","564851","0.0-2.0-40.4-1.4","5d5798f81da7d1001ca1a86e","C3","batch3","","1223","tol_toboard","","","","tol_peg_3","1223","1223","0","[[0,0,0],[2,3],[1]]","5","[[2,0,0],[1,3],[0]]","10","0","","","","","","6","","","","","","","","",""
"","","","","","single-stim-button","260","565615","0.0-2.0-40.5-0.5","5d5798f81da7d1001ca1a86e","C3","batch3","","762","tol_tohand","","","","tol_peg_2","762","762","0","[[0,0,0],[2,0],[1]]","6","[[2,0,0],[1,3],[0]]","10","0","","","","","","6","","","","","","","","",""
"","","","","","single-stim-button","261","566388","0.0-2.0-40.5-1.5","5d5798f81da7d1001ca1a86e","C3","batch3","","773","tol_toboard","","","","tol_peg_1","773","773","0","[[3,0,0],[2,0],[1]]","6","[[2,0,0],[1,3],[0]]","10","0","","","","","","6","","","","","","","","",""
"","","","","","single-stim-button","262","567211","0.0-2.0-40.6-0.6","5d5798f81da7d1001ca1a86e","C3","batch3","","822","tol_tohand","","","","tol_peg_2","822","822","0","[[3,0,0],[0,0],[1]]","7","[[2,0,0],[1,3],[0]]","10","0","","","","","","6","","","","","","","","",""
"","","","","","single-stim-button","263","569411","0.0-2.0-40.6-1.6","5d5798f81da7d1001ca1a86e","C3","batch3","","2198","tol_toboard","","","","tol_peg_2","2198","2198","0","[[3,0,0],[2,0],[1]]","7","[[2,0,0],[1,3],[0]]","10","0","","","","","","6","","","","","","","","",""
"","","","","","single-stim-button","264","570375","0.0-2.0-40.7-0.7","5d5798f81da7d1001ca1a86e","C3","batch3","","962","tol_tohand","","","","tol_peg_3","962","962","0","[[3,0,0],[2,0],[0]]","8","[[2,0,0],[1,3],[0]]","10","0","","","","","","6","","","","","","","","",""
"","","","","","single-stim-button","265","571248","0.0-2.0-40.7-1.7","5d5798f81da7d1001ca1a86e","C3","batch3","","872","tol_toboard","","","","tol_peg_2","872","872","0","[[3,0,0],[2,1],[0]]","8","[[2,0,0],[1,3],[0]]","10","0","","","","","","6","","","","","","","","",""
"","","","","","single-stim-button","266","572383","0.0-2.0-40.8-0.8","5d5798f81da7d1001ca1a86e","C3","batch3","","1133","tol_tohand","","","","tol_peg_1","1133","1133","0","[[0,0,0],[2,1],[0]]","9","[[2,0,0],[1,3],[0]]","10","0","","","","","","6","","","","","","","","",""
"","","","","","single-stim-button","267","580064","0.0-2.0-40.8-1.8","5d5798f81da7d1001ca1a86e","C3","batch3","","7680","tol_toboard","","","","tol_peg_1","7680","7680","0","[[3,0,0],[2,1],[0]]","9","[[2,0,0],[1,3],[0]]","10","0","","","","","","6","","","","","","","","",""
"","","","","","single-stim-button","268","580696","0.0-2.0-40.9-0.9","5d5798f81da7d1001ca1a86e","C3","batch3","","631","tol_tohand","","","","tol_peg_2","631","631","0","[[3,0,0],[2,0],[0]]","10","[[2,0,0],[1,3],[0]]","10","0","","","","","","6","","","","","","","","",""
"","","","","","single-stim-button","269","581278","0.0-2.0-40.9-1.9","5d5798f81da7d1001ca1a86e","C3","batch3","","581","tol_toboard","","","","tol_peg_3","581","581","0","[[3,0,0],[2,0],[1]]","10","[[2,0,0],[1,3],[0]]","10","0","","","","","","6","","","","","","","","",""
"","","","","","single-stim-button","270","582142","0.0-2.0-40.10-0.10","5d5798f81da7d1001ca1a86e","C3","batch3","","863","tol_tohand","","","","tol_peg_2","863","863","0","[[3,0,0],[0,0],[1]]","11","[[2,0,0],[1,3],[0]]","10","0","","","","","","6","","","","","","","","",""
"","","","","","single-stim-button","271","583248","0.0-2.0-40.10-1.10","5d5798f81da7d1001ca1a86e","C3","batch3","","1104","tol_toboard","","","","tol_peg_1","1104","1104","0","[[3,2,0],[0,0],[1]]","11","[[2,0,0],[1,3],[0]]","10","0","","","","","","6","","","","","","","","",""
"","","","","","single-stim-button","272","584433","0.0-2.0-40.11-0.11","5d5798f81da7d1001ca1a86e","C3","batch3","","1184","tol_tohand","","","","tol_peg_3","1184","1184","0","[[3,2,0],[0,0],[0]]","12","[[2,0,0],[1,3],[0]]","10","0","","","","","","6","","","","","","","","",""
"","","","","","single-stim-button","273","585124","0.0-2.0-40.11-1.11","5d5798f81da7d1001ca1a86e","C3","batch3","","691","tol_toboard","","","","tol_peg_2","691","691","0","[[3,2,0],[1,0],[0]]","12","[[2,0,0],[1,3],[0]]","10","0","","","","","","6","","","","","","","","",""
"","","","","","single-stim-button","274","586119","0.0-2.0-40.12-0.12","5d5798f81da7d1001ca1a86e","C3","batch3","","993","tol_tohand","","","","tol_peg_1","993","993","0","[[3,0,0],[1,0],[0]]","13","[[2,0,0],[1,3],[0]]","10","0","","","","","","6","","","","","","","","",""
"","","","","","single-stim-button","275","586992","0.0-2.0-40.12-1.12","5d5798f81da7d1001ca1a86e","C3","batch3","","872","tol_toboard","","","","tol_peg_3","872","872","0","[[3,0,0],[1,0],[2]]","13","[[2,0,0],[1,3],[0]]","10","0","","","","","","6","","","","","","","","",""
"","","","","","single-stim-button","276","587685","0.0-2.0-40.13-0.13","5d5798f81da7d1001ca1a86e","C3","batch3","","693","tol_tohand","","","","tol_peg_1","693","693","0","[[0,0,0],[1,0],[2]]","14","[[2,0,0],[1,3],[0]]","10","0","","","","","","6","","","","","","","","",""
"","","","","","single-stim-button","277","588297","0.0-2.0-40.13-1.13","5d5798f81da7d1001ca1a86e","C3","batch3","","610","tol_toboard","","","","tol_peg_2","610","610","0","[[0,0,0],[1,3],[2]]","14","[[2,0,0],[1,3],[0]]","10","0","","","","","","6","","","","","","","","",""
"","","","","","single-stim-button","278","588980","0.0-2.0-40.14-0.14","5d5798f81da7d1001ca1a86e","C3","batch3","","682","tol_tohand","","","","tol_peg_3","682","682","0","[[0,0,0],[1,3],[0]]","15","[[2,0,0],[1,3],[0]]","10","0","","","","","","6","","","","","","","","",""
"","","","","","single-stim-button","279","589612","0.0-2.0-40.14-1.14","5d5798f81da7d1001ca1a86e","C3","batch3","","630","tol_toboard","","","","tol_peg_1","630","630","0","[[2,0,0],[1,3],[0]]","15","[[2,0,0],[1,3],[0]]","10","0","","","","","","6","","","","","","","","",""
"","","","","","poldrack-single-stim","280","590630","0.0-2.0-41.0","5d5798f81da7d1001ca1a86e","C3","batch3","","-1","tol_feedback","","","true","","1000","1000","500","","","","","","-1","none","true","2991","15466","","","","","","","","","",""
"","","","","","html-button-response","281","591752","0.0-2.0-42.0","5d5798f81da7d1001ca1a86e","C3","batch3","","1119.7000000178814","tol_trial_num","<div class = centerbox><p class = center-block-text>problem <strong>12</strong> out of 25 problems</p></div>","0","","","","","","","","","","","","","","","","","","","","","","","","",""
"","","","","","single-stim-button","282","598227","0.0-2.0-43.0-0.0","5d5798f81da7d1001ca1a86e","C3","batch3","","6473","tol_tohand","","","","tol_peg_1","6473","6473","0","[[1,0,0],[3,0],[0]]","1","[[2,3,0],[0,0],[1]]","11","0","","","","","","4","","","","","","","","",""
"","","","","","single-stim-button","283","598910","0.0-2.0-43.0-1.0","5d5798f81da7d1001ca1a86e","C3","batch3","","681","tol_toboard","","","","tol_peg_2","681","681","0","[[1,0,0],[3,2],[0]]","1","[[2,3,0],[0,0],[1]]","11","0","","","","","","4","","","","","","","","",""
"","","","","","single-stim-button","284","599633","0.0-2.0-43.1-0.1","5d5798f81da7d1001ca1a86e","C3","batch3","","721","tol_tohand","","","","tol_peg_1","721","721","0","[[0,0,0],[3,2],[0]]","2","[[2,3,0],[0,0],[1]]","11","0","","","","","","4","","","","","","","","",""
"","","","","","single-stim-button","285","600306","0.0-2.0-43.1-1.1","5d5798f81da7d1001ca1a86e","C3","batch3","","671","tol_toboard","","","","tol_peg_3","671","671","0","[[0,0,0],[3,2],[1]]","2","[[2,3,0],[0,0],[1]]","11","0","","","","","","4","","","","","","","","",""
"","","","","","single-stim-button","286","601479","0.0-2.0-43.2-0.2","5d5798f81da7d1001ca1a86e","C3","batch3","","1172","tol_tohand","","","","tol_peg_2","1172","1172","0","[[0,0,0],[3,0],[1]]","3","[[2,3,0],[0,0],[1]]","11","0","","","","","","4","","","","","","","","",""
"","","","","","single-stim-button","287","602142","0.0-2.0-43.2-1.2","5d5798f81da7d1001ca1a86e","C3","batch3","","661","tol_toboard","","","","tol_peg_1","661","661","0","[[2,0,0],[3,0],[1]]","3","[[2,3,0],[0,0],[1]]","11","0","","","","","","4","","","","","","","","",""
"","","","","","single-stim-button","288","603929","0.0-2.0-43.3-0.3","5d5798f81da7d1001ca1a86e","C3","batch3","","1786","tol_tohand","","","","tol_peg_2","1786","1786","0","[[2,0,0],[0,0],[1]]","4","[[2,3,0],[0,0],[1]]","11","0","","","","","","4","","","","","","","","",""
"","","","","","single-stim-button","289","604552","0.0-2.0-43.3-1.3","5d5798f81da7d1001ca1a86e","C3","batch3","","621","tol_toboard","","","","tol_peg_1","621","621","0","[[2,3,0],[0,0],[1]]","4","[[2,3,0],[0,0],[1]]","11","0","","","","","","4","","","","","","","","",""
"","","","","","poldrack-single-stim","290","605560","0.0-2.0-44.0","5d5798f81da7d1001ca1a86e","C3","batch3","","-1","tol_feedback","","","true","","1000","1000","500","","","","","","-1","none","true","6473","10152","","","","","","","","","",""
"","","","","","html-button-response","291","606398","0.0-2.0-45.0","5d5798f81da7d1001ca1a86e","C3","batch3","","836.5","tol_trial_num","<div class = centerbox><p class = center-block-text>problem <strong>13</strong> out of 25 problems</p></div>","0","","","","","","","","","","","","","","","","","","","","","","","","",""
"","","","","","single-stim-button","292","610465","0.0-2.0-46.0-0.0","5d5798f81da7d1001ca1a86e","C3","batch3","","4066","tol_tohand","","","","tol_peg_2","4066","4066","0","[[1,2,0],[0,0],[0]]","1","[[0,0,0],[2,3],[1]]","12","0","","","","","","4","","","","","","","","",""
"","","","","","single-stim-button","293","611288","0.0-2.0-46.0-1.0","5d5798f81da7d1001ca1a86e","C3","batch3","","822","tol_toboard","","","","tol_peg_3","822","822","0","[[1,2,0],[0,0],[3]]","1","[[0,0,0],[2,3],[1]]","12","0","","","","","","4","","","","","","","","",""
"","","","","","single-stim-button","294","611981","0.0-2.0-46.1-0.1","5d5798f81da7d1001ca1a86e","C3","batch3","","692","tol_tohand","","","","tol_peg_1","692","692","0","[[1,0,0],[0,0],[3]]","2","[[0,0,0],[2,3],[1]]","12","0","","","","","","4","","","","","","","","",""
"","","","","","single-stim-button","295","612654","0.0-2.0-46.1-1.1","5d5798f81da7d1001ca1a86e","C3","batch3","","671","tol_toboard","","","","tol_peg_2","671","671","0","[[1,0,0],[2,0],[3]]","2","[[0,0,0],[2,3],[1]]","12","0","","","","","","4","","","","","","","","",""
"","","","","","single-stim-button","296","613587","0.0-2.0-46.2-0.2","5d5798f81da7d1001ca1a86e","C3","batch3","","933","tol_tohand","","","","tol_peg_3","933","933","0","[[1,0,0],[2,0],[0]]","3","[[0,0,0],[2,3],[1]]","12","0","","","","","","4","","","","","","","","",""
"","","","","","single-stim-button","297","614361","0.0-2.0-46.2-1.2","5d5798f81da7d1001ca1a86e","C3","batch3","","772","tol_toboard","","","","tol_peg_2","772","772","0","[[1,0,0],[2,3],[0]]","3","[[0,0,0],[2,3],[1]]","12","0","","","","","","4","","","","","","","","",""
"","","","","","single-stim-button","298","614994","0.0-2.0-46.3-0.3","5d5798f81da7d1001ca1a86e","C3","batch3","","631","tol_tohand","","","","tol_peg_1","631","631","0","[[0,0,0],[2,3],[0]]","4","[[0,0,0],[2,3],[1]]","12","0","","","","","","4","","","","","","","","",""
"","","","","","single-stim-button","299","615635","0.0-2.0-46.3-1.3","5d5798f81da7d1001ca1a86e","C3","batch3","","641","tol_toboard","","","","tol_peg_3","641","641","0","[[0,0,0],[2,3],[1]]","4","[[0,0,0],[2,3],[1]]","12","0","","","","","","4","","","","","","","","",""
"","","","","","poldrack-single-stim","300","616645","0.0-2.0-47.0","5d5798f81da7d1001ca1a86e","C3","batch3","","-1","tol_feedback","","","true","","1000","1000","500","","","","","","-1","none","true","4066","6322","","","","","","","","","",""
"","","","","","html-button-response","301","630081","0.0-2.0-48.0","5d5798f81da7d1001ca1a86e","C3","batch3","","13435.09999999404","attention_check","<p class = block-text>How many balls are in your board<br></p>","1","true","","","","","","","","","","","","","","","","","","","","","","","",""
"","","","","","html-button-response","302","631437","0.0-2.0-49.0","5d5798f81da7d1001ca1a86e","C3","batch3","","1354","tol_trial_num","<div class = centerbox><p class = center-block-text>problem <strong>14</strong> out of 25 problems</p></div>","0","","","","","","","","","","","","","","","","","","","","","","","","",""
"","","","","","single-stim-button","303","639391","0.0-2.0-50.0-0.0","5d5798f81da7d1001ca1a86e","C3","batch3","","7952","tol_tohand","","","","tol_peg_1","7952","7952","0","[[2,0,0],[3,0],[0]]","1","[[1,2,0],[3,0],[0]]","13","0","","","","","","4","","","","","","","","",""
"","","","","","single-stim-button","304","640545","0.0-2.0-50.0-1.0","5d5798f81da7d1001ca1a86e","C3","batch3","","1154","tol_toboard","","","","tol_peg_2","1154","1154","0","[[2,0,0],[3,1],[0]]","1","[[1,2,0],[3,0],[0]]","13","0","","","","","","4","","","","","","","","",""
"","","","","","single-stim-button","305","641249","0.0-2.0-50.1-0.1","5d5798f81da7d1001ca1a86e","C3","batch3","","702","tol_tohand","","","","tol_peg_1","702","702","0","[[0,0,0],[3,1],[0]]","2","[[1,2,0],[3,0],[0]]","13","0","","","","","","4","","","","","","","","",""
"","","","","","single-stim-button","306","641991","0.0-2.0-50.1-1.1","5d5798f81da7d1001ca1a86e","C3","batch3","","740","tol_toboard","","","","tol_peg_3","740","740","0","[[0,0,0],[3,1],[2]]","2","[[1,2,0],[3,0],[0]]","13","0","","","","","","4","","","","","","","","",""
"","","","","","single-stim-button","307","643386","0.0-2.0-50.2-0.2","5d5798f81da7d1001ca1a86e","C3","batch3","","1394","tol_tohand","","","","tol_peg_2","1394","1394","0","[[0,0,0],[3,0],[2]]","3","[[1,2,0],[3,0],[0]]","13","0","","","","","","4","","","","","","","","",""
"","","","","","single-stim-button","308","644111","0.0-2.0-50.2-1.2","5d5798f81da7d1001ca1a86e","C3","batch3","","723","tol_toboard","","","","tol_peg_1","723","723","0","[[1,0,0],[3,0],[2]]","3","[[1,2,0],[3,0],[0]]","13","0","","","","","","4","","","","","","","","",""
"","","","","","single-stim-button","309","645014","0.0-2.0-50.3-0.3","5d5798f81da7d1001ca1a86e","C3","batch3","","902","tol_tohand","","","","tol_peg_3","902","902","0","[[1,0,0],[3,0],[0]]","4","[[1,2,0],[3,0],[0]]","13","0","","","","","","4","","","","","","","","",""
"","","","","","single-stim-button","310","645837","0.0-2.0-50.3-1.3","5d5798f81da7d1001ca1a86e","C3","batch3","","822","tol_toboard","","","","tol_peg_1","822","822","0","[[1,2,0],[3,0],[0]]","4","[[1,2,0],[3,0],[0]]","13","0","","","","","","4","","","","","","","","",""
"","","","","","poldrack-single-stim","311","646853","0.0-2.0-51.0","5d5798f81da7d1001ca1a86e","C3","batch3","","-1","tol_feedback","","","true","","1000","1000","500","","","","","","-1","none","true","7952","10950","","","","","","","","","",""
"","","","","","html-button-response","312","647694","0.0-2.0-52.0","5d5798f81da7d1001ca1a86e","C3","batch3","","838.4000000059605","tol_trial_num","<div class = centerbox><p class = center-block-text>problem <strong>15</strong> out of 25 problems</p></div>","0","","","","","","","","","","","","","","","","","","","","","","","","",""
"","","","","","single-stim-button","313","654121","0.0-2.0-53.0-0.0","5d5798f81da7d1001ca1a86e","C3","batch3","","6425","tol_tohand","","","","tol_peg_1","6425","6425","0","[[1,0,0],[3,0],[0]]","1","[[2,0,0],[3,0],[1]]","14","0","","","","","","3","","","","","","","","",""
"","","","","","single-stim-button","314","654754","0.0-2.0-53.0-1.0","5d5798f81da7d1001ca1a86e","C3","batch3","","631","tol_toboard","","","","tol_peg_2","631","631","0","[[1,0,0],[3,2],[0]]","1","[[2,0,0],[3,0],[1]]","14","0","","","","","","3","","","","","","","","",""
"","","","","","single-stim-button","315","655859","0.0-2.0-53.1-0.1","5d5798f81da7d1001ca1a86e","C3","batch3","","1103","tol_tohand","","","","tol_peg_1","1103","1103","0","[[0,0,0],[3,2],[0]]","2","[[2,0,0],[3,0],[1]]","14","0","","","","","","3","","","","","","","","",""
"","","","","","single-stim-button","316","656439","0.0-2.0-53.1-1.1","5d5798f81da7d1001ca1a86e","C3","batch3","","580","tol_toboard","","","","tol_peg_3","580","580","0","[[0,0,0],[3,2],[1]]","2","[[2,0,0],[3,0],[1]]","14","0","","","","","","3","","","","","","","","",""
"","","","","","single-stim-button","317","657012","0.0-2.0-53.2-0.2","5d5798f81da7d1001ca1a86e","C3","batch3","","571","tol_tohand","","","","tol_peg_2","571","571","0","[[0,0,0],[3,0],[1]]","3","[[2,0,0],[3,0],[1]]","14","0","","","","","","3","","","","","","","","",""
"","","","","","single-stim-button","318","657735","0.0-2.0-53.2-1.2","5d5798f81da7d1001ca1a86e","C3","batch3","","721","tol_toboard","","","","tol_peg_1","721","721","0","[[2,0,0],[3,0],[1]]","3","[[2,0,0],[3,0],[1]]","14","0","","","","","","3","","","","","","","","",""
"","","","","","poldrack-single-stim","319","658744","0.0-2.0-54.0","5d5798f81da7d1001ca1a86e","C3","batch3","","-1","tol_feedback","","","true","","1000","1000","500","","","","","","-1","none","true","6425","8099","","","","","","","","","",""
"","","","","","html-button-response","320","659702","0.0-2.0-55.0","5d5798f81da7d1001ca1a86e","C3","batch3","","956.7000000178814","tol_trial_num","<div class = centerbox><p class = center-block-text>problem <strong>16</strong> out of 25 problems</p></div>","0","","","","","","","","","","","","","","","","","","","","","","","","",""
"","","","","","single-stim-button","321","666379","0.0-2.0-56.0-0.0","5d5798f81da7d1001ca1a86e","C3","batch3","","6676","tol_tohand","","","","tol_peg_3","6676","6676","0","[[0,0,0],[2,3],[0]]","1","[[2,3,0],[1,0],[0]]","15","0","","","","","","7","","","","","","","","",""
"","","","","","single-stim-button","322","668467","0.0-2.0-56.0-1.0","5d5798f81da7d1001ca1a86e","C3","batch3","","2087","tol_toboard","","","","tol_peg_1","2087","2087","0","[[1,0,0],[2,3],[0]]","1","[[2,3,0],[1,0],[0]]","15","0","","","","","","7","","","","","","","","",""
"","","","","","single-stim-button","323","669361","0.0-2.0-56.1-0.1","5d5798f81da7d1001ca1a86e","C3","batch3","","892","tol_tohand","","","","tol_peg_2","892","892","0","[[1,0,0],[2,0],[0]]","2","[[2,3,0],[1,0],[0]]","15","0","","","","","","7","","","","","","","","",""
"","","","","","single-stim-button","324","670094","0.0-2.0-56.1-1.1","5d5798f81da7d1001ca1a86e","C3","batch3","","732","tol_toboard","","","","tol_peg_3","732","732","0","[[1,0,0],[2,0],[3]]","2","[[2,3,0],[1,0],[0]]","15","0","","","","","","7","","","","","","","","",""
"","","","","","single-stim-button","325","674923","0.0-2.0-56.2-0.2","5d5798f81da7d1001ca1a86e","C3","batch3","","4828","tol_tohand","","","","tol_peg_2","4828","4828","0","[[1,0,0],[0,0],[3]]","3","[[2,3,0],[1,0],[0]]","15","0","","","","","","7","","","","","","","","",""
"","","","","","single-stim-button","326","675555","0.0-2.0-56.2-1.2","5d5798f81da7d1001ca1a86e","C3","batch3","","631","tol_toboard","","","","tol_peg_1","631","631","0","[[1,2,0],[0,0],[3]]","3","[[2,3,0],[1,0],[0]]","15","0","","","","","","7","","","","","","","","",""
"","","","","","single-stim-button","327","676449","0.0-2.0-56.3-0.3","5d5798f81da7d1001ca1a86e","C3","batch3","","892","tol_tohand","","","","tol_peg_3","892","892","0","[[1,2,0],[0,0],[0]]","4","[[2,3,0],[1,0],[0]]","15","0","","","","","","7","","","","","","","","",""
"","","","","","single-stim-button","328","677072","0.0-2.0-56.3-1.3","5d5798f81da7d1001ca1a86e","C3","batch3","","621","tol_toboard","","","","tol_peg_2","621","621","0","[[1,2,0],[3,0],[0]]","4","[[2,3,0],[1,0],[0]]","15","0","","","","","","7","","","","","","","","",""
"","","","","","single-stim-button","329","678155","0.0-2.0-56.4-0.4","5d5798f81da7d1001ca1a86e","C3","batch3","","1082","tol_tohand","","","","tol_peg_1","1082","1082","0","[[1,0,0],[3,0],[0]]","5","[[2,3,0],[1,0],[0]]","15","0","","","","","","7","","","","","","","","",""
"","","","","","single-stim-button","330","679239","0.0-2.0-56.4-1.4","5d5798f81da7d1001ca1a86e","C3","batch3","","1083","tol_toboard","","","","tol_peg_3","1083","1083","0","[[1,0,0],[3,0],[2]]","5","[[2,3,0],[1,0],[0]]","15","0","","","","","","7","","","","","","","","",""
"","","","","","single-stim-button","331","681027","0.0-2.0-56.5-0.5","5d5798f81da7d1001ca1a86e","C3","batch3","","1786","tol_tohand","","","","tol_peg_1","1786","1786","0","[[0,0,0],[3,0],[2]]","6","[[2,3,0],[1,0],[0]]","15","0","","","","","","7","","","","","","","","",""
"","","","","","single-stim-button","332","681740","0.0-2.0-56.5-1.5","5d5798f81da7d1001ca1a86e","C3","batch3","","712","tol_toboard","","","","tol_peg_2","712","712","0","[[0,0,0],[3,1],[2]]","6","[[2,3,0],[1,0],[0]]","15","0","","","","","","7","","","","","","","","",""
"","","","","","single-stim-button","333","682462","0.0-2.0-56.6-0.6","5d5798f81da7d1001ca1a86e","C3","batch3","","721","tol_tohand","","","","tol_peg_3","721","721","0","[[0,0,0],[3,1],[0]]","7","[[2,3,0],[1,0],[0]]","15","0","","","","","","7","","","","","","","","",""
"","","","","","single-stim-button","334","683154","0.0-2.0-56.6-1.6","5d5798f81da7d1001ca1a86e","C3","batch3","","691","tol_toboard","","","","tol_peg_1","691","691","0","[[2,0,0],[3,1],[0]]","7","[[2,3,0],[1,0],[0]]","15","0","","","","","","7","","","","","","","","",""
"","","","","","single-stim-button","335","683797","0.0-2.0-56.7-0.7","5d5798f81da7d1001ca1a86e","C3","batch3","","641","tol_tohand","","","","tol_peg_2","641","641","0","[[2,0,0],[3,0],[0]]","8","[[2,3,0],[1,0],[0]]","15","0","","","","","","7","","","","","","","","",""
"","","","","","single-stim-button","336","684882","0.0-2.0-56.7-1.7","5d5798f81da7d1001ca1a86e","C3","batch3","","1084","tol_toboard","","","","tol_peg_3","1084","1084","0","[[2,0,0],[3,0],[1]]","8","[[2,3,0],[1,0],[0]]","15","0","","","","","","7","","","","","","","","",""
"","","","","","single-stim-button","337","685524","0.0-2.0-56.8-0.8","5d5798f81da7d1001ca1a86e","C3","batch3","","640","tol_tohand","","","","tol_peg_2","640","640","0","[[2,0,0],[0,0],[1]]","9","[[2,3,0],[1,0],[0]]","15","0","","","","","","7","","","","","","","","",""
"","","","","","single-stim-button","338","686237","0.0-2.0-56.8-1.8","5d5798f81da7d1001ca1a86e","C3","batch3","","711","tol_toboard","","","","tol_peg_1","711","711","0","[[2,3,0],[0,0],[1]]","9","[[2,3,0],[1,0],[0]]","15","0","","","","","","7","","","","","","","","",""
"","","","","","single-stim-button","339","689480","0.0-2.0-56.9-0.9","5d5798f81da7d1001ca1a86e","C3","batch3","","3241","tol_tohand","","","","tol_peg_3","3241","3241","0","[[2,3,0],[0,0],[0]]","10","[[2,3,0],[1,0],[0]]","15","0","","","","","","7","","","","","","","","",""
"","","","","","single-stim-button","340","690093","0.0-2.0-56.9-1.9","5d5798f81da7d1001ca1a86e","C3","batch3","","611","tol_toboard","","","","tol_peg_2","611","611","0","[[2,3,0],[1,0],[0]]","10","[[2,3,0],[1,0],[0]]","15","0","","","","","","7","","","","","","","","",""
"","","","","","poldrack-single-stim","341","691102","0.0-2.0-57.0","5d5798f81da7d1001ca1a86e","C3","batch3","","-1","tol_feedback","","","true","","1000","1000","500","","","","","","-1","none","true","6676","21399","","","","","","","","","",""
"","","","","","html-button-response","342","692481","0.0-2.0-58.0","5d5798f81da7d1001ca1a86e","C3","batch3","","1377.9000000059605","tol_trial_num","<div class = centerbox><p class = center-block-text>problem <strong>17</strong> out of 25 problems</p></div>","0","","","","","","","","","","","","","","","","","","","","","","","","",""
"","","","","","single-stim-button","343","698725","0.0-2.0-59.0-0.0","5d5798f81da7d1001ca1a86e","C3","batch3","","6242","tol_tohand","","","","tol_peg_1","6242","6242","0","[[1,0,0],[3,0],[0]]","1","[[3,1,0],[2,0],[0]]","16","0","","","","","","5","","","","","","","","",""
"","","","","","single-stim-button","344","699379","0.0-2.0-59.0-1.0","5d5798f81da7d1001ca1a86e","C3","batch3","","652","tol_toboard","","","","tol_peg_2","652","652","0","[[1,0,0],[3,2],[0]]","1","[[3,1,0],[2,0],[0]]","16","0","","","","","","5","","","","","","","","",""
"","","","","","single-stim-button","345","700051","0.0-2.0-59.1-0.1","5d5798f81da7d1001ca1a86e","C3","batch3","","670","tol_tohand","","","","tol_peg_1","670","670","0","[[0,0,0],[3,2],[0]]","2","[[3,1,0],[2,0],[0]]","16","0","","","","","","5","","","","","","","","",""
"","","","","","single-stim-button","346","701406","0.0-2.0-59.1-1.1","5d5798f81da7d1001ca1a86e","C3","batch3","","1354","tol_toboard","","","","tol_peg_3","1354","1354","0","[[0,0,0],[3,2],[1]]","2","[[3,1,0],[2,0],[0]]","16","0","","","","","","5","","","","","","","","",""
"","","","","","single-stim-button","347","702049","0.0-2.0-59.2-0.2","5d5798f81da7d1001ca1a86e","C3","batch3","","642","tol_tohand","","","","tol_peg_2","642","642","0","[[0,0,0],[3,0],[1]]","3","[[3,1,0],[2,0],[0]]","16","0","","","","","","5","","","","","","","","",""
"","","","","","single-stim-button","348","702771","0.0-2.0-59.2-1.2","5d5798f81da7d1001ca1a86e","C3","batch3","","721","tol_toboard","","","","tol_peg_1","721","721","0","[[2,0,0],[3,0],[1]]","3","[[3,1,0],[2,0],[0]]","16","0","","","","","","5","","","","","","","","",""
"","","","","","single-stim-button","349","704217","0.0-2.0-59.3-0.3","5d5798f81da7d1001ca1a86e","C3","batch3","","1445","tol_tohand","","","","tol_peg_3","1445","1445","0","[[2,0,0],[3,0],[0]]","4","[[3,1,0],[2,0],[0]]","16","0","","","","","","5","","","","","","","","",""
"","","","","","single-stim-button","350","705001","0.0-2.0-59.3-1.3","5d5798f81da7d1001ca1a86e","C3","batch3","","782","tol_toboard","","","","tol_peg_2","782","782","0","[[2,0,0],[3,1],[0]]","4","[[3,1,0],[2,0],[0]]","16","0","","","","","","5","","","","","","","","",""
"","","","","","single-stim-button","351","705663","0.0-2.0-59.4-0.4","5d5798f81da7d1001ca1a86e","C3","batch3","","661","tol_tohand","","","","tol_peg_1","661","661","0","[[0,0,0],[3,1],[0]]","5","[[3,1,0],[2,0],[0]]","16","0","","","","","","5","","","","","","","","",""
