"success","timeout","failed_images","failed_audio","failed_video","trial_type","trial_index","time_elapsed","internal_node_id","subject_id","study_id","session_id","view_history","rt","stimulus","response","task","correct","answer","item","fiar_detect_rt","fiar_detect_correct","total_correct_fiar_detect","post_trial_gap","choices","spm_correct","spm_rt","mouse_click","stim_duration","block_duration","timing_post_trial","current_position","tol_num_moves_made","tol_target","tol_problem_id","tol_rt","key_press","possible_responses","tol_correct","preplanning","tol_rt_per_trial","tol_min_moves"
"true","false","[]","[]","[]","preload","0","3310","0.0-0.0","5d5b67ab9ad5a300181398dc","F1","batch6","","","","","","","","","","","","","","","","","","","","","","","","","","","","","",""
"true","","","","","fullscreen","1","12586","0.0-1.0-0.0","5d5b67ab9ad5a300181398dc","F1","batch6","","","","","","","","","","","","","","","","","","","","","","","","","","","","","",""
"true","","","","","fullscreen","2","16164","0.0-2.0-0.0","5d5b67ab9ad5a300181398dc","F1","batch6","","","","","","","","","","","","","","","","","","","","","","","","","","","","","",""
"","","","","","instructions","3","32210","0.0-2.0-1.0-0.0","5d5b67ab9ad5a300181398dc","F1","batch6","[{""page_index"":0,""viewing_time"":8428.400000095367},{""page_index"":1,""viewing_time"":7616.799999952316}]","16045.299999952316","","","","","","","","","","","","","","","","","","","","","","","","","","","",""
"","","","","","html-button-response","4","33867","0.0-2.0-1.0-1.0-0.0","5d5b67ab9ad5a300181398dc","F1","batch6","","1656.5","<p class=block-text> Let's answer a few questions <br>","0","pattern_enter_quiz","","","","","","","","","","","","","","","","","","","","","","","","",""
"","","","","","html-button-response","5","40127","0.0-2.0-1.0-1.0-1.0","5d5b67ab9ad5a300181398dc","F1","batch6","","6259.299999952316","<p class = block-text>True or False: You will have as much time as you want to make each choice. <br></p>","1","pattern_quiz","true","","","","","","","","","","","","","","","","","","","","","","","",""
"","","","","","html-button-response","6","42329","0.0-2.0-1.0-1.0-2.0","5d5b67ab9ad5a300181398dc","F1","batch6","","2201.100000143051","<p class = block-text>Correct! You should make your choice <strong> as fast as you can</strong>.</p>","0","pattern_quiz_feedback","","","","","","","","","","","","","","","","","","","","","","","","",""
"","","","","","html-button-response","7","46059","0.0-2.0-1.0-1.0-3.0","5d5b67ab9ad5a300181398dc","F1","batch6","","3729.5","<p class = block-text>True or False: You will look for 4 pieces in black or white color connected in a row either horizontally, vertically or diagonally. <br></p>","0","pattern_quiz","true","","","","","","","","","","","","","","","","","","","","","","","",""
"","","","","","html-button-response","8","47411","0.0-2.0-1.0-1.0-4.0","5d5b67ab9ad5a300181398dc","F1","batch6","","1351.3999998569489","<p class = block-text>Correct! </p>","0","pattern_quiz_feedback","","","","","","","","","","","","","","","","","","","","","","","","",""
"","","","","","html-button-response","9","49869","0.0-2.0-2.0","5d5b67ab9ad5a300181398dc","F1","batch6","","2456.4000000953674","<p class=block-text> Now that you've understood the game, let's do a few practice trials before we start!<br> <br>","0","pattern_enter_practice","","","","","","","","","","","","","","","","","","","","","","","","",""
"","","","","","image-keyboard-response","10","51956","0.0-2.0-3.0-0.0","5d5b67ab9ad5a300181398dc","F1","batch6","","2085","stim/prac_yes_20_dia_b1.png","j","pattern_practice","false","f","","","","","","","","","","","","","","","","","","","","","","",""
"","","","","","html-keyboard-response","11","52980","0.0-2.0-3.0-1.0","5d5b67ab9ad5a300181398dc","F1","batch6","","null","<p style=""font-size:30px;color:red;"">Wrong.</p>","null","pattern_feedback","","","","","","","","","","","","","","","","","","","","","","","","",""
"","","","","","image-keyboard-response","12","57686","0.0-2.0-3.0-0.1","5d5b67ab9ad5a300181398dc","F1","batch6","","4704","stim/prac_no_18_1.png","j","pattern_practice","true","j","","","","","","","","","","","","","","","","","","","","","","",""
"","","","","","html-keyboard-response","13","58710","0.0-2.0-3.0-1.1","5d5b67ab9ad5a300181398dc","F1","batch6","","null","<p style=""font-size:30px;color:green;"">Correct!</p>","null","pattern_feedback","","","","","","","","","","","","","","","","","","","","","","","","",""
"","","","","","image-keyboard-response","14","59704","0.0-2.0-3.0-0.2","5d5b67ab9ad5a300181398dc","F1","batch6","","993.2000000476837","stim/prac_yes_18_hor_w1.png","f","pattern_practice","true","f","","","","","","","","","","","","","","","","","","","","","","",""
"","","","","","html-keyboard-response","15","60732","0.0-2.0-3.0-1.2","5d5b67ab9ad5a300181398dc","F1","batch6","","null","<p style=""font-size:30px;color:green;"">Correct!</p>","null","pattern_feedback","","","","","","","","","","","","","","","","","","","","","","","","",""
"","","","","","image-keyboard-response","16","61586","0.0-2.0-3.0-0.3","5d5b67ab9ad5a300181398dc","F1","batch6","","852.7000000476837","stim/prac_no_16_1.png","f","pattern_practice","false","j","","","","","","","","","","","","","","","","","","","","","","",""
"","","","","","html-keyboard-response","17","62609","0.0-2.0-3.0-1.3","5d5b67ab9ad5a300181398dc","F1","batch6","","null","<p style=""font-size:30px;color:red;"">Wrong.</p>","null","pattern_feedback","","","","","","","","","","","","","","","","","","","","","","","","",""
"","","","","","image-keyboard-response","18","63599","0.0-2.0-3.0-0.4","5d5b67ab9ad5a300181398dc","F1","batch6","","988.8999998569489","stim/prac_yes_16_ver_w1.png","f","pattern_practice","true","f","","","","","","","","","","","","","","","","","","","","","","",""
"","","","","","html-keyboard-response","19","64604","0.0-2.0-3.0-1.4","5d5b67ab9ad5a300181398dc","F1","batch6","","null","<p style=""font-size:30px;color:green;"">Correct!</p>","null","pattern_feedback","","","","","","","","","","","","","","","","","","","","","","","","",""
"","","","","","html-button-response","20","71617","0.0-2.0-4.0","5d5b67ab9ad5a300181398dc","F1","batch6","","7012.099999904633","<p class=block-text> Good job! You are done with practice trials!<br>
        You responded correctly on 60% of the trials.<br>
        Press the button below to start official trials. Now you won't see any feedback about your response</p>","0","pattern_enter_official_trials","","","","","","","","","","","","","","","","","","","","","","","","",""
"","","","","","html-keyboard-response","21","72423","0.0-2.0-5.0-0.0","5d5b67ab9ad5a300181398dc","F1","batch6","","null","<p class=block-text>Trial 1 out of 78</p>","null","pattern_show_trial_num","","","","","","","","","","","","","","","","","","","","","","","","",""
"","","","","","image-keyboard-response","22","73402","0.0-2.0-5.0-1.0","5d5b67ab9ad5a300181398dc","F1","batch6","","976.4000000953674","stim/yes_15_dia_b1u_b.png","f","pattern_response","true","f","pattern_44","976.4000000953674","true","1","","","","","","","","","","","","","","","","","","",""
"","","","","","html-keyboard-response","23","74722","0.0-2.0-5.0-0.1","5d5b67ab9ad5a300181398dc","F1","batch6","","null","<p class=block-text>Trial 2 out of 78</p>","null","pattern_show_trial_num","","","","","","","","","","","","","","","","","","","","","","","","",""
"","","","","","image-keyboard-response","24","75528","0.0-2.0-5.0-1.1","5d5b67ab9ad5a300181398dc","F1","batch6","","804.7999999523163","stim/yes_36_ver_w1_w.png","f","pattern_response","true","f","pattern_58","804.7999999523163","true","2","","","","","","","","","","","","","","","","","","",""
"","","","","","html-keyboard-response","25","76847","0.0-2.0-5.0-0.2","5d5b67ab9ad5a300181398dc","F1","batch6","","null","<p class=block-text>Trial 3 out of 78</p>","null","pattern_show_trial_num","","","","","","","","","","","","","","","","","","","","","","","","",""
"","","","","","image-keyboard-response","26","78114","0.0-2.0-5.0-1.2","5d5b67ab9ad5a300181398dc","F1","batch6","","1266","stim/no_47_1_b.png","f","pattern_response","false","j","pattern_27","1266","false","2","","","","","","","","","","","","","","","","","","",""
"","","","","","html-keyboard-response","27","79431","0.0-2.0-5.0-0.3","5d5b67ab9ad5a300181398dc","F1","batch6","","null","<p class=block-text>Trial 4 out of 78</p>","null","pattern_show_trial_num","","","","","","","","","","","","","","","","","","","","","","","","",""
"","","","","","image-keyboard-response","28","81489","0.0-2.0-5.0-1.3","5d5b67ab9ad5a300181398dc","F1","batch6","","2055.7000000476837","stim/no_67_1.png","j","pattern_response","true","j","pattern_39","2055.7000000476837","true","3","","","","","","","","","","","","","","","","","","",""
"","","","","","html-keyboard-response","29","82801","0.0-2.0-5.0-0.4","5d5b67ab9ad5a300181398dc","F1","batch6","","null","<p class=block-text>Trial 5 out of 78</p>","null","pattern_show_trial_num","","","","","","","","","","","","","","","","","","","","","","","","",""
"","","","","","image-keyboard-response","30","84009","0.0-2.0-5.0-1.4","5d5b67ab9ad5a300181398dc","F1","batch6","","1206.9000000953674","stim/yes_23_ver_b1.png","j","pattern_response","false","f","pattern_48","1206.9000000953674","false","3","","","","","","","","","","","","","","","","","","",""
"","","","","","html-keyboard-response","31","85332","0.0-2.0-5.0-0.5","5d5b67ab9ad5a300181398dc","F1","batch6","","null","<p class=block-text>Trial 6 out of 78</p>","null","pattern_show_trial_num","","","","","","","","","","","","","","","","","","","","","","","","",""
"","","","","","image-keyboard-response","32","88175","0.0-2.0-5.0-1.5","5d5b67ab9ad5a300181398dc","F1","batch6","","2841.899999856949","stim/no_49_2_b.png","j","pattern_response","true","j","pattern_29","2841.899999856949","true","4","","","","","","","","","","","","","","","","","","",""
"","","","","","html-keyboard-response","33","89477","0.0-2.0-5.0-0.6","5d5b67ab9ad5a300181398dc","F1","batch6","","null","<p class=block-text>Trial 7 out of 78</p>","null","pattern_show_trial_num","","","","","","","","","","","","","","","","","","","","","","","","",""
"","","","","","image-keyboard-response","34","90631","0.0-2.0-5.0-1.6","5d5b67ab9ad5a300181398dc","F1","batch6","","1152.7999999523163","stim/no_12_1.png","j","pattern_response","true","j","pattern_01","1152.7999999523163","true","5","","","","","","","","","","","","","","","","","","",""
"","","","","","html-keyboard-response","35","91943","0.0-2.0-5.0-0.7","5d5b67ab9ad5a300181398dc","F1","batch6","","null","<p class=block-text>Trial 8 out of 78</p>","null","pattern_show_trial_num","","","","","","","","","","","","","","","","","","","","","","","","",""
"","","","","","image-keyboard-response","36","95389","0.0-2.0-5.0-1.7","5d5b67ab9ad5a300181398dc","F1","batch6","","3444.7000000476837","stim/no_33_1_b.png","j","pattern_response","true","j","pattern_15","3444.7000000476837","true","6","","","","","","","","","","","","","","","","","","",""
"","","","","","html-keyboard-response","37","96701","0.0-2.0-5.0-0.8","5d5b67ab9ad5a300181398dc","F1","batch6","","null","<p class=block-text>Trial 9 out of 78</p>","null","pattern_show_trial_num","","","","","","","","","","","","","","","","","","","","","","","","",""
"","","","","","image-keyboard-response","38","99124","0.0-2.0-5.0-1.8","5d5b67ab9ad5a300181398dc","F1","batch6","","2420.899999856949","stim/no_30_1_b.png","j","pattern_response","true","j","pattern_13","2420.899999856949","true","7","","","","","","","","","","","","","","","","","","",""
"","","","","","html-keyboard-response","39","100437","0.0-2.0-5.0-0.9","5d5b67ab9ad5a300181398dc","F1","batch6","","null","<p class=block-text>Trial 10 out of 78</p>","null","pattern_show_trial_num","","","","","","","","","","","","","","","","","","","","","","","","",""
"","","","","","image-keyboard-response","40","103909","0.0-2.0-5.0-1.9","5d5b67ab9ad5a300181398dc","F1","batch6","","3469.9000000953674","stim/no_58_1_w.png","f","pattern_response","false","j","pattern_35","3469.9000000953674","false","7","","","","","","","","","","","","","","","","","","",""
"","","","","","html-keyboard-response","41","105223","0.0-2.0-5.0-0.10","5d5b67ab9ad5a300181398dc","F1","batch6","","null","<p class=block-text>Trial 11 out of 78</p>","null","pattern_show_trial_num","","","","","","","","","","","","","","","","","","","","","","","","",""
"","","","","","image-keyboard-response","42","106513","0.0-2.0-5.0-1.10","5d5b67ab9ad5a300181398dc","F1","batch6","","1287.7000000476837","stim/yes_70_ver_b1.png","f","pattern_response","true","f","pattern_80","1287.7000000476837","true","8","","","","","","","","","","","","","","","","","","",""
"","","","","","html-keyboard-response","43","107826","0.0-2.0-5.0-0.11","5d5b67ab9ad5a300181398dc","F1","batch6","","null","<p class=block-text>Trial 12 out of 78</p>","null","pattern_show_trial_num","","","","","","","","","","","","","","","","","","","","","","","","",""
"","","","","","image-keyboard-response","44","108682","0.0-2.0-5.0-1.11","5d5b67ab9ad5a300181398dc","F1","batch6","","855.2999999523163","stim/no_15_1_w.png","f","pattern_response","false","j","pattern_03","855.2999999523163","false","8","","","","","","","","","","","","","","","","","","",""
"","","","","","html-keyboard-response","45","109992","0.0-2.0-5.0-0.12","5d5b67ab9ad5a300181398dc","F1","batch6","","null","<p class=block-text>Trial 13 out of 78</p>","null","pattern_show_trial_num","","","","","","","","","","","","","","","","","","","","","","","","",""
"","","","","","image-keyboard-response","46","111547","0.0-2.0-5.0-1.12","5d5b67ab9ad5a300181398dc","F1","batch6","","1554.0999999046326","stim/yes_30_ver_b1_b.png","f","pattern_response","true","f","pattern_54","1554.0999999046326","true","9","","","","","","","","","","","","","","","","","","",""
"","","","","","html-keyboard-response","47","112858","0.0-2.0-5.0-0.13","5d5b67ab9ad5a300181398dc","F1","batch6","","null","<p class=block-text>Trial 14 out of 78</p>","null","pattern_show_trial_num","","","","","","","","","","","","","","","","","","","","","","","","",""
"","","","","","image-keyboard-response","48","114383","0.0-2.0-5.0-1.13","5d5b67ab9ad5a300181398dc","F1","batch6","","1523.7999999523163","stim/yes_58_dia_w1_w.png","j","pattern_response","false","f","pattern_76","1523.7999999523163","false","9","","","","","","","","","","","","","","","","","","",""
"","","","","","html-keyboard-response","49","115702","0.0-2.0-5.0-0.14","5d5b67ab9ad5a300181398dc","F1","batch6","","null","<p class=block-text>Trial 15 out of 78</p>","null","pattern_show_trial_num","","","","","","","","","","","","","","","","","","","","","","","","",""
"","","","","","image-keyboard-response","50","117896","0.0-2.0-5.0-1.14","5d5b67ab9ad5a300181398dc","F1","batch6","","2193","stim/yes_53_ver_b1_b.png","f","pattern_response","true","f","pattern_74","2193","true","10","","","","","","","","","","","","","","","","","","",""
"","","","","","html-keyboard-response","51","119208","0.0-2.0-5.0-0.15","5d5b67ab9ad5a300181398dc","F1","batch6","","null","<p class=block-text>Trial 16 out of 78</p>","null","pattern_show_trial_num","","","","","","","","","","","","","","","","","","","","","","","","",""
"","","","","","image-keyboard-response","52","123195","0.0-2.0-5.0-1.15","5d5b67ab9ad5a300181398dc","F1","batch6","","3985.2999999523163","stim/yes_63_dia_b1.png","j","pattern_response","false","f","pattern_78","3985.2999999523163","false","10","","","","","","","","","","","","","","","","","","",""
"","","","","","html-keyboard-response","53","124512","0.0-2.0-5.0-0.16","5d5b67ab9ad5a300181398dc","F1","batch6","","null","<p class=block-text>Trial 17 out of 78</p>","null","pattern_show_trial_num","","","","","","","","","","","","","","","","","","","","","","","","",""
"","","","","","image-keyboard-response","54","126439","0.0-2.0-5.0-1.16","5d5b67ab9ad5a300181398dc","F1","batch6","","1924.7000000476837","stim/yes_26_dia_w2_w.png","f","pattern_response","true","f","pattern_50","1924.7000000476837","true","11","","","","","","","","","","","","","","","","","","",""
"","","","","","html-keyboard-response","55","127754","0.0-2.0-5.0-0.17","5d5b67ab9ad5a300181398dc","F1","batch6","","null","<p class=block-text>Trial 18 out of 78</p>","null","pattern_show_trial_num","","","","","","","","","","","","","","","","","","","","","","","","",""
"","","","","","image-keyboard-response","56","130644","0.0-2.0-5.0-1.17","5d5b67ab9ad5a300181398dc","F1","batch6","","2887.5999999046326","stim/no_25_1_b.png","j","pattern_response","true","j","pattern_09","2887.5999999046326","true","12","","","","","","","","","","","","","","","","","","",""
"","","","","","html-keyboard-response","57","131963","0.0-2.0-5.0-0.18","5d5b67ab9ad5a300181398dc","F1","batch6","","null","<p class=block-text>Trial 19 out of 78</p>","null","pattern_show_trial_num","","","","","","","","","","","","","","","","","","","","","","","","",""
"","","","","","image-keyboard-response","58","133162","0.0-2.0-5.0-1.18","5d5b67ab9ad5a300181398dc","F1","batch6","","1196.4000000953674","stim/yes_29_hor_b1_b.png","f","pattern_response","true","f","pattern_52","1196.4000000953674","true","13","","","","","","","","","","","","","","","","","","",""
"","","","","","html-keyboard-response","59","134478","0.0-2.0-5.0-0.19","5d5b67ab9ad5a300181398dc","F1","batch6","","null","<p class=block-text>Trial 20 out of 78</p>","null","pattern_show_trial_num","","","","","","","","","","","","","","","","","","","","","","","","",""
"","","","","","image-keyboard-response","60","135847","0.0-2.0-5.0-1.19","5d5b67ab9ad5a300181398dc","F1","batch6","","1367.5","stim/yes_49_hor_w1_b.png","f","pattern_response","true","f","pattern_70","1367.5","true","14","","","","","","","","","","","","","","","","","","",""
"","","","","","html-keyboard-response","61","137162","0.0-2.0-5.0-0.20","5d5b67ab9ad5a300181398dc","F1","batch6","","null","<p class=block-text>Trial 21 out of 78</p>","null","pattern_show_trial_num","","","","","","","","","","","","","","","","","","","","","","","","",""
"","","","","","image-keyboard-response","62","138927","0.0-2.0-5.0-1.20","5d5b67ab9ad5a300181398dc","F1","batch6","","1764.2000000476837","stim/no_28_2.png","j","pattern_response","true","j","pattern_11","1764.2000000476837","true","15","","","","","","","","","","","","","","","","","","",""
"","","","","","html-keyboard-response","63","140247","0.0-2.0-5.0-0.21","5d5b67ab9ad5a300181398dc","F1","batch6","","null","<p class=block-text>Trial 22 out of 78</p>","null","pattern_show_trial_num","","","","","","","","","","","","","","","","","","","","","","","","",""
"","","","","","image-keyboard-response","64","141526","0.0-2.0-5.0-1.21","5d5b67ab9ad5a300181398dc","F1","batch6","","1278.2000000476837","stim/yes_51_dia_b1.png","f","pattern_response","true","f","pattern_72","1278.2000000476837","true","16","","","","","","","","","","","","","","","","","","",""
"","","","","","html-keyboard-response","65","142833","0.0-2.0-5.0-0.22","5d5b67ab9ad5a300181398dc","F1","batch6","","null","<p class=block-text>Trial 23 out of 78</p>","null","pattern_show_trial_num","","","","","","","","","","","","","","","","","","","","","","","","",""
"","","","","","image-keyboard-response","66","143458","0.0-2.0-5.0-1.22","5d5b67ab9ad5a300181398dc","F1","batch6","","622.9000000953674","stim/yes_17_ver_b1_b.png","f","pattern_response","true","f","pattern_46","622.9000000953674","true","17","","","","","","","","","","","","","","","","","","",""
"","","","","","html-keyboard-response","67","144769","0.0-2.0-5.0-0.23","5d5b67ab9ad5a300181398dc","F1","batch6","","null","<p class=block-text>Trial 24 out of 78</p>","null","pattern_show_trial_num","","","","","","","","","","","","","","","","","","","","","","","","",""
"","","","","","image-keyboard-response","68","146094","0.0-2.0-5.0-1.23","5d5b67ab9ad5a300181398dc","F1","batch6","","1324.2000000476837","stim/yes_46_ver_b1_b.png","f","pattern_response","true","f","pattern_68","1324.2000000476837","true","18","","","","","","","","","","","","","","","","","","",""
"","","","","","html-keyboard-response","69","147408","0.0-2.0-5.0-0.24","5d5b67ab9ad5a300181398dc","F1","batch6","","null","<p class=block-text>Trial 25 out of 78</p>","null","pattern_show_trial_num","","","","","","","","","","","","","","","","","","","","","","","","",""
"","","","","","image-keyboard-response","70","149890","0.0-2.0-5.0-1.24","5d5b67ab9ad5a300181398dc","F1","batch6","","2480.300000190735","stim/no_45_1_w.png","j","pattern_response","true","j","pattern_25","2480.300000190735","true","19","","","","","","","","","","","","","","","","","","",""
"","","","","","html-keyboard-response","71","151201","0.0-2.0-5.0-0.25","5d5b67ab9ad5a300181398dc","F1","batch6","","null","<p class=block-text>Trial 26 out of 78</p>","null","pattern_show_trial_num","","","","","","","","","","","","","","","","","","","","","","","","",""
"","","","","","image-keyboard-response","72","153471","0.0-2.0-5.0-1.25","5d5b67ab9ad5a300181398dc","F1","batch6","","2269","stim/yes_42_dia_w1_w.png","j","pattern_response","false","f","pattern_64","2269","false","19","","","","","","","","","","","","","","","","","","",""
"","","","","","html-keyboard-response","73","154792","0.0-2.0-5.0-0.26","5d5b67ab9ad5a300181398dc","F1","batch6","","null","<p class=block-text>Trial 27 out of 78</p>","null","pattern_show_trial_num","","","","","","","","","","","","","","","","","","","","","","","","",""
"","","","","","image-keyboard-response","74","155636","0.0-2.0-5.0-1.26","5d5b67ab9ad5a300181398dc","F1","batch6","","843.3999998569489","stim/yes_39_hor_w1_w.png","f","pattern_response","true","f","pattern_62","843.3999998569489","true","20","","","","","","","","","","","","","","","","","","",""
"","","","","","html-keyboard-response","75","156949","0.0-2.0-5.0-0.27","5d5b67ab9ad5a300181398dc","F1","batch6","","null","<p class=block-text>Trial 28 out of 78</p>","null","pattern_show_trial_num","","","","","","","","","","","","","","","","","","","","","","","","",""
"","","","","","image-keyboard-response","76","159304","0.0-2.0-5.0-1.27","5d5b67ab9ad5a300181398dc","F1","batch6","","2353.399999856949","stim/no_37_2_w.png","j","pattern_response","true","j","pattern_19","2353.399999856949","true","21","","","","","","","","","","","","","","","","","","",""
"","","","","","html-keyboard-response","77","160620","0.0-2.0-5.0-0.28","5d5b67ab9ad5a300181398dc","F1","batch6","","null","<p class=block-text>Trial 29 out of 78</p>","null","pattern_show_trial_num","","","","","","","","","","","","","","","","","","","","","","","","",""
"","","","","","image-keyboard-response","78","161838","0.0-2.0-5.0-1.28","5d5b67ab9ad5a300181398dc","F1","batch6","","1216.2000000476837","stim/yes_37_hor_w1_w.png","f","pattern_response","true","f","pattern_60","1216.2000000476837","true","22","","","","","","","","","","","","","","","","","","",""
"","","","","","html-keyboard-response","79","163154","0.0-2.0-5.0-0.29","5d5b67ab9ad5a300181398dc","F1","batch6","","null","<p class=block-text>Trial 30 out of 78</p>","null","pattern_show_trial_num","","","","","","","","","","","","","","","","","","","","","","","","",""
"","","","","","image-keyboard-response","80","164996","0.0-2.0-5.0-1.29","5d5b67ab9ad5a300181398dc","F1","batch6","","1840.7000000476837","stim/no_43_2_b.png","j","pattern_response","true","j","pattern_23","1840.7000000476837","true","23","","","","","","","","","","","","","","","","","","",""
"","","","","","html-keyboard-response","81","166316","0.0-2.0-5.0-0.30","5d5b67ab9ad5a300181398dc","F1","batch6","","null","<p class=block-text>Trial 31 out of 78</p>","null","pattern_show_trial_num","","","","","","","","","","","","","","","","","","","","","","","","",""
"","","","","","image-keyboard-response","82","167611","0.0-2.0-5.0-1.30","5d5b67ab9ad5a300181398dc","F1","batch6","","1293.6999998092651","stim/no_22_1_b.png","j","pattern_response","true","j","pattern_07","1293.6999998092651","true","24","","","","","","","","","","","","","","","","","","",""
"","","","","","html-keyboard-response","83","168927","0.0-2.0-5.0-0.31","5d5b67ab9ad5a300181398dc","F1","batch6","","null","<p class=block-text>Trial 32 out of 78</p>","null","pattern_show_trial_num","","","","","","","","","","","","","","","","","","","","","","","","",""
"","","","","","image-keyboard-response","84","171450","0.0-2.0-5.0-1.31","5d5b67ab9ad5a300181398dc","F1","batch6","","2521.2000000476837","stim/no_39_1_w.png","j","pattern_response","true","j","pattern_21","2521.2000000476837","true","25","","","","","","","","","","","","","","","","","","",""
"","","","","","html-keyboard-response","85","172764","0.0-2.0-5.0-0.32","5d5b67ab9ad5a300181398dc","F1","batch6","","null","<p class=block-text>Trial 33 out of 78</p>","null","pattern_show_trial_num","","","","","","","","","","","","","","","","","","","","","","","","",""
"","","","","","image-keyboard-response","86","174015","0.0-2.0-5.0-1.32","5d5b67ab9ad5a300181398dc","F1","batch6","","1248.9000000953674","stim/yes_33_dia_w1_w.png","f","pattern_response","true","f","pattern_56","1248.9000000953674","true","26","","","","","","","","","","","","","","","","","","",""
"","","","","","html-keyboard-response","87","175336","0.0-2.0-5.0-0.33","5d5b67ab9ad5a300181398dc","F1","batch6","","null","<p class=block-text>Trial 34 out of 78</p>","null","pattern_show_trial_num","","","","","","","","","","","","","","","","","","","","","","","","",""
"","","","","","image-keyboard-response","88","177519","0.0-2.0-5.0-1.33","5d5b67ab9ad5a300181398dc","F1","batch6","","2180.5","stim/no_51_1.png","j","pattern_response","true","j","pattern_31","2180.5","true","27","","","","","","","","","","","","","","","","","","",""
"","","","","","html-keyboard-response","89","178840","0.0-2.0-5.0-0.34","5d5b67ab9ad5a300181398dc","F1","batch6","","null","<p class=block-text>Trial 35 out of 78</p>","null","pattern_show_trial_num","","","","","","","","","","","","","","","","","","","","","","","","",""
"","","","","","image-keyboard-response","90","180666","0.0-2.0-5.0-1.34","5d5b67ab9ad5a300181398dc","F1","batch6","","1824","stim/no_53_1_b.png","j","pattern_response","true","j","pattern_33","1824","true","28","","","","","","","","","","","","","","","","","","",""
"","","","","","html-keyboard-response","91","181984","0.0-2.0-5.0-0.35","5d5b67ab9ad5a300181398dc","F1","batch6","","null","<p class=block-text>Trial 36 out of 78</p>","null","pattern_show_trial_num","","","","","","","","","","","","","","","","","","","","","","","","",""
"","","","","","image-keyboard-response","92","183028","0.0-2.0-5.0-1.35","5d5b67ab9ad5a300181398dc","F1","batch6","","1042.1000001430511","stim/no_18_1_b.png","j","pattern_response","true","j","pattern_05","1042.1000001430511","true","29","","","","","","","","","","","","","","","","","","",""
"","","","","","html-keyboard-response","93","184339","0.0-2.0-5.0-0.36","5d5b67ab9ad5a300181398dc","F1","batch6","","null","<p class=block-text>Trial 37 out of 78</p>","null","pattern_show_trial_num","","","","","","","","","","","","","","","","","","","","","","","","",""
"","","","","","image-keyboard-response","94","186965","0.0-2.0-5.0-1.36","5d5b67ab9ad5a300181398dc","F1","batch6","","2625","stim/yes_44_ver_w1_w.png","j","pattern_response","false","f","pattern_66","2625","false","29","","","","","","","","","","","","","","","","","","",""
"","","","","","html-keyboard-response","95","188286","0.0-2.0-5.0-0.37","5d5b67ab9ad5a300181398dc","F1","batch6","","null","<p class=block-text>Trial 38 out of 78</p>","null","pattern_show_trial_num","","","","","","","","","","","","","","","","","","","","","","","","",""
"","","","","","image-keyboard-response","96","190585","0.0-2.0-5.0-1.37","5d5b67ab9ad5a300181398dc","F1","batch6","","2297.899999856949","stim/no_36_1_b.png","j","pattern_response","true","j","pattern_17","2297.899999856949","true","30","","","","","","","","","","","","","","","","","","",""
"","","","","","html-keyboard-response","97","191894","0.0-2.0-5.0-0.38","5d5b67ab9ad5a300181398dc","F1","batch6","","null","<p class=block-text>Trial 39 out of 78</p>","null","pattern_show_trial_num","","","","","","","","","","","","","","","","","","","","","","","","",""
"","","","","","image-keyboard-response","98","192590","0.0-2.0-5.0-1.38","5d5b67ab9ad5a300181398dc","F1","batch6","","695","stim/yes_12_hor_w1_w.png","f","pattern_response","true","f","pattern_42","695","true","31","","","","","","","","","","","","","","","","","","",""
"","","","","","image-keyboard-response","99","194240","0.0-2.0-6.0","5d5b67ab9ad5a300181398dc","F1","batch6","","1137","stim/empty_board.png","j","attention_check","true","j","","","","","500","[""f"",""j""]","","","","","","","","","","","","","","","","",""
"","","","","","html-keyboard-response","100","195057","0.0-2.0-7.0-0.0","5d5b67ab9ad5a300181398dc","F1","batch6","","null","<p class=block-text>Trial 40 out of 78</p>","null","pattern_show_trial_num","","","","","","","","","","","","","","","","","","","","","","","","",""
"","","","","","image-keyboard-response","101","197497","0.0-2.0-7.0-1.0","5d5b67ab9ad5a300181398dc","F1","batch6","","2437.600000143051","stim/no_44_1.png","j","pattern_response","true","j","pattern_24","2437.600000143051","true","32","","","","","","","","","","","","","","","","","","",""
"","","","","","html-keyboard-response","102","198809","0.0-2.0-7.0-0.1","5d5b67ab9ad5a300181398dc","F1","batch6","","null","<p class=block-text>Trial 41 out of 78</p>","null","pattern_show_trial_num","","","","","","","","","","","","","","","","","","","","","","","","",""
"","","","","","image-keyboard-response","103","200739","0.0-2.0-7.0-1.1","5d5b67ab9ad5a300181398dc","F1","batch6","","1928.5","stim/yes_60_ver_b1_b.png","f","pattern_response","true","f","pattern_77","1928.5","true","33","","","","","","","","","","","","","","","","","","",""
"","","","","","html-keyboard-response","104","202051","0.0-2.0-7.0-0.2","5d5b67ab9ad5a300181398dc","F1","batch6","","null","<p class=block-text>Trial 42 out of 78</p>","null","pattern_show_trial_num","","","","","","","","","","","","","","","","","","","","","","","","",""
"","","","","","image-keyboard-response","105","204706","0.0-2.0-7.0-1.2","5d5b67ab9ad5a300181398dc","F1","batch6","","2653.0999999046326","stim/no_36_2_w.png","j","pattern_response","true","j","pattern_18","2653.0999999046326","true","34","","","","","","","","","","","","","","","","","","",""
"","","","","","html-keyboard-response","106","206017","0.0-2.0-7.0-0.3","5d5b67ab9ad5a300181398dc","F1","batch6","","null","<p class=block-text>Trial 43 out of 78</p>","null","pattern_show_trial_num","","","","","","","","","","","","","","","","","","","","","","","","",""
"","","","","","image-keyboard-response","107","207286","0.0-2.0-7.0-1.3","5d5b67ab9ad5a300181398dc","F1","batch6","","1266.7999999523163","stim/no_26_1_w.png","j","pattern_response","true","j","pattern_10","1266.7999999523163","true","35","","","","","","","","","","","","","","","","","","",""
"","","","","","html-keyboard-response","108","208595","0.0-2.0-7.0-0.4","5d5b67ab9ad5a300181398dc","F1","batch6","","null","<p class=block-text>Trial 44 out of 78</p>","null","pattern_show_trial_num","","","","","","","","","","","","","","","","","","","","","","","","",""
"","","","","","image-keyboard-response","109","209568","0.0-2.0-7.0-1.4","5d5b67ab9ad5a300181398dc","F1","batch6","","971","stim/yes_43_ver_w1_w.png","f","pattern_response","true","f","pattern_65","971","true","36","","","","","","","","","","","","","","","","","","",""
"","","","","","html-keyboard-response","110","210878","0.0-2.0-7.0-0.5","5d5b67ab9ad5a300181398dc","F1","batch6","","null","<p class=block-text>Trial 45 out of 78</p>","null","pattern_show_trial_num","","","","","","","","","","","","","","","","","","","","","","","","",""
"","","","","","image-keyboard-response","111","214089","0.0-2.0-7.0-1.5","5d5b67ab9ad5a300181398dc","F1","batch6","","3210.2000000476837","stim/no_52_1.png","j","pattern_response","true","j","pattern_32","3210.2000000476837","true","37","","","","","","","","","","","","","","","","","","",""
"","","","","","html-keyboard-response","112","215409","0.0-2.0-7.0-0.6","5d5b67ab9ad5a300181398dc","F1","batch6","","null","<p class=block-text>Trial 46 out of 78</p>","null","pattern_show_trial_num","","","","","","","","","","","","","","","","","","","","","","","","",""
"","","","","","image-keyboard-response","113","218308","0.0-2.0-7.0-1.6","5d5b67ab9ad5a300181398dc","F1","batch6","","2896.7000000476837","stim/yes_37_dia_w1.png","j","pattern_response","false","f","pattern_59","2896.7000000476837","false","37","","","","","","","","","","","","","","","","","","",""
"","","","","","html-keyboard-response","114","219631","0.0-2.0-7.0-0.7","5d5b67ab9ad5a300181398dc","F1","batch6","","null","<p class=block-text>Trial 47 out of 78</p>","null","pattern_show_trial_num","","","","","","","","","","","","","","","","","","","","","","","","",""
"","","","","","image-keyboard-response","115","222162","0.0-2.0-7.0-1.7","5d5b67ab9ad5a300181398dc","F1","batch6","","2528.399999856949","stim/no_55_1_w.png","j","pattern_response","true","j","pattern_34","2528.399999856949","true","38","","","","","","","","","","","","","","","","","","",""
"","","","","","html-keyboard-response","116","223474","0.0-2.0-7.0-0.8","5d5b67ab9ad5a300181398dc","F1","batch6","","null","<p class=block-text>Trial 48 out of 78</p>","null","pattern_show_trial_num","","","","","","","","","","","","","","","","","","","","","","","","",""
"","","","","","image-keyboard-response","117","224531","0.0-2.0-7.0-1.8","5d5b67ab9ad5a300181398dc","F1","batch6","","1056","stim/yes_35_dia_b1.png","f","pattern_response","true","f","pattern_57","1056","true","39","","","","","","","","","","","","","","","","","","",""
"","","","","","html-keyboard-response","118","225844","0.0-2.0-7.0-0.9","5d5b67ab9ad5a300181398dc","F1","batch6","","null","<p class=block-text>Trial 49 out of 78</p>","null","pattern_show_trial_num","","","","","","","","","","","","","","","","","","","","","","","","",""
"","","","","","image-keyboard-response","119","230158","0.0-2.0-7.0-1.9","5d5b67ab9ad5a300181398dc","F1","batch6","","4312.200000047684","stim/no_70_2.png","j","pattern_response","true","j","pattern_40","4312.200000047684","true","40","","","","","","","","","","","","","","","","","","",""
"","","","","","html-keyboard-response","120","231471","0.0-2.0-7.0-0.10","5d5b67ab9ad5a300181398dc","F1","batch6","","null","<p class=block-text>Trial 50 out of 78</p>","null","pattern_show_trial_num","","","","","","","","","","","","","","","","","","","","","","","","",""
"","","","","","image-keyboard-response","121","234945","0.0-2.0-7.0-1.10","5d5b67ab9ad5a300181398dc","F1","batch6","","3472.0999999046326","stim/no_42_1_w.png","j","pattern_response","true","j","pattern_22","3472.0999999046326","true","41","","","","","","","","","","","","","","","","","","",""
"","","","","","html-keyboard-response","122","236262","0.0-2.0-7.0-0.11","5d5b67ab9ad5a300181398dc","F1","batch6","","null","<p class=block-text>Trial 51 out of 78</p>","null","pattern_show_trial_num","","","","","","","","","","","","","","","","","","","","","","","","",""
"","","","","","image-keyboard-response","123","237528","0.0-2.0-7.0-1.11","5d5b67ab9ad5a300181398dc","F1","batch6","","1263.9000000953674","stim/no_20_1_w.png","j","pattern_response","true","j","pattern_06","1263.9000000953674","true","42","","","","","","","","","","","","","","","","","","",""
"","","","","","html-keyboard-response","124","238832","0.0-2.0-7.0-0.12","5d5b67ab9ad5a300181398dc","F1","batch6","","null","<p class=block-text>Trial 52 out of 78</p>","null","pattern_show_trial_num","","","","","","","","","","","","","","","","","","","","","","","","",""
"","","","","","image-keyboard-response","125","240498","0.0-2.0-7.0-1.12","5d5b67ab9ad5a300181398dc","F1","batch6","","1664.7999999523163","stim/no_13_2_b.png","j","pattern_response","true","j","pattern_02","1664.7999999523163","true","43","","","","","","","","","","","","","","","","","","",""
"","","","","","html-keyboard-response","126","241809","0.0-2.0-7.0-0.13","5d5b67ab9ad5a300181398dc","F1","batch6","","null","<p class=block-text>Trial 53 out of 78</p>","null","pattern_show_trial_num","","","","","","","","","","","","","","","","","","","","","","","","",""
"","","","","","image-keyboard-response","127","243803","0.0-2.0-7.0-1.13","5d5b67ab9ad5a300181398dc","F1","batch6","","1992.9000000953674","stim/yes_29_ver_w1.png","j","pattern_response","false","f","pattern_53","1992.9000000953674","false","43","","","","","","","","","","","","","","","","","","",""
"","","","","","html-keyboard-response","128","245120","0.0-2.0-7.0-0.14","5d5b67ab9ad5a300181398dc","F1","batch6","","null","<p class=block-text>Trial 54 out of 78</p>","null","pattern_show_trial_num","","","","","","","","","","","","","","","","","","","","","","","","",""
"","","","","","image-keyboard-response","129","246512","0.0-2.0-7.0-1.14","5d5b67ab9ad5a300181398dc","F1","batch6","","1390.4000000953674","stim/yes_45_hor_b2_b.png","f","pattern_response","true","f","pattern_67","1390.4000000953674","true","44","","","","","","","","","","","","","","","","","","",""
"","","","","","html-keyboard-response","130","247820","0.0-2.0-7.0-0.15","5d5b67ab9ad5a300181398dc","F1","batch6","","null","<p class=block-text>Trial 55 out of 78</p>","null","pattern_show_trial_num","","","","","","","","","","","","","","","","","","","","","","","","",""
"","","","","","image-keyboard-response","131","248771","0.0-2.0-7.0-1.15","5d5b67ab9ad5a300181398dc","F1","batch6","","948.5","stim/yes_25_hor_b1_b.png","f","pattern_response","true","f","pattern_49","948.5","true","45","","","","","","","","","","","","","","","","","","",""
"","","","","","html-keyboard-response","132","250080","0.0-2.0-7.0-0.16","5d5b67ab9ad5a300181398dc","F1","batch6","","null","<p class=block-text>Trial 56 out of 78</p>","null","pattern_show_trial_num","","","","","","","","","","","","","","","","","","","","","","","","",""
"","","","","","image-keyboard-response","133","250782","0.0-2.0-7.0-1.16","5d5b67ab9ad5a300181398dc","F1","batch6","","700.2000000476837","stim/yes_28_ver_b1.png","f","pattern_response","true","f","pattern_51","700.2000000476837","true","46","","","","","","","","","","","","","","","","","","",""
"","","","","","html-keyboard-response","134","252099","0.0-2.0-7.0-0.17","5d5b67ab9ad5a300181398dc","F1","batch6","","null","<p class=block-text>Trial 57 out of 78</p>","null","pattern_show_trial_num","","","","","","","","","","","","","","","","","","","","","","","","",""
"","","","","","image-keyboard-response","135","254305","0.0-2.0-7.0-1.17","5d5b67ab9ad5a300181398dc","F1","batch6","","2204.5","stim/no_38_1_b.png","j","pattern_response","true","j","pattern_20","2204.5","true","47","","","","","","","","","","","","","","","","","","",""
"","","","","","html-keyboard-response","136","255622","0.0-2.0-7.0-0.18","5d5b67ab9ad5a300181398dc","F1","batch6","","null","<p class=block-text>Trial 58 out of 78</p>","null","pattern_show_trial_num","","","","","","","","","","","","","","","","","","","","","","","","",""
"","","","","","image-keyboard-response","137","257679","0.0-2.0-7.0-1.18","5d5b67ab9ad5a300181398dc","F1","batch6","","2055.5","stim/no_23_1.png","j","pattern_response","true","j","pattern_08","2055.5","true","48","","","","","","","","","","","","","","","","","","",""
"","","","","","html-keyboard-response","138","258997","0.0-2.0-7.0-0.19","5d5b67ab9ad5a300181398dc","F1","batch6","","null","<p class=block-text>Trial 59 out of 78</p>","null","pattern_show_trial_num","","","","","","","","","","","","","","","","","","","","","","","","",""
"","","","","","image-keyboard-response","139","261774","0.0-2.0-7.0-1.19","5d5b67ab9ad5a300181398dc","F1","batch6","","2775.7000000476837","stim/no_48_1_w.png","j","pattern_response","true","j","pattern_28","2775.7000000476837","true","49","","","","","","","","","","","","","","","","","","",""
"","","","","","html-keyboard-response","140","263080","0.0-2.0-7.0-0.20","5d5b67ab9ad5a300181398dc","F1","batch6","","null","<p class=block-text>Trial 60 out of 78</p>","null","pattern_show_trial_num","","","","","","","","","","","","","","","","","","","","","","","","",""
"","","","","","image-keyboard-response","141","266360","0.0-2.0-7.0-1.20","5d5b67ab9ad5a300181398dc","F1","batch6","","3278.0999999046326","stim/no_65_1_b.png","j","pattern_response","true","j","pattern_38","3278.0999999046326","true","50","","","","","","","","","","","","","","","","","","",""
"","","","","","html-keyboard-response","142","267670","0.0-2.0-7.0-0.21","5d5b67ab9ad5a300181398dc","F1","batch6","","null","<p class=block-text>Trial 61 out of 78</p>","null","pattern_show_trial_num","","","","","","","","","","","","","","","","","","","","","","","","",""
"","","","","","image-keyboard-response","143","269774","0.0-2.0-7.0-1.21","5d5b67ab9ad5a300181398dc","F1","batch6","","2102.5","stim/yes_50_dia_w1.png","f","pattern_response","true","f","pattern_71","2102.5","true","51","","","","","","","","","","","","","","","","","","",""
"","","","","","html-keyboard-response","144","271096","0.0-2.0-7.0-0.22","5d5b67ab9ad5a300181398dc","F1","batch6","","null","<p class=block-text>Trial 62 out of 78</p>","null","pattern_show_trial_num","","","","","","","","","","","","","","","","","","","","","","","","",""
"","","","","","image-keyboard-response","145","273878","0.0-2.0-7.0-1.22","5d5b67ab9ad5a300181398dc","F1","batch6","","2781.7000000476837","stim/no_29_1_b.png","j","pattern_response","true","j","pattern_12","2781.7000000476837","true","52","","","","","","","","","","","","","","","","","","",""
"","","","","","html-keyboard-response","146","275189","0.0-2.0-7.0-0.23","5d5b67ab9ad5a300181398dc","F1","batch6","","null","<p class=block-text>Trial 63 out of 78</p>","null","pattern_show_trial_num","","","","","","","","","","","","","","","","","","","","","","","","",""
"","","","","","image-keyboard-response","147","275884","0.0-2.0-7.0-1.23","5d5b67ab9ad5a300181398dc","F1","batch6","","694.1000001430511","stim/yes_14_hor_b1_w.png","j","pattern_response","false","f","pattern_43","694.1000001430511","false","52","","","","","","","","","","","","","","","","","","",""
"","","","","","html-keyboard-response","148","277203","0.0-2.0-7.0-0.24","5d5b67ab9ad5a300181398dc","F1","batch6","","null","<p class=block-text>Trial 64 out of 78</p>","null","pattern_show_trial_num","","","","","","","","","","","","","","","","","","","","","","","","",""
"","","","","","image-keyboard-response","149","279580","0.0-2.0-7.0-1.24","5d5b67ab9ad5a300181398dc","F1","batch6","","2374.899999856949","stim/yes_55_hor_w1_w.png","j","pattern_response","false","f","pattern_75","2374.899999856949","false","52","","","","","","","","","","","","","","","","","","",""
"","","","","","html-keyboard-response","150","280902","0.0-2.0-7.0-0.25","5d5b67ab9ad5a300181398dc","F1","batch6","","null","<p class=block-text>Trial 65 out of 78</p>","null","pattern_show_trial_num","","","","","","","","","","","","","","","","","","","","","","","","",""
"","","","","","image-keyboard-response","151","282591","0.0-2.0-7.0-1.25","5d5b67ab9ad5a300181398dc","F1","batch6","","1687.0999999046326","stim/yes_31_hor_b1.png","f","pattern_response","true","f","pattern_55","1687.0999999046326","true","53","","","","","","","","","","","","","","","","","","",""
"","","","","","html-keyboard-response","152","283910","0.0-2.0-7.0-0.26","5d5b67ab9ad5a300181398dc","F1","batch6","","null","<p class=block-text>Trial 66 out of 78</p>","null","pattern_show_trial_num","","","","","","","","","","","","","","","","","","","","","","","","",""
"","","","","","image-keyboard-response","153","286793","0.0-2.0-7.0-1.26","5d5b67ab9ad5a300181398dc","F1","batch6","","2881.5999999046326","stim/yes_40_dia_b1_b.png","j","pattern_response","false","f","pattern_63","2881.5999999046326","false","53","","","","","","","","","","","","","","","","","","",""
"","","","","","html-keyboard-response","154","288108","0.0-2.0-7.0-0.27","5d5b67ab9ad5a300181398dc","F1","batch6","","null","<p class=block-text>Trial 67 out of 78</p>","null","pattern_show_trial_num","","","","","","","","","","","","","","","","","","","","","","","","",""
"","","","","","image-keyboard-response","155","290827","0.0-2.0-7.0-1.27","5d5b67ab9ad5a300181398dc","F1","batch6","","2716.5","stim/no_46_1_b.png","j","pattern_response","true","j","pattern_26","2716.5","true","54","","","","","","","","","","","","","","","","","","",""
"","","","","","html-keyboard-response","156","292141","0.0-2.0-7.0-0.28","5d5b67ab9ad5a300181398dc","F1","batch6","","null","<p class=block-text>Trial 68 out of 78</p>","null","pattern_show_trial_num","","","","","","","","","","","","","","","","","","","","","","","","",""
"","","","","","image-keyboard-response","157","295066","0.0-2.0-7.0-1.28","5d5b67ab9ad5a300181398dc","F1","batch6","","2923.5","stim/no_50_1.png","j","pattern_response","true","j","pattern_30","2923.5","true","55","","","","","","","","","","","","","","","","","","",""
"","","","","","html-keyboard-response","158","296378","0.0-2.0-7.0-0.29","5d5b67ab9ad5a300181398dc","F1","batch6","","null","<p class=block-text>Trial 69 out of 78</p>","null","pattern_show_trial_num","","","","","","","","","","","","","","","","","","","","","","","","",""
"","","","","","image-keyboard-response","159","298056","0.0-2.0-7.0-1.29","5d5b67ab9ad5a300181398dc","F1","batch6","","1675.7999999523163","stim/no_32_1_w.png","j","pattern_response","true","j","pattern_14","1675.7999999523163","true","56","","","","","","","","","","","","","","","","","","",""
"","","","","","html-keyboard-response","160","299370","0.0-2.0-7.0-0.30","5d5b67ab9ad5a300181398dc","F1","batch6","","null","<p class=block-text>Trial 70 out of 78</p>","null","pattern_show_trial_num","","","","","","","","","","","","","","","","","","","","","","","","",""
"","","","","","image-keyboard-response","161","301038","0.0-2.0-7.0-1.30","5d5b67ab9ad5a300181398dc","F1","batch6","","1666.7000000476837","stim/yes_67_hor_b1.png","f","pattern_response","true","f","pattern_79","1666.7000000476837","true","57","","","","","","","","","","","","","","","","","","",""
"","","","","","html-keyboard-response","162","302347","0.0-2.0-7.0-0.31","5d5b67ab9ad5a300181398dc","F1","batch6","","null","<p class=block-text>Trial 71 out of 78</p>","null","pattern_show_trial_num","","","","","","","","","","","","","","","","","","","","","","","","",""
"","","","","","image-keyboard-response","163","303594","0.0-2.0-7.0-1.31","5d5b67ab9ad5a300181398dc","F1","batch6","","1245","stim/yes_38_hor_b1_b.png","f","pattern_response","true","f","pattern_61","1245","true","58","","","","","","","","","","","","","","","","","","",""
"","","","","","html-keyboard-response","164","304910","0.0-2.0-7.0-0.32","5d5b67ab9ad5a300181398dc","F1","batch6","","null","<p class=block-text>Trial 72 out of 78</p>","null","pattern_show_trial_num","","","","","","","","","","","","","","","","","","","","","","","","",""
"","","","","","image-keyboard-response","165","307235","0.0-2.0-7.0-1.32","5d5b67ab9ad5a300181398dc","F1","batch6","","2323.800000190735","stim/yes_48_dia_w1_w.png","j","pattern_response","false","f","pattern_69","2323.800000190735","false","58","","","","","","","","","","","","","","","","","","",""
"","","","","","html-keyboard-response","166","308547","0.0-2.0-7.0-0.33","5d5b67ab9ad5a300181398dc","F1","batch6","","null","<p class=block-text>Trial 73 out of 78</p>","null","pattern_show_trial_num","","","","","","","","","","","","","","","","","","","","","","","","",""
"","","","","","image-keyboard-response","167","309852","0.0-2.0-7.0-1.33","5d5b67ab9ad5a300181398dc","F1","batch6","","1303","stim/yes_22_ver_w1.png","f","pattern_response","true","f","pattern_47","1303","true","59","","","","","","","","","","","","","","","","","","",""
"","","","","","html-keyboard-response","168","311172","0.0-2.0-7.0-0.34","5d5b67ab9ad5a300181398dc","F1","batch6","","null","<p class=block-text>Trial 74 out of 78</p>","null","pattern_show_trial_num","","","","","","","","","","","","","","","","","","","","","","","","",""
"","","","","","image-keyboard-response","169","312493","0.0-2.0-7.0-1.34","5d5b67ab9ad5a300181398dc","F1","batch6","","1319.7000000476837","stim/yes_17_dia_w1.png","f","pattern_response","true","f","pattern_45","1319.7000000476837","true","60","","","","","","","","","","","","","","","","","","",""
"","","","","","html-keyboard-response","170","313804","0.0-2.0-7.0-0.35","5d5b67ab9ad5a300181398dc","F1","batch6","","null","<p class=block-text>Trial 75 out of 78</p>","null","pattern_show_trial_num","","","","","","","","","","","","","","","","","","","","","","","","",""
"","","","","","image-keyboard-response","171","317204","0.0-2.0-7.0-1.35","5d5b67ab9ad5a300181398dc","F1","batch6","","3398.699999809265","stim/no_34_1_b.png","j","pattern_response","true","j","pattern_16","3398.699999809265","true","61","","","","","","","","","","","","","","","","","","",""
"","","","","","html-keyboard-response","172","318517","0.0-2.0-7.0-0.36","5d5b67ab9ad5a300181398dc","F1","batch6","","null","<p class=block-text>Trial 76 out of 78</p>","null","pattern_show_trial_num","","","","","","","","","","","","","","","","","","","","","","","","",""
"","","","","","image-keyboard-response","173","320276","0.0-2.0-7.0-1.36","5d5b67ab9ad5a300181398dc","F1","batch6","","1757.1000001430511","stim/no_17_1_w.png","j","pattern_response","true","j","pattern_04","1757.1000001430511","true","62","","","","","","","","","","","","","","","","","","",""
"","","","","","html-keyboard-response","174","321587","0.0-2.0-7.0-0.37","5d5b67ab9ad5a300181398dc","F1","batch6","","null","<p class=block-text>Trial 77 out of 78</p>","null","pattern_show_trial_num","","","","","","","","","","","","","","","","","","","","","","","","",""
"","","","","","image-keyboard-response","175","324986","0.0-2.0-7.0-1.37","5d5b67ab9ad5a300181398dc","F1","batch6","","3397.899999856949","stim/no_62_1_w.png","j","pattern_response","true","j","pattern_36","3397.899999856949","true","63","","","","","","","","","","","","","","","","","","",""
"","","","","","html-keyboard-response","176","326295","0.0-2.0-7.0-0.38","5d5b67ab9ad5a300181398dc","F1","batch6","","null","<p class=block-text>Trial 78 out of 78</p>","null","pattern_show_trial_num","","","","","","","","","","","","","","","","","","","","","","","","",""
"","","","","","image-keyboard-response","177","327730","0.0-2.0-7.0-1.38","5d5b67ab9ad5a300181398dc","F1","batch6","","1433.0999999046326","stim/yes_52_ver_w1.png","f","pattern_response","true","f","pattern_73","1433.0999999046326","true","64","","","","","","","","","","","","","","","","","","",""
"","","","","","html-button-response","178","350953","0.0-2.0-8.0","5d5b67ab9ad5a300181398dc","F1","batch6","","22712.699999809265","<p class = block-text>This concludes the 4-in-a-row detection game.Thank you for your responses!<br>
            You responded correctly on 82% of the trials.<br>
            When you are ready, press ""Continue"" button to continue </p>","0","","","","","","","","","","","","","","","","","","","","","","","","","",""
"true","","","","","fullscreen","179","354967","0.0-3.0-0.0","5d5b67ab9ad5a300181398dc","F1","batch6","","","","","spm_fullscreen","","","","","","","","","","","","","","","","","","","","","","","","",""
"","","","","","html-button-response","180","360746","0.0-3.0-1.0","5d5b67ab9ad5a300181398dc","F1","batch6","","5777.600000143051","<p class = block-text><b>Instructions</b> <br>This is a widely used intelligence test in research. <br>In this test, a figure with a missing piece will be presented.<br>Below the figure are alternative pieces to complete the figure, only one of which is correct.<br> Different figures might involve different principles for obtaining the missing piece<br>Your job is to select the most logical piece to complete the figure.</p>","0","","","","","","","","","","","","","","","","","","","","","","","","","",""
"","","","","","html-keyboard-response","181","361547","0.0-3.0-2.0-0.0","5d5b67ab9ad5a300181398dc","F1","batch6","","null","<p class=block-text>Trial 1 out of 60</p>","null","spm_show_trial_num","","","","","","","","","","","","","","","","","","","","","","","","",""
"","","","","","image-button-response","182","367746","0.0-3.0-2.0-1.0","5d5b67ab9ad5a300181398dc","F1","batch6","","6195.700000047684","img/question_1_1.jpeg","3","spm_respsonse","1","4","mat_01","","","","","","1","6195.700000047684","","","","","","","","","","","","","","",""
"","","","","","html-keyboard-response","183","368799","0.0-3.0-2.0-0.1","5d5b67ab9ad5a300181398dc","F1","batch6","","null","<p class=block-text>Trial 2 out of 60</p>","null","spm_show_trial_num","","","","","","","","","","","","","","","","","","","","","","","","",""
"","","","","","image-button-response","184","372865","0.0-3.0-2.0-1.1","5d5b67ab9ad5a300181398dc","F1","batch6","","4062.899999856949","img/question_1_2.jpeg","4","spm_respsonse","1","5","mat_02","","","","","","1","4062.899999856949","","","","","","","","","","","","","","",""
"","","","","","html-keyboard-response","185","373921","0.0-3.0-2.0-0.2","5d5b67ab9ad5a300181398dc","F1","batch6","","null","<p class=block-text>Trial 3 out of 60</p>","null","spm_show_trial_num","","","","","","","","","","","","","","","","","","","","","","","","",""
"","","","","","image-button-response","186","378966","0.0-3.0-2.0-1.2","5d5b67ab9ad5a300181398dc","F1","batch6","","5042.5","img/question_1_3.jpeg","0","spm_respsonse","1","1","mat_03","","","","","","1","5042.5","","","","","","","","","","","","","","",""
"","","","","","html-keyboard-response","187","380037","0.0-3.0-2.0-0.3","5d5b67ab9ad5a300181398dc","F1","batch6","","null","<p class=block-text>Trial 4 out of 60</p>","null","spm_show_trial_num","","","","","","","","","","","","","","","","","","","","","","","","",""
"","","","","","image-button-response","188","383888","0.0-3.0-2.0-1.3","5d5b67ab9ad5a300181398dc","F1","batch6","","3849","img/question_1_4.jpeg","1","spm_respsonse","1","2","mat_04","","","","","","1","3849","","","","","","","","","","","","","","",""
"","","","","","html-keyboard-response","189","384960","0.0-3.0-2.0-0.4","5d5b67ab9ad5a300181398dc","F1","batch6","","null","<p class=block-text>Trial 5 out of 60</p>","null","spm_show_trial_num","","","","","","","","","","","","","","","","","","","","","","","","",""
"","","","","","image-button-response","190","389450","0.0-3.0-2.0-1.4","5d5b67ab9ad5a300181398dc","F1","batch6","","4487.900000095367","img/question_1_5.jpeg","5","spm_respsonse","1","6","mat_05","","","","","","1","4487.900000095367","","","","","","","","","","","","","","",""
"","","","","","html-keyboard-response","191","390504","0.0-3.0-2.0-0.5","5d5b67ab9ad5a300181398dc","F1","batch6","","null","<p class=block-text>Trial 6 out of 60</p>","null","spm_show_trial_num","","","","","","","","","","","","","","","","","","","","","","","","",""
"","","","","","image-button-response","192","395410","0.0-3.0-2.0-1.5","5d5b67ab9ad5a300181398dc","F1","batch6","","4905","img/question_1_6.jpeg","2","spm_respsonse","1","3","mat_06","","","","","","1","4905","","","","","","","","","","","","","","",""
"","","","","","html-keyboard-response","193","396473","0.0-3.0-2.0-0.6","5d5b67ab9ad5a300181398dc","F1","batch6","","null","<p class=block-text>Trial 7 out of 60</p>","null","spm_show_trial_num","","","","","","","","","","","","","","","","","","","","","","","","",""
"","","","","","image-button-response","194","402656","0.0-3.0-2.0-1.6","5d5b67ab9ad5a300181398dc","F1","batch6","","6180.900000095367","img/question_1_7.jpeg","5","spm_respsonse","1","6","mat_07","","","","","","1","6180.900000095367","","","","","","","","","","","","","","",""
"","","","","","html-keyboard-response","195","403721","0.0-3.0-2.0-0.7","5d5b67ab9ad5a300181398dc","F1","batch6","","null","<p class=block-text>Trial 8 out of 60</p>","null","spm_show_trial_num","","","","","","","","","","","","","","","","","","","","","","","","",""
"","","","","","image-button-response","196","407920","0.0-3.0-2.0-1.7","5d5b67ab9ad5a300181398dc","F1","batch6","","4195.599999904633","img/question_1_8.jpeg","1","spm_respsonse","1","2","mat_08","","","","","","1","4195.599999904633","","","","","","","","","","","","","","",""
"","","","","","html-keyboard-response","197","408989","0.0-3.0-2.0-0.8","5d5b67ab9ad5a300181398dc","F1","batch6","","null","<p class=block-text>Trial 9 out of 60</p>","null","spm_show_trial_num","","","","","","","","","","","","","","","","","","","","","","","","",""
"","","","","","image-button-response","198","424808","0.0-3.0-2.0-1.8","5d5b67ab9ad5a300181398dc","F1","batch6","","15816.400000095367","img/question_1_9.jpeg","0","spm_respsonse","1","1","mat_09","","","","","","1","15816.400000095367","","","","","","","","","","","","","","",""
"","","","","","html-keyboard-response","199","425882","0.0-3.0-2.0-0.9","5d5b67ab9ad5a300181398dc","F1","batch6","","null","<p class=block-text>Trial 10 out of 60</p>","null","spm_show_trial_num","","","","","","","","","","","","","","","","","","","","","","","","",""
"","","","","","image-button-response","200","431428","0.0-3.0-2.0-1.9","5d5b67ab9ad5a300181398dc","F1","batch6","","5543.799999952316","img/question_1_10.jpeg","2","spm_respsonse","1","3","mat_10","","","","","","1","5543.799999952316","","","","","","","","","","","","","","",""
"","","","","","html-keyboard-response","201","432492","0.0-3.0-2.0-0.10","5d5b67ab9ad5a300181398dc","F1","batch6","","null","<p class=block-text>Trial 11 out of 60</p>","null","spm_show_trial_num","","","","","","","","","","","","","","","","","","","","","","","","",""
"","","","","","image-button-response","202","447531","0.0-3.0-2.0-1.10","5d5b67ab9ad5a300181398dc","F1","batch6","","15037.400000095367","img/question_1_11.jpeg","3","spm_respsonse","1","4","mat_11","","","","","","1","15037.400000095367","","","","","","","","","","","","","","",""
"","","","","","html-keyboard-response","203","448595","0.0-3.0-2.0-0.11","5d5b67ab9ad5a300181398dc","F1","batch6","","null","<p class=block-text>Trial 12 out of 60</p>","null","spm_show_trial_num","","","","","","","","","","","","","","","","","","","","","","","","",""
"","","","","","image-button-response","204","464876","0.0-3.0-2.0-1.11","5d5b67ab9ad5a300181398dc","F1","batch6","","16278.300000190735","img/question_1_12.jpeg","5","spm_respsonse","0","5","mat_12","","","","","","0","16278.300000190735","","","","","","","","","","","","","","",""
"","","","","","html-keyboard-response","205","465937","0.0-3.0-2.0-0.12","5d5b67ab9ad5a300181398dc","F1","batch6","","null","<p class=block-text>Trial 13 out of 60</p>","null","spm_show_trial_num","","","","","","","","","","","","","","","","","","","","","","","","",""
"","","","","","image-button-response","206","469768","0.0-3.0-2.0-1.12","5d5b67ab9ad5a300181398dc","F1","batch6","","3828.100000143051","img/question_2_1.jpeg","1","spm_respsonse","1","2","mat_13","","","","","","1","3828.100000143051","","","","","","","","","","","","","","",""
"","","","","","html-keyboard-response","207","470835","0.0-3.0-2.0-0.13","5d5b67ab9ad5a300181398dc","F1","batch6","","null","<p class=block-text>Trial 14 out of 60</p>","null","spm_show_trial_num","","","","","","","","","","","","","","","","","","","","","","","","",""
"","","","","","image-button-response","208","477501","0.0-3.0-2.0-1.13","5d5b67ab9ad5a300181398dc","F1","batch6","","6664.099999904633","img/question_2_2.jpeg","5","spm_respsonse","1","6","mat_14","","","","","","1","6664.099999904633","","","","","","","","","","","","","","",""
"","","","","","html-keyboard-response","209","478572","0.0-3.0-2.0-0.14","5d5b67ab9ad5a300181398dc","F1","batch6","","null","<p class=block-text>Trial 15 out of 60</p>","null","spm_show_trial_num","","","","","","","","","","","","","","","","","","","","","","","","",""
"","","","","","image-button-response","210","484460","0.0-3.0-2.0-1.14","5d5b67ab9ad5a300181398dc","F1","batch6","","5885.700000047684","img/question_2_3.jpeg","0","spm_respsonse","1","1","mat_15","","","","","","1","5885.700000047684","","","","","","","","","","","","","","",""
"","","","","","html-keyboard-response","211","485531","0.0-3.0-2.0-0.15","5d5b67ab9ad5a300181398dc","F1","batch6","","null","<p class=block-text>Trial 16 out of 60</p>","null","spm_show_trial_num","","","","","","","","","","","","","","","","","","","","","","","","",""
"","","","","","image-button-response","212","490182","0.0-3.0-2.0-1.15","5d5b67ab9ad5a300181398dc","F1","batch6","","4648.5","img/question_2_4.jpeg","1","spm_respsonse","1","2","mat_16","","","","","","1","4648.5","","","","","","","","","","","","","","",""
"","","","","","html-keyboard-response","213","491252","0.0-3.0-2.0-0.16","5d5b67ab9ad5a300181398dc","F1","batch6","","null","<p class=block-text>Trial 17 out of 60</p>","null","spm_show_trial_num","","","","","","","","","","","","","","","","","","","","","","","","",""
"","","","","","image-button-response","214","497375","0.0-3.0-2.0-1.16","5d5b67ab9ad5a300181398dc","F1","batch6","","6116.599999904633","img/question_2_5.jpeg","0","spm_respsonse","1","1","mat_17","","","","","","1","6116.599999904633","","","","","","","","","","","","","","",""
"","","","","","html-keyboard-response","215","498445","0.0-3.0-2.0-0.17","5d5b67ab9ad5a300181398dc","F1","batch6","","null","<p class=block-text>Trial 18 out of 60</p>","null","spm_show_trial_num","","","","","","","","","","","","","","","","","","","","","","","","",""
"","","","","","image-button-response","216","505860","0.0-3.0-2.0-1.17","5d5b67ab9ad5a300181398dc","F1","batch6","","7412.699999809265","img/question_2_6.jpeg","2","spm_respsonse","1","3","mat_18","","","","","","1","7412.699999809265","","","","","","","","","","","","","","",""
"","","","","","html-keyboard-response","217","506927","0.0-3.0-2.0-0.18","5d5b67ab9ad5a300181398dc","F1","batch6","","null","<p class=block-text>Trial 19 out of 60</p>","null","spm_show_trial_num","","","","","","","","","","","","","","","","","","","","","","","","",""
"","","","","","image-button-response","218","513268","0.0-3.0-2.0-1.18","5d5b67ab9ad5a300181398dc","F1","batch6","","6338.5","img/question_2_7.jpeg","4","spm_respsonse","1","5","mat_19","","","","","","1","6338.5","","","","","","","","","","","","","","",""
"","","","","","html-keyboard-response","219","514333","0.0-3.0-2.0-0.19","5d5b67ab9ad5a300181398dc","F1","batch6","","null","<p class=block-text>Trial 20 out of 60</p>","null","spm_show_trial_num","","","","","","","","","","","","","","","","","","","","","","","","",""
"","","","","","image-button-response","220","524350","0.0-3.0-2.0-1.19","5d5b67ab9ad5a300181398dc","F1","batch6","","10015.100000143051","img/question_2_8.jpeg","5","spm_respsonse","1","6","mat_20","","","","","","1","10015.100000143051","","","","","","","","","","","","","","",""
"","","","","","html-keyboard-response","221","525418","0.0-3.0-2.0-0.20","5d5b67ab9ad5a300181398dc","F1","batch6","","null","<p class=block-text>Trial 21 out of 60</p>","null","spm_show_trial_num","","","","","","","","","","","","","","","","","","","","","","","","",""
"","","","","","image-button-response","222","531534","0.0-3.0-2.0-1.20","5d5b67ab9ad5a300181398dc","F1","batch6","","6113","img/question_2_9.jpeg","3","spm_respsonse","1","4","mat_21","","","","","","1","6113","","","","","","","","","","","","","","",""
"","","","","","html-keyboard-response","223","532603","0.0-3.0-2.0-0.21","5d5b67ab9ad5a300181398dc","F1","batch6","","null","<p class=block-text>Trial 22 out of 60</p>","null","spm_show_trial_num","","","","","","","","","","","","","","","","","","","","","","","","",""
"","","","","","image-button-response","224","539806","0.0-3.0-2.0-1.21","5d5b67ab9ad5a300181398dc","F1","batch6","","7201.200000047684","img/question_2_10.jpeg","2","spm_respsonse","1","3","mat_22","","","","","","1","7201.200000047684","","","","","","","","","","","","","","",""
"","","","","","html-keyboard-response","225","540878","0.0-3.0-2.0-0.22","5d5b67ab9ad5a300181398dc","F1","batch6","","null","<p class=block-text>Trial 23 out of 60</p>","null","spm_show_trial_num","","","","","","","","","","","","","","","","","","","","","","","","",""
"","","","","","image-button-response","226","562422","0.0-3.0-2.0-1.22","5d5b67ab9ad5a300181398dc","F1","batch6","","21541.5","img/question_2_11.jpeg","3","spm_respsonse","1","4","mat_23","","","","","","1","21541.5","","","","","","","","","","","","","","",""
"","","","","","html-keyboard-response","227","563496","0.0-3.0-2.0-0.23","5d5b67ab9ad5a300181398dc","F1","batch6","","null","<p class=block-text>Trial 24 out of 60</p>","null","spm_show_trial_num","","","","","","","","","","","","","","","","","","","","","","","","",""
"","","","","","image-button-response","228","580790","0.0-3.0-2.0-1.23","5d5b67ab9ad5a300181398dc","F1","batch6","","17291.5","img/question_2_12.jpeg","4","spm_respsonse","1","5","mat_24","","","","","","1","17291.5","","","","","","","","","","","","","","",""
"","","","","","html-button-response","229","582869","0.0-3.0-3.0","5d5b67ab9ad5a300181398dc","F1","batch6","","1824.7999999523163","<p class = block-text>Attention check: Please choose 1<br></p>","0","attention_check","true","","","","","","","","","","","","","","","","","","","","","","","",""
"","","","","","html-keyboard-response","230","583682","0.0-3.0-4.0-0.0","5d5b67ab9ad5a300181398dc","F1","batch6","","null","<p class=block-text>Trial 25 out of 60</p>","null","spm_show_trial_num","","","","","","","","","","","","","","","","","","","","","","","","",""
"","","","","","image-button-response","231","599774","0.0-3.0-4.0-1.0","5d5b67ab9ad5a300181398dc","F1","batch6","","16089.100000143051","img/question_3_1.jpeg","7","spm_respsonse","1","8","mat_25","","","","","","1","16089.100000143051","","","","","","","","","","","","","","",""
"","","","","","html-keyboard-response","232","600844","0.0-3.0-4.0-0.1","5d5b67ab9ad5a300181398dc","F1","batch6","","null","<p class=block-text>Trial 26 out of 60</p>","null","spm_show_trial_num","","","","","","","","","","","","","","","","","","","","","","","","",""
"","","","","","image-button-response","233","612337","0.0-3.0-4.0-1.1","5d5b67ab9ad5a300181398dc","F1","batch6","","11491.299999952316","img/question_3_2.jpeg","1","spm_respsonse","1","2","mat_26","","","","","","1","11491.299999952316","","","","","","","","","","","","","","",""
"","","","","","html-keyboard-response","234","613410","0.0-3.0-4.0-0.2","5d5b67ab9ad5a300181398dc","F1","batch6","","null","<p class=block-text>Trial 27 out of 60</p>","null","spm_show_trial_num","","","","","","","","","","","","","","","","","","","","","","","","",""
"","","","","","image-button-response","235","621338","0.0-3.0-4.0-1.2","5d5b67ab9ad5a300181398dc","F1","batch6","","7925.900000095367","img/question_3_3.jpeg","2","spm_respsonse","1","3","mat_27","","","","","","1","7925.900000095367","","","","","","","","","","","","","","",""
"","","","","","html-keyboard-response","236","622406","0.0-3.0-4.0-0.3","5d5b67ab9ad5a300181398dc","F1","batch6","","null","<p class=block-text>Trial 28 out of 60</p>","null","spm_show_trial_num","","","","","","","","","","","","","","","","","","","","","","","","",""
"","","","","","image-button-response","237","640142","0.0-3.0-4.0-1.3","5d5b67ab9ad5a300181398dc","F1","batch6","","17733.699999809265","img/question_3_4.jpeg","7","spm_respsonse","1","8","mat_28","","","","","","1","17733.699999809265","","","","","","","","","","","","","","",""
"","","","","","html-keyboard-response","238","641206","0.0-3.0-4.0-0.4","5d5b67ab9ad5a300181398dc","F1","batch6","","null","<p class=block-text>Trial 29 out of 60</p>","null","spm_show_trial_num","","","","","","","","","","","","","","","","","","","","","","","","",""
"","","","","","image-button-response","239","651532","0.0-3.0-4.0-1.4","5d5b67ab9ad5a300181398dc","F1","batch6","","10322.799999952316","img/question_3_5.jpeg","6","spm_respsonse","1","7","mat_29","","","","","","1","10322.799999952316","","","","","","","","","","","","","","",""
"","","","","","html-keyboard-response","240","652590","0.0-3.0-4.0-0.5","5d5b67ab9ad5a300181398dc","F1","batch6","","null","<p class=block-text>Trial 30 out of 60</p>","null","spm_show_trial_num","","","","","","","","","","","","","","","","","","","","","","","","",""
"","","","","","image-button-response","241","662275","0.0-3.0-4.0-1.5","5d5b67ab9ad5a300181398dc","F1","batch6","","9682.200000047684","img/question_3_6.jpeg","3","spm_respsonse","1","4","mat_30","","","","","","1","9682.200000047684","","","","","","","","","","","","","","",""
"","","","","","html-keyboard-response","242","663339","0.0-3.0-4.0-0.6","5d5b67ab9ad5a300181398dc","F1","batch6","","null","<p class=block-text>Trial 31 out of 60</p>","null","spm_show_trial_num","","","","","","","","","","","","","","","","","","","","","","","","",""
"","","","","","image-button-response","243","679320","0.0-3.0-4.0-1.6","5d5b67ab9ad5a300181398dc","F1","batch6","","15978.799999952316","img/question_3_7.jpeg","4","spm_respsonse","1","5","mat_31","","","","","","1","15978.799999952316","","","","","","","","","","","","","","",""
"","","","","","html-keyboard-response","244","680374","0.0-3.0-4.0-0.7","5d5b67ab9ad5a300181398dc","F1","batch6","","null","<p class=block-text>Trial 32 out of 60</p>","null","spm_show_trial_num","","","","","","","","","","","","","","","","","","","","","","","","",""
"","","","","","image-button-response","245","739946","0.0-3.0-4.0-1.7","5d5b67ab9ad5a300181398dc","F1","batch6","","59570","img/question_3_8.jpeg","3","spm_respsonse","0","1","mat_32","","","","","","0","59570","","","","","","","","","","","","","","",""
"","","","","","html-keyboard-response","246","741011","0.0-3.0-4.0-0.8","5d5b67ab9ad5a300181398dc","F1","batch6","","null","<p class=block-text>Trial 33 out of 60</p>","null","spm_show_trial_num","","","","","","","","","","","","","","","","","","","","","","","","",""
"","","","","","image-button-response","247","755171","0.0-3.0-4.0-1.8","5d5b67ab9ad5a300181398dc","F1","batch6","","14157.399999856949","img/question_3_9.jpeg","6","spm_respsonse","1","7","mat_33","","","","","","1","14157.399999856949","","","","","","","","","","","","","","",""
"","","","","","html-keyboard-response","248","756242","0.0-3.0-4.0-0.9","5d5b67ab9ad5a300181398dc","F1","batch6","","null","<p class=block-text>Trial 34 out of 60</p>","null","spm_show_trial_num","","","","","","","","","","","","","","","","","","","","","","","","",""
"","","","","","image-button-response","249","793794","0.0-3.0-4.0-1.9","5d5b67ab9ad5a300181398dc","F1","batch6","","37549.40000009537","img/question_3_10.jpeg","7","spm_respsonse","0","6","mat_34","","","","","","0","37549.40000009537","","","","","","","","","","","","","","",""
"","","","","","html-keyboard-response","250","794856","0.0-3.0-4.0-0.10","5d5b67ab9ad5a300181398dc","F1","batch6","","null","<p class=block-text>Trial 35 out of 60</p>","null","spm_show_trial_num","","","","","","","","","","","","","","","","","","","","","","","","",""
"","","","","","image-button-response","251","808300","0.0-3.0-4.0-1.10","5d5b67ab9ad5a300181398dc","F1","batch6","","13441.099999904633","img/question_3_11.jpeg","0","spm_respsonse","1","1","mat_35","","","","","","1","13441.099999904633","","","","","","","","","","","","","","",""
"","","","","","html-keyboard-response","252","809371","0.0-3.0-4.0-0.11","5d5b67ab9ad5a300181398dc","F1","batch6","","null","<p class=block-text>Trial 36 out of 60</p>","null","spm_show_trial_num","","","","","","","","","","","","","","","","","","","","","","","","",""
"","","","","","image-button-response","253","839904","0.0-3.0-4.0-1.11","5d5b67ab9ad5a300181398dc","F1","batch6","","30530.599999904633","img/question_3_12.jpeg","1","spm_respsonse","1","2","mat_36","","","","","","1","30530.599999904633","","","","","","","","","","","","","","",""
"","","","","","html-keyboard-response","254","840979","0.0-3.0-4.0-0.12","5d5b67ab9ad5a300181398dc","F1","batch6","","null","<p class=block-text>Trial 37 out of 60</p>","null","spm_show_trial_num","","","","","","","","","","","","","","","","","","","","","","","","",""
"","","","","","image-button-response","255","844928","0.0-3.0-4.0-1.12","5d5b67ab9ad5a300181398dc","F1","batch6","","3946.5999999046326","img/question_4_1.jpeg","2","spm_respsonse","1","3","mat_37","","","","","","1","3946.5999999046326","","","","","","","","","","","","","","",""
"","","","","","html-keyboard-response","256","845990","0.0-3.0-4.0-0.13","5d5b67ab9ad5a300181398dc","F1","batch6","","null","<p class=block-text>Trial 38 out of 60</p>","null","spm_show_trial_num","","","","","","","","","","","","","","","","","","","","","","","","",""
"","","","","","image-button-response","257","852178","0.0-3.0-4.0-1.13","5d5b67ab9ad5a300181398dc","F1","batch6","","6185","img/question_4_2.jpeg","3","spm_respsonse","1","4","mat_38","","","","","","1","6185","","","","","","","","","","","","","","",""
"","","","","","html-keyboard-response","258","853241","0.0-3.0-4.0-0.14","5d5b67ab9ad5a300181398dc","F1","batch6","","null","<p class=block-text>Trial 39 out of 60</p>","null","spm_show_trial_num","","","","","","","","","","","","","","","","","","","","","","","","",""
"","","","","","image-button-response","259","865881","0.0-3.0-4.0-1.14","5d5b67ab9ad5a300181398dc","F1","batch6","","12638.599999904633","img/question_4_3.jpeg","2","spm_respsonse","1","3","mat_39","","","","","","1","12638.599999904633","","","","","","","","","","","","","","",""
"","","","","","html-keyboard-response","260","866956","0.0-3.0-4.0-0.15","5d5b67ab9ad5a300181398dc","F1","batch6","","null","<p class=block-text>Trial 40 out of 60</p>","null","spm_show_trial_num","","","","","","","","","","","","","","","","","","","","","","","","",""
"","","","","","image-button-response","261","873798","0.0-3.0-4.0-1.15","5d5b67ab9ad5a300181398dc","F1","batch6","","6839.5","img/question_4_4.jpeg","6","spm_respsonse","1","7","mat_40","","","","","","1","6839.5","","","","","","","","","","","","","","",""
"","","","","","html-keyboard-response","262","874862","0.0-3.0-4.0-0.16","5d5b67ab9ad5a300181398dc","F1","batch6","","null","<p class=block-text>Trial 41 out of 60</p>","null","spm_show_trial_num","","","","","","","","","","","","","","","","","","","","","","","","",""
"","","","","","image-button-response","263","884027","0.0-3.0-4.0-1.16","5d5b67ab9ad5a300181398dc","F1","batch6","","9162.899999856949","img/question_4_5.jpeg","7","spm_respsonse","1","8","mat_41","","","","","","1","9162.899999856949","","","","","","","","","","","","","","",""
"","","","","","html-keyboard-response","264","885092","0.0-3.0-4.0-0.17","5d5b67ab9ad5a300181398dc","F1","batch6","","null","<p class=block-text>Trial 42 out of 60</p>","null","spm_show_trial_num","","","","","","","","","","","","","","","","","","","","","","","","",""
"","","","","","image-button-response","265","907911","0.0-3.0-4.0-1.17","5d5b67ab9ad5a300181398dc","F1","batch6","","22817.099999904633","img/question_4_6.jpeg","5","spm_respsonse","1","6","mat_42","","","","","","1","22817.099999904633","","","","","","","","","","","","","","",""
"","","","","","html-keyboard-response","266","908972","0.0-3.0-4.0-0.18","5d5b67ab9ad5a300181398dc","F1","batch6","","null","<p class=block-text>Trial 43 out of 60</p>","null","spm_show_trial_num","","","","","","","","","","","","","","","","","","","","","","","","",""
"","","","","","image-button-response","267","929118","0.0-3.0-4.0-1.18","5d5b67ab9ad5a300181398dc","F1","batch6","","20143.400000095367","img/question_4_7.jpeg","6","spm_respsonse","0","5","mat_43","","","","","","0","20143.400000095367","","","","","","","","","","","","","","",""
"","","","","","html-keyboard-response","268","930187","0.0-3.0-4.0-0.19","5d5b67ab9ad5a300181398dc","F1","batch6","","null","<p class=block-text>Trial 44 out of 60</p>","null","spm_show_trial_num","","","","","","","","","","","","","","","","","","","","","","","","",""
"","","","","","image-button-response","269","943755","0.0-3.0-4.0-1.19","5d5b67ab9ad5a300181398dc","F1","batch6","","13564.599999904633","img/question_4_8.jpeg","3","spm_respsonse","1","4","mat_44","","","","","","1","13564.599999904633","","","","","","","","","","","","","","",""
"","","","","","html-keyboard-response","270","944833","0.0-3.0-4.0-0.20","5d5b67ab9ad5a300181398dc","F1","batch6","","null","<p class=block-text>Trial 45 out of 60</p>","null","spm_show_trial_num","","","","","","","","","","","","","","","","","","","","","","","","",""
"","","","","","image-button-response","271","976960","0.0-3.0-4.0-1.20","5d5b67ab9ad5a300181398dc","F1","batch6","","32125.299999952316","img/question_4_9.jpeg","0","spm_respsonse","1","1","mat_45","","","","","","1","32125.299999952316","","","","","","","","","","","","","","",""
"","","","","","html-keyboard-response","272","978034","0.0-3.0-4.0-0.21","5d5b67ab9ad5a300181398dc","F1","batch6","","null","<p class=block-text>Trial 46 out of 60</p>","null","spm_show_trial_num","","","","","","","","","","","","","","","","","","","","","","","","",""
"","","","","","image-button-response","273","1020479","0.0-3.0-4.0-1.21","5d5b67ab9ad5a300181398dc","F1","batch6","","42442.5","img/question_4_10.jpeg","1","spm_respsonse","1","2","mat_46","","","","","","1","42442.5","","","","","","","","","","","","","","",""
"","","","","","html-keyboard-response","274","1021543","0.0-3.0-4.0-0.22","5d5b67ab9ad5a300181398dc","F1","batch6","","null","<p class=block-text>Trial 47 out of 60</p>","null","spm_show_trial_num","","","","","","","","","","","","","","","","","","","","","","","","",""
"","","","","","image-button-response","275","1035442","0.0-3.0-4.0-1.22","5d5b67ab9ad5a300181398dc","F1","batch6","","13895.600000143051","img/question_4_11.jpeg","5","spm_respsonse","0","5","mat_47","","","","","","0","13895.600000143051","","","","","","","","","","","","","","",""
"","","","","","html-keyboard-response","276","1036512","0.0-3.0-4.0-0.23","5d5b67ab9ad5a300181398dc","F1","batch6","","null","<p class=block-text>Trial 48 out of 60</p>","null","spm_show_trial_num","","","","","","","","","","","","","","","","","","","","","","","","",""
"","","","","","image-button-response","277","1077064","0.0-3.0-4.0-1.23","5d5b67ab9ad5a300181398dc","F1","batch6","","40550.5","img/question_4_12.jpeg","1","spm_respsonse","0","6","mat_48","","","","","","0","40550.5","","","","","","","","","","","","","","",""
"","","","","","html-keyboard-response","278","1078135","0.0-3.0-4.0-0.24","5d5b67ab9ad5a300181398dc","F1","batch6","","null","<p class=block-text>Trial 49 out of 60</p>","null","spm_show_trial_num","","","","","","","","","","","","","","","","","","","","","","","","",""
"","","","","","image-button-response","279","1091354","0.0-3.0-4.0-1.24","5d5b67ab9ad5a300181398dc","F1","batch6","","13216.399999856949","img/question_5_1.jpeg","6","spm_respsonse","1","7","mat_49","","","","","","1","13216.399999856949","","","","","","","","","","","","","","",""
"","","","","","html-keyboard-response","280","1092422","0.0-3.0-4.0-0.25","5d5b67ab9ad5a300181398dc","F1","batch6","","null","<p class=block-text>Trial 50 out of 60</p>","null","spm_show_trial_num","","","","","","","","","","","","","","","","","","","","","","","","",""
"","","","","","image-button-response","281","1121175","0.0-3.0-4.0-1.25","5d5b67ab9ad5a300181398dc","F1","batch6","","28750.300000190735","img/question_5_2.jpeg","5","spm_respsonse","1","6","mat_50","","","","","","1","28750.300000190735","","","","","","","","","","","","","","",""
"","","","","","html-keyboard-response","282","1122250","0.0-3.0-4.0-0.26","5d5b67ab9ad5a300181398dc","F1","batch6","","null","<p class=block-text>Trial 51 out of 60</p>","null","spm_show_trial_num","","","","","","","","","","","","","","","","","","","","","","","","",""
"","","","","","image-button-response","283","1138427","0.0-3.0-4.0-1.26","5d5b67ab9ad5a300181398dc","F1","batch6","","16175","img/question_5_3.jpeg","7","spm_respsonse","1","8","mat_51","","","","","","1","16175","","","","","","","","","","","","","","",""
"","","","","","html-keyboard-response","284","1139495","0.0-3.0-4.0-0.27","5d5b67ab9ad5a300181398dc","F1","batch6","","null","<p class=block-text>Trial 52 out of 60</p>","null","spm_show_trial_num","","","","","","","","","","","","","","","","","","","","","","","","",""
"","","","","","image-button-response","285","1151638","0.0-3.0-4.0-1.27","5d5b67ab9ad5a300181398dc","F1","batch6","","12140.400000095367","img/question_5_4.jpeg","1","spm_respsonse","1","2","mat_52","","","","","","1","12140.400000095367","","","","","","","","","","","","","","",""
"","","","","","html-keyboard-response","286","1152697","0.0-3.0-4.0-0.28","5d5b67ab9ad5a300181398dc","F1","batch6","","null","<p class=block-text>Trial 53 out of 60</p>","null","spm_show_trial_num","","","","","","","","","","","","","","","","","","","","","","","","",""
"","","","","","image-button-response","287","1161451","0.0-3.0-4.0-1.28","5d5b67ab9ad5a300181398dc","F1","batch6","","8751.200000047684","img/question_5_5.jpeg","0","spm_respsonse","1","1","mat_53","","","","","","1","8751.200000047684","","","","","","","","","","","","","","",""
"","","","","","html-keyboard-response","288","1162522","0.0-3.0-4.0-0.29","5d5b67ab9ad5a300181398dc","F1","batch6","","null","<p class=block-text>Trial 54 out of 60</p>","null","spm_show_trial_num","","","","","","","","","","","","","","","","","","","","","","","","",""
"","","","","","image-button-response","289","1179622","0.0-3.0-4.0-1.29","5d5b67ab9ad5a300181398dc","F1","batch6","","17097.900000095367","img/question_5_6.jpeg","5","spm_respsonse","0","5","mat_54","","","","","","0","17097.900000095367","","","","","","","","","","","","","","",""
"","","","","","html-keyboard-response","290","1180688","0.0-3.0-4.0-0.30","5d5b67ab9ad5a300181398dc","F1","batch6","","null","<p class=block-text>Trial 55 out of 60</p>","null","spm_show_trial_num","","","","","","","","","","","","","","","","","","","","","","","","",""
"","","","","","image-button-response","291","1209840","0.0-3.0-4.0-1.30","5d5b67ab9ad5a300181398dc","F1","batch6","","29150.099999904633","img/question_5_7.jpeg","3","spm_respsonse","0","1","mat_55","","","","","","0","29150.099999904633","","","","","","","","","","","","","","",""
"","","","","","html-keyboard-response","292","1210909","0.0-3.0-4.0-0.31","5d5b67ab9ad5a300181398dc","F1","batch6","","null","<p class=block-text>Trial 56 out of 60</p>","null","spm_show_trial_num","","","","","","","","","","","","","","","","","","","","","","","","",""
"","","","","","image-button-response","293","1230882","0.0-3.0-4.0-1.31","5d5b67ab9ad5a300181398dc","F1","batch6","","19970.89999985695","img/question_5_8.jpeg","5","spm_respsonse","1","6","mat_56","","","","","","1","19970.89999985695","","","","","","","","","","","","","","",""
"","","","","","html-keyboard-response","294","1231947","0.0-3.0-4.0-0.32","5d5b67ab9ad5a300181398dc","F1","batch6","","null","<p class=block-text>Trial 57 out of 60</p>","null","spm_show_trial_num","","","","","","","","","","","","","","","","","","","","","","","","",""
"","","","","","image-button-response","295","1256418","0.0-3.0-4.0-1.32","5d5b67ab9ad5a300181398dc","F1","batch6","","24469.799999952316","img/question_5_9.jpeg","6","spm_respsonse","0","3","mat_57","","","","","","0","24469.799999952316","","","","","","","","","","","","","","",""
"","","","","","html-keyboard-response","296","1257473","0.0-3.0-4.0-0.33","5d5b67ab9ad5a300181398dc","F1","batch6","","null","<p class=block-text>Trial 58 out of 60</p>","null","spm_show_trial_num","","","","","","","","","","","","","","","","","","","","","","","","",""
"","","","","","image-button-response","297","1273410","0.0-3.0-4.0-1.33","5d5b67ab9ad5a300181398dc","F1","batch6","","15934.5","img/question_5_10.jpeg","0","spm_respsonse","0","2","mat_58","","","","","","0","15934.5","","","","","","","","","","","","","","",""
"","","","","","html-keyboard-response","298","1274471","0.0-3.0-4.0-0.34","5d5b67ab9ad5a300181398dc","F1","batch6","","null","<p class=block-text>Trial 59 out of 60</p>","null","spm_show_trial_num","","","","","","","","","","","","","","","","","","","","","","","","",""
"","","","","","image-button-response","299","1293912","0.0-3.0-4.0-1.34","5d5b67ab9ad5a300181398dc","F1","batch6","","19438.799999952316","img/question_5_11.jpeg","2","spm_respsonse","0","4","mat_59","","","","","","0","19438.799999952316","","","","","","","","","","","","","","",""
"","","","","","html-keyboard-response","300","1294978","0.0-3.0-4.0-0.35","5d5b67ab9ad5a300181398dc","F1","batch6","","null","<p class=block-text>Trial 60 out of 60</p>","null","spm_show_trial_num","","","","","","","","","","","","","","","","","","","","","","","","",""
"","","","","","image-button-response","301","1303651","0.0-3.0-4.0-1.35","5d5b67ab9ad5a300181398dc","F1","batch6","","8670.700000047684","img/question_5_12.jpeg","3","spm_respsonse","0","5","mat_60","","","","","","0","8670.700000047684","","","","","","","","","","","","","","",""
"","","","","","html-button-response","302","1307676","0.0-3.0-5.0","5d5b67ab9ad5a300181398dc","F1","batch6","","3762.0999999046326","<p class= block-text>This concludes the Standard Progressive Matrix game. Thank you for your responses!<br> When you are ready, click the button continue</p>","0","spm_goodbye","","","","","","","","","","","","","","","","","","","","","","","","",""
"true","","","","","fullscreen","303","1317912","0.0-4.0-0.0","5d5b67ab9ad5a300181398dc","F1","batch6","","","","","","","","","","","","","","","","","","","","","","","","","","","","","",""
"","","","","","instructions","304","1358954","0.0-4.0-1.0-0.0-0.0","5d5b67ab9ad5a300181398dc","F1","batch6","[{""page_index"":0,""viewing_time"":8909.400000095367},{""page_index"":1,""viewing_time"":5054.299999952316},{""page_index"":2,""viewing_time"":3960.2000000476837},{""page_index"":3,""viewing_time"":5287.599999904633},{""page_index"":4,""viewing_time"":3402},{""page_index"":5,""viewing_time"":11081},{""page_index"":6,""viewing_time"":3346.9000000953674}]","41041.60000014305","","","tol-instructions","","","","","","","","","","","","","","","","","","","","","","","","",""
"","","","","","html-button-response","305","1360220","0.0-4.0-1.0-1.0-0.0","5d5b67ab9ad5a300181398dc","F1","batch6","","1264.9000000953674","<p class=block-text> Let's answer a few questions <br>","0","tol_enter_quiz","","","","","","","","","","","","","","","","","","","","","","","","",""
"","","","","","html-button-response","306","1362221","0.0-4.0-1.0-1.0-1.0","5d5b67ab9ad5a300181398dc","F1","batch6","","2000","<p class = block-text>True or False: You can only move the ball on top of a peg. <br></p>","1","tol_quiz","false","","","","","","","","","","","","","","","","","","","","","","","",""
"","","","","","html-button-response","307","1363142","0.0-4.0-1.0-1.0-2.0","5d5b67ab9ad5a300181398dc","F1","batch6","","920.2999999523163","<p class = block-text>Incorrect. Remember, you can only move the ball on top of a peg.</p>","0","tol_quiz_feedback","","","","","","","","","","","","","","","","","","","","","","","","",""
"","","","","","html-button-response","308","1365664","0.0-4.0-1.0-1.0-3.0","5d5b67ab9ad5a300181398dc","F1","batch6","","2521.7000000476837","<p class = block-text>True or False: You should try to match your board with the target board with fewest moves possible. <br></p>","0","tol_quiz","true","","","","","","","","","","","","","","","","","","","","","","","",""
"","","","","","html-button-response","309","1366582","0.0-4.0-1.0-1.0-4.0","5d5b67ab9ad5a300181398dc","F1","batch6","","917","<p class = block-text>Correct! </p>","0","tol_quiz_feedback","","","","","","","","","","","","","","","","","","","","","","","","",""
"","","","","","html-button-response","310","1368362","0.0-4.0-1.0-2.0-0.0","5d5b67ab9ad5a300181398dc","F1","batch6","","1779.2000000476837","<p class = block-text>You made too many incorrect choices.</p><p class = block-text>You will now repeat the instructions and quiz</p>","0","","","","","","","","","","","","","","","","","","","","","","","","","",""
"","","","","","instructions","311","1374281","0.0-4.0-1.1-0.1-0.1","5d5b67ab9ad5a300181398dc","F1","batch6","[{""page_index"":0,""viewing_time"":1131.7999999523163},{""page_index"":1,""viewing_time"":187.5},{""page_index"":2,""viewing_time"":479.5},{""page_index"":3,""viewing_time"":504.5},{""page_index"":4,""viewing_time"":522.2000000476837},{""page_index"":5,""viewing_time"":447.90000009536743},{""page_index"":6,""viewing_time"":2645.899999856949}]","5919.400000095367","","","tol-instructions","","","","","","","","","","","","","","","","","","","","","","","","",""
"","","","","","html-button-response","312","1375280","0.0-4.0-1.1-1.1-0.1","5d5b67ab9ad5a300181398dc","F1","batch6","","997.7999999523163","<p class=block-text> Let's answer a few questions <br>","0","tol_enter_quiz","","","","","","","","","","","","","","","","","","","","","","","","",""
"","","","","","html-button-response","313","1377982","0.0-4.0-1.1-1.1-1.1","5d5b67ab9ad5a300181398dc","F1","batch6","","2701.2999999523163","<p class = block-text>True or False: You can only move the ball on top of a peg. <br></p>","0","tol_quiz","true","","","","","","","","","","","","","","","","","","","","","","","",""
"","","","","","html-button-response","314","1379842","0.0-4.0-1.1-1.1-2.1","5d5b67ab9ad5a300181398dc","F1","batch6","","1859.1000001430511","<p class = block-text>Correct! You can only move the ball on top of a peg.</p>","0","tol_quiz_feedback","","","","","","","","","","","","","","","","","","","","","","","","",""
"","","","","","html-button-response","315","1381316","0.0-4.0-1.1-1.1-3.1","5d5b67ab9ad5a300181398dc","F1","batch6","","1474","<p class = block-text>True or False: You should try to match your board with the target board with fewest moves possible. <br></p>","0","tol_quiz","true","","","","","","","","","","","","","","","","","","","","","","","",""
"","","","","","html-button-response","316","1384431","0.0-4.0-1.1-1.1-4.1","5d5b67ab9ad5a300181398dc","F1","batch6","","3114.4000000953674","<p class = block-text>Correct! </p>","0","tol_quiz_feedback","","","","","","","","","","","","","","","","","","","","","","","","",""
"","","","","","html-button-response","317","1385710","0.0-4.0-2.0","5d5b67ab9ad5a300181398dc","F1","batch6","","1278","<p class=block-text> Now that you've understood the game, let's practice a few easier examples before we start!<br> <br>","0","","","","","","","","","","","","","","","","","","","","","","","","","",""
"","","","","","single-stim-button","318","1388071","0.0-4.0-3.0-0.0","5d5b67ab9ad5a300181398dc","F1","batch6","","2360","","","tol_practice","","","","","","","","","","","tol_peg_2","2360","2360","0","[[1,2,0],[0,0],[0]]","1","[[1,2,0],[0,0],[3]]","practice","2360","","","","","",""
"","","","","","single-stim-button","319","1389564","0.0-4.0-3.0-1.0","5d5b67ab9ad5a300181398dc","F1","batch6","","1493","","","tol_practice","","","","","","","","","","","tol_peg_3","1493","1493","0","[[1,2,0],[0,0],[3]]","1","[[1,2,0],[0,0],[3]]","practice","1493","","","","","",""
"","","","","","poldrack-single-stim","320","1390568","0.0-4.0-4.0","5d5b67ab9ad5a300181398dc","F1","batch6","","-1","","","tol_feedback","true","","","","","","","","","","","1000","1000","500","","","","","","-1","none","true","","0",""
"","","","","","single-stim-button","321","1394824","0.0-4.0-5.0-0.0","5d5b67ab9ad5a300181398dc","F1","batch6","","4255","","","tol_practice","","","","","","","","","","","tol_peg_1","4255","4255","0","[[1,0,0],[3,0],[0]]","2","[[0,0,0],[3,1],[2]]","practice","4255","","","","","",""
"","","","","","single-stim-button","322","1397138","0.0-4.0-5.0-1.0","5d5b67ab9ad5a300181398dc","F1","batch6","","2314","","","tol_practice","","","","","","","","","","","tol_peg_3","2314","2314","0","[[1,0,0],[3,0],[2]]","2","[[0,0,0],[3,1],[2]]","practice","2314","","","","","",""
"","","","","","single-stim-button","323","1398130","0.0-4.0-5.1-0.1","5d5b67ab9ad5a300181398dc","F1","batch6","","991","","","tol_practice","","","","","","","","","","","tol_peg_1","991","991","0","[[0,0,0],[3,0],[2]]","3","[[0,0,0],[3,1],[2]]","practice","991","","","","","",""
"","","","","","single-stim-button","324","1399394","0.0-4.0-5.1-1.1","5d5b67ab9ad5a300181398dc","F1","batch6","","1264","","","tol_practice","","","","","","","","","","","tol_peg_2","1264","1264","0","[[0,0,0],[3,1],[2]]","3","[[0,0,0],[3,1],[2]]","practice","1264","","","","","",""
"","","","","","poldrack-single-stim","325","1400400","0.0-4.0-6.0","5d5b67ab9ad5a300181398dc","F1","batch6","","-1","","","tol_feedback","true","","","","","","","","","","","1000","1000","500","","","","","","-1","none","true","","0",""
"","","","","","single-stim-button","326","1404591","0.0-4.0-7.0-0.0","5d5b67ab9ad5a300181398dc","F1","batch6","","4191","","","tol_practice","","","","","","","","","","","tol_peg_2","4191","4191","0","[[1,2,0],[0,0],[0]]","4","[[1,0,0],[2,0],[3]]","practice","4191","","","","","",""
"","","","","","single-stim-button","327","1406376","0.0-4.0-7.0-1.0","5d5b67ab9ad5a300181398dc","F1","batch6","","1784","","","tol_practice","","","","","","","","","","","tol_peg_3","1784","1784","0","[[1,2,0],[0,0],[3]]","4","[[1,0,0],[2,0],[3]]","practice","1784","","","","","",""
"","","","","","single-stim-button","328","1407857","0.0-4.0-7.1-0.1","5d5b67ab9ad5a300181398dc","F1","batch6","","1481","","","tol_practice","","","","","","","","","","","tol_peg_1","1481","1481","0","[[1,0,0],[0,0],[3]]","5","[[1,0,0],[2,0],[3]]","practice","1481","","","","","",""
"","","","","","single-stim-button","329","1409108","0.0-4.0-7.1-1.1","5d5b67ab9ad5a300181398dc","F1","batch6","","1249","","","tol_practice","","","","","","","","","","","tol_peg_2","1249","1249","0","[[1,0,0],[2,0],[3]]","5","[[1,0,0],[2,0],[3]]","practice","1249","","","","","",""
"","","","","","poldrack-single-stim","330","1410125","0.0-4.0-8.0","5d5b67ab9ad5a300181398dc","F1","batch6","","-1","","","tol_feedback","true","","","","","","","","","","","1000","1000","500","","","","","","-1","none","true","","0",""
"","","","","","html-button-response","331","1414986","0.0-4.0-9.0","5d5b67ab9ad5a300181398dc","F1","batch6","","4859.299999952316","<div class = centerbox><p class = center-block-text>Great job! You are done with practice trials<br>You are about to start official trials.<br> <br> Problem <strong>1</strong> out of 25 problems</p></div>","0","tol_instruction","","","","","","","","","","","","","","","","","","","","","","","","",""
"","","","","","single-stim-button","332","1421764","0.0-4.0-10.0-0.0","5d5b67ab9ad5a300181398dc","F1","batch6","","5777","","","tol_tohand","","","","","","","","","","","tol_peg_1","5777","5777","0","[[1,0,0],[3,0],[0]]","1","[[1,3,0],[2,0],[0]]","0","0","","","","","","3"
"","","","","","single-stim-button","333","1423536","0.0-4.0-10.0-1.0","5d5b67ab9ad5a300181398dc","F1","batch6","","1772","","","tol_toboard","","","","","","","","","","","tol_peg_3","1772","1772","0","[[1,0,0],[3,0],[2]]","1","[[1,3,0],[2,0],[0]]","0","0","","","","","","3"
"","","","","","single-stim-button","334","1424232","0.0-4.0-10.1-0.1","5d5b67ab9ad5a300181398dc","F1","batch6","","695","","","tol_tohand","","","","","","","","","","","tol_peg_2","695","695","0","[[1,0,0],[0,0],[2]]","2","[[1,3,0],[2,0],[0]]","0","0","","","","","","3"
"","","","","","single-stim-button","335","1425296","0.0-4.0-10.1-1.1","5d5b67ab9ad5a300181398dc","F1","batch6","","1064","","","tol_toboard","","","","","","","","","","","tol_peg_1","1064","1064","0","[[1,3,0],[0,0],[2]]","2","[[1,3,0],[2,0],[0]]","0","0","","","","","","3"
"","","","","","single-stim-button","336","1426689","0.0-4.0-10.2-0.2","5d5b67ab9ad5a300181398dc","F1","batch6","","1393","","","tol_tohand","","","","","","","","","","","tol_peg_3","1393","1393","0","[[1,3,0],[0,0],[0]]","3","[[1,3,0],[2,0],[0]]","0","0","","","","","","3"
"","","","","","single-stim-button","337","1427846","0.0-4.0-10.2-1.2","5d5b67ab9ad5a300181398dc","F1","batch6","","1156","","","tol_toboard","","","","","","","","","","","tol_peg_2","1156","1156","0","[[1,3,0],[2,0],[0]]","3","[[1,3,0],[2,0],[0]]","0","0","","","","","","3"
"","","","","","poldrack-single-stim","338","1428848","0.0-4.0-11.0","5d5b67ab9ad5a300181398dc","F1","batch6","","-1","","","tol_feedback","true","","","","","","","","","","","1000","1000","500","","","","","","-1","none","true","5777","7865",""
"","","","","","html-button-response","339","1430873","0.0-4.0-12.0","5d5b67ab9ad5a300181398dc","F1","batch6","","2024.4000000953674","<div class = centerbox><p class = center-block-text>problem <strong>2</strong> out of 25 problems</p></div>","0","tol_trial_num","","","","","","","","","","","","","","","","","","","","","","","","",""
"","","","","","single-stim-button","340","1435944","0.0-4.0-13.0-0.0","5d5b67ab9ad5a300181398dc","F1","batch6","","5070","","","tol_tohand","","","","","","","","","","","tol_peg_1","5070","5070","0","[[1,0,0],[3,0],[0]]","1","[[2,1,3],[0,0],[0]]","1","0","","","","","","5"
"","","","","","single-stim-button","341","1437207","0.0-4.0-13.0-1.0","5d5b67ab9ad5a300181398dc","F1","batch6","","1263","","","tol_toboard","","","","","","","","","","","tol_peg_3","1263","1263","0","[[1,0,0],[3,0],[2]]","1","[[2,1,3],[0,0],[0]]","1","0","","","","","","5"
"","","","","","single-stim-button","342","1438308","0.0-4.0-13.1-0.1","5d5b67ab9ad5a300181398dc","F1","batch6","","1100","","","tol_tohand","","","","","","","","","","","tol_peg_1","1100","1100","0","[[0,0,0],[3,0],[2]]","2","[[2,1,3],[0,0],[0]]","1","0","","","","","","5"
"","","","","","single-stim-button","343","1439334","0.0-4.0-13.1-1.1","5d5b67ab9ad5a300181398dc","F1","batch6","","1026","","","tol_toboard","","","","","","","","","","","tol_peg_2","1026","1026","0","[[0,0,0],[3,1],[2]]","2","[[2,1,3],[0,0],[0]]","1","0","","","","","","5"
"","","","","","single-stim-button","344","1440386","0.0-4.0-13.2-0.2","5d5b67ab9ad5a300181398dc","F1","batch6","","1052","","","tol_tohand","","","","","","","","","","","tol_peg_3","1052","1052","0","[[0,0,0],[3,1],[0]]","3","[[2,1,3],[0,0],[0]]","1","0","","","","","","5"
"","","","","","single-stim-button","345","1441660","0.0-4.0-13.2-1.2","5d5b67ab9ad5a300181398dc","F1","batch6","","1274","","","tol_toboard","","","","","","","","","","","tol_peg_1","1274","1274","0","[[2,0,0],[3,1],[0]]","3","[[2,1,3],[0,0],[0]]","1","0","","","","","","5"
"","","","","","single-stim-button","346","1442632","0.0-4.0-13.3-0.3","5d5b67ab9ad5a300181398dc","F1","batch6","","971","","","tol_tohand","","","","","","","","","","","tol_peg_2","971","971","0","[[2,0,0],[3,0],[0]]","4","[[2,1,3],[0,0],[0]]","1","0","","","","","","5"
