"success","timeout","failed_images","failed_audio","failed_video","trial_type","trial_index","time_elapsed","internal_node_id","subject_id","study_id","session_id","view_history","rt","task","stimulus","response","correct","mouse_click","stim_duration","block_duration","timing_post_trial","current_position","tol_num_moves_made","tol_target","tol_problem_id","tol_rt","key_press","possible_responses","tol_correct","preplanning","tol_rt_per_trial","tol_min_moves","answer","item","fiar_detect_rt","fiar_detect_correct","total_correct_fiar_detect","post_trial_gap","choices","spm_correct","spm_rt"
"true","false","[]","[]","[]","preload","0","3262","0.0-0.0","5d6494874e9aae0019598b14","C3","batch3","","","","","","","","","","","","","","","","","","","","","","","","","","","","","",""
"true","","","","","fullscreen","1","10824","0.0-1.0-0.0","5d6494874e9aae0019598b14","C3","batch3","","","","","","","","","","","","","","","","","","","","","","","","","","","","","",""
"true","","","","","fullscreen","2","17941","0.0-2.0-0.0","5d6494874e9aae0019598b14","C3","batch3","","","","","","","","","","","","","","","","","","","","","","","","","","","","","",""
"","","","","","instructions","3","73789","0.0-2.0-1.0-0.0-0.0","5d6494874e9aae0019598b14","C3","batch3","[{""page_index"":0,""viewing_time"":11305},{""page_index"":1,""viewing_time"":6791.799999952316},{""page_index"":2,""viewing_time"":6540},{""page_index"":3,""viewing_time"":8460.100000023842},{""page_index"":4,""viewing_time"":6623.799999952316},{""page_index"":5,""viewing_time"":13096},{""page_index"":6,""viewing_time"":3030}]","55846.89999997616","tol-instructions","","","","","","","","","","","","","","","","","","","","","","","","","","",""
"","","","","","html-button-response","4","74852","0.0-2.0-1.0-1.0-0.0","5d6494874e9aae0019598b14","C3","batch3","","1061.2999999523163","tol_enter_quiz","<p class=block-text> Let's answer a few questions <br>","0","","","","","","","","","","","","","","","","","","","","","","","","",""
"","","","","","html-button-response","5","79375","0.0-2.0-1.0-1.0-1.0","5d6494874e9aae0019598b14","C3","batch3","","4522.899999976158","tol_quiz","<p class = block-text>True or False: You can only move the ball on top of a peg. <br></p>","1","false","","","","","","","","","","","","","","","","","","","","","","","",""
"","","","","","html-button-response","6","81364","0.0-2.0-1.0-1.0-2.0","5d6494874e9aae0019598b14","C3","batch3","","1986.6999999284744","tol_quiz_feedback","<p class = block-text>Incorrect. Remember, you can only move the ball on top of a peg.</p>","0","","","","","","","","","","","","","","","","","","","","","","","","",""
"","","","","","html-button-response","7","85040","0.0-2.0-1.0-1.0-3.0","5d6494874e9aae0019598b14","C3","batch3","","3675.4000000953674","tol_quiz","<p class = block-text>True or False: You should try to match your board with the target board with fewest moves possible. <br></p>","0","true","","","","","","","","","","","","","","","","","","","","","","","",""
"","","","","","html-button-response","8","85976","0.0-2.0-1.0-1.0-4.0","5d6494874e9aae0019598b14","C3","batch3","","934.7000000476837","tol_quiz_feedback","<p class = block-text>Correct! </p>","0","","","","","","","","","","","","","","","","","","","","","","","","",""
"","","","","","html-button-response","9","87552","0.0-2.0-1.0-2.0-0.0","5d6494874e9aae0019598b14","C3","batch3","","1575","","<p class = block-text>You made too many incorrect choices.</p><p class = block-text>You will now repeat the instructions and quiz</p>","0","","","","","","","","","","","","","","","","","","","","","","","","",""
"","","","","","instructions","10","92479","0.0-2.0-1.1-0.1-0.1","5d6494874e9aae0019598b14","C3","batch3","[{""page_index"":0,""viewing_time"":992.7999999523163},{""page_index"":1,""viewing_time"":620},{""page_index"":2,""viewing_time"":516},{""page_index"":3,""viewing_time"":568},{""page_index"":4,""viewing_time"":570.1000000238419},{""page_index"":5,""viewing_time"":488},{""page_index"":6,""viewing_time"":1172}]","4927","tol-instructions","","","","","","","","","","","","","","","","","","","","","","","","","","",""
"","","","","","html-button-response","11","93409","0.0-2.0-1.1-1.1-0.1","5d6494874e9aae0019598b14","C3","batch3","","929.1999999284744","tol_enter_quiz","<p class=block-text> Let's answer a few questions <br>","0","","","","","","","","","","","","","","","","","","","","","","","","",""
"","","","","","html-button-response","12","95115","0.0-2.0-1.1-1.1-1.1","5d6494874e9aae0019598b14","C3","batch3","","1705","tol_quiz","<p class = block-text>True or False: You can only move the ball on top of a peg. <br></p>","0","true","","","","","","","","","","","","","","","","","","","","","","","",""
"","","","","","html-button-response","13","96339","0.0-2.0-1.1-1.1-2.1","5d6494874e9aae0019598b14","C3","batch3","","1223.1000000238419","tol_quiz_feedback","<p class = block-text>Correct! You can only move the ball on top of a peg.</p>","0","","","","","","","","","","","","","","","","","","","","","","","","",""
"","","","","","html-button-response","14","98675","0.0-2.0-1.1-1.1-3.1","5d6494874e9aae0019598b14","C3","batch3","","2335.7000000476837","tol_quiz","<p class = block-text>True or False: You should try to match your board with the target board with fewest moves possible. <br></p>","0","true","","","","","","","","","","","","","","","","","","","","","","","",""
"","","","","","html-button-response","15","99758","0.0-2.0-1.1-1.1-4.1","5d6494874e9aae0019598b14","C3","batch3","","1082","tol_quiz_feedback","<p class = block-text>Correct! </p>","0","","","","","","","","","","","","","","","","","","","","","","","","",""
"","","","","","html-button-response","16","105417","0.0-2.0-2.0","5d6494874e9aae0019598b14","C3","batch3","","5659.099999904633","","<p class=block-text> Now that you've understood the game, let's practice a few easier examples before we start!<br> <br>","0","","","","","","","","","","","","","","","","","","","","","","","","",""
"","","","","","single-stim-button","17","107590","0.0-2.0-3.0-0.0","5d6494874e9aae0019598b14","C3","batch3","","2171","tol_practice","","","","tol_peg_2","2171","2171","0","[[1,2,0],[0,0],[0]]","1","[[1,2,0],[0,0],[3]]","practice","2171","","","","","","","","","","","","","","",""
"","","","","","single-stim-button","18","108320","0.0-2.0-3.0-1.0","5d6494874e9aae0019598b14","C3","batch3","","728","tol_practice","","","","tol_peg_3","728","728","0","[[1,2,0],[0,0],[3]]","1","[[1,2,0],[0,0],[3]]","practice","728","","","","","","","","","","","","","","",""
"","","","","","poldrack-single-stim","19","109321","0.0-2.0-4.0","5d6494874e9aae0019598b14","C3","batch3","","-1","tol_feedback","","","true","","1000","1000","500","","","","","","-1","none","true","","0","","","","","","","","","",""
"","","","","","single-stim-button","20","113167","0.0-2.0-5.0-0.0","5d6494874e9aae0019598b14","C3","batch3","","3846","tol_practice","","","","tol_peg_1","3846","3846","0","[[1,0,0],[3,0],[0]]","2","[[0,0,0],[3,1],[2]]","practice","3846","","","","","","","","","","","","","","",""
"","","","","","single-stim-button","21","114107","0.0-2.0-5.0-1.0","5d6494874e9aae0019598b14","C3","batch3","","939","tol_practice","","","","tol_peg_3","939","939","0","[[1,0,0],[3,0],[2]]","2","[[0,0,0],[3,1],[2]]","practice","939","","","","","","","","","","","","","","",""
"","","","","","single-stim-button","22","115037","0.0-2.0-5.1-0.1","5d6494874e9aae0019598b14","C3","batch3","","929","tol_practice","","","","tol_peg_1","929","929","0","[[0,0,0],[3,0],[2]]","3","[[0,0,0],[3,1],[2]]","practice","929","","","","","","","","","","","","","","",""
"","","","","","single-stim-button","23","115913","0.0-2.0-5.1-1.1","5d6494874e9aae0019598b14","C3","batch3","","875","tol_practice","","","","tol_peg_2","875","875","0","[[0,0,0],[3,1],[2]]","3","[[0,0,0],[3,1],[2]]","practice","875","","","","","","","","","","","","","","",""
"","","","","","poldrack-single-stim","24","116916","0.0-2.0-6.0","5d6494874e9aae0019598b14","C3","batch3","","-1","tol_feedback","","","true","","1000","1000","500","","","","","","-1","none","true","","0","","","","","","","","","",""
"","","","","","single-stim-button","25","120352","0.0-2.0-7.0-0.0","5d6494874e9aae0019598b14","C3","batch3","","3436","tol_practice","","","","tol_peg_2","3436","3436","0","[[1,2,0],[0,0],[0]]","4","[[1,0,0],[2,0],[3]]","practice","3436","","","","","","","","","","","","","","",""
"","","","","","single-stim-button","26","121356","0.0-2.0-7.0-1.0","5d6494874e9aae0019598b14","C3","batch3","","1003","tol_practice","","","","tol_peg_3","1003","1003","0","[[1,2,0],[0,0],[3]]","4","[[1,0,0],[2,0],[3]]","practice","1003","","","","","","","","","","","","","","",""
"","","","","","single-stim-button","27","122148","0.0-2.0-7.1-0.1","5d6494874e9aae0019598b14","C3","batch3","","791","tol_practice","","","","tol_peg_1","791","791","0","[[1,0,0],[0,0],[3]]","5","[[1,0,0],[2,0],[3]]","practice","791","","","","","","","","","","","","","","",""
"","","","","","single-stim-button","28","122840","0.0-2.0-7.1-1.1","5d6494874e9aae0019598b14","C3","batch3","","692","tol_practice","","","","tol_peg_2","692","692","0","[[1,0,0],[2,0],[3]]","5","[[1,0,0],[2,0],[3]]","practice","692","","","","","","","","","","","","","","",""
"","","","","","poldrack-single-stim","29","123841","0.0-2.0-8.0","5d6494874e9aae0019598b14","C3","batch3","","-1","tol_feedback","","","true","","1000","1000","500","","","","","","-1","none","true","","0","","","","","","","","","",""
"","","","","","html-button-response","30","130803","0.0-2.0-9.0","5d6494874e9aae0019598b14","C3","batch3","","6961.300000071526","tol_instruction","<div class = centerbox><p class = center-block-text>Great job! You are done with practice trials<br>You are about to start official trials.<br> <br> Problem <strong>1</strong> out of 25 problems</p></div>","0","","","","","","","","","","","","","","","","","","","","","","","","",""
"","","","","","single-stim-button","31","135135","0.0-2.0-10.0-0.0","5d6494874e9aae0019598b14","C3","batch3","","3331","tol_tohand","","","","tol_peg_1","3331","3331","0","[[1,0,0],[3,0],[0]]","1","[[1,3,0],[2,0],[0]]","0","0","","","","","","3","","","","","","","","",""
"","","","","","single-stim-button","32","135950","0.0-2.0-10.0-1.0","5d6494874e9aae0019598b14","C3","batch3","","815","tol_toboard","","","","tol_peg_3","815","815","0","[[1,0,0],[3,0],[2]]","1","[[1,3,0],[2,0],[0]]","0","0","","","","","","3","","","","","","","","",""
"","","","","","single-stim-button","33","136677","0.0-2.0-10.1-0.1","5d6494874e9aae0019598b14","C3","batch3","","725","tol_tohand","","","","tol_peg_2","725","725","0","[[1,0,0],[0,0],[2]]","2","[[1,3,0],[2,0],[0]]","0","0","","","","","","3","","","","","","","","",""
"","","","","","single-stim-button","34","137410","0.0-2.0-10.1-1.1","5d6494874e9aae0019598b14","C3","batch3","","733","tol_toboard","","","","tol_peg_1","733","733","0","[[1,3,0],[0,0],[2]]","2","[[1,3,0],[2,0],[0]]","0","0","","","","","","3","","","","","","","","",""
"","","","","","single-stim-button","35","138178","0.0-2.0-10.2-0.2","5d6494874e9aae0019598b14","C3","batch3","","767","tol_tohand","","","","tol_peg_3","767","767","0","[[1,3,0],[0,0],[0]]","3","[[1,3,0],[2,0],[0]]","0","0","","","","","","3","","","","","","","","",""
"","","","","","single-stim-button","36","138932","0.0-2.0-10.2-1.2","5d6494874e9aae0019598b14","C3","batch3","","753","tol_toboard","","","","tol_peg_2","753","753","0","[[1,3,0],[2,0],[0]]","3","[[1,3,0],[2,0],[0]]","0","0","","","","","","3","","","","","","","","",""
"","","","","","poldrack-single-stim","37","139935","0.0-2.0-11.0","5d6494874e9aae0019598b14","C3","batch3","","-1","tol_feedback","","","true","","1000","1000","500","","","","","","-1","none","true","3331","4823","","","","","","","","","",""
"","","","","","html-button-response","38","140986","0.0-2.0-12.0","5d6494874e9aae0019598b14","C3","batch3","","1050.6000000238419","tol_trial_num","<div class = centerbox><p class = center-block-text>problem <strong>2</strong> out of 25 problems</p></div>","0","","","","","","","","","","","","","","","","","","","","","","","","",""
"","","","","","single-stim-button","39","149023","0.0-2.0-13.0-0.0","5d6494874e9aae0019598b14","C3","batch3","","8035","tol_tohand","","","","tol_peg_1","8035","8035","0","[[1,0,0],[3,0],[0]]","1","[[2,1,3],[0,0],[0]]","1","0","","","","","","5","","","","","","","","",""
"","","","","","single-stim-button","40","149848","0.0-2.0-13.0-1.0","5d6494874e9aae0019598b14","C3","batch3","","825","tol_toboard","","","","tol_peg_2","825","825","0","[[1,0,0],[3,2],[0]]","1","[[2,1,3],[0,0],[0]]","1","0","","","","","","5","","","","","","","","",""
"","","","","","single-stim-button","41","151373","0.0-2.0-13.1-0.1","5d6494874e9aae0019598b14","C3","batch3","","1524","tol_tohand","","","","tol_peg_1","1524","1524","0","[[0,0,0],[3,2],[0]]","2","[[2,1,3],[0,0],[0]]","1","0","","","","","","5","","","","","","","","",""
"","","","","","single-stim-button","42","152216","0.0-2.0-13.1-1.1","5d6494874e9aae0019598b14","C3","batch3","","843","tol_toboard","","","","tol_peg_3","843","843","0","[[0,0,0],[3,2],[1]]","2","[[2,1,3],[0,0],[0]]","1","0","","","","","","5","","","","","","","","",""
"","","","","","single-stim-button","43","152838","0.0-2.0-13.2-0.2","5d6494874e9aae0019598b14","C3","batch3","","621","tol_tohand","","","","tol_peg_2","621","621","0","[[0,0,0],[3,0],[1]]","3","[[2,1,3],[0,0],[0]]","1","0","","","","","","5","","","","","","","","",""
"","","","","","single-stim-button","44","153615","0.0-2.0-13.2-1.2","5d6494874e9aae0019598b14","C3","batch3","","777","tol_toboard","","","","tol_peg_1","777","777","0","[[2,0,0],[3,0],[1]]","3","[[2,1,3],[0,0],[0]]","1","0","","","","","","5","","","","","","","","",""
"","","","","","single-stim-button","45","154279","0.0-2.0-13.3-0.3","5d6494874e9aae0019598b14","C3","batch3","","662","tol_tohand","","","","tol_peg_3","662","662","0","[[2,0,0],[3,0],[0]]","4","[[2,1,3],[0,0],[0]]","1","0","","","","","","5","","","","","","","","",""
"","","","","","single-stim-button","46","155856","0.0-2.0-13.3-1.3","5d6494874e9aae0019598b14","C3","batch3","","1577","tol_toboard","","","","tol_peg_1","1577","1577","0","[[2,1,0],[3,0],[0]]","4","[[2,1,3],[0,0],[0]]","1","0","","","","","","5","","","","","","","","",""
"","","","","","single-stim-button","47","156744","0.0-2.0-13.4-0.4","5d6494874e9aae0019598b14","C3","batch3","","887","tol_tohand","","","","tol_peg_2","887","887","0","[[2,1,0],[0,0],[0]]","5","[[2,1,3],[0,0],[0]]","1","0","","","","","","5","","","","","","","","",""
"","","","","","single-stim-button","48","157308","0.0-2.0-13.4-1.4","5d6494874e9aae0019598b14","C3","batch3","","564","tol_toboard","","","","tol_peg_1","564","564","0","[[2,1,3],[0,0],[0]]","5","[[2,1,3],[0,0],[0]]","1","0","","","","","","5","","","","","","","","",""
"","","","","","poldrack-single-stim","49","158325","0.0-2.0-14.0","5d6494874e9aae0019598b14","C3","batch3","","-1","tol_feedback","","","true","","1000","1000","500","","","","","","-1","none","true","8035","11729","","","","","","","","","",""
"","","","","","html-button-response","50","164064","0.0-2.0-15.0","5d6494874e9aae0019598b14","C3","batch3","","5737.899999976158","tol_trial_num","<div class = centerbox><p class = center-block-text>problem <strong>3</strong> out of 25 problems</p></div>","0","","","","","","","","","","","","","","","","","","","","","","","","",""
"","","","","","single-stim-button","51","167918","0.0-2.0-16.0-0.0","5d6494874e9aae0019598b14","C3","batch3","","3852","tol_tohand","","","","tol_peg_1","3852","3852","0","[[2,0,0],[0,0],[1]]","1","[[1,2,0],[3,0],[0]]","2","0","","","","","","4","","","","","","","","",""
"","","","","","single-stim-button","52","178676","0.0-2.0-16.0-1.0","5d6494874e9aae0019598b14","C3","batch3","","10757","tol_toboard","","","","tol_peg_2","10757","10757","0","[[2,0,0],[3,0],[1]]","1","[[1,2,0],[3,0],[0]]","2","0","","","","","","4","","","","","","","","",""
"","","","","","single-stim-button","53","179331","0.0-2.0-16.1-0.1","5d6494874e9aae0019598b14","C3","batch3","","655","tol_tohand","","","","tol_peg_1","655","655","0","[[0,0,0],[3,0],[1]]","2","[[1,2,0],[3,0],[0]]","2","0","","","","","","4","","","","","","","","",""
"","","","","","single-stim-button","54","179912","0.0-2.0-16.1-1.1","5d6494874e9aae0019598b14","C3","batch3","","580","tol_toboard","","","","tol_peg_2","580","580","0","[[0,0,0],[3,2],[1]]","2","[[1,2,0],[3,0],[0]]","2","0","","","","","","4","","","","","","","","",""
"","","","","","single-stim-button","55","180515","0.0-2.0-16.2-0.2","5d6494874e9aae0019598b14","C3","batch3","","602","tol_tohand","","","","tol_peg_3","602","602","0","[[0,0,0],[3,2],[0]]","3","[[1,2,0],[3,0],[0]]","2","0","","","","","","4","","","","","","","","",""
"","","","","","single-stim-button","56","181185","0.0-2.0-16.2-1.2","5d6494874e9aae0019598b14","C3","batch3","","670","tol_toboard","","","","tol_peg_1","670","670","0","[[1,0,0],[3,2],[0]]","3","[[1,2,0],[3,0],[0]]","2","0","","","","","","4","","","","","","","","",""
"","","","","","single-stim-button","57","181701","0.0-2.0-16.3-0.3","5d6494874e9aae0019598b14","C3","batch3","","515","tol_tohand","","","","tol_peg_2","515","515","0","[[1,0,0],[3,0],[0]]","4","[[1,2,0],[3,0],[0]]","2","0","","","","","","4","","","","","","","","",""
"","","","","","single-stim-button","58","182381","0.0-2.0-16.3-1.3","5d6494874e9aae0019598b14","C3","batch3","","680","tol_toboard","","","","tol_peg_1","680","680","0","[[1,2,0],[3,0],[0]]","4","[[1,2,0],[3,0],[0]]","2","0","","","","","","4","","","","","","","","",""
"","","","","","poldrack-single-stim","59","183382","0.0-2.0-17.0","5d6494874e9aae0019598b14","C3","batch3","","-1","tol_feedback","","","true","","1000","1000","500","","","","","","-1","none","true","3852","5624","","","","","","","","","",""
"","","","","","html-button-response","60","184012","0.0-2.0-18.0","5d6494874e9aae0019598b14","C3","batch3","","628.7999999523163","tol_trial_num","<div class = centerbox><p class = center-block-text>problem <strong>4</strong> out of 25 problems</p></div>","0","","","","","","","","","","","","","","","","","","","","","","","","",""
"","","","","","single-stim-button","61","186931","0.0-2.0-19.0-0.0","5d6494874e9aae0019598b14","C3","batch3","","2919","tol_tohand","","","","tol_peg_2","2919","2919","0","[[3,0,0],[2,0],[0]]","1","[[3,0,0],[1,0],[2]]","3","0","","","","","","3","","","","","","","","",""
"","","","","","single-stim-button","62","187631","0.0-2.0-19.0-1.0","5d6494874e9aae0019598b14","C3","batch3","","699","tol_toboard","","","","tol_peg_1","699","699","0","[[3,1,0],[2,0],[0]]","1","[[3,0,0],[1,0],[2]]","3","0","","","","","","3","","","","","","","","",""
"","","","","","single-stim-button","63","188156","0.0-2.0-19.1-0.1","5d6494874e9aae0019598b14","C3","batch3","","524","tol_tohand","","","","tol_peg_2","524","524","0","[[3,1,0],[0,0],[0]]","2","[[3,0,0],[1,0],[2]]","3","0","","","","","","3","","","","","","","","",""
"","","","","","single-stim-button","64","188771","0.0-2.0-19.1-1.1","5d6494874e9aae0019598b14","C3","batch3","","615","tol_toboard","","","","tol_peg_3","615","615","0","[[3,1,0],[0,0],[2]]","2","[[3,0,0],[1,0],[2]]","3","0","","","","","","3","","","","","","","","",""
"","","","","","single-stim-button","65","189303","0.0-2.0-19.2-0.2","5d6494874e9aae0019598b14","C3","batch3","","531","tol_tohand","","","","tol_peg_1","531","531","0","[[3,0,0],[0,0],[2]]","3","[[3,0,0],[1,0],[2]]","3","0","","","","","","3","","","","","","","","",""
"","","","","","single-stim-button","66","189885","0.0-2.0-19.2-1.2","5d6494874e9aae0019598b14","C3","batch3","","581","tol_toboard","","","","tol_peg_2","581","581","0","[[3,0,0],[1,0],[2]]","3","[[3,0,0],[1,0],[2]]","3","0","","","","","","3","","","","","","","","",""
"","","","","","poldrack-single-stim","67","190896","0.0-2.0-20.0","5d6494874e9aae0019598b14","C3","batch3","","-1","tol_feedback","","","true","","1000","1000","500","","","","","","-1","none","true","2919","3974","","","","","","","","","",""
"","","","","","html-button-response","68","191723","0.0-2.0-21.0","5d6494874e9aae0019598b14","C3","batch3","","826.5","tol_trial_num","<div class = centerbox><p class = center-block-text>problem <strong>5</strong> out of 25 problems</p></div>","0","","","","","","","","","","","","","","","","","","","","","","","","",""
"","","","","","single-stim-button","69","211692","0.0-2.0-22.0-0.0","5d6494874e9aae0019598b14","C3","batch3","","19967","tol_tohand","","","","tol_peg_3","19967","19967","0","[[1,0,0],[2,0],[0]]","1","[[0,0,0],[1,2],[3]]","4","0","","","","","","7","","","","","","","","",""
"","","","","","single-stim-button","70","212725","0.0-2.0-22.0-1.0","5d6494874e9aae0019598b14","C3","batch3","","1033","tol_toboard","","","","tol_peg_2","1033","1033","0","[[1,0,0],[2,3],[0]]","1","[[0,0,0],[1,2],[3]]","4","0","","","","","","7","","","","","","","","",""
"","","","","","single-stim-button","71","213298","0.0-2.0-22.1-0.1","5d6494874e9aae0019598b14","C3","batch3","","573","tol_tohand","","","","tol_peg_1","573","573","0","[[0,0,0],[2,3],[0]]","2","[[0,0,0],[1,2],[3]]","4","0","","","","","","7","","","","","","","","",""
"","","","","","single-stim-button","72","214145","0.0-2.0-22.1-1.1","5d6494874e9aae0019598b14","C3","batch3","","846","tol_toboard","","","","tol_peg_3","846","846","0","[[0,0,0],[2,3],[1]]","2","[[0,0,0],[1,2],[3]]","4","0","","","","","","7","","","","","","","","",""
"","","","","","single-stim-button","73","214757","0.0-2.0-22.2-0.2","5d6494874e9aae0019598b14","C3","batch3","","612","tol_tohand","","","","tol_peg_2","612","612","0","[[0,0,0],[2,0],[1]]","3","[[0,0,0],[1,2],[3]]","4","0","","","","","","7","","","","","","","","",""
"","","","","","single-stim-button","74","215695","0.0-2.0-22.2-1.2","5d6494874e9aae0019598b14","C3","batch3","","937","tol_toboard","","","","tol_peg_1","937","937","0","[[3,0,0],[2,0],[1]]","3","[[0,0,0],[1,2],[3]]","4","0","","","","","","7","","","","","","","","",""
"","","","","","single-stim-button","75","222245","0.0-2.0-22.3-0.3","5d6494874e9aae0019598b14","C3","batch3","","6550","tol_tohand","","","","tol_peg_1","6550","6550","0","[[0,0,0],[2,0],[1]]","4","[[0,0,0],[1,2],[3]]","4","0","","","","","","7","","","","","","","","",""
"","","","","","single-stim-button","76","222909","0.0-2.0-22.3-1.3","5d6494874e9aae0019598b14","C3","batch3","","663","tol_toboard","","","","tol_peg_2","663","663","0","[[0,0,0],[2,3],[1]]","4","[[0,0,0],[1,2],[3]]","4","0","","","","","","7","","","","","","","","",""
"","","","","","single-stim-button","77","223439","0.0-2.0-22.4-0.4","5d6494874e9aae0019598b14","C3","batch3","","529","tol_tohand","","","","tol_peg_3","529","529","0","[[0,0,0],[2,3],[0]]","5","[[0,0,0],[1,2],[3]]","4","0","","","","","","7","","","","","","","","",""
"","","","","","single-stim-button","78","225411","0.0-2.0-22.4-1.4","5d6494874e9aae0019598b14","C3","batch3","","1971","tol_toboard","","","","tol_peg_3","1971","1971","0","[[0,0,0],[2,3],[1]]","5","[[0,0,0],[1,2],[3]]","4","0","","","","","","7","","","","","","","","",""
"","","","","","single-stim-button","79","231331","0.0-2.0-22.5-0.5","5d6494874e9aae0019598b14","C3","batch3","","5920","tol_tohand","","","","tol_peg_2","5920","5920","0","[[0,0,0],[2,0],[1]]","6","[[0,0,0],[1,2],[3]]","4","0","","","","","","7","","","","","","","","",""
"","","","","","single-stim-button","80","232053","0.0-2.0-22.5-1.5","5d6494874e9aae0019598b14","C3","batch3","","721","tol_toboard","","","","tol_peg_1","721","721","0","[[3,0,0],[2,0],[1]]","6","[[0,0,0],[1,2],[3]]","4","0","","","","","","7","","","","","","","","",""
"","","","","","single-stim-button","81","233691","0.0-2.0-22.6-0.6","5d6494874e9aae0019598b14","C3","batch3","","1637","tol_tohand","","","","tol_peg_2","1637","1637","0","[[3,0,0],[0,0],[1]]","7","[[0,0,0],[1,2],[3]]","4","0","","","","","","7","","","","","","","","",""
"","","","","","single-stim-button","82","234341","0.0-2.0-22.6-1.6","5d6494874e9aae0019598b14","C3","batch3","","650","tol_toboard","","","","tol_peg_1","650","650","0","[[3,2,0],[0,0],[1]]","7","[[0,0,0],[1,2],[3]]","4","0","","","","","","7","","","","","","","","",""
"","","","","","single-stim-button","83","235486","0.0-2.0-22.7-0.7","5d6494874e9aae0019598b14","C3","batch3","","1145","tol_tohand","","","","tol_peg_3","1145","1145","0","[[3,2,0],[0,0],[0]]","8","[[0,0,0],[1,2],[3]]","4","0","","","","","","7","","","","","","","","",""
"","","","","","single-stim-button","84","236039","0.0-2.0-22.7-1.7","5d6494874e9aae0019598b14","C3","batch3","","552","tol_toboard","","","","tol_peg_2","552","552","0","[[3,2,0],[1,0],[0]]","8","[[0,0,0],[1,2],[3]]","4","0","","","","","","7","","","","","","","","",""
"","","","","","single-stim-button","85","236669","0.0-2.0-22.8-0.8","5d6494874e9aae0019598b14","C3","batch3","","629","tol_tohand","","","","tol_peg_1","629","629","0","[[3,0,0],[1,0],[0]]","9","[[0,0,0],[1,2],[3]]","4","0","","","","","","7","","","","","","","","",""
"","","","","","single-stim-button","86","237119","0.0-2.0-22.8-1.8","5d6494874e9aae0019598b14","C3","batch3","","449","tol_toboard","","","","tol_peg_2","449","449","0","[[3,0,0],[1,2],[0]]","9","[[0,0,0],[1,2],[3]]","4","0","","","","","","7","","","","","","","","",""
"","","","","","single-stim-button","87","237549","0.0-2.0-22.9-0.9","5d6494874e9aae0019598b14","C3","batch3","","430","tol_tohand","","","","tol_peg_1","430","430","0","[[0,0,0],[1,2],[0]]","10","[[0,0,0],[1,2],[3]]","4","0","","","","","","7","","","","","","","","",""
"","","","","","single-stim-button","88","238291","0.0-2.0-22.9-1.9","5d6494874e9aae0019598b14","C3","batch3","","741","tol_toboard","","","","tol_peg_3","741","741","0","[[0,0,0],[1,2],[3]]","10","[[0,0,0],[1,2],[3]]","4","0","","","","","","7","","","","","","","","",""
"","","","","","poldrack-single-stim","89","239293","0.0-2.0-23.0","5d6494874e9aae0019598b14","C3","batch3","","-1","tol_feedback","","","true","","1000","1000","500","","","","","","-1","none","true","19967","37992","","","","","","","","","",""
"","","","","","html-button-response","90","240056","0.0-2.0-24.0","5d6494874e9aae0019598b14","C3","batch3","","763.2999999523163","tol_trial_num","<div class = centerbox><p class = center-block-text>problem <strong>6</strong> out of 25 problems</p></div>","0","","","","","","","","","","","","","","","","","","","","","","","","",""
"","","","","","single-stim-button","91","254994","0.0-2.0-25.0-0.0","5d6494874e9aae0019598b14","C3","batch3","","14937","tol_tohand","","","","tol_peg_3","14937","14937","0","[[0,0,0],[1,2],[0]]","1","[[1,0,0],[2,3],[0]]","5","0","","","","","","6","","","","","","","","",""
"","","","","","single-stim-button","92","256017","0.0-2.0-25.0-1.0","5d6494874e9aae0019598b14","C3","batch3","","1023","tol_toboard","","","","tol_peg_1","1023","1023","0","[[3,0,0],[1,2],[0]]","1","[[1,0,0],[2,3],[0]]","5","0","","","","","","6","","","","","","","","",""
"","","","","","single-stim-button","93","262546","0.0-2.0-25.1-0.1","5d6494874e9aae0019598b14","C3","batch3","","6528","tol_tohand","","","","tol_peg_2","6528","6528","0","[[3,0,0],[1,0],[0]]","2","[[1,0,0],[2,3],[0]]","5","0","","","","","","6","","","","","","","","",""
"","","","","","single-stim-button","94","263268","0.0-2.0-25.1-1.1","5d6494874e9aae0019598b14","C3","batch3","","722","tol_toboard","","","","tol_peg_1","722","722","0","[[3,2,0],[1,0],[0]]","2","[[1,0,0],[2,3],[0]]","5","0","","","","","","6","","","","","","","","",""
"","","","","","single-stim-button","95","265685","0.0-2.0-25.2-0.2","5d6494874e9aae0019598b14","C3","batch3","","2417","tol_tohand","","","","tol_peg_2","2417","2417","0","[[3,2,0],[0,0],[0]]","3","[[1,0,0],[2,3],[0]]","5","0","","","","","","6","","","","","","","","",""
"","","","","","single-stim-button","96","266231","0.0-2.0-25.2-1.2","5d6494874e9aae0019598b14","C3","batch3","","546","tol_toboard","","","","tol_peg_3","546","546","0","[[3,2,0],[0,0],[1]]","3","[[1,0,0],[2,3],[0]]","5","0","","","","","","6","","","","","","","","",""
"","","","","","single-stim-button","97","266740","0.0-2.0-25.3-0.3","5d6494874e9aae0019598b14","C3","batch3","","508","tol_tohand","","","","tol_peg_1","508","508","0","[[3,0,0],[0,0],[1]]","4","[[1,0,0],[2,3],[0]]","5","0","","","","","","6","","","","","","","","",""
"","","","","","single-stim-button","98","267424","0.0-2.0-25.3-1.3","5d6494874e9aae0019598b14","C3","batch3","","684","tol_toboard","","","","tol_peg_2","684","684","0","[[3,0,0],[2,0],[1]]","4","[[1,0,0],[2,3],[0]]","5","0","","","","","","6","","","","","","","","",""
"","","","","","single-stim-button","99","268086","0.0-2.0-25.4-0.4","5d6494874e9aae0019598b14","C3","batch3","","662","tol_tohand","","","","tol_peg_1","662","662","0","[[0,0,0],[2,0],[1]]","5","[[1,0,0],[2,3],[0]]","5","0","","","","","","6","","","","","","","","",""
"","","","","","single-stim-button","100","268505","0.0-2.0-25.4-1.4","5d6494874e9aae0019598b14","C3","batch3","","419","tol_toboard","","","","tol_peg_2","419","419","0","[[0,0,0],[2,3],[1]]","5","[[1,0,0],[2,3],[0]]","5","0","","","","","","6","","","","","","","","",""
"","","","","","single-stim-button","101","269133","0.0-2.0-25.5-0.5","5d6494874e9aae0019598b14","C3","batch3","","627","tol_tohand","","","","tol_peg_3","627","627","0","[[0,0,0],[2,3],[0]]","6","[[1,0,0],[2,3],[0]]","5","0","","","","","","6","","","","","","","","",""
"","","","","","single-stim-button","102","269652","0.0-2.0-25.5-1.5","5d6494874e9aae0019598b14","C3","batch3","","519","tol_toboard","","","","tol_peg_1","519","519","0","[[1,0,0],[2,3],[0]]","6","[[1,0,0],[2,3],[0]]","5","0","","","","","","6","","","","","","","","",""
"","","","","","poldrack-single-stim","103","270657","0.0-2.0-26.0","5d6494874e9aae0019598b14","C3","batch3","","-1","tol_feedback","","","true","","1000","1000","500","","","","","","-1","none","true","14937","25679","","","","","","","","","",""
"","","","","","html-button-response","104","275396","0.0-2.0-27.0","5d6494874e9aae0019598b14","C3","batch3","","4737.600000023842","tol_trial_num","<div class = centerbox><p class = center-block-text>problem <strong>7</strong> out of 25 problems</p></div>","0","","","","","","","","","","","","","","","","","","","","","","","","",""
"","","","","","single-stim-button","105","284220","0.0-2.0-28.0-0.0","5d6494874e9aae0019598b14","C3","batch3","","8824","tol_tohand","","","","tol_peg_3","8824","8824","0","[[2,1,0],[0,0],[0]]","1","[[1,2,0],[3,0],[0]]","6","0","","","","","","5","","","","","","","","",""
"","","","","","single-stim-button","106","285006","0.0-2.0-28.0-1.0","5d6494874e9aae0019598b14","C3","batch3","","785","tol_toboard","","","","tol_peg_2","785","785","0","[[2,1,0],[3,0],[0]]","1","[[1,2,0],[3,0],[0]]","6","0","","","","","","5","","","","","","","","",""
"","","","","","single-stim-button","107","286700","0.0-2.0-28.1-0.1","5d6494874e9aae0019598b14","C3","batch3","","1693","tol_tohand","","","","tol_peg_1","1693","1693","0","[[2,0,0],[3,0],[0]]","2","[[1,2,0],[3,0],[0]]","6","0","","","","","","5","","","","","","","","",""
"","","","","","single-stim-button","108","287412","0.0-2.0-28.1-1.1","5d6494874e9aae0019598b14","C3","batch3","","711","tol_toboard","","","","tol_peg_3","711","711","0","[[2,0,0],[3,0],[1]]","2","[[1,2,0],[3,0],[0]]","6","0","","","","","","5","","","","","","","","",""
"","","","","","single-stim-button","109","287957","0.0-2.0-28.2-0.2","5d6494874e9aae0019598b14","C3","batch3","","545","tol_tohand","","","","tol_peg_1","545","545","0","[[0,0,0],[3,0],[1]]","3","[[1,2,0],[3,0],[0]]","6","0","","","","","","5","","","","","","","","",""
"","","","","","single-stim-button","110","288305","0.0-2.0-28.2-1.2","5d6494874e9aae0019598b14","C3","batch3","","348","tol_toboard","","","","tol_peg_2","348","348","0","[[0,0,0],[3,2],[1]]","3","[[1,2,0],[3,0],[0]]","6","0","","","","","","5","","","","","","","","",""
"","","","","","single-stim-button","111","288672","0.0-2.0-28.3-0.3","5d6494874e9aae0019598b14","C3","batch3","","366","tol_tohand","","","","tol_peg_3","366","366","0","[[0,0,0],[3,2],[0]]","4","[[1,2,0],[3,0],[0]]","6","0","","","","","","5","","","","","","","","",""
"","","","","","single-stim-button","112","289217","0.0-2.0-28.3-1.3","5d6494874e9aae0019598b14","C3","batch3","","545","tol_toboard","","","","tol_peg_1","545","545","0","[[1,0,0],[3,2],[0]]","4","[[1,2,0],[3,0],[0]]","6","0","","","","","","5","","","","","","","","",""
"","","","","","single-stim-button","113","289674","0.0-2.0-28.4-0.4","5d6494874e9aae0019598b14","C3","batch3","","457","tol_tohand","","","","tol_peg_2","457","457","0","[[1,0,0],[3,0],[0]]","5","[[1,2,0],[3,0],[0]]","6","0","","","","","","5","","","","","","","","",""
"","","","","","single-stim-button","114","290108","0.0-2.0-28.4-1.4","5d6494874e9aae0019598b14","C3","batch3","","433","tol_toboard","","","","tol_peg_1","433","433","0","[[1,2,0],[3,0],[0]]","5","[[1,2,0],[3,0],[0]]","6","0","","","","","","5","","","","","","","","",""
"","","","","","poldrack-single-stim","115","291111","0.0-2.0-29.0","5d6494874e9aae0019598b14","C3","batch3","","-1","tol_feedback","","","true","","1000","1000","500","","","","","","-1","none","true","8824","11885","","","","","","","","","",""
"","","","","","html-button-response","116","309240","0.0-2.0-30.0","5d6494874e9aae0019598b14","C3","batch3","","18127.899999976158","tol_trial_num","<div class = centerbox><p class = center-block-text>problem <strong>8</strong> out of 25 problems</p></div>","0","","","","","","","","","","","","","","","","","","","","","","","","",""
"","","","","","single-stim-button","117","317079","0.0-2.0-31.0-0.0","5d6494874e9aae0019598b14","C3","batch3","","7838","tol_tohand","","","","tol_peg_3","7838","7838","0","[[0,0,0],[2,3],[0]]","1","[[1,2,0],[3,0],[0]]","7","0","","","","","","4","","","","","","","","",""
"","","","","","single-stim-button","118","317930","0.0-2.0-31.0-1.0","5d6494874e9aae0019598b14","C3","batch3","","850","tol_toboard","","","","tol_peg_1","850","850","0","[[1,0,0],[2,3],[0]]","1","[[1,2,0],[3,0],[0]]","7","0","","","","","","4","","","","","","","","",""
"","","","","","single-stim-button","119","318401","0.0-2.0-31.1-0.1","5d6494874e9aae0019598b14","C3","batch3","","470","tol_tohand","","","","tol_peg_2","470","470","0","[[1,0,0],[2,0],[0]]","2","[[1,2,0],[3,0],[0]]","7","0","","","","","","4","","","","","","","","",""
"","","","","","single-stim-button","120","319022","0.0-2.0-31.1-1.1","5d6494874e9aae0019598b14","C3","batch3","","621","tol_toboard","","","","tol_peg_3","621","621","0","[[1,0,0],[2,0],[3]]","2","[[1,2,0],[3,0],[0]]","7","0","","","","","","4","","","","","","","","",""
"","","","","","single-stim-button","121","319493","0.0-2.0-31.2-0.2","5d6494874e9aae0019598b14","C3","batch3","","469","tol_tohand","","","","tol_peg_2","469","469","0","[[1,0,0],[0,0],[3]]","3","[[1,2,0],[3,0],[0]]","7","0","","","","","","4","","","","","","","","",""
"","","","","","single-stim-button","122","320193","0.0-2.0-31.2-1.2","5d6494874e9aae0019598b14","C3","batch3","","700","tol_toboard","","","","tol_peg_1","700","700","0","[[1,2,0],[0,0],[3]]","3","[[1,2,0],[3,0],[0]]","7","0","","","","","","4","","","","","","","","",""
"","","","","","single-stim-button","123","320741","0.0-2.0-31.3-0.3","5d6494874e9aae0019598b14","C3","batch3","","547","tol_tohand","","","","tol_peg_3","547","547","0","[[1,2,0],[0,0],[0]]","4","[[1,2,0],[3,0],[0]]","7","0","","","","","","4","","","","","","","","",""
"","","","","","single-stim-button","124","321309","0.0-2.0-31.3-1.3","5d6494874e9aae0019598b14","C3","batch3","","567","tol_toboard","","","","tol_peg_2","567","567","0","[[1,2,0],[3,0],[0]]","4","[[1,2,0],[3,0],[0]]","7","0","","","","","","4","","","","","","","","",""
"","","","","","poldrack-single-stim","125","322316","0.0-2.0-32.0","5d6494874e9aae0019598b14","C3","batch3","","-1","tol_feedback","","","true","","1000","1000","500","","","","","","-1","none","true","7838","9324","","","","","","","","","",""
"","","","","","html-button-response","126","355681","0.0-2.0-33.0","5d6494874e9aae0019598b14","C3","batch3","","33363.60000002384","tol_trial_num","<div class = centerbox><p class = center-block-text>problem <strong>9</strong> out of 25 problems</p></div>","0","","","","","","","","","","","","","","","","","","","","","","","","",""
"","","","","","single-stim-button","127","370556","0.0-2.0-34.0-0.0","5d6494874e9aae0019598b14","C3","batch3","","14875","tol_tohand","","","","tol_peg_3","14875","14875","0","[[3,2,0],[0,0],[0]]","1","[[2,1,0],[3,0],[0]]","8","0","","","","","","6","","","","","","","","",""
"","","","","","single-stim-button","128","371368","0.0-2.0-34.0-1.0","5d6494874e9aae0019598b14","C3","batch3","","811","tol_toboard","","","","tol_peg_2","811","811","0","[[3,2,0],[1,0],[0]]","1","[[2,1,0],[3,0],[0]]","8","0","","","","","","6","","","","","","","","",""
"","","","","","single-stim-button","129","372040","0.0-2.0-34.1-0.1","5d6494874e9aae0019598b14","C3","batch3","","672","tol_tohand","","","","tol_peg_1","672","672","0","[[3,0,0],[1,0],[0]]","2","[[2,1,0],[3,0],[0]]","8","0","","","","","","6","","","","","","","","",""
"","","","","","single-stim-button","130","372724","0.0-2.0-34.1-1.1","5d6494874e9aae0019598b14","C3","batch3","","684","tol_toboard","","","","tol_peg_3","684","684","0","[[3,0,0],[1,0],[2]]","2","[[2,1,0],[3,0],[0]]","8","0","","","","","","6","","","","","","","","",""
"","","","","","single-stim-button","131","373486","0.0-2.0-34.2-0.2","5d6494874e9aae0019598b14","C3","batch3","","762","tol_tohand","","","","tol_peg_1","762","762","0","[[0,0,0],[1,0],[2]]","3","[[2,1,0],[3,0],[0]]","8","0","","","","","","6","","","","","","","","",""
"","","","","","single-stim-button","132","374120","0.0-2.0-34.2-1.2","5d6494874e9aae0019598b14","C3","batch3","","634","tol_toboard","","","","tol_peg_2","634","634","0","[[0,0,0],[1,3],[2]]","3","[[2,1,0],[3,0],[0]]","8","0","","","","","","6","","","","","","","","",""
"","","","","","single-stim-button","133","374719","0.0-2.0-34.3-0.3","5d6494874e9aae0019598b14","C3","batch3","","599","tol_tohand","","","","tol_peg_3","599","599","0","[[0,0,0],[1,3],[0]]","4","[[2,1,0],[3,0],[0]]","8","0","","","","","","6","","","","","","","","",""
"","","","","","single-stim-button","134","375728","0.0-2.0-34.3-1.3","5d6494874e9aae0019598b14","C3","batch3","","1009","tol_toboard","","","","tol_peg_1","1009","1009","0","[[2,0,0],[1,3],[0]]","4","[[2,1,0],[3,0],[0]]","8","0","","","","","","6","","","","","","","","",""
"","","","","","single-stim-button","135","376850","0.0-2.0-34.4-0.4","5d6494874e9aae0019598b14","C3","batch3","","1122","tol_tohand","","","","tol_peg_2","1122","1122","0","[[2,0,0],[1,0],[0]]","5","[[2,1,0],[3,0],[0]]","8","0","","","","","","6","","","","","","","","",""
"","","","","","single-stim-button","136","377856","0.0-2.0-34.4-1.4","5d6494874e9aae0019598b14","C3","batch3","","1006","tol_toboard","","","","tol_peg_3","1006","1006","0","[[2,0,0],[1,0],[3]]","5","[[2,1,0],[3,0],[0]]","8","0","","","","","","6","","","","","","","","",""
"","","","","","single-stim-button","137","378310","0.0-2.0-34.5-0.5","5d6494874e9aae0019598b14","C3","batch3","","454","tol_tohand","","","","tol_peg_2","454","454","0","[[2,0,0],[0,0],[3]]","6","[[2,1,0],[3,0],[0]]","8","0","","","","","","6","","","","","","","","",""
"","","","","","single-stim-button","138","378866","0.0-2.0-34.5-1.5","5d6494874e9aae0019598b14","C3","batch3","","556","tol_toboard","","","","tol_peg_1","556","556","0","[[2,1,0],[0,0],[3]]","6","[[2,1,0],[3,0],[0]]","8","0","","","","","","6","","","","","","","","",""
"","","","","","single-stim-button","139","379548","0.0-2.0-34.6-0.6","5d6494874e9aae0019598b14","C3","batch3","","682","tol_tohand","","","","tol_peg_3","682","682","0","[[2,1,0],[0,0],[0]]","7","[[2,1,0],[3,0],[0]]","8","0","","","","","","6","","","","","","","","",""
"","","","","","single-stim-button","140","380084","0.0-2.0-34.6-1.6","5d6494874e9aae0019598b14","C3","batch3","","535","tol_toboard","","","","tol_peg_2","535","535","0","[[2,1,0],[3,0],[0]]","7","[[2,1,0],[3,0],[0]]","8","0","","","","","","6","","","","","","","","",""
"","","","","","poldrack-single-stim","141","381097","0.0-2.0-35.0","5d6494874e9aae0019598b14","C3","batch3","","-1","tol_feedback","","","true","","1000","1000","500","","","","","","-1","none","true","14875","19166","","","","","","","","","",""
"","","","","","html-button-response","142","387228","0.0-2.0-36.0","5d6494874e9aae0019598b14","C3","batch3","","6129.5","tol_trial_num","<div class = centerbox><p class = center-block-text>problem <strong>10</strong> out of 25 problems</p></div>","0","","","","","","","","","","","","","","","","","","","","","","","","",""
"","","","","","single-stim-button","143","393710","0.0-2.0-37.0-0.0","5d6494874e9aae0019598b14","C3","batch3","","6482","tol_tohand","","","","tol_peg_2","6482","6482","0","[[3,0,0],[0,0],[2]]","1","[[3,0,0],[2,1],[0]]","9","0","","","","","","3","","","","","","","","",""
"","","","","","single-stim-button","144","394258","0.0-2.0-37.0-1.0","5d6494874e9aae0019598b14","C3","batch3","","548","tol_toboard","","","","tol_peg_1","548","548","0","[[3,1,0],[0,0],[2]]","1","[[3,0,0],[2,1],[0]]","9","0","","","","","","3","","","","","","","","",""
"","","","","","single-stim-button","145","394710","0.0-2.0-37.1-0.1","5d6494874e9aae0019598b14","C3","batch3","","452","tol_tohand","","","","tol_peg_3","452","452","0","[[3,1,0],[0,0],[0]]","2","[[3,0,0],[2,1],[0]]","9","0","","","","","","3","","","","","","","","",""
"","","","","","single-stim-button","146","395484","0.0-2.0-37.1-1.1","5d6494874e9aae0019598b14","C3","batch3","","774","tol_toboard","","","","tol_peg_2","774","774","0","[[3,1,0],[2,0],[0]]","2","[[3,0,0],[2,1],[0]]","9","0","","","","","","3","","","","","","","","",""
"","","","","","single-stim-button","147","395915","0.0-2.0-37.2-0.2","5d6494874e9aae0019598b14","C3","batch3","","431","tol_tohand","","","","tol_peg_1","431","431","0","[[3,0,0],[2,0],[0]]","3","[[3,0,0],[2,1],[0]]","9","0","","","","","","3","","","","","","","","",""
"","","","","","single-stim-button","148","396356","0.0-2.0-37.2-1.2","5d6494874e9aae0019598b14","C3","batch3","","441","tol_toboard","","","","tol_peg_2","441","441","0","[[3,0,0],[2,1],[0]]","3","[[3,0,0],[2,1],[0]]","9","0","","","","","","3","","","","","","","","",""
"","","","","","poldrack-single-stim","149","397358","0.0-2.0-38.0","5d6494874e9aae0019598b14","C3","batch3","","-1","tol_feedback","","","true","","1000","1000","500","","","","","","-1","none","true","6482","7365","","","","","","","","","",""
"","","","","","html-button-response","150","398138","0.0-2.0-39.0","5d6494874e9aae0019598b14","C3","batch3","","779.9000000953674","tol_trial_num","<div class = centerbox><p class = center-block-text>problem <strong>11</strong> out of 25 problems</p></div>","0","","","","","","","","","","","","","","","","","","","","","","","","",""
"","","","","","single-stim-button","151","404972","0.0-2.0-40.0-0.0","5d6494874e9aae0019598b14","C3","batch3","","6833","tol_tohand","","","","tol_peg_1","6833","6833","0","[[1,0,0],[3,0],[0]]","1","[[2,0,0],[1,3],[0]]","10","0","","","","","","6","","","","","","","","",""
"","","","","","single-stim-button","152","405568","0.0-2.0-40.0-1.0","5d6494874e9aae0019598b14","C3","batch3","","596","tol_toboard","","","","tol_peg_3","596","596","0","[[1,0,0],[3,0],[2]]","1","[[2,0,0],[1,3],[0]]","10","0","","","","","","6","","","","","","","","",""
"","","","","","single-stim-button","153","407952","0.0-2.0-40.1-0.1","5d6494874e9aae0019598b14","C3","batch3","","2383","tol_tohand","","","","tol_peg_1","2383","2383","0","[[0,0,0],[3,0],[2]]","2","[[2,0,0],[1,3],[0]]","10","0","","","","","","6","","","","","","","","",""
"","","","","","single-stim-button","154","408614","0.0-2.0-40.1-1.1","5d6494874e9aae0019598b14","C3","batch3","","662","tol_toboard","","","","tol_peg_2","662","662","0","[[0,0,0],[3,1],[2]]","2","[[2,0,0],[1,3],[0]]","10","0","","","","","","6","","","","","","","","",""
"","","","","","single-stim-button","155","409200","0.0-2.0-40.2-0.2","5d6494874e9aae0019598b14","C3","batch3","","586","tol_tohand","","","","tol_peg_3","586","586","0","[[0,0,0],[3,1],[0]]","3","[[2,0,0],[1,3],[0]]","10","0","","","","","","6","","","","","","","","",""
"","","","","","single-stim-button","156","410112","0.0-2.0-40.2-1.2","5d6494874e9aae0019598b14","C3","batch3","","912","tol_toboard","","","","tol_peg_1","912","912","0","[[2,0,0],[3,1],[0]]","3","[[2,0,0],[1,3],[0]]","10","0","","","","","","6","","","","","","","","",""
"","","","","","single-stim-button","157","411032","0.0-2.0-40.3-0.3","5d6494874e9aae0019598b14","C3","batch3","","920","tol_tohand","","","","tol_peg_2","920","920","0","[[2,0,0],[3,0],[0]]","4","[[2,0,0],[1,3],[0]]","10","0","","","","","","6","","","","","","","","",""
"","","","","","single-stim-button","158","412240","0.0-2.0-40.3-1.3","5d6494874e9aae0019598b14","C3","batch3","","1207","tol_toboard","","","","tol_peg_3","1207","1207","0","[[2,0,0],[3,0],[1]]","4","[[2,0,0],[1,3],[0]]","10","0","","","","","","6","","","","","","","","",""
"","","","","","single-stim-button","159","414182","0.0-2.0-40.4-0.4","5d6494874e9aae0019598b14","C3","batch3","","1942","tol_tohand","","","","tol_peg_2","1942","1942","0","[[2,0,0],[0,0],[1]]","5","[[2,0,0],[1,3],[0]]","10","0","","","","","","6","","","","","","","","",""
"","","","","","single-stim-button","160","414567","0.0-2.0-40.4-1.4","5d6494874e9aae0019598b14","C3","batch3","","385","tol_toboard","","","","tol_peg_1","385","385","0","[[2,3,0],[0,0],[1]]","5","[[2,0,0],[1,3],[0]]","10","0","","","","","","6","","","","","","","","",""
"","","","","","single-stim-button","161","415042","0.0-2.0-40.5-0.5","5d6494874e9aae0019598b14","C3","batch3","","475","tol_tohand","","","","tol_peg_3","475","475","0","[[2,3,0],[0,0],[0]]","6","[[2,0,0],[1,3],[0]]","10","0","","","","","","6","","","","","","","","",""
"","","","","","single-stim-button","162","415594","0.0-2.0-40.5-1.5","5d6494874e9aae0019598b14","C3","batch3","","552","tol_toboard","","","","tol_peg_2","552","552","0","[[2,3,0],[1,0],[0]]","6","[[2,0,0],[1,3],[0]]","10","0","","","","","","6","","","","","","","","",""
"","","","","","single-stim-button","163","416101","0.0-2.0-40.6-0.6","5d6494874e9aae0019598b14","C3","batch3","","507","tol_tohand","","","","tol_peg_1","507","507","0","[[2,0,0],[1,0],[0]]","7","[[2,0,0],[1,3],[0]]","10","0","","","","","","6","","","","","","","","",""
"","","","","","single-stim-button","164","416514","0.0-2.0-40.6-1.6","5d6494874e9aae0019598b14","C3","batch3","","412","tol_toboard","","","","tol_peg_2","412","412","0","[[2,0,0],[1,3],[0]]","7","[[2,0,0],[1,3],[0]]","10","0","","","","","","6","","","","","","","","",""
"","","","","","poldrack-single-stim","165","417526","0.0-2.0-41.0","5d6494874e9aae0019598b14","C3","batch3","","-1","tol_feedback","","","true","","1000","1000","500","","","","","","-1","none","true","6833","13646","","","","","","","","","",""
"","","","","","html-button-response","166","423122","0.0-2.0-42.0","5d6494874e9aae0019598b14","C3","batch3","","5595.200000047684","tol_trial_num","<div class = centerbox><p class = center-block-text>problem <strong>12</strong> out of 25 problems</p></div>","0","","","","","","","","","","","","","","","","","","","","","","","","",""
"","","","","","single-stim-button","167","426692","0.0-2.0-43.0-0.0","5d6494874e9aae0019598b14","C3","batch3","","3570","tol_tohand","","","","tol_peg_1","3570","3570","0","[[1,0,0],[3,0],[0]]","1","[[2,3,0],[0,0],[1]]","11","0","","","","","","4","","","","","","","","",""
"","","","","","single-stim-button","168","427152","0.0-2.0-43.0-1.0","5d6494874e9aae0019598b14","C3","batch3","","460","tol_toboard","","","","tol_peg_2","460","460","0","[[1,0,0],[3,2],[0]]","1","[[2,3,0],[0,0],[1]]","11","0","","","","","","4","","","","","","","","",""
"","","","","","single-stim-button","169","427705","0.0-2.0-43.1-0.1","5d6494874e9aae0019598b14","C3","batch3","","553","tol_tohand","","","","tol_peg_1","553","553","0","[[0,0,0],[3,2],[0]]","2","[[2,3,0],[0,0],[1]]","11","0","","","","","","4","","","","","","","","",""
"","","","","","single-stim-button","170","428464","0.0-2.0-43.1-1.1","5d6494874e9aae0019598b14","C3","batch3","","759","tol_toboard","","","","tol_peg_3","759","759","0","[[0,0,0],[3,2],[1]]","2","[[2,3,0],[0,0],[1]]","11","0","","","","","","4","","","","","","","","",""
"","","","","","single-stim-button","171","429246","0.0-2.0-43.2-0.2","5d6494874e9aae0019598b14","C3","batch3","","782","tol_tohand","","","","tol_peg_2","782","782","0","[[0,0,0],[3,0],[1]]","3","[[2,3,0],[0,0],[1]]","11","0","","","","","","4","","","","","","","","",""
"","","","","","single-stim-button","172","430153","0.0-2.0-43.2-1.2","5d6494874e9aae0019598b14","C3","batch3","","906","tol_toboard","","","","tol_peg_1","906","906","0","[[2,0,0],[3,0],[1]]","3","[[2,3,0],[0,0],[1]]","11","0","","","","","","4","","","","","","","","",""
"","","","","","single-stim-button","173","430806","0.0-2.0-43.3-0.3","5d6494874e9aae0019598b14","C3","batch3","","653","tol_tohand","","","","tol_peg_2","653","653","0","[[2,0,0],[0,0],[1]]","4","[[2,3,0],[0,0],[1]]","11","0","","","","","","4","","","","","","","","",""
"","","","","","single-stim-button","174","431207","0.0-2.0-43.3-1.3","5d6494874e9aae0019598b14","C3","batch3","","401","tol_toboard","","","","tol_peg_1","401","401","0","[[2,3,0],[0,0],[1]]","4","[[2,3,0],[0,0],[1]]","11","0","","","","","","4","","","","","","","","",""
"","","","","","poldrack-single-stim","175","432208","0.0-2.0-44.0","5d6494874e9aae0019598b14","C3","batch3","","-1","tol_feedback","","","true","","1000","1000","500","","","","","","-1","none","true","3570","5558","","","","","","","","","",""
"","","","","","html-button-response","176","432961","0.0-2.0-45.0","5d6494874e9aae0019598b14","C3","batch3","","751.6999999284744","tol_trial_num","<div class = centerbox><p class = center-block-text>problem <strong>13</strong> out of 25 problems</p></div>","0","","","","","","","","","","","","","","","","","","","","","","","","",""
"","","","","","single-stim-button","177","435803","0.0-2.0-46.0-0.0","5d6494874e9aae0019598b14","C3","batch3","","2842","tol_tohand","","","","tol_peg_1","2842","2842","0","[[1,0,0],[3,0],[0]]","1","[[0,0,0],[2,3],[1]]","12","0","","","","","","4","","","","","","","","",""
"","","","","","single-stim-button","178","436304","0.0-2.0-46.0-1.0","5d6494874e9aae0019598b14","C3","batch3","","501","tol_toboard","","","","tol_peg_2","501","501","0","[[1,0,0],[3,2],[0]]","1","[[0,0,0],[2,3],[1]]","12","0","","","","","","4","","","","","","","","",""
"","","","","","single-stim-button","179","436814","0.0-2.0-46.1-0.1","5d6494874e9aae0019598b14","C3","batch3","","509","tol_tohand","","","","tol_peg_1","509","509","0","[[0,0,0],[3,2],[0]]","2","[[0,0,0],[2,3],[1]]","12","0","","","","","","4","","","","","","","","",""
"","","","","","single-stim-button","180","437539","0.0-2.0-46.1-1.1","5d6494874e9aae0019598b14","C3","batch3","","725","tol_toboard","","","","tol_peg_3","725","725","0","[[0,0,0],[3,2],[1]]","2","[[0,0,0],[2,3],[1]]","12","0","","","","","","4","","","","","","","","",""
"","","","","","single-stim-button","181","438606","0.0-2.0-46.2-0.2","5d6494874e9aae0019598b14","C3","batch3","","1067","tol_tohand","","","","tol_peg_2","1067","1067","0","[[0,0,0],[3,0],[1]]","3","[[0,0,0],[2,3],[1]]","12","0","","","","","","4","","","","","","","","",""
"","","","","","single-stim-button","182","439226","0.0-2.0-46.2-1.2","5d6494874e9aae0019598b14","C3","batch3","","620","tol_toboard","","","","tol_peg_1","620","620","0","[[2,0,0],[3,0],[1]]","3","[[0,0,0],[2,3],[1]]","12","0","","","","","","4","","","","","","","","",""
"","","","","","single-stim-button","183","439615","0.0-2.0-46.3-0.3","5d6494874e9aae0019598b14","C3","batch3","","389","tol_tohand","","","","tol_peg_2","389","389","0","[[2,0,0],[0,0],[1]]","4","[[0,0,0],[2,3],[1]]","12","0","","","","","","4","","","","","","","","",""
"","","","","","single-stim-button","184","440051","0.0-2.0-46.3-1.3","5d6494874e9aae0019598b14","C3","batch3","","435","tol_toboard","","","","tol_peg_1","435","435","0","[[2,3,0],[0,0],[1]]","4","[[0,0,0],[2,3],[1]]","12","0","","","","","","4","","","","","","","","",""
"","","","","","single-stim-button","185","444263","0.0-2.0-46.4-0.4","5d6494874e9aae0019598b14","C3","batch3","","4211","tol_tohand","","","","tol_peg_3","4211","4211","0","[[2,3,0],[0,0],[0]]","5","[[0,0,0],[2,3],[1]]","12","0","","","","","","4","","","","","","","","",""
"","","","","","single-stim-button","186","445399","0.0-2.0-46.4-1.4","5d6494874e9aae0019598b14","C3","batch3","","1136","tol_toboard","","","","tol_peg_2","1136","1136","0","[[2,3,0],[1,0],[0]]","5","[[0,0,0],[2,3],[1]]","12","0","","","","","","4","","","","","","","","",""
"","","","","","single-stim-button","187","445987","0.0-2.0-46.5-0.5","5d6494874e9aae0019598b14","C3","batch3","","588","tol_tohand","","","","tol_peg_1","588","588","0","[[2,0,0],[1,0],[0]]","6","[[0,0,0],[2,3],[1]]","12","0","","","","","","4","","","","","","","","",""
"","","","","","single-stim-button","188","448548","0.0-2.0-46.5-1.5","5d6494874e9aae0019598b14","C3","batch3","","2561","tol_toboard","","","","tol_peg_2","2561","2561","0","[[2,0,0],[1,3],[0]]","6","[[0,0,0],[2,3],[1]]","12","0","","","","","","4","","","","","","","","",""
"","","","","","single-stim-button","189","449123","0.0-2.0-46.6-0.6","5d6494874e9aae0019598b14","C3","batch3","","575","tol_tohand","","","","tol_peg_1","575","575","0","[[0,0,0],[1,3],[0]]","7","[[0,0,0],[2,3],[1]]","12","0","","","","","","4","","","","","","","","",""
"","","","","","single-stim-button","190","449799","0.0-2.0-46.6-1.6","5d6494874e9aae0019598b14","C3","batch3","","675","tol_toboard","","","","tol_peg_3","675","675","0","[[0,0,0],[1,3],[2]]","7","[[0,0,0],[2,3],[1]]","12","0","","","","","","4","","","","","","","","",""
"","","","","","single-stim-button","191","450477","0.0-2.0-46.7-0.7","5d6494874e9aae0019598b14","C3","batch3","","678","tol_tohand","","","","tol_peg_2","678","678","0","[[0,0,0],[1,0],[2]]","8","[[0,0,0],[2,3],[1]]","12","0","","","","","","4","","","","","","","","",""
"","","","","","single-stim-button","192","451045","0.0-2.0-46.7-1.7","5d6494874e9aae0019598b14","C3","batch3","","567","tol_toboard","","","","tol_peg_1","567","567","0","[[3,0,0],[1,0],[2]]","8","[[0,0,0],[2,3],[1]]","12","0","","","","","","4","","","","","","","","",""
"","","","","","single-stim-button","193","451581","0.0-2.0-46.8-0.8","5d6494874e9aae0019598b14","C3","batch3","","535","tol_tohand","","","","tol_peg_2","535","535","0","[[3,0,0],[0,0],[2]]","9","[[0,0,0],[2,3],[1]]","12","0","","","","","","4","","","","","","","","",""
"","","","","","single-stim-button","194","452205","0.0-2.0-46.8-1.8","5d6494874e9aae0019598b14","C3","batch3","","624","tol_toboard","","","","tol_peg_1","624","624","0","[[3,1,0],[0,0],[2]]","9","[[0,0,0],[2,3],[1]]","12","0","","","","","","4","","","","","","","","",""
"","","","","","single-stim-button","195","452880","0.0-2.0-46.9-0.9","5d6494874e9aae0019598b14","C3","batch3","","675","tol_tohand","","","","tol_peg_3","675","675","0","[[3,1,0],[0,0],[0]]","10","[[0,0,0],[2,3],[1]]","12","0","","","","","","4","","","","","","","","",""
"","","","","","single-stim-button","196","453707","0.0-2.0-46.9-1.9","5d6494874e9aae0019598b14","C3","batch3","","826","tol_toboard","","","","tol_peg_2","826","826","0","[[3,1,0],[2,0],[0]]","10","[[0,0,0],[2,3],[1]]","12","0","","","","","","4","","","","","","","","",""
"","","","","","single-stim-button","197","455075","0.0-2.0-46.10-0.10","5d6494874e9aae0019598b14","C3","batch3","","1368","tol_tohand","","","","tol_peg_1","1368","1368","0","[[3,0,0],[2,0],[0]]","11","[[0,0,0],[2,3],[1]]","12","0","","","","","","4","","","","","","","","",""
"","","","","","single-stim-button","198","455765","0.0-2.0-46.10-1.10","5d6494874e9aae0019598b14","C3","batch3","","690","tol_toboard","","","","tol_peg_3","690","690","0","[[3,0,0],[2,0],[1]]","11","[[0,0,0],[2,3],[1]]","12","0","","","","","","4","","","","","","","","",""
"","","","","","single-stim-button","199","457134","0.0-2.0-46.11-0.11","5d6494874e9aae0019598b14","C3","batch3","","1368","tol_tohand","","","","tol_peg_1","1368","1368","0","[[0,0,0],[2,0],[1]]","12","[[0,0,0],[2,3],[1]]","12","0","","","","","","4","","","","","","","","",""
"","","","","","single-stim-button","200","457693","0.0-2.0-46.11-1.11","5d6494874e9aae0019598b14","C3","batch3","","559","tol_toboard","","","","tol_peg_2","559","559","0","[[0,0,0],[2,3],[1]]","12","[[0,0,0],[2,3],[1]]","12","0","","","","","","4","","","","","","","","",""
"","","","","","poldrack-single-stim","201","458709","0.0-2.0-47.0","5d6494874e9aae0019598b14","C3","batch3","","-1","tol_feedback","","","true","","1000","1000","500","","","","","","-1","none","true","2842","14805","","","","","","","","","",""
"","","","","","html-button-response","202","466633","0.0-2.0-48.0","5d6494874e9aae0019598b14","C3","batch3","","7923.5","attention_check","<p class = block-text>How many balls are in your board<br></p>","1","true","","","","","","","","","","","","","","","","","","","","","","","",""
"","","","","","html-button-response","203","467570","0.0-2.0-49.0","5d6494874e9aae0019598b14","C3","batch3","","936","tol_trial_num","<div class = centerbox><p class = center-block-text>problem <strong>14</strong> out of 25 problems</p></div>","0","","","","","","","","","","","","","","","","","","","","","","","","",""
"","","","","","single-stim-button","204","471914","0.0-2.0-50.0-0.0","5d6494874e9aae0019598b14","C3","batch3","","4344","tol_tohand","","","","tol_peg_1","4344","4344","0","[[2,0,0],[3,0],[0]]","1","[[1,2,0],[3,0],[0]]","13","0","","","","","","4","","","","","","","","",""
"","","","","","single-stim-button","205","472585","0.0-2.0-50.0-1.0","5d6494874e9aae0019598b14","C3","batch3","","671","tol_toboard","","","","tol_peg_3","671","671","0","[[2,0,0],[3,0],[1]]","1","[[1,2,0],[3,0],[0]]","13","0","","","","","","4","","","","","","","","",""
"","","","","","single-stim-button","206","473126","0.0-2.0-50.1-0.1","5d6494874e9aae0019598b14","C3","batch3","","541","tol_tohand","","","","tol_peg_1","541","541","0","[[0,0,0],[3,0],[1]]","2","[[1,2,0],[3,0],[0]]","13","0","","","","","","4","","","","","","","","",""
"","","","","","single-stim-button","207","473474","0.0-2.0-50.1-1.1","5d6494874e9aae0019598b14","C3","batch3","","348","tol_toboard","","","","tol_peg_2","348","348","0","[[0,0,0],[3,2],[1]]","2","[[1,2,0],[3,0],[0]]","13","0","","","","","","4","","","","","","","","",""
"","","","","","single-stim-button","208","473874","0.0-2.0-50.2-0.2","5d6494874e9aae0019598b14","C3","batch3","","399","tol_tohand","","","","tol_peg_3","399","399","0","[[0,0,0],[3,2],[0]]","3","[[1,2,0],[3,0],[0]]","13","0","","","","","","4","","","","","","","","",""
"","","","","","single-stim-button","209","474336","0.0-2.0-50.2-1.2","5d6494874e9aae0019598b14","C3","batch3","","461","tol_toboard","","","","tol_peg_1","461","461","0","[[1,0,0],[3,2],[0]]","3","[[1,2,0],[3,0],[0]]","13","0","","","","","","4","","","","","","","","",""
"","","","","","single-stim-button","210","474885","0.0-2.0-50.3-0.3","5d6494874e9aae0019598b14","C3","batch3","","549","tol_tohand","","","","tol_peg_2","549","549","0","[[1,0,0],[3,0],[0]]","4","[[1,2,0],[3,0],[0]]","13","0","","","","","","4","","","","","","","","",""
"","","","","","single-stim-button","211","475327","0.0-2.0-50.3-1.3","5d6494874e9aae0019598b14","C3","batch3","","442","tol_toboard","","","","tol_peg_1","442","442","0","[[1,2,0],[3,0],[0]]","4","[[1,2,0],[3,0],[0]]","13","0","","","","","","4","","","","","","","","",""
"","","","","","poldrack-single-stim","212","476343","0.0-2.0-51.0","5d6494874e9aae0019598b14","C3","batch3","","-1","tol_feedback","","","true","","1000","1000","500","","","","","","-1","none","true","4344","5833","","","","","","","","","",""
"","","","","","html-button-response","213","477841","0.0-2.0-52.0","5d6494874e9aae0019598b14","C3","batch3","","1497.6000000238419","tol_trial_num","<div class = centerbox><p class = center-block-text>problem <strong>15</strong> out of 25 problems</p></div>","0","","","","","","","","","","","","","","","","","","","","","","","","",""
"","","","","","single-stim-button","214","483435","0.0-2.0-53.0-0.0","5d6494874e9aae0019598b14","C3","batch3","","5594","tol_tohand","","","","tol_peg_1","5594","5594","0","[[1,0,0],[3,0],[0]]","1","[[2,0,0],[3,0],[1]]","14","0","","","","","","3","","","","","","","","",""
"","","","","","single-stim-button","215","484157","0.0-2.0-53.0-1.0","5d6494874e9aae0019598b14","C3","batch3","","721","tol_toboard","","","","tol_peg_2","721","721","0","[[1,0,0],[3,2],[0]]","1","[[2,0,0],[3,0],[1]]","14","0","","","","","","3","","","","","","","","",""
"","","","","","single-stim-button","216","484642","0.0-2.0-53.1-0.1","5d6494874e9aae0019598b14","C3","batch3","","485","tol_tohand","","","","tol_peg_1","485","485","0","[[0,0,0],[3,2],[0]]","2","[[2,0,0],[3,0],[1]]","14","0","","","","","","3","","","","","","","","",""
"","","","","","single-stim-button","217","485469","0.0-2.0-53.1-1.1","5d6494874e9aae0019598b14","C3","batch3","","826","tol_toboard","","","","tol_peg_3","826","826","0","[[0,0,0],[3,2],[1]]","2","[[2,0,0],[3,0],[1]]","14","0","","","","","","3","","","","","","","","",""
"","","","","","single-stim-button","218","485985","0.0-2.0-53.2-0.2","5d6494874e9aae0019598b14","C3","batch3","","516","tol_tohand","","","","tol_peg_2","516","516","0","[[0,0,0],[3,0],[1]]","3","[[2,0,0],[3,0],[1]]","14","0","","","","","","3","","","","","","","","",""
"","","","","","single-stim-button","219","486585","0.0-2.0-53.2-1.2","5d6494874e9aae0019598b14","C3","batch3","","600","tol_toboard","","","","tol_peg_1","600","600","0","[[2,0,0],[3,0],[1]]","3","[[2,0,0],[3,0],[1]]","14","0","","","","","","3","","","","","","","","",""
"","","","","","poldrack-single-stim","220","487586","0.0-2.0-54.0","5d6494874e9aae0019598b14","C3","batch3","","-1","tol_feedback","","","true","","1000","1000","500","","","","","","-1","none","true","5594","6595","","","","","","","","","",""
"","","","","","html-button-response","221","492194","0.0-2.0-55.0","5d6494874e9aae0019598b14","C3","batch3","","4607.100000023842","tol_trial_num","<div class = centerbox><p class = center-block-text>problem <strong>16</strong> out of 25 problems</p></div>","0","","","","","","","","","","","","","","","","","","","","","","","","",""
"","","","","","single-stim-button","222","502791","0.0-2.0-56.0-0.0","5d6494874e9aae0019598b14","C3","batch3","","10597","tol_tohand","","","","tol_peg_2","10597","10597","0","[[0,0,0],[2,0],[1]]","1","[[2,3,0],[1,0],[0]]","15","0","","","","","","7","","","","","","","","",""
"","","","","","single-stim-button","223","503461","0.0-2.0-56.0-1.0","5d6494874e9aae0019598b14","C3","batch3","","669","tol_toboard","","","","tol_peg_1","669","669","0","[[3,0,0],[2,0],[1]]","1","[[2,3,0],[1,0],[0]]","15","0","","","","","","7","","","","","","","","",""
"","","","","","single-stim-button","224","504091","0.0-2.0-56.1-0.1","5d6494874e9aae0019598b14","C3","batch3","","629","tol_tohand","","","","tol_peg_3","629","629","0","[[3,0,0],[2,0],[0]]","2","[[2,3,0],[1,0],[0]]","15","0","","","","","","7","","","","","","","","",""
"","","","","","single-stim-button","225","504927","0.0-2.0-56.1-1.1","5d6494874e9aae0019598b14","C3","batch3","","835","tol_toboard","","","","tol_peg_1","835","835","0","[[3,1,0],[2,0],[0]]","2","[[2,3,0],[1,0],[0]]","15","0","","","","","","7","","","","","","","","",""
"","","","","","single-stim-button","226","505391","0.0-2.0-56.2-0.2","5d6494874e9aae0019598b14","C3","batch3","","463","tol_tohand","","","","tol_peg_2","463","463","0","[[3,1,0],[0,0],[0]]","3","[[2,3,0],[1,0],[0]]","15","0","","","","","","7","","","","","","","","",""
"","","","","","single-stim-button","227","506095","0.0-2.0-56.2-1.2","5d6494874e9aae0019598b14","C3","batch3","","704","tol_toboard","","","","tol_peg_3","704","704","0","[[3,1,0],[0,0],[2]]","3","[[2,3,0],[1,0],[0]]","15","0","","","","","","7","","","","","","","","",""
"","","","","","single-stim-button","228","512079","0.0-2.0-56.3-0.3","5d6494874e9aae0019598b14","C3","batch3","","5984","tol_tohand","","","","tol_peg_1","5984","5984","0","[[3,0,0],[0,0],[2]]","4","[[2,3,0],[1,0],[0]]","15","0","","","","","","7","","","","","","","","",""
"","","","","","single-stim-button","229","512683","0.0-2.0-56.3-1.3","5d6494874e9aae0019598b14","C3","batch3","","604","tol_toboard","","","","tol_peg_2","604","604","0","[[3,0,0],[1,0],[2]]","4","[[2,3,0],[1,0],[0]]","15","0","","","","","","7","","","","","","","","",""
"","","","","","single-stim-button","230","513219","0.0-2.0-56.4-0.4","5d6494874e9aae0019598b14","C3","batch3","","536","tol_tohand","","","","tol_peg_1","536","536","0","[[0,0,0],[1,0],[2]]","5","[[2,3,0],[1,0],[0]]","15","0","","","","","","7","","","","","","","","",""
"","","","","","single-stim-button","231","513620","0.0-2.0-56.4-1.4","5d6494874e9aae0019598b14","C3","batch3","","400","tol_toboard","","","","tol_peg_2","400","400","0","[[0,0,0],[1,3],[2]]","5","[[2,3,0],[1,0],[0]]","15","0","","","","","","7","","","","","","","","",""
"","","","","","single-stim-button","232","514027","0.0-2.0-56.5-0.5","5d6494874e9aae0019598b14","C3","batch3","","407","tol_tohand","","","","tol_peg_3","407","407","0","[[0,0,0],[1,3],[0]]","6","[[2,3,0],[1,0],[0]]","15","0","","","","","","7","","","","","","","","",""
"","","","","","single-stim-button","233","514733","0.0-2.0-56.5-1.5","5d6494874e9aae0019598b14","C3","batch3","","705","tol_toboard","","","","tol_peg_1","705","705","0","[[2,0,0],[1,3],[0]]","6","[[2,3,0],[1,0],[0]]","15","0","","","","","","7","","","","","","","","",""
"","","","","","single-stim-button","234","515268","0.0-2.0-56.6-0.6","5d6494874e9aae0019598b14","C3","batch3","","535","tol_tohand","","","","tol_peg_2","535","535","0","[[2,0,0],[1,0],[0]]","7","[[2,3,0],[1,0],[0]]","15","0","","","","","","7","","","","","","","","",""
"","","","","","single-stim-button","235","515829","0.0-2.0-56.6-1.6","5d6494874e9aae0019598b14","C3","batch3","","561","tol_toboard","","","","tol_peg_1","561","561","0","[[2,3,0],[1,0],[0]]","7","[[2,3,0],[1,0],[0]]","15","0","","","","","","7","","","","","","","","",""
"","","","","","poldrack-single-stim","236","516846","0.0-2.0-57.0","5d6494874e9aae0019598b14","C3","batch3","","-1","tol_feedback","","","true","","1000","1000","500","","","","","","-1","none","true","10597","19151","","","","","","","","","",""
"","","","","","html-button-response","237","526559","0.0-2.0-58.0","5d6494874e9aae0019598b14","C3","batch3","","9712.799999952316","tol_trial_num","<div class = centerbox><p class = center-block-text>problem <strong>17</strong> out of 25 problems</p></div>","0","","","","","","","","","","","","","","","","","","","","","","","","",""
"","","","","","single-stim-button","238","533547","0.0-2.0-59.0-0.0","5d6494874e9aae0019598b14","C3","batch3","","6988","tol_tohand","","","","tol_peg_2","6988","6988","0","[[1,2,0],[0,0],[0]]","1","[[3,1,0],[2,0],[0]]","16","0","","","","","","5","","","","","","","","",""
"","","","","","single-stim-button","239","534165","0.0-2.0-59.0-1.0","5d6494874e9aae0019598b14","C3","batch3","","617","tol_toboard","","","","tol_peg_3","617","617","0","[[1,2,0],[0,0],[3]]","1","[[3,1,0],[2,0],[0]]","16","0","","","","","","5","","","","","","","","",""
"","","","","","single-stim-button","240","536404","0.0-2.0-59.1-0.1","5d6494874e9aae0019598b14","C3","batch3","","2238","tol_tohand","","","","tol_peg_1","2238","2238","0","[[1,0,0],[0,0],[3]]","2","[[3,1,0],[2,0],[0]]","16","0","","","","","","5","","","","","","","","",""
"","","","","","single-stim-button","241","536971","0.0-2.0-59.1-1.1","5d6494874e9aae0019598b14","C3","batch3","","567","tol_toboard","","","","tol_peg_2","567","567","0","[[1,0,0],[2,0],[3]]","2","[[3,1,0],[2,0],[0]]","16","0","","","","","","5","","","","","","","","",""
"","","","","","single-stim-button","242","537945","0.0-2.0-59.2-0.2","5d6494874e9aae0019598b14","C3","batch3","","974","tol_tohand","","","","tol_peg_1","974","974","0","[[0,0,0],[2,0],[3]]","3","[[3,1,0],[2,0],[0]]","16","0","","","","","","5","","","","","","","","",""
"","","","","","single-stim-button","243","538455","0.0-2.0-59.2-1.2","5d6494874e9aae0019598b14","C3","batch3","","510","tol_toboard","","","","tol_peg_2","510","510","0","[[0,0,0],[2,1],[3]]","3","[[3,1,0],[2,0],[0]]","16","0","","","","","","5","","","","","","","","",""
"","","","","","single-stim-button","244","538901","0.0-2.0-59.3-0.3","5d6494874e9aae0019598b14","C3","batch3","","446","tol_tohand","","","","tol_peg_3","446","446","0","[[0,0,0],[2,1],[0]]","4","[[3,1,0],[2,0],[0]]","16","0","","","","","","5","","","","","","","","",""
"","","","","","single-stim-button","245","539652","0.0-2.0-59.3-1.3","5d6494874e9aae0019598b14","C3","batch3","","751","tol_toboard","","","","tol_peg_1","751","751","0","[[3,0,0],[2,1],[0]]","4","[[3,1,0],[2,0],[0]]","16","0","","","","","","5","","","","","","","","",""
"","","","","","single-stim-button","246","540207","0.0-2.0-59.4-0.4","5d6494874e9aae0019598b14","C3","batch3","","554","tol_tohand","","","","tol_peg_2","554","554","0","[[3,0,0],[2,0],[0]]","5","[[3,1,0],[2,0],[0]]","16","0","","","","","","5","","","","","","","","",""
"","","","","","single-stim-button","247","540799","0.0-2.0-59.4-1.4","5d6494874e9aae0019598b14","C3","batch3","","592","tol_toboard","","","","tol_peg_1","592","592","0","[[3,1,0],[2,0],[0]]","5","[[3,1,0],[2,0],[0]]","16","0","","","","","","5","","","","","","","","",""
"","","","","","poldrack-single-stim","248","541800","0.0-2.0-60.0","5d6494874e9aae0019598b14","C3","batch3","","-1","tol_feedback","","","true","","1000","1000","500","","","","","","-1","none","true","6988","11200","","","","","","","","","",""
"","","","","","html-button-response","249","547731","0.0-2.0-61.0","5d6494874e9aae0019598b14","C3","batch3","","5930.200000047684","tol_trial_num","<div class = centerbox><p class = center-block-text>problem <strong>18</strong> out of 25 problems</p></div>","0","","","","","","","","","","","","","","","","","","","","","","","","",""
"","","","","","single-stim-button","250","553126","0.0-2.0-62.0-0.0","5d6494874e9aae0019598b14","C3","batch3","","5394","tol_tohand","","","","tol_peg_1","5394","5394","0","[[1,0,0],[3,0],[0]]","1","[[3,0,0],[2,0],[1]]","17","0","","","","","","5","","","","","","","","",""
"","","","","","single-stim-button","251","553774","0.0-2.0-62.0-1.0","5d6494874e9aae0019598b14","C3","batch3","","647","tol_toboard","","","","tol_peg_2","647","647","0","[[1,0,0],[3,2],[0]]","1","[[3,0,0],[2,0],[1]]","17","0","","","","","","5","","","","","","","","",""
"","","","","","single-stim-button","252","554266","0.0-2.0-62.1-0.1","5d6494874e9aae0019598b14","C3","batch3","","492","tol_tohand","","","","tol_peg_1","492","492","0","[[0,0,0],[3,2],[0]]","2","[[3,0,0],[2,0],[1]]","17","0","","","","","","5","","","","","","","","",""
"","","","","","single-stim-button","253","554951","0.0-2.0-62.1-1.1","5d6494874e9aae0019598b14","C3","batch3","","683","tol_toboard","","","","tol_peg_3","683","683","0","[[0,0,0],[3,2],[1]]","2","[[3,0,0],[2,0],[1]]","17","0","","","","","","5","","","","","","","","",""
"","","","","","single-stim-button","254","564018","0.0-2.0-62.2-0.2","5d6494874e9aae0019598b14","C3","batch3","","9067","tol_tohand","","","","tol_peg_2","9067","9067","0","[[0,0,0],[3,0],[1]]","3","[[3,0,0],[2,0],[1]]","17","0","","","","","","5","","","","","","","","",""
"","","","","","single-stim-button","255","564938","0.0-2.0-62.2-1.2","5d6494874e9aae0019598b14","C3","batch3","","920","tol_toboard","","","","tol_peg_1","920","920","0","[[2,0,0],[3,0],[1]]","3","[[3,0,0],[2,0],[1]]","17","0","","","","","","5","","","","","","","","",""
"","","","","","single-stim-button","256","565942","0.0-2.0-62.3-0.3","5d6494874e9aae0019598b14","C3","batch3","","1004","tol_tohand","","","","tol_peg_2","1004","1004","0","[[2,0,0],[0,0],[1]]","4","[[3,0,0],[2,0],[1]]","17","0","","","","","","5","","","","","","","","",""
"","","","","","single-stim-button","257","566372","0.0-2.0-62.3-1.3","5d6494874e9aae0019598b14","C3","batch3","","430","tol_toboard","","","","tol_peg_1","430","430","0","[[2,3,0],[0,0],[1]]","4","[[3,0,0],[2,0],[1]]","17","0","","","","","","5","","","","","","","","",""
"","","","","","single-stim-button","258","566914","0.0-2.0-62.4-0.4","5d6494874e9aae0019598b14","C3","batch3","","542","tol_tohand","","","","tol_peg_3","542","542","0","[[2,3,0],[0,0],[0]]","5","[[3,0,0],[2,0],[1]]","17","0","","","","","","5","","","","","","","","",""
"","","","","","single-stim-button","259","567636","0.0-2.0-62.4-1.4","5d6494874e9aae0019598b14","C3","batch3","","722","tol_toboard","","","","tol_peg_2","722","722","0","[[2,3,0],[1,0],[0]]","5","[[3,0,0],[2,0],[1]]","17","0","","","","","","5","","","","","","","","",""
"","","","","","single-stim-button","260","572668","0.0-2.0-62.5-0.5","5d6494874e9aae0019598b14","C3","batch3","","5032","tol_tohand","","","","tol_peg_1","5032","5032","0","[[2,0,0],[1,0],[0]]","6","[[3,0,0],[2,0],[1]]","17","0","","","","","","5","","","","","","","","",""
"","","","","","single-stim-button","261","573638","0.0-2.0-62.5-1.5","5d6494874e9aae0019598b14","C3","batch3","","969","tol_toboard","","","","tol_peg_3","969","969","0","[[2,0,0],[1,0],[3]]","6","[[3,0,0],[2,0],[1]]","17","0","","","","","","5","","","","","","","","",""
"","","","","","single-stim-button","262","574426","0.0-2.0-62.6-0.6","5d6494874e9aae0019598b14","C3","batch3","","788","tol_tohand","","","","tol_peg_1","788","788","0","[[0,0,0],[1,0],[3]]","7","[[3,0,0],[2,0],[1]]","17","0","","","","","","5","","","","","","","","",""
"","","","","","single-stim-button","263","574878","0.0-2.0-62.6-1.6","5d6494874e9aae0019598b14","C3","batch3","","452","tol_toboard","","","","tol_peg_2","452","452","0","[[0,0,0],[1,2],[3]]","7","[[3,0,0],[2,0],[1]]","17","0","","","","","","5","","","","","","","","",""
"","","","","","single-stim-button","264","575362","0.0-2.0-62.7-0.7","5d6494874e9aae0019598b14","C3","batch3","","483","tol_tohand","","","","tol_peg_3","483","483","0","[[0,0,0],[1,2],[0]]","8","[[3,0,0],[2,0],[1]]","17","0","","","","","","5","","","","","","","","",""
"","","","","","single-stim-button","265","576238","0.0-2.0-62.7-1.7","5d6494874e9aae0019598b14","C3","batch3","","875","tol_toboard","","","","tol_peg_1","875","875","0","[[3,0,0],[1,2],[0]]","8","[[3,0,0],[2,0],[1]]","17","0","","","","","","5","","","","","","","","",""
"","","","","","single-stim-button","266","577304","0.0-2.0-62.8-0.8","5d6494874e9aae0019598b14","C3","batch3","","1066","tol_tohand","","","","tol_peg_2","1066","1066","0","[[3,0,0],[1,0],[0]]","9","[[3,0,0],[2,0],[1]]","17","0","","","","","","5","","","","","","","","",""
"","","","","","single-stim-button","267","577356","0.0-2.0-62.8-1.8","5d6494874e9aae0019598b14","C3","batch3","","52","tol_toboard","","","","tol_peg_2","52","52","0","[[3,0,0],[1,2],[0]]","9","[[3,0,0],[2,0],[1]]","17","0","","","","","","5","","","","","","","","",""
"","","","","","single-stim-button","268","578516","0.0-2.0-62.9-0.9","5d6494874e9aae0019598b14","C3","batch3","","1160","tol_tohand","","","","tol_peg_2","1160","1160","0","[[3,0,0],[1,0],[0]]","10","[[3,0,0],[2,0],[1]]","17","0","","","","","","5","","","","","","","","",""
"","","","","","single-stim-button","269","579068","0.0-2.0-62.9-1.9","5d6494874e9aae0019598b14","C3","batch3","","551","tol_toboard","","","","tol_peg_1","551","551","0","[[3,2,0],[1,0],[0]]","10","[[3,0,0],[2,0],[1]]","17","0","","","","","","5","","","","","","","","",""
"","","","","","single-stim-button","270","579714","0.0-2.0-62.10-0.10","5d6494874e9aae0019598b14","C3","batch3","","646","tol_tohand","","","","tol_peg_2","646","646","0","[[3,2,0],[0,0],[0]]","11","[[3,0,0],[2,0],[1]]","17","0","","","","","","5","","","","","","","","",""
"","","","","","single-stim-button","271","580584","0.0-2.0-62.10-1.10","5d6494874e9aae0019598b14","C3","batch3","","870","tol_toboard","","","","tol_peg_3","870","870","0","[[3,2,0],[0,0],[1]]","11","[[3,0,0],[2,0],[1]]","17","0","","","","","","5","","","","","","","","",""
"","","","","","single-stim-button","272","581282","0.0-2.0-62.11-0.11","5d6494874e9aae0019598b14","C3","batch3","","698","tol_tohand","","","","tol_peg_1","698","698","0","[[3,0,0],[0,0],[1]]","12","[[3,0,0],[2,0],[1]]","17","0","","","","","","5","","","","","","","","",""
"","","","","","single-stim-button","273","581860","0.0-2.0-62.11-1.11","5d6494874e9aae0019598b14","C3","batch3","","578","tol_toboard","","","","tol_peg_2","578","578","0","[[3,0,0],[2,0],[1]]","12","[[3,0,0],[2,0],[1]]","17","0","","","","","","5","","","","","","","","",""
"","","","","","poldrack-single-stim","274","582868","0.0-2.0-63.0","5d6494874e9aae0019598b14","C3","batch3","","-1","tol_feedback","","","true","","1000","1000","500","","","","","","-1","none","true","5394","26372","","","","","","","","","",""
"","","","","","html-button-response","275","603301","0.0-2.0-64.0","5d6494874e9aae0019598b14","C3","batch3","","20433.100000023842","tol_trial_num","<div class = centerbox><p class = center-block-text>problem <strong>19</strong> out of 25 problems</p></div>","0","","","","","","","","","","","","","","","","","","","","","","","","",""
"","","","","","single-stim-button","276","609950","0.0-2.0-65.0-0.0","5d6494874e9aae0019598b14","C3","batch3","","6648","tol_tohand","","","","tol_peg_1","6648","6648","0","[[1,0,0],[3,0],[0]]","1","[[0,0,0],[1,2],[3]]","18","0","","","","","","7","","","","","","","","",""
"","","","","","single-stim-button","277","610609","0.0-2.0-65.0-1.0","5d6494874e9aae0019598b14","C3","batch3","","659","tol_toboard","","","","tol_peg_2","659","659","0","[[1,0,0],[3,2],[0]]","1","[[0,0,0],[1,2],[3]]","18","0","","","","","","7","","","","","","","","",""
"","","","","","single-stim-button","278","611145","0.0-2.0-65.1-0.1","5d6494874e9aae0019598b14","C3","batch3","","536","tol_tohand","","","","tol_peg_1","536","536","0","[[0,0,0],[3,2],[0]]","2","[[0,0,0],[1,2],[3]]","18","0","","","","","","7","","","","","","","","",""
"","","","","","single-stim-button","279","612041","0.0-2.0-65.1-1.1","5d6494874e9aae0019598b14","C3","batch3","","895","tol_toboard","","","","tol_peg_3","895","895","0","[[0,0,0],[3,2],[1]]","2","[[0,0,0],[1,2],[3]]","18","0","","","","","","7","","","","","","","","",""
"","","","","","single-stim-button","280","612953","0.0-2.0-65.2-0.2","5d6494874e9aae0019598b14","C3","batch3","","911","tol_tohand","","","","tol_peg_2","911","911","0","[[0,0,0],[3,0],[1]]","3","[[0,0,0],[1,2],[3]]","18","0","","","","","","7","","","","","","","","",""
"","","","","","single-stim-button","281","613660","0.0-2.0-65.2-1.2","5d6494874e9aae0019598b14","C3","batch3","","706","tol_toboard","","","","tol_peg_1","706","706","0","[[2,0,0],[3,0],[1]]","3","[[0,0,0],[1,2],[3]]","18","0","","","","","","7","","","","","","","","",""
"","","","","","single-stim-button","282","614333","0.0-2.0-65.3-0.3","5d6494874e9aae0019598b14","C3","batch3","","672","tol_tohand","","","","tol_peg_2","672","672","0","[[2,0,0],[0,0],[1]]","4","[[0,0,0],[1,2],[3]]","18","0","","","","","","7","","","","","","","","",""
"","","","","","single-stim-button","283","614982","0.0-2.0-65.3-1.3","5d6494874e9aae0019598b14","C3","batch3","","649","tol_toboard","","","","tol_peg_1","649","649","0","[[2,3,0],[0,0],[1]]","4","[[0,0,0],[1,2],[3]]","18","0","","","","","","7","","","","","","","","",""
"","","","","","single-stim-button","284","615569","0.0-2.0-65.4-0.4","5d6494874e9aae0019598b14","C3","batch3","","586","tol_tohand","","","","tol_peg_3","586","586","0","[[2,3,0],[0,0],[0]]","5","[[0,0,0],[1,2],[3]]","18","0","","","","","","7","","","","","","","","",""
"","","","","","single-stim-button","285","617121","0.0-2.0-65.4-1.4","5d6494874e9aae0019598b14","C3","batch3","","1552","tol_toboard","","","","tol_peg_2","1552","1552","0","[[2,3,0],[1,0],[0]]","5","[[0,0,0],[1,2],[3]]","18","0","","","","","","7","","","","","","","","",""
"","","","","","single-stim-button","286","618935","0.0-2.0-65.5-0.5","5d6494874e9aae0019598b14","C3","batch3","","1813","tol_tohand","","","","tol_peg_1","1813","1813","0","[[2,0,0],[1,0],[0]]","6","[[0,0,0],[1,2],[3]]","18","0","","","","","","7","","","","","","","","",""
"","","","","","single-stim-button","287","619663","0.0-2.0-65.5-1.5","5d6494874e9aae0019598b14","C3","batch3","","728","tol_toboard","","","","tol_peg_3","728","728","0","[[2,0,0],[1,0],[3]]","6","[[0,0,0],[1,2],[3]]","18","0","","","","","","7","","","","","","","","",""
"","","","","","single-stim-button","288","620438","0.0-2.0-65.6-0.6","5d6494874e9aae0019598b14","C3","batch3","","774","tol_tohand","","","","tol_peg_1","774","774","0","[[0,0,0],[1,0],[3]]","7","[[0,0,0],[1,2],[3]]","18","0","","","","","","7","","","","","","","","",""
"","","","","","single-stim-button","289","621107","0.0-2.0-65.6-1.6","5d6494874e9aae0019598b14","C3","batch3","","669","tol_toboard","","","","tol_peg_2","669","669","0","[[0,0,0],[1,2],[3]]","7","[[0,0,0],[1,2],[3]]","18","0","","","","","","7","","","","","","","","",""
"","","","","","poldrack-single-stim","290","622109","0.0-2.0-66.0","5d6494874e9aae0019598b14","C3","batch3","","-1","tol_feedback","","","true","","1000","1000","500","","","","","","-1","none","true","6648","11940","","","","","","","","","",""
"","","","","","html-button-response","291","623087","0.0-2.0-67.0","5d6494874e9aae0019598b14","C3","batch3","","977.3999999761581","tol_trial_num","<div class = centerbox><p class = center-block-text>problem <strong>20</strong> out of 25 problems</p></div>","0","","","","","","","","","","","","","","","","","","","","","","","","",""
"","","","","","single-stim-button","292","626337","0.0-2.0-68.0-0.0","5d6494874e9aae0019598b14","C3","batch3","","3249","tol_tohand","","","","tol_peg_1","3249","3249","0","[[1,0,0],[3,0],[0]]","1","[[2,1,0],[0,0],[3]]","19","0","","","","","","5","","","","","","","","",""
"","","","","","single-stim-button","293","628453","0.0-2.0-68.0-1.0","5d6494874e9aae0019598b14","C3","batch3","","2116","tol_toboard","","","","tol_peg_3","2116","2116","0","[[1,0,0],[3,0],[2]]","1","[[2,1,0],[0,0],[3]]","19","0","","","","","","5","","","","","","","","",""
"","","","","","single-stim-button","294","629030","0.0-2.0-68.1-0.1","5d6494874e9aae0019598b14","C3","batch3","","576","tol_tohand","","","","tol_peg_1","576","576","0","[[0,0,0],[3,0],[2]]","2","[[2,1,0],[0,0],[3]]","19","0","","","","","","5","","","","","","","","",""
"","","","","","single-stim-button","295","629526","0.0-2.0-68.1-1.1","5d6494874e9aae0019598b14","C3","batch3","","496","tol_toboard","","","","tol_peg_2","496","496","0","[[0,0,0],[3,1],[2]]","2","[[2,1,0],[0,0],[3]]","19","0","","","","","","5","","","","","","","","",""
"","","","","","single-stim-button","296","630165","0.0-2.0-68.2-0.2","5d6494874e9aae0019598b14","C3","batch3","","639","tol_tohand","","","","tol_peg_3","639","639","0","[[0,0,0],[3,1],[0]]","3","[[2,1,0],[0,0],[3]]","19","0","","","","","","5","","","","","","","","",""
"","","","","","single-stim-button","297","630939","0.0-2.0-68.2-1.2","5d6494874e9aae0019598b14","C3","batch3","","773","tol_toboard","","","","tol_peg_1","773","773","0","[[2,0,0],[3,1],[0]]","3","[[2,1,0],[0,0],[3]]","19","0","","","","","","5","","","","","","","","",""
"","","","","","single-stim-button","298","631483","0.0-2.0-68.3-0.3","5d6494874e9aae0019598b14","C3","batch3","","543","tol_tohand","","","","tol_peg_2","543","543","0","[[2,0,0],[3,0],[0]]","4","[[2,1,0],[0,0],[3]]","19","0","","","","","","5","","","","","","","","",""
"","","","","","single-stim-button","299","631965","0.0-2.0-68.3-1.3","5d6494874e9aae0019598b14","C3","batch3","","481","tol_toboard","","","","tol_peg_1","481","481","0","[[2,1,0],[3,0],[0]]","4","[[2,1,0],[0,0],[3]]","19","0","","","","","","5","","","","","","","","",""
"","","","","","single-stim-button","300","632841","0.0-2.0-68.4-0.4","5d6494874e9aae0019598b14","C3","batch3","","876","tol_tohand","","","","tol_peg_2","876","876","0","[[2,1,0],[0,0],[0]]","5","[[2,1,0],[0,0],[3]]","19","0","","","","","","5","","","","","","","","",""
"","","","","","single-stim-button","301","633493","0.0-2.0-68.4-1.4","5d6494874e9aae0019598b14","C3","batch3","","652","tol_toboard","","","","tol_peg_3","652","652","0","[[2,1,0],[0,0],[3]]","5","[[2,1,0],[0,0],[3]]","19","0","","","","","","5","","","","","","","","",""
"","","","","","poldrack-single-stim","302","634496","0.0-2.0-69.0","5d6494874e9aae0019598b14","C3","batch3","","-1","tol_feedback","","","true","","1000","1000","500","","","","","","-1","none","true","3249","5883","","","","","","","","","",""
"","","","","","html-button-response","303","635243","0.0-2.0-70.0","5d6494874e9aae0019598b14","C3","batch3","","746.6000000238419","tol_trial_num","<div class = centerbox><p class = center-block-text>problem <strong>21</strong> out of 25 problems</p></div>","0","","","","","","","","","","","","","","","","","","","","","","","","",""
"","","","","","single-stim-button","304","638849","0.0-2.0-71.0-0.0","5d6494874e9aae0019598b14","C3","batch3","","3606","tol_tohand","","","","tol_peg_2","3606","3606","0","[[1,2,0],[0,0],[0]]","1","[[3,2,0],[0,0],[1]]","20","0","","","","","","6","","","","","","","","",""
"","","","","","single-stim-button","305","639659","0.0-2.0-71.0-1.0","5d6494874e9aae0019598b14","C3","batch3","","809","tol_toboard","","","","tol_peg_3","809","809","0","[[1,2,0],[0,0],[3]]","1","[[3,2,0],[0,0],[1]]","20","0","","","","","","6","","","","","","","","",""
"","","","","","single-stim-button","306","641455","0.0-2.0-71.1-0.1","5d6494874e9aae0019598b14","C3","batch3","","1795","tol_tohand","","","","tol_peg_1","1795","1795","0","[[1,0,0],[0,0],[3]]","2","[[3,2,0],[0,0],[1]]","20","0","","","","","","6","","","","","","","","",""
"","","","","","single-stim-button","307","642561","0.0-2.0-71.1-1.1","5d6494874e9aae0019598b14","C3","batch3","","1105","tol_toboard","","","","tol_peg_2","1105","1105","0","[[1,0,0],[2,0],[3]]","2","[[3,2,0],[0,0],[1]]","20","0","","","","","","6","","","","","","","","",""
"","","","","","single-stim-button","308","647975","0.0-2.0-71.2-0.2","5d6494874e9aae0019598b14","C3","batch3","","5413","tol_tohand","","","","tol_peg_1","5413","5413","0","[[0,0,0],[2,0],[3]]","3","[[3,2,0],[0,0],[1]]","20","0","","","","","","6","","","","","","","","",""
"","","","","","single-stim-button","309","648641","0.0-2.0-71.2-1.2","5d6494874e9aae0019598b14","C3","batch3","","665","tol_toboard","","","","tol_peg_2","665","665","0","[[0,0,0],[2,1],[3]]","3","[[3,2,0],[0,0],[1]]","20","0","","","","","","6","","","","","","","","",""
"","","","","","single-stim-button","310","649233","0.0-2.0-71.3-0.3","5d6494874e9aae0019598b14","C3","batch3","","591","tol_tohand","","","","tol_peg_3","591","591","0","[[0,0,0],[2,1],[0]]","4","[[3,2,0],[0,0],[1]]","20","0","","","","","","6","","","","","","","","",""
"","","","","","single-stim-button","311","649939","0.0-2.0-71.3-1.3","5d6494874e9aae0019598b14","C3","batch3","","705","tol_toboard","","","","tol_peg_1","705","705","0","[[3,0,0],[2,1],[0]]","4","[[3,2,0],[0,0],[1]]","20","0","","","","","","6","","","","","","","","",""
"","","","","","single-stim-button","312","650577","0.0-2.0-71.4-0.4","5d6494874e9aae0019598b14","C3","batch3","","637","tol_tohand","","","","tol_peg_2","637","637","0","[[3,0,0],[2,0],[0]]","5","[[3,2,0],[0,0],[1]]","20","0","","","","","","6","","","","","","","","",""
"","","","","","single-stim-button","313","651485","0.0-2.0-71.4-1.4","5d6494874e9aae0019598b14","C3","batch3","","907","tol_toboard","","","","tol_peg_3","907","907","0","[[3,0,0],[2,0],[1]]","5","[[3,2,0],[0,0],[1]]","20","0","","","","","","6","","","","","","","","",""
"","","","","","single-stim-button","314","651975","0.0-2.0-71.5-0.5","5d6494874e9aae0019598b14","C3","batch3","","490","tol_tohand","","","","tol_peg_2","490","490","0","[[3,0,0],[0,0],[1]]","6","[[3,2,0],[0,0],[1]]","20","0","","","","","","6","","","","","","","","",""
"","","","","","single-stim-button","315","652445","0.0-2.0-71.5-1.5","5d6494874e9aae0019598b14","C3","batch3","","469","tol_toboard","","","","tol_peg_1","469","469","0","[[3,2,0],[0,0],[1]]","6","[[3,2,0],[0,0],[1]]","20","0","","","","","","6","","","","","","","","",""
"","","","","","poldrack-single-stim","316","653461","0.0-2.0-72.0","5d6494874e9aae0019598b14","C3","batch3","","-1","tol_feedback","","","true","","1000","1000","500","","","","","","-1","none","true","3606","12532","","","","","","","","","",""
"","","","","","html-button-response","317","654299","0.0-2.0-73.0","5d6494874e9aae0019598b14","C3","batch3","","837.0999999046326","tol_trial_num","<div class = centerbox><p class = center-block-text>problem <strong>22</strong> out of 25 problems</p></div>","0","","","","","","","","","","","","","","","","","","","","","","","","",""
"","","","","","single-stim-button","318","657867","0.0-2.0-74.0-0.0","5d6494874e9aae0019598b14","C3","batch3","","3568","tol_tohand","","","","tol_peg_1","3568","3568","0","[[0,0,0],[2,3],[0]]","1","[[0,0,0],[1,2],[3]]","21","0","","","","","","6","","","","","","","","",""
"","","","","","single-stim-button","319","658553","0.0-2.0-74.0-1.0","5d6494874e9aae0019598b14","C3","batch3","","685","tol_toboard","","","","tol_peg_3","685","685","0","[[0,0,0],[2,3],[1]]","1","[[0,0,0],[1,2],[3]]","21","0","","","","","","6","","","","","","","","",""
"","","","","","single-stim-button","320","659875","0.0-2.0-74.1-0.1","5d6494874e9aae0019598b14","C3","batch3","","1321","tol_tohand","","","","tol_peg_2","1321","1321","0","[[0,0,0],[2,0],[1]]","2","[[0,0,0],[1,2],[3]]","21","0","","","","","","6","","","","","","","","",""
"","","","","","single-stim-button","321","660611","0.0-2.0-74.1-1.1","5d6494874e9aae0019598b14","C3","batch3","","735","tol_toboard","","","","tol_peg_1","735","735","0","[[3,0,0],[2,0],[1]]","2","[[0,0,0],[1,2],[3]]","21","0","","","","","","6","","","","","","","","",""
"","","","","","single-stim-button","322","661105","0.0-2.0-74.2-0.2","5d6494874e9aae0019598b14","C3","batch3","","494","tol_tohand","","","","tol_peg_2","494","494","0","[[3,0,0],[0,0],[1]]","3","[[0,0,0],[1,2],[3]]","21","0","","","","","","6","","","","","","","","",""
"","","","","","single-stim-button","323","661701","0.0-2.0-74.2-1.2","5d6494874e9aae0019598b14","C3","batch3","","595","tol_toboard","","","","tol_peg_1","595","595","0","[[3,2,0],[0,0],[1]]","3","[[0,0,0],[1,2],[3]]","21","0","","","","","","6","","","","","","","","",""
"","","","","","single-stim-button","324","662277","0.0-2.0-74.3-0.3","5d6494874e9aae0019598b14","C3","batch3","","575","tol_tohand","","","","tol_peg_3","575","575","0","[[3,2,0],[0,0],[0]]","4","[[0,0,0],[1,2],[3]]","21","0","","","","","","6","","","","","","","","",""
"","","","","","single-stim-button","325","663027","0.0-2.0-74.3-1.3","5d6494874e9aae0019598b14","C3","batch3","","750","tol_toboard","","","","tol_peg_2","750","750","0","[[3,2,0],[1,0],[0]]","4","[[0,0,0],[1,2],[3]]","21","0","","","","","","6","","","","","","","","",""
"","","","","","single-stim-button","326","663518","0.0-2.0-74.4-0.4","5d6494874e9aae0019598b14","C3","batch3","","490","tol_tohand","","","","tol_peg_1","490","490","0","[[3,0,0],[1,0],[0]]","5","[[0,0,0],[1,2],[3]]","21","0","","","","","","6","","","","","","","","",""
"","","","","","single-stim-button","327","663943","0.0-2.0-74.4-1.4","5d6494874e9aae0019598b14","C3","batch3","","425","tol_toboard","","","","tol_peg_2","425","425","0","[[3,0,0],[1,2],[0]]","5","[[0,0,0],[1,2],[3]]","21","0","","","","","","6","","","","","","","","",""
"","","","","","single-stim-button","328","664464","0.0-2.0-74.5-0.5","5d6494874e9aae0019598b14","C3","batch3","","521","tol_tohand","","","","tol_peg_1","521","521","0","[[0,0,0],[1,2],[0]]","6","[[0,0,0],[1,2],[3]]","21","0","","","","","","6","","","","","","","","",""
"","","","","","single-stim-button","329","665013","0.0-2.0-74.5-1.5","5d6494874e9aae0019598b14","C3","batch3","","548","tol_toboard","","","","tol_peg_3","548","548","0","[[0,0,0],[1,2],[3]]","6","[[0,0,0],[1,2],[3]]","21","0","","","","","","6","","","","","","","","",""
"","","","","","poldrack-single-stim","330","666024","0.0-2.0-75.0","5d6494874e9aae0019598b14","C3","batch3","","-1","tol_feedback","","","true","","1000","1000","500","","","","","","-1","none","true","3568","6969","","","","","","","","","",""
"","","","","","html-button-response","331","667007","0.0-2.0-76.0","5d6494874e9aae0019598b14","C3","batch3","","981.7000000476837","tol_trial_num","<div class = centerbox><p class = center-block-text>problem <strong>23</strong> out of 25 problems</p></div>","0","","","","","","","","","","","","","","","","","","","","","","","","",""
"","","","","","single-stim-button","332","669903","0.0-2.0-77.0-0.0","5d6494874e9aae0019598b14","C3","batch3","","2896","tol_tohand","","","","tol_peg_1","2896","2896","0","[[1,0,0],[3,0],[0]]","1","[[1,3,2],[0,0],[0]]","22","0","","","","","","3","","","","","","","","",""
"","","","","","single-stim-button","333","670605","0.0-2.0-77.0-1.0","5d6494874e9aae0019598b14","C3","batch3","","701","tol_toboard","","","","tol_peg_3","701","701","0","[[1,0,0],[3,0],[2]]","1","[[1,3,2],[0,0],[0]]","22","0","","","","","","3","","","","","","","","",""
"","","","","","single-stim-button","334","671169","0.0-2.0-77.1-0.1","5d6494874e9aae0019598b14","C3","batch3","","563","tol_tohand","","","","tol_peg_2","563","563","0","[[1,0,0],[0,0],[2]]","2","[[1,3,2],[0,0],[0]]","22","0","","","","","","3","","","","","","","","",""
"","","","","","single-stim-button","335","671853","0.0-2.0-77.1-1.1","5d6494874e9aae0019598b14","C3","batch3","","683","tol_toboard","","","","tol_peg_1","683","683","0","[[1,3,0],[0,0],[2]]","2","[[1,3,2],[0,0],[0]]","22","0","","","","","","3","","","","","","","","",""
"","","","","","single-stim-button","336","672355","0.0-2.0-77.2-0.2","5d6494874e9aae0019598b14","C3","batch3","","500","tol_tohand","","","","tol_peg_3","500","500","0","[[1,3,0],[0,0],[0]]","3","[[1,3,2],[0,0],[0]]","22","0","","","","","","3","","","","","","","","",""
"","","","","","single-stim-button","337","672941","0.0-2.0-77.2-1.2","5d6494874e9aae0019598b14","C3","batch3","","586","tol_toboard","","","","tol_peg_1","586","586","0","[[1,3,2],[0,0],[0]]","3","[[1,3,2],[0,0],[0]]","22","0","","","","","","3","","","","","","","","",""
"","","","","","poldrack-single-stim","338","673954","0.0-2.0-78.0","5d6494874e9aae0019598b14","C3","batch3","","-1","tol_feedback","","","true","","1000","1000","500","","","","","","-1","none","true","2896","3959","","","","","","","","","",""
"","","","","","html-button-response","339","674612","0.0-2.0-79.0","5d6494874e9aae0019598b14","C3","batch3","","657.6000000238419","tol_trial_num","<div class = centerbox><p class = center-block-text>problem <strong>24</strong> out of 25 problems</p></div>","0","","","","","","","","","","","","","","","","","","","","","","","","",""
"","","","","","single-stim-button","340","680904","0.0-2.0-80.0-0.0","5d6494874e9aae0019598b14","C3","batch3","","6291","tol_tohand","","","","tol_peg_2","6291","6291","0","[[0,0,0],[2,0],[1]]","1","[[2,0,0],[3,0],[1]]","23","0","","","","","","7","","","","","","","","",""
"","","","","","single-stim-button","341","682348","0.0-2.0-80.0-1.0","5d6494874e9aae0019598b14","C3","batch3","","1443","tol_toboard","","","","tol_peg_1","1443","1443","0","[[3,0,0],[2,0],[1]]","1","[[2,0,0],[3,0],[1]]","23","0","","","","","","7","","","","","","","","",""
"","","","","","single-stim-button","342","688368","0.0-2.0-80.1-0.1","5d6494874e9aae0019598b14","C3","batch3","","6019","tol_tohand","","","","tol_peg_2","6019","6019","0","[[3,0,0],[0,0],[1]]","2","[[2,0,0],[3,0],[1]]","23","0","","","","","","7","","","","","","","","",""
"","","","","","single-stim-button","343","689027","0.0-2.0-80.1-1.1","5d6494874e9aae0019598b14","C3","batch3","","659","tol_toboard","","","","tol_peg_1","659","659","0","[[3,2,0],[0,0],[1]]","2","[[2,0,0],[3,0],[1]]","23","0","","","","","","7","","","","","","","","",""
"","","","","","single-stim-button","344","689500","0.0-2.0-80.2-0.2","5d6494874e9aae0019598b14","C3","batch3","","473","tol_tohand","","","","tol_peg_3","473","473","0","[[3,2,0],[0,0],[0]]","3","[[2,0,0],[3,0],[1]]","23","0","","","","","","7","","","","","","","","",""
"","","","","","single-stim-button","345","690258","0.0-2.0-80.2-1.2","5d6494874e9aae0019598b14","C3","batch3","","757","tol_toboard","","","","tol_peg_2","757","757","0","[[3,2,0],[1,0],[0]]","3","[[2,0,0],[3,0],[1]]","23","0","","","","","","7","","","","","","","","",""
"","","","","","single-stim-button","346","691055","0.0-2.0-80.3-0.3","5d6494874e9aae0019598b14","C3","batch3","","796","tol_tohand","","","","tol_peg_1","796","796","0","[[3,0,0],[1,0],[0]]","4","[[2,0,0],[3,0],[1]]","23","0","","","","","","7","","","","","","","","",""
"","","","","","single-stim-button","347","691800","0.0-2.0-80.3-1.3","5d6494874e9aae0019598b14","C3","batch3","","745","tol_toboard","","","","tol_peg_3","745","745","0","[[3,0,0],[1,0],[2]]","4","[[2,0,0],[3,0],[1]]","23","0","","","","","","7","","","","","","","","",""
"","","","","","single-stim-button","348","692636","0.0-2.0-80.4-0.4","5d6494874e9aae0019598b14","C3","batch3","","835","tol_tohand","","","","tol_peg_1","835","835","0","[[0,0,0],[1,0],[2]]","5","[[2,0,0],[3,0],[1]]","23","0","","","","","","7","","","","","","","","",""
"","","","","","single-stim-button","349","693469","0.0-2.0-80.4-1.4","5d6494874e9aae0019598b14","C3","batch3","","833","tol_toboard","","","","tol_peg_2","833","833","0","[[0,0,0],[1,3],[2]]","5","[[2,0,0],[3,0],[1]]","23","0","","","","","","7","","","","","","","","",""
"","","","","","single-stim-button","350","693874","0.0-2.0-80.5-0.5","5d6494874e9aae0019598b14","C3","batch3","","404","tol_tohand","","","","tol_peg_3","404","404","0","[[0,0,0],[1,3],[0]]","6","[[2,0,0],[3,0],[1]]","23","0","","","","","","7","","","","","","","","",""
"","","","","","single-stim-button","351","694930","0.0-2.0-80.5-1.5","5d6494874e9aae0019598b14","C3","batch3","","1055","tol_toboard","","","","tol_peg_1","1055","1055","0","[[2,0,0],[1,3],[0]]","6","[[2,0,0],[3,0],[1]]","23","0","","","","","","7","","","","","","","","",""
"","","","","","single-stim-button","352","695447","0.0-2.0-80.6-0.6","5d6494874e9aae0019598b14","C3","batch3","","516","tol_tohand","","","","tol_peg_2","516","516","0","[[2,0,0],[1,0],[0]]","7","[[2,0,0],[3,0],[1]]","23","0","","","","","","7","","","","","","","","",""
"","","","","","single-stim-button","353","696078","0.0-2.0-80.6-1.6","5d6494874e9aae0019598b14","C3","batch3","","630","tol_toboard","","","","tol_peg_1","630","630","0","[[2,3,0],[1,0],[0]]","7","[[2,0,0],[3,0],[1]]","23","0","","","","","","7","","","","","","","","",""
"","","","","","single-stim-button","354","696500","0.0-2.0-80.7-0.7","5d6494874e9aae0019598b14","C3","batch3","","421","tol_tohand","","","","tol_peg_2","421","421","0","[[2,3,0],[0,0],[0]]","8","[[2,0,0],[3,0],[1]]","23","0","","","","","","7","","","","","","","","",""
