"success","timeout","failed_images","failed_audio","failed_video","trial_type","trial_index","time_elapsed","internal_node_id","subject_id","study_id","session_id","view_history","rt","stimulus","response","task","correct","answer","item","fiar_detect_rt","fiar_detect_correct","total_correct_fiar_detect","post_trial_gap","choices","mouse_click","stim_duration","block_duration","timing_post_trial","current_position","tol_num_moves_made","tol_target","tol_problem_id","tol_rt","key_press","possible_responses","tol_correct","preplanning","tol_rt_per_trial","tol_min_moves","spm_correct","spm_rt"
"true","false","[]","[]","[]","preload","0","14648","0.0-0.0","5d658bd7d70c7100014cfc3d","B2","batch2","","","","","","","","","","","","","","","","","","","","","","","","","","","","","",""
"true","","","","","fullscreen","1","140320","0.0-1.0-0.0","5d658bd7d70c7100014cfc3d","B2","batch2","","","","","","","","","","","","","","","","","","","","","","","","","","","","","",""
"true","","","","","fullscreen","2","143951","0.0-2.0-0.0","5d658bd7d70c7100014cfc3d","B2","batch2","","","","","","","","","","","","","","","","","","","","","","","","","","","","","",""
"","","","","","instructions","3","159897","0.0-2.0-1.0-0.0","5d658bd7d70c7100014cfc3d","B2","batch2","[{""page_index"":0,""viewing_time"":9145.59999999404},{""page_index"":1,""viewing_time"":6798.9000000059605}]","15944.59999999404","","","","","","","","","","","","","","","","","","","","","","","","","","","",""
"","","","","","html-button-response","4","160974","0.0-2.0-1.0-1.0-0.0","5d658bd7d70c7100014cfc3d","B2","batch2","","1076","<p class=block-text> Let's answer a few questions <br>","0","pattern_enter_quiz","","","","","","","","","","","","","","","","","","","","","","","","",""
"","","","","","html-button-response","5","162832","0.0-2.0-1.0-1.0-1.0","5d658bd7d70c7100014cfc3d","B2","batch2","","1856.7000000029802","<p class = block-text>True or False: You will have as much time as you want to make each choice. <br></p>","1","pattern_quiz","true","","","","","","","","","","","","","","","","","","","","","","","",""
"","","","","","html-button-response","6","164582","0.0-2.0-1.0-1.0-2.0","5d658bd7d70c7100014cfc3d","B2","batch2","","1748.300000011921","<p class = block-text>Correct! You should make your choice <strong> as fast as you can</strong>.</p>","0","pattern_quiz_feedback","","","","","","","","","","","","","","","","","","","","","","","","",""
"","","","","","html-button-response","7","167184","0.0-2.0-1.0-1.0-3.0","5d658bd7d70c7100014cfc3d","B2","batch2","","2601.2000000029802","<p class = block-text>True or False: You will look for 4 pieces in black or white color connected in a row either horizontally, vertically or diagonally. <br></p>","0","pattern_quiz","true","","","","","","","","","","","","","","","","","","","","","","","",""
"","","","","","html-button-response","8","168028","0.0-2.0-1.0-1.0-4.0","5d658bd7d70c7100014cfc3d","B2","batch2","","842.7000000029802","<p class = block-text>Correct! </p>","0","pattern_quiz_feedback","","","","","","","","","","","","","","","","","","","","","","","","",""
"","","","","","html-button-response","9","169372","0.0-2.0-2.0","5d658bd7d70c7100014cfc3d","B2","batch2","","1343.2999999970198","<p class=block-text> Now that you've understood the game, let's do a few practice trials before we start!<br> <br>","0","pattern_enter_practice","","","","","","","","","","","","","","","","","","","","","","","","",""
"","","","","","image-keyboard-response","10","171805","0.0-2.0-3.0-0.0","5d658bd7d70c7100014cfc3d","B2","batch2","","2430.2000000029802","stim/prac_yes_20_dia_b1.png","j","pattern_practice","false","f","","","","","","","","","","","","","","","","","","","","","","",""
"","","","","","html-keyboard-response","11","172814","0.0-2.0-3.0-1.0","5d658bd7d70c7100014cfc3d","B2","batch2","","null","<p style=""font-size:30px;color:red;"">Wrong.</p>","null","pattern_feedback","","","","","","","","","","","","","","","","","","","","","","","","",""
"","","","","","image-keyboard-response","12","174861","0.0-2.0-3.0-0.1","5d658bd7d70c7100014cfc3d","B2","batch2","","2045.3999999910593","stim/prac_no_18_1.png","j","pattern_practice","true","j","","","","","","","","","","","","","","","","","","","","","","",""
"","","","","","html-keyboard-response","13","175866","0.0-2.0-3.0-1.1","5d658bd7d70c7100014cfc3d","B2","batch2","","null","<p style=""font-size:30px;color:green;"">Correct!</p>","null","pattern_feedback","","","","","","","","","","","","","","","","","","","","","","","","",""
"","","","","","image-keyboard-response","14","176861","0.0-2.0-3.0-0.2","5d658bd7d70c7100014cfc3d","B2","batch2","","992.5999999940395","stim/prac_yes_18_hor_w1.png","f","pattern_practice","true","f","","","","","","","","","","","","","","","","","","","","","","",""
"","","","","","html-keyboard-response","15","177867","0.0-2.0-3.0-1.2","5d658bd7d70c7100014cfc3d","B2","batch2","","null","<p style=""font-size:30px;color:green;"">Correct!</p>","null","pattern_feedback","","","","","","","","","","","","","","","","","","","","","","","","",""
"","","","","","image-keyboard-response","16","179997","0.0-2.0-3.0-0.3","5d658bd7d70c7100014cfc3d","B2","batch2","","2128.2999999970198","stim/prac_no_16_1.png","j","pattern_practice","true","j","","","","","","","","","","","","","","","","","","","","","","",""
"","","","","","html-keyboard-response","17","181013","0.0-2.0-3.0-1.3","5d658bd7d70c7100014cfc3d","B2","batch2","","null","<p style=""font-size:30px;color:green;"">Correct!</p>","null","pattern_feedback","","","","","","","","","","","","","","","","","","","","","","","","",""
"","","","","","image-keyboard-response","18","181725","0.0-2.0-3.0-0.4","5d658bd7d70c7100014cfc3d","B2","batch2","","710.4000000059605","stim/prac_yes_16_ver_w1.png","f","pattern_practice","true","f","","","","","","","","","","","","","","","","","","","","","","",""
"","","","","","html-keyboard-response","19","182732","0.0-2.0-3.0-1.4","5d658bd7d70c7100014cfc3d","B2","batch2","","null","<p style=""font-size:30px;color:green;"">Correct!</p>","null","pattern_feedback","","","","","","","","","","","","","","","","","","","","","","","","",""
"","","","","","html-button-response","20","185496","0.0-2.0-4.0","5d658bd7d70c7100014cfc3d","B2","batch2","","2762.0999999940395","<p class=block-text> Good job! You are done with practice trials!<br>
        You responded correctly on 80% of the trials.<br>
        Press the button below to start official trials. Now you won't see any feedback about your response</p>","0","pattern_enter_official_trials","","","","","","","","","","","","","","","","","","","","","","","","",""
"","","","","","html-keyboard-response","21","186303","0.0-2.0-5.0-0.0","5d658bd7d70c7100014cfc3d","B2","batch2","","null","<p class=block-text>Trial 1 out of 78</p>","null","pattern_show_trial_num","","","","","","","","","","","","","","","","","","","","","","","","",""
"","","","","","image-keyboard-response","22","187261","0.0-2.0-5.0-1.0","5d658bd7d70c7100014cfc3d","B2","batch2","","954.7000000029802","stim/yes_36_ver_w1_w.png","j","pattern_response","false","f","pattern_58","954.7000000029802","false","0","","","","","","","","","","","","","","","","","","",""
"","","","","","html-keyboard-response","23","188574","0.0-2.0-5.0-0.1","5d658bd7d70c7100014cfc3d","B2","batch2","","null","<p class=block-text>Trial 2 out of 78</p>","null","pattern_show_trial_num","","","","","","","","","","","","","","","","","","","","","","","","",""
"","","","","","image-keyboard-response","24","191596","0.0-2.0-5.0-1.1","5d658bd7d70c7100014cfc3d","B2","batch2","","3020.3999999910593","stim/no_25_1_b.png","j","pattern_response","true","j","pattern_09","3020.3999999910593","true","1","","","","","","","","","","","","","","","","","","",""
"","","","","","html-keyboard-response","25","192899","0.0-2.0-5.0-0.2","5d658bd7d70c7100014cfc3d","B2","batch2","","null","<p class=block-text>Trial 3 out of 78</p>","null","pattern_show_trial_num","","","","","","","","","","","","","","","","","","","","","","","","",""
"","","","","","image-keyboard-response","26","197932","0.0-2.0-5.0-1.2","5d658bd7d70c7100014cfc3d","B2","batch2","","5030.800000011921","stim/no_49_2_b.png","j","pattern_response","true","j","pattern_29","5030.800000011921","true","2","","","","","","","","","","","","","","","","","","",""
"","","","","","html-keyboard-response","27","199237","0.0-2.0-5.0-0.3","5d658bd7d70c7100014cfc3d","B2","batch2","","null","<p class=block-text>Trial 4 out of 78</p>","null","pattern_show_trial_num","","","","","","","","","","","","","","","","","","","","","","","","",""
"","","","","","image-keyboard-response","28","200029","0.0-2.0-5.0-1.3","5d658bd7d70c7100014cfc3d","B2","batch2","","789.9000000059605","stim/yes_15_dia_b1u_b.png","f","pattern_response","true","f","pattern_44","789.9000000059605","true","3","","","","","","","","","","","","","","","","","","",""
"","","","","","html-keyboard-response","29","201346","0.0-2.0-5.0-0.4","5d658bd7d70c7100014cfc3d","B2","batch2","","null","<p class=block-text>Trial 5 out of 78</p>","null","pattern_show_trial_num","","","","","","","","","","","","","","","","","","","","","","","","",""
"","","","","","image-keyboard-response","30","205773","0.0-2.0-5.0-1.4","5d658bd7d70c7100014cfc3d","B2","batch2","","4426","stim/yes_58_dia_w1_w.png","j","pattern_response","false","f","pattern_76","4426","false","3","","","","","","","","","","","","","","","","","","",""
"","","","","","html-keyboard-response","31","207078","0.0-2.0-5.0-0.5","5d658bd7d70c7100014cfc3d","B2","batch2","","null","<p class=block-text>Trial 6 out of 78</p>","null","pattern_show_trial_num","","","","","","","","","","","","","","","","","","","","","","","","",""
"","","","","","image-keyboard-response","32","208718","0.0-2.0-5.0-1.5","5d658bd7d70c7100014cfc3d","B2","batch2","","1637.3999999910593","stim/yes_53_ver_b1_b.png","f","pattern_response","true","f","pattern_74","1637.3999999910593","true","4","","","","","","","","","","","","","","","","","","",""
"","","","","","html-keyboard-response","33","210036","0.0-2.0-5.0-0.6","5d658bd7d70c7100014cfc3d","B2","batch2","","null","<p class=block-text>Trial 7 out of 78</p>","null","pattern_show_trial_num","","","","","","","","","","","","","","","","","","","","","","","","",""
"","","","","","image-keyboard-response","34","213741","0.0-2.0-5.0-1.6","5d658bd7d70c7100014cfc3d","B2","batch2","","3702.9000000059605","stim/no_45_1_w.png","j","pattern_response","true","j","pattern_25","3702.9000000059605","true","5","","","","","","","","","","","","","","","","","","",""
"","","","","","html-keyboard-response","35","215052","0.0-2.0-5.0-0.7","5d658bd7d70c7100014cfc3d","B2","batch2","","null","<p class=block-text>Trial 8 out of 78</p>","null","pattern_show_trial_num","","","","","","","","","","","","","","","","","","","","","","","","",""
"","","","","","image-keyboard-response","36","216829","0.0-2.0-5.0-1.7","5d658bd7d70c7100014cfc3d","B2","batch2","","1774.8999999910593","stim/no_12_1.png","j","pattern_response","true","j","pattern_01","1774.8999999910593","true","6","","","","","","","","","","","","","","","","","","",""
"","","","","","html-keyboard-response","37","218144","0.0-2.0-5.0-0.8","5d658bd7d70c7100014cfc3d","B2","batch2","","null","<p class=block-text>Trial 9 out of 78</p>","null","pattern_show_trial_num","","","","","","","","","","","","","","","","","","","","","","","","",""
"","","","","","image-keyboard-response","38","221790","0.0-2.0-5.0-1.8","5d658bd7d70c7100014cfc3d","B2","batch2","","3643.7999999970198","stim/no_47_1_b.png","j","pattern_response","true","j","pattern_27","3643.7999999970198","true","7","","","","","","","","","","","","","","","","","","",""
"","","","","","html-keyboard-response","39","223105","0.0-2.0-5.0-0.9","5d658bd7d70c7100014cfc3d","B2","batch2","","null","<p class=block-text>Trial 10 out of 78</p>","null","pattern_show_trial_num","","","","","","","","","","","","","","","","","","","","","","","","",""
"","","","","","image-keyboard-response","40","224077","0.0-2.0-5.0-1.9","5d658bd7d70c7100014cfc3d","B2","batch2","","969.9000000059605","stim/yes_23_ver_b1.png","f","pattern_response","true","f","pattern_48","969.9000000059605","true","8","","","","","","","","","","","","","","","","","","",""
"","","","","","html-keyboard-response","41","225386","0.0-2.0-5.0-0.10","5d658bd7d70c7100014cfc3d","B2","batch2","","null","<p class=block-text>Trial 11 out of 78</p>","null","pattern_show_trial_num","","","","","","","","","","","","","","","","","","","","","","","","",""
"","","","","","image-keyboard-response","42","230109","0.0-2.0-5.0-1.10","5d658bd7d70c7100014cfc3d","B2","batch2","","4722","stim/no_37_2_w.png","j","pattern_response","true","j","pattern_19","4722","true","9","","","","","","","","","","","","","","","","","","",""
"","","","","","html-keyboard-response","43","231425","0.0-2.0-5.0-0.11","5d658bd7d70c7100014cfc3d","B2","batch2","","null","<p class=block-text>Trial 12 out of 78</p>","null","pattern_show_trial_num","","","","","","","","","","","","","","","","","","","","","","","","",""
"","","","","","image-keyboard-response","44","233277","0.0-2.0-5.0-1.11","5d658bd7d70c7100014cfc3d","B2","batch2","","1849.300000011921","stim/yes_51_dia_b1.png","f","pattern_response","true","f","pattern_72","1849.300000011921","true","10","","","","","","","","","","","","","","","","","","",""
"","","","","","html-keyboard-response","45","234585","0.0-2.0-5.0-0.12","5d658bd7d70c7100014cfc3d","B2","batch2","","null","<p class=block-text>Trial 13 out of 78</p>","null","pattern_show_trial_num","","","","","","","","","","","","","","","","","","","","","","","","",""
"","","","","","image-keyboard-response","46","241421","0.0-2.0-5.0-1.12","5d658bd7d70c7100014cfc3d","B2","batch2","","6834.699999988079","stim/no_58_1_w.png","j","pattern_response","true","j","pattern_35","6834.699999988079","true","11","","","","","","","","","","","","","","","","","","",""
"","","","","","html-keyboard-response","47","242736","0.0-2.0-5.0-0.13","5d658bd7d70c7100014cfc3d","B2","batch2","","null","<p class=block-text>Trial 14 out of 78</p>","null","pattern_show_trial_num","","","","","","","","","","","","","","","","","","","","","","","","",""
"","","","","","image-keyboard-response","48","243789","0.0-2.0-5.0-1.13","5d658bd7d70c7100014cfc3d","B2","batch2","","1051","stim/yes_30_ver_b1_b.png","f","pattern_response","true","f","pattern_54","1051","true","12","","","","","","","","","","","","","","","","","","",""
"","","","","","html-keyboard-response","49","245095","0.0-2.0-5.0-0.14","5d658bd7d70c7100014cfc3d","B2","batch2","","null","<p class=block-text>Trial 15 out of 78</p>","null","pattern_show_trial_num","","","","","","","","","","","","","","","","","","","","","","","","",""
"","","","","","image-keyboard-response","50","245757","0.0-2.0-5.0-1.14","5d658bd7d70c7100014cfc3d","B2","batch2","","660.1999999880791","stim/yes_12_hor_w1_w.png","j","pattern_response","false","f","pattern_42","660.1999999880791","false","12","","","","","","","","","","","","","","","","","","",""
"","","","","","html-keyboard-response","51","247070","0.0-2.0-5.0-0.15","5d658bd7d70c7100014cfc3d","B2","batch2","","null","<p class=block-text>Trial 16 out of 78</p>","null","pattern_show_trial_num","","","","","","","","","","","","","","","","","","","","","","","","",""
"","","","","","image-keyboard-response","52","248429","0.0-2.0-5.0-1.15","5d658bd7d70c7100014cfc3d","B2","batch2","","1358","stim/yes_49_hor_w1_b.png","f","pattern_response","true","f","pattern_70","1358","true","13","","","","","","","","","","","","","","","","","","",""
"","","","","","html-keyboard-response","53","249748","0.0-2.0-5.0-0.16","5d658bd7d70c7100014cfc3d","B2","batch2","","null","<p class=block-text>Trial 17 out of 78</p>","null","pattern_show_trial_num","","","","","","","","","","","","","","","","","","","","","","","","",""
"","","","","","image-keyboard-response","54","251853","0.0-2.0-5.0-1.16","5d658bd7d70c7100014cfc3d","B2","batch2","","2103.199999988079","stim/no_30_1_b.png","j","pattern_response","true","j","pattern_13","2103.199999988079","true","14","","","","","","","","","","","","","","","","","","",""
"","","","","","html-keyboard-response","55","253168","0.0-2.0-5.0-0.17","5d658bd7d70c7100014cfc3d","B2","batch2","","null","<p class=block-text>Trial 18 out of 78</p>","null","pattern_show_trial_num","","","","","","","","","","","","","","","","","","","","","","","","",""
"","","","","","image-keyboard-response","56","256031","0.0-2.0-5.0-1.17","5d658bd7d70c7100014cfc3d","B2","batch2","","2861.6000000089407","stim/yes_42_dia_w1_w.png","j","pattern_response","false","f","pattern_64","2861.6000000089407","false","14","","","","","","","","","","","","","","","","","","",""
"","","","","","html-keyboard-response","57","257346","0.0-2.0-5.0-0.18","5d658bd7d70c7100014cfc3d","B2","batch2","","null","<p class=block-text>Trial 19 out of 78</p>","null","pattern_show_trial_num","","","","","","","","","","","","","","","","","","","","","","","","",""
"","","","","","image-keyboard-response","58","258367","0.0-2.0-5.0-1.18","5d658bd7d70c7100014cfc3d","B2","batch2","","1017.2000000029802","stim/yes_39_hor_w1_w.png","f","pattern_response","true","f","pattern_62","1017.2000000029802","true","15","","","","","","","","","","","","","","","","","","",""
"","","","","","html-keyboard-response","59","259670","0.0-2.0-5.0-0.19","5d658bd7d70c7100014cfc3d","B2","batch2","","null","<p class=block-text>Trial 20 out of 78</p>","null","pattern_show_trial_num","","","","","","","","","","","","","","","","","","","","","","","","",""
"","","","","","image-keyboard-response","60","263070","0.0-2.0-5.0-1.19","5d658bd7d70c7100014cfc3d","B2","batch2","","3398.7999999970198","stim/no_28_2.png","j","pattern_response","true","j","pattern_11","3398.7999999970198","true","16","","","","","","","","","","","","","","","","","","",""
"","","","","","html-keyboard-response","61","264395","0.0-2.0-5.0-0.20","5d658bd7d70c7100014cfc3d","B2","batch2","","null","<p class=block-text>Trial 21 out of 78</p>","null","pattern_show_trial_num","","","","","","","","","","","","","","","","","","","","","","","","",""
"","","","","","image-keyboard-response","62","268847","0.0-2.0-5.0-1.20","5d658bd7d70c7100014cfc3d","B2","batch2","","4449.5","stim/no_39_1_w.png","j","pattern_response","true","j","pattern_21","4449.5","true","17","","","","","","","","","","","","","","","","","","",""
"","","","","","html-keyboard-response","63","270157","0.0-2.0-5.0-0.21","5d658bd7d70c7100014cfc3d","B2","batch2","","null","<p class=block-text>Trial 22 out of 78</p>","null","pattern_show_trial_num","","","","","","","","","","","","","","","","","","","","","","","","",""
"","","","","","image-keyboard-response","64","274543","0.0-2.0-5.0-1.21","5d658bd7d70c7100014cfc3d","B2","batch2","","4383.5","stim/no_53_1_b.png","j","pattern_response","true","j","pattern_33","4383.5","true","18","","","","","","","","","","","","","","","","","","",""
"","","","","","html-keyboard-response","65","275854","0.0-2.0-5.0-0.22","5d658bd7d70c7100014cfc3d","B2","batch2","","null","<p class=block-text>Trial 23 out of 78</p>","null","pattern_show_trial_num","","","","","","","","","","","","","","","","","","","","","","","","",""
"","","","","","image-keyboard-response","66","276846","0.0-2.0-5.0-1.22","5d658bd7d70c7100014cfc3d","B2","batch2","","989.8000000119209","stim/yes_29_hor_b1_b.png","f","pattern_response","true","f","pattern_52","989.8000000119209","true","19","","","","","","","","","","","","","","","","","","",""
"","","","","","html-keyboard-response","67","278172","0.0-2.0-5.0-0.23","5d658bd7d70c7100014cfc3d","B2","batch2","","null","<p class=block-text>Trial 24 out of 78</p>","null","pattern_show_trial_num","","","","","","","","","","","","","","","","","","","","","","","","",""
"","","","","","image-keyboard-response","68","279071","0.0-2.0-5.0-1.23","5d658bd7d70c7100014cfc3d","B2","batch2","","897","stim/yes_37_hor_w1_w.png","f","pattern_response","true","f","pattern_60","897","true","20","","","","","","","","","","","","","","","","","","",""
"","","","","","html-keyboard-response","69","280382","0.0-2.0-5.0-0.24","5d658bd7d70c7100014cfc3d","B2","batch2","","null","<p class=block-text>Trial 25 out of 78</p>","null","pattern_show_trial_num","","","","","","","","","","","","","","","","","","","","","","","","",""
"","","","","","image-keyboard-response","70","281518","0.0-2.0-5.0-1.24","5d658bd7d70c7100014cfc3d","B2","batch2","","1135.5","stim/yes_26_dia_w2_w.png","f","pattern_response","true","f","pattern_50","1135.5","true","21","","","","","","","","","","","","","","","","","","",""
"","","","","","html-keyboard-response","71","282829","0.0-2.0-5.0-0.25","5d658bd7d70c7100014cfc3d","B2","batch2","","null","<p class=block-text>Trial 26 out of 78</p>","null","pattern_show_trial_num","","","","","","","","","","","","","","","","","","","","","","","","",""
"","","","","","image-keyboard-response","72","286336","0.0-2.0-5.0-1.25","5d658bd7d70c7100014cfc3d","B2","batch2","","3505.5","stim/no_36_1_b.png","j","pattern_response","true","j","pattern_17","3505.5","true","22","","","","","","","","","","","","","","","","","","",""
"","","","","","html-keyboard-response","73","287665","0.0-2.0-5.0-0.26","5d658bd7d70c7100014cfc3d","B2","batch2","","null","<p class=block-text>Trial 27 out of 78</p>","null","pattern_show_trial_num","","","","","","","","","","","","","","","","","","","","","","","","",""
"","","","","","image-keyboard-response","74","288575","0.0-2.0-5.0-1.26","5d658bd7d70c7100014cfc3d","B2","batch2","","907.2000000029802","stim/yes_17_ver_b1_b.png","f","pattern_response","true","f","pattern_46","907.2000000029802","true","23","","","","","","","","","","","","","","","","","","",""
"","","","","","html-keyboard-response","75","289891","0.0-2.0-5.0-0.27","5d658bd7d70c7100014cfc3d","B2","batch2","","null","<p class=block-text>Trial 28 out of 78</p>","null","pattern_show_trial_num","","","","","","","","","","","","","","","","","","","","","","","","",""
"","","","","","image-keyboard-response","76","302687","0.0-2.0-5.0-1.27","5d658bd7d70c7100014cfc3d","B2","batch2","","12794.20000000298","stim/no_67_1.png","j","pattern_response","true","j","pattern_39","12794.20000000298","true","24","","","","","","","","","","","","","","","","","","",""
"","","","","","html-keyboard-response","77","304003","0.0-2.0-5.0-0.28","5d658bd7d70c7100014cfc3d","B2","batch2","","null","<p class=block-text>Trial 29 out of 78</p>","null","pattern_show_trial_num","","","","","","","","","","","","","","","","","","","","","","","","",""
"","","","","","image-keyboard-response","78","305390","0.0-2.0-5.0-1.28","5d658bd7d70c7100014cfc3d","B2","batch2","","1385.0999999940395","stim/yes_46_ver_b1_b.png","f","pattern_response","true","f","pattern_68","1385.0999999940395","true","25","","","","","","","","","","","","","","","","","","",""
"","","","","","html-keyboard-response","79","306718","0.0-2.0-5.0-0.29","5d658bd7d70c7100014cfc3d","B2","batch2","","null","<p class=block-text>Trial 30 out of 78</p>","null","pattern_show_trial_num","","","","","","","","","","","","","","","","","","","","","","","","",""
"","","","","","image-keyboard-response","80","308063","0.0-2.0-5.0-1.29","5d658bd7d70c7100014cfc3d","B2","batch2","","1343.2999999970198","stim/yes_33_dia_w1_w.png","f","pattern_response","true","f","pattern_56","1343.2999999970198","true","26","","","","","","","","","","","","","","","","","","",""
"","","","","","html-keyboard-response","81","309379","0.0-2.0-5.0-0.30","5d658bd7d70c7100014cfc3d","B2","batch2","","null","<p class=block-text>Trial 31 out of 78</p>","null","pattern_show_trial_num","","","","","","","","","","","","","","","","","","","","","","","","",""
"","","","","","image-keyboard-response","82","312175","0.0-2.0-5.0-1.30","5d658bd7d70c7100014cfc3d","B2","batch2","","2793.2999999970198","stim/no_43_2_b.png","j","pattern_response","true","j","pattern_23","2793.2999999970198","true","27","","","","","","","","","","","","","","","","","","",""
"","","","","","html-keyboard-response","83","313490","0.0-2.0-5.0-0.31","5d658bd7d70c7100014cfc3d","B2","batch2","","null","<p class=block-text>Trial 32 out of 78</p>","null","pattern_show_trial_num","","","","","","","","","","","","","","","","","","","","","","","","",""
"","","","","","image-keyboard-response","84","314975","0.0-2.0-5.0-1.31","5d658bd7d70c7100014cfc3d","B2","batch2","","1482.800000011921","stim/yes_70_ver_b1.png","f","pattern_response","true","f","pattern_80","1482.800000011921","true","28","","","","","","","","","","","","","","","","","","",""
"","","","","","html-keyboard-response","85","316291","0.0-2.0-5.0-0.32","5d658bd7d70c7100014cfc3d","B2","batch2","","null","<p class=block-text>Trial 33 out of 78</p>","null","pattern_show_trial_num","","","","","","","","","","","","","","","","","","","","","","","","",""
"","","","","","image-keyboard-response","86","318544","0.0-2.0-5.0-1.32","5d658bd7d70c7100014cfc3d","B2","batch2","","2252.3999999910593","stim/no_18_1_b.png","j","pattern_response","true","j","pattern_05","2252.3999999910593","true","29","","","","","","","","","","","","","","","","","","",""
"","","","","","html-keyboard-response","87","319861","0.0-2.0-5.0-0.33","5d658bd7d70c7100014cfc3d","B2","batch2","","null","<p class=block-text>Trial 34 out of 78</p>","null","pattern_show_trial_num","","","","","","","","","","","","","","","","","","","","","","","","",""
"","","","","","image-keyboard-response","88","322878","0.0-2.0-5.0-1.33","5d658bd7d70c7100014cfc3d","B2","batch2","","3015.7000000029802","stim/yes_44_ver_w1_w.png","j","pattern_response","false","f","pattern_66","3015.7000000029802","false","29","","","","","","","","","","","","","","","","","","",""
"","","","","","html-keyboard-response","89","324185","0.0-2.0-5.0-0.34","5d658bd7d70c7100014cfc3d","B2","batch2","","null","<p class=block-text>Trial 35 out of 78</p>","null","pattern_show_trial_num","","","","","","","","","","","","","","","","","","","","","","","","",""
"","","","","","image-keyboard-response","90","329727","0.0-2.0-5.0-1.34","5d658bd7d70c7100014cfc3d","B2","batch2","","5539.79999999702","stim/no_33_1_b.png","j","pattern_response","true","j","pattern_15","5539.79999999702","true","30","","","","","","","","","","","","","","","","","","",""
"","","","","","html-keyboard-response","91","331036","0.0-2.0-5.0-0.35","5d658bd7d70c7100014cfc3d","B2","batch2","","null","<p class=block-text>Trial 36 out of 78</p>","null","pattern_show_trial_num","","","","","","","","","","","","","","","","","","","","","","","","",""
"","","","","","image-keyboard-response","92","333661","0.0-2.0-5.0-1.35","5d658bd7d70c7100014cfc3d","B2","batch2","","2622.699999988079","stim/yes_63_dia_b1.png","f","pattern_response","true","f","pattern_78","2622.699999988079","true","31","","","","","","","","","","","","","","","","","","",""
"","","","","","html-keyboard-response","93","334970","0.0-2.0-5.0-0.36","5d658bd7d70c7100014cfc3d","B2","batch2","","null","<p class=block-text>Trial 37 out of 78</p>","null","pattern_show_trial_num","","","","","","","","","","","","","","","","","","","","","","","","",""
"","","","","","image-keyboard-response","94","339806","0.0-2.0-5.0-1.36","5d658bd7d70c7100014cfc3d","B2","batch2","","4833.899999991059","stim/no_22_1_b.png","j","pattern_response","true","j","pattern_07","4833.899999991059","true","32","","","","","","","","","","","","","","","","","","",""
"","","","","","html-keyboard-response","95","341121","0.0-2.0-5.0-0.37","5d658bd7d70c7100014cfc3d","B2","batch2","","null","<p class=block-text>Trial 38 out of 78</p>","null","pattern_show_trial_num","","","","","","","","","","","","","","","","","","","","","","","","",""
"","","","","","image-keyboard-response","96","342542","0.0-2.0-5.0-1.37","5d658bd7d70c7100014cfc3d","B2","batch2","","1418","stim/no_15_1_w.png","j","pattern_response","true","j","pattern_03","1418","true","33","","","","","","","","","","","","","","","","","","",""
"","","","","","html-keyboard-response","97","343846","0.0-2.0-5.0-0.38","5d658bd7d70c7100014cfc3d","B2","batch2","","null","<p class=block-text>Trial 39 out of 78</p>","null","pattern_show_trial_num","","","","","","","","","","","","","","","","","","","","","","","","",""
"","","","","","image-keyboard-response","98","347294","0.0-2.0-5.0-1.38","5d658bd7d70c7100014cfc3d","B2","batch2","","3446.7999999970198","stim/no_51_1.png","j","pattern_response","true","j","pattern_31","3446.7999999970198","true","34","","","","","","","","","","","","","","","","","","",""
"","","","","","image-keyboard-response","99","349903","0.0-2.0-6.0","5d658bd7d70c7100014cfc3d","B2","batch2","","2105.7000000029802","stim/empty_board.png","j","attention_check","true","j","","","","","500","[""f"",""j""]","","","","","","","","","","","","","","","","",""
"","","","","","html-keyboard-response","100","350707","0.0-2.0-7.0-0.0","5d658bd7d70c7100014cfc3d","B2","batch2","","null","<p class=block-text>Trial 40 out of 78</p>","null","pattern_show_trial_num","","","","","","","","","","","","","","","","","","","","","","","","",""
"","","","","","image-keyboard-response","101","358846","0.0-2.0-7.0-1.0","5d658bd7d70c7100014cfc3d","B2","batch2","","8137.0999999940395","stim/yes_60_ver_b1_b.png","j","pattern_response","false","f","pattern_77","8137.0999999940395","false","34","","","","","","","","","","","","","","","","","","",""
"","","","","","html-keyboard-response","102","360171","0.0-2.0-7.0-0.1","5d658bd7d70c7100014cfc3d","B2","batch2","","null","<p class=block-text>Trial 41 out of 78</p>","null","pattern_show_trial_num","","","","","","","","","","","","","","","","","","","","","","","","",""
"","","","","","image-keyboard-response","103","362045","0.0-2.0-7.0-1.1","5d658bd7d70c7100014cfc3d","B2","batch2","","1871.7000000029802","stim/yes_45_hor_b2_b.png","f","pattern_response","true","f","pattern_67","1871.7000000029802","true","35","","","","","","","","","","","","","","","","","","",""
"","","","","","html-keyboard-response","104","363361","0.0-2.0-7.0-0.2","5d658bd7d70c7100014cfc3d","B2","batch2","","null","<p class=block-text>Trial 42 out of 78</p>","null","pattern_show_trial_num","","","","","","","","","","","","","","","","","","","","","","","","",""
"","","","","","image-keyboard-response","105","368399","0.0-2.0-7.0-1.2","5d658bd7d70c7100014cfc3d","B2","batch2","","5037.29999999702","stim/yes_50_dia_w1.png","f","pattern_response","true","f","pattern_71","5037.29999999702","true","36","","","","","","","","","","","","","","","","","","",""
"","","","","","html-keyboard-response","106","369715","0.0-2.0-7.0-0.3","5d658bd7d70c7100014cfc3d","B2","batch2","","null","<p class=block-text>Trial 43 out of 78</p>","null","pattern_show_trial_num","","","","","","","","","","","","","","","","","","","","","","","","",""
"","","","","","image-keyboard-response","107","370574","0.0-2.0-7.0-1.3","5d658bd7d70c7100014cfc3d","B2","batch2","","857.2000000029802","stim/yes_14_hor_b1_w.png","f","pattern_response","true","f","pattern_43","857.2000000029802","true","37","","","","","","","","","","","","","","","","","","",""
"","","","","","html-keyboard-response","108","371888","0.0-2.0-7.0-0.4","5d658bd7d70c7100014cfc3d","B2","batch2","","null","<p class=block-text>Trial 44 out of 78</p>","null","pattern_show_trial_num","","","","","","","","","","","","","","","","","","","","","","","","",""
"","","","","","image-keyboard-response","109","378961","0.0-2.0-7.0-1.4","5d658bd7d70c7100014cfc3d","B2","batch2","","7069.899999991059","stim/no_44_1.png","j","pattern_response","true","j","pattern_24","7069.899999991059","true","38","","","","","","","","","","","","","","","","","","",""
"","","","","","html-keyboard-response","110","380276","0.0-2.0-7.0-0.5","5d658bd7d70c7100014cfc3d","B2","batch2","","null","<p class=block-text>Trial 45 out of 78</p>","null","pattern_show_trial_num","","","","","","","","","","","","","","","","","","","","","","","","",""
"","","","","","image-keyboard-response","111","381328","0.0-2.0-7.0-1.5","5d658bd7d70c7100014cfc3d","B2","batch2","","1049.3999999910593","stim/yes_22_ver_w1.png","f","pattern_response","true","f","pattern_47","1049.3999999910593","true","39","","","","","","","","","","","","","","","","","","",""
"","","","","","html-keyboard-response","112","382647","0.0-2.0-7.0-0.6","5d658bd7d70c7100014cfc3d","B2","batch2","","null","<p class=block-text>Trial 46 out of 78</p>","null","pattern_show_trial_num","","","","","","","","","","","","","","","","","","","","","","","","",""
"","","","","","image-keyboard-response","113","388912","0.0-2.0-7.0-1.6","5d658bd7d70c7100014cfc3d","B2","batch2","","6263.29999999702","stim/no_70_2.png","j","pattern_response","true","j","pattern_40","6263.29999999702","true","40","","","","","","","","","","","","","","","","","","",""
"","","","","","html-keyboard-response","114","390224","0.0-2.0-7.0-0.7","5d658bd7d70c7100014cfc3d","B2","batch2","","null","<p class=block-text>Trial 47 out of 78</p>","null","pattern_show_trial_num","","","","","","","","","","","","","","","","","","","","","","","","",""
"","","","","","image-keyboard-response","115","396912","0.0-2.0-7.0-1.7","5d658bd7d70c7100014cfc3d","B2","batch2","","6685.399999991059","stim/no_55_1_w.png","j","pattern_response","true","j","pattern_34","6685.399999991059","true","41","","","","","","","","","","","","","","","","","","",""
"","","","","","html-keyboard-response","116","398225","0.0-2.0-7.0-0.8","5d658bd7d70c7100014cfc3d","B2","batch2","","null","<p class=block-text>Trial 48 out of 78</p>","null","pattern_show_trial_num","","","","","","","","","","","","","","","","","","","","","","","","",""
"","","","","","image-keyboard-response","117","402416","0.0-2.0-7.0-1.8","5d658bd7d70c7100014cfc3d","B2","batch2","","4188","stim/yes_40_dia_b1_b.png","f","pattern_response","true","f","pattern_63","4188","true","42","","","","","","","","","","","","","","","","","","",""
"","","","","","html-keyboard-response","118","403729","0.0-2.0-7.0-0.9","5d658bd7d70c7100014cfc3d","B2","batch2","","null","<p class=block-text>Trial 49 out of 78</p>","null","pattern_show_trial_num","","","","","","","","","","","","","","","","","","","","","","","","",""
"","","","","","image-keyboard-response","119","404480","0.0-2.0-7.0-1.9","5d658bd7d70c7100014cfc3d","B2","batch2","","748.2999999970198","stim/yes_25_hor_b1_b.png","f","pattern_response","true","f","pattern_49","748.2999999970198","true","43","","","","","","","","","","","","","","","","","","",""
"","","","","","html-keyboard-response","120","405804","0.0-2.0-7.0-0.10","5d658bd7d70c7100014cfc3d","B2","batch2","","null","<p class=block-text>Trial 50 out of 78</p>","null","pattern_show_trial_num","","","","","","","","","","","","","","","","","","","","","","","","",""
"","","","","","image-keyboard-response","121","411216","0.0-2.0-7.0-1.10","5d658bd7d70c7100014cfc3d","B2","batch2","","5410.79999999702","stim/no_29_1_b.png","j","pattern_response","true","j","pattern_12","5410.79999999702","true","44","","","","","","","","","","","","","","","","","","",""
"","","","","","html-keyboard-response","122","412528","0.0-2.0-7.0-0.11","5d658bd7d70c7100014cfc3d","B2","batch2","","null","<p class=block-text>Trial 51 out of 78</p>","null","pattern_show_trial_num","","","","","","","","","","","","","","","","","","","","","","","","",""
"","","","","","image-keyboard-response","123","416528","0.0-2.0-7.0-1.11","5d658bd7d70c7100014cfc3d","B2","batch2","","3997.4000000059605","stim/no_34_1_b.png","j","pattern_response","true","j","pattern_16","3997.4000000059605","true","45","","","","","","","","","","","","","","","","","","",""
"","","","","","html-keyboard-response","124","417844","0.0-2.0-7.0-0.12","5d658bd7d70c7100014cfc3d","B2","batch2","","null","<p class=block-text>Trial 52 out of 78</p>","null","pattern_show_trial_num","","","","","","","","","","","","","","","","","","","","","","","","",""
"","","","","","image-keyboard-response","125","422977","0.0-2.0-7.0-1.12","5d658bd7d70c7100014cfc3d","B2","batch2","","5130.899999991059","stim/no_62_1_w.png","j","pattern_response","true","j","pattern_36","5130.899999991059","true","46","","","","","","","","","","","","","","","","","","",""
"","","","","","html-keyboard-response","126","424279","0.0-2.0-7.0-0.13","5d658bd7d70c7100014cfc3d","B2","batch2","","null","<p class=block-text>Trial 53 out of 78</p>","null","pattern_show_trial_num","","","","","","","","","","","","","","","","","","","","","","","","",""
"","","","","","image-keyboard-response","127","425424","0.0-2.0-7.0-1.13","5d658bd7d70c7100014cfc3d","B2","batch2","","1141.8999999910593","stim/no_17_1_w.png","j","pattern_response","true","j","pattern_04","1141.8999999910593","true","47","","","","","","","","","","","","","","","","","","",""
"","","","","","html-keyboard-response","128","426730","0.0-2.0-7.0-0.14","5d658bd7d70c7100014cfc3d","B2","batch2","","null","<p class=block-text>Trial 54 out of 78</p>","null","pattern_show_trial_num","","","","","","","","","","","","","","","","","","","","","","","","",""
"","","","","","image-keyboard-response","129","429921","0.0-2.0-7.0-1.14","5d658bd7d70c7100014cfc3d","B2","batch2","","3189.8999999910593","stim/no_48_1_w.png","j","pattern_response","true","j","pattern_28","3189.8999999910593","true","48","","","","","","","","","","","","","","","","","","",""
"","","","","","html-keyboard-response","130","431223","0.0-2.0-7.0-0.15","5d658bd7d70c7100014cfc3d","B2","batch2","","null","<p class=block-text>Trial 55 out of 78</p>","null","pattern_show_trial_num","","","","","","","","","","","","","","","","","","","","","","","","",""
"","","","","","image-keyboard-response","131","432592","0.0-2.0-7.0-1.15","5d658bd7d70c7100014cfc3d","B2","batch2","","1367.9000000059605","stim/yes_28_ver_b1.png","f","pattern_response","true","f","pattern_51","1367.9000000059605","true","49","","","","","","","","","","","","","","","","","","",""
"","","","","","html-keyboard-response","132","433912","0.0-2.0-7.0-0.16","5d658bd7d70c7100014cfc3d","B2","batch2","","null","<p class=block-text>Trial 56 out of 78</p>","null","pattern_show_trial_num","","","","","","","","","","","","","","","","","","","","","","","","",""
"","","","","","image-keyboard-response","133","437568","0.0-2.0-7.0-1.16","5d658bd7d70c7100014cfc3d","B2","batch2","","3653.800000011921","stim/yes_29_ver_w1.png","f","pattern_response","true","f","pattern_53","3653.800000011921","true","50","","","","","","","","","","","","","","","","","","",""
"","","","","","html-keyboard-response","134","438888","0.0-2.0-7.0-0.17","5d658bd7d70c7100014cfc3d","B2","batch2","","null","<p class=block-text>Trial 57 out of 78</p>","null","pattern_show_trial_num","","","","","","","","","","","","","","","","","","","","","","","","",""
"","","","","","image-keyboard-response","135","440255","0.0-2.0-7.0-1.17","5d658bd7d70c7100014cfc3d","B2","batch2","","1365","stim/yes_17_dia_w1.png","f","pattern_response","true","f","pattern_45","1365","true","51","","","","","","","","","","","","","","","","","","",""
"","","","","","html-keyboard-response","136","441570","0.0-2.0-7.0-0.18","5d658bd7d70c7100014cfc3d","B2","batch2","","null","<p class=block-text>Trial 58 out of 78</p>","null","pattern_show_trial_num","","","","","","","","","","","","","","","","","","","","","","","","",""
"","","","","","image-keyboard-response","137","444304","0.0-2.0-7.0-1.18","5d658bd7d70c7100014cfc3d","B2","batch2","","2733.1000000089407","stim/no_32_1_w.png","j","pattern_response","true","j","pattern_14","2733.1000000089407","true","52","","","","","","","","","","","","","","","","","","",""
"","","","","","html-keyboard-response","138","445612","0.0-2.0-7.0-0.19","5d658bd7d70c7100014cfc3d","B2","batch2","","null","<p class=block-text>Trial 59 out of 78</p>","null","pattern_show_trial_num","","","","","","","","","","","","","","","","","","","","","","","","",""
"","","","","","image-keyboard-response","139","446784","0.0-2.0-7.0-1.19","5d658bd7d70c7100014cfc3d","B2","batch2","","1170.2999999970198","stim/yes_43_ver_w1_w.png","f","pattern_response","true","f","pattern_65","1170.2999999970198","true","53","","","","","","","","","","","","","","","","","","",""
"","","","","","html-keyboard-response","140","448102","0.0-2.0-7.0-0.20","5d658bd7d70c7100014cfc3d","B2","batch2","","null","<p class=block-text>Trial 60 out of 78</p>","null","pattern_show_trial_num","","","","","","","","","","","","","","","","","","","","","","","","",""
"","","","","","image-keyboard-response","141","453137","0.0-2.0-7.0-1.20","5d658bd7d70c7100014cfc3d","B2","batch2","","5032.0999999940395","stim/no_52_1.png","j","pattern_response","true","j","pattern_32","5032.0999999940395","true","54","","","","","","","","","","","","","","","","","","",""
"","","","","","html-keyboard-response","142","454452","0.0-2.0-7.0-0.21","5d658bd7d70c7100014cfc3d","B2","batch2","","null","<p class=block-text>Trial 61 out of 78</p>","null","pattern_show_trial_num","","","","","","","","","","","","","","","","","","","","","","","","",""
"","","","","","image-keyboard-response","143","455648","0.0-2.0-7.0-1.21","5d658bd7d70c7100014cfc3d","B2","batch2","","1194.4000000059605","stim/no_13_2_b.png","j","pattern_response","true","j","pattern_02","1194.4000000059605","true","55","","","","","","","","","","","","","","","","","","",""
"","","","","","html-keyboard-response","144","456954","0.0-2.0-7.0-0.22","5d658bd7d70c7100014cfc3d","B2","batch2","","null","<p class=block-text>Trial 62 out of 78</p>","null","pattern_show_trial_num","","","","","","","","","","","","","","","","","","","","","","","","",""
"","","","","","image-keyboard-response","145","460816","0.0-2.0-7.0-1.22","5d658bd7d70c7100014cfc3d","B2","batch2","","3860.2000000029802","stim/yes_48_dia_w1_w.png","j","pattern_response","false","f","pattern_69","3860.2000000029802","false","55","","","","","","","","","","","","","","","","","","",""
"","","","","","html-keyboard-response","146","462136","0.0-2.0-7.0-0.23","5d658bd7d70c7100014cfc3d","B2","batch2","","null","<p class=block-text>Trial 63 out of 78</p>","null","pattern_show_trial_num","","","","","","","","","","","","","","","","","","","","","","","","",""
"","","","","","image-keyboard-response","147","466721","0.0-2.0-7.0-1.23","5d658bd7d70c7100014cfc3d","B2","batch2","","4582.5999999940395","stim/no_36_2_w.png","j","pattern_response","true","j","pattern_18","4582.5999999940395","true","56","","","","","","","","","","","","","","","","","","",""
"","","","","","html-keyboard-response","148","468028","0.0-2.0-7.0-0.24","5d658bd7d70c7100014cfc3d","B2","batch2","","null","<p class=block-text>Trial 64 out of 78</p>","null","pattern_show_trial_num","","","","","","","","","","","","","","","","","","","","","","","","",""
"","","","","","image-keyboard-response","149","469792","0.0-2.0-7.0-1.24","5d658bd7d70c7100014cfc3d","B2","batch2","","1761.5","stim/no_50_1.png","j","pattern_response","true","j","pattern_30","1761.5","true","57","","","","","","","","","","","","","","","","","","",""
"","","","","","html-keyboard-response","150","471097","0.0-2.0-7.0-0.25","5d658bd7d70c7100014cfc3d","B2","batch2","","null","<p class=block-text>Trial 65 out of 78</p>","null","pattern_show_trial_num","","","","","","","","","","","","","","","","","","","","","","","","",""
"","","","","","image-keyboard-response","151","472688","0.0-2.0-7.0-1.25","5d658bd7d70c7100014cfc3d","B2","batch2","","1589.5","stim/yes_55_hor_w1_w.png","f","pattern_response","true","f","pattern_75","1589.5","true","58","","","","","","","","","","","","","","","","","","",""
"","","","","","html-keyboard-response","152","474017","0.0-2.0-7.0-0.26","5d658bd7d70c7100014cfc3d","B2","batch2","","null","<p class=block-text>Trial 66 out of 78</p>","null","pattern_show_trial_num","","","","","","","","","","","","","","","","","","","","","","","","",""
"","","","","","image-keyboard-response","153","478481","0.0-2.0-7.0-1.26","5d658bd7d70c7100014cfc3d","B2","batch2","","4462","stim/yes_31_hor_b1.png","f","pattern_response","true","f","pattern_55","4462","true","59","","","","","","","","","","","","","","","","","","",""
"","","","","","html-keyboard-response","154","479798","0.0-2.0-7.0-0.27","5d658bd7d70c7100014cfc3d","B2","batch2","","null","<p class=block-text>Trial 67 out of 78</p>","null","pattern_show_trial_num","","","","","","","","","","","","","","","","","","","","","","","","",""
"","","","","","image-keyboard-response","155","481680","0.0-2.0-7.0-1.27","5d658bd7d70c7100014cfc3d","B2","batch2","","1879.7000000029802","stim/yes_52_ver_w1.png","f","pattern_response","true","f","pattern_73","1879.7000000029802","true","60","","","","","","","","","","","","","","","","","","",""
"","","","","","html-keyboard-response","156","482990","0.0-2.0-7.0-0.28","5d658bd7d70c7100014cfc3d","B2","batch2","","null","<p class=block-text>Trial 68 out of 78</p>","null","pattern_show_trial_num","","","","","","","","","","","","","","","","","","","","","","","","",""
"","","","","","image-keyboard-response","157","484736","0.0-2.0-7.0-1.28","5d658bd7d70c7100014cfc3d","B2","batch2","","1743.7000000029802","stim/no_26_1_w.png","j","pattern_response","true","j","pattern_10","1743.7000000029802","true","61","","","","","","","","","","","","","","","","","","",""
"","","","","","html-keyboard-response","158","486063","0.0-2.0-7.0-0.29","5d658bd7d70c7100014cfc3d","B2","batch2","","null","<p class=block-text>Trial 69 out of 78</p>","null","pattern_show_trial_num","","","","","","","","","","","","","","","","","","","","","","","","",""
"","","","","","image-keyboard-response","159","487360","0.0-2.0-7.0-1.29","5d658bd7d70c7100014cfc3d","B2","batch2","","1295","stim/yes_67_hor_b1.png","f","pattern_response","true","f","pattern_79","1295","true","62","","","","","","","","","","","","","","","","","","",""
"","","","","","html-keyboard-response","160","488670","0.0-2.0-7.0-0.30","5d658bd7d70c7100014cfc3d","B2","batch2","","null","<p class=block-text>Trial 70 out of 78</p>","null","pattern_show_trial_num","","","","","","","","","","","","","","","","","","","","","","","","",""
"","","","","","image-keyboard-response","161","495920","0.0-2.0-7.0-1.30","5d658bd7d70c7100014cfc3d","B2","batch2","","7248.79999999702","stim/no_38_1_b.png","j","pattern_response","true","j","pattern_20","7248.79999999702","true","63","","","","","","","","","","","","","","","","","","",""
"","","","","","html-keyboard-response","162","497238","0.0-2.0-7.0-0.31","5d658bd7d70c7100014cfc3d","B2","batch2","","null","<p class=block-text>Trial 71 out of 78</p>","null","pattern_show_trial_num","","","","","","","","","","","","","","","","","","","","","","","","",""
"","","","","","image-keyboard-response","163","498176","0.0-2.0-7.0-1.31","5d658bd7d70c7100014cfc3d","B2","batch2","","936.2999999970198","stim/yes_35_dia_b1.png","f","pattern_response","true","f","pattern_57","936.2999999970198","true","64","","","","","","","","","","","","","","","","","","",""
"","","","","","html-keyboard-response","164","499484","0.0-2.0-7.0-0.32","5d658bd7d70c7100014cfc3d","B2","batch2","","null","<p class=block-text>Trial 72 out of 78</p>","null","pattern_show_trial_num","","","","","","","","","","","","","","","","","","","","","","","","",""
"","","","","","image-keyboard-response","165","504705","0.0-2.0-7.0-1.32","5d658bd7d70c7100014cfc3d","B2","batch2","","5218.70000000298","stim/no_42_1_w.png","j","pattern_response","true","j","pattern_22","5218.70000000298","true","65","","","","","","","","","","","","","","","","","","",""
"","","","","","html-keyboard-response","166","506017","0.0-2.0-7.0-0.33","5d658bd7d70c7100014cfc3d","B2","batch2","","null","<p class=block-text>Trial 73 out of 78</p>","null","pattern_show_trial_num","","","","","","","","","","","","","","","","","","","","","","","","",""
"","","","","","image-keyboard-response","167","513105","0.0-2.0-7.0-1.33","5d658bd7d70c7100014cfc3d","B2","batch2","","7086","stim/yes_38_hor_b1_b.png","f","pattern_response","true","f","pattern_61","7086","true","66","","","","","","","","","","","","","","","","","","",""
"","","","","","html-keyboard-response","168","514420","0.0-2.0-7.0-0.34","5d658bd7d70c7100014cfc3d","B2","batch2","","null","<p class=block-text>Trial 74 out of 78</p>","null","pattern_show_trial_num","","","","","","","","","","","","","","","","","","","","","","","","",""
"","","","","","image-keyboard-response","169","516609","0.0-2.0-7.0-1.34","5d658bd7d70c7100014cfc3d","B2","batch2","","2186.300000011921","stim/no_20_1_w.png","j","pattern_response","true","j","pattern_06","2186.300000011921","true","67","","","","","","","","","","","","","","","","","","",""
"","","","","","html-keyboard-response","170","517922","0.0-2.0-7.0-0.35","5d658bd7d70c7100014cfc3d","B2","batch2","","null","<p class=block-text>Trial 75 out of 78</p>","null","pattern_show_trial_num","","","","","","","","","","","","","","","","","","","","","","","","",""
"","","","","","image-keyboard-response","171","523713","0.0-2.0-7.0-1.35","5d658bd7d70c7100014cfc3d","B2","batch2","","5790.0999999940395","stim/no_23_1.png","j","pattern_response","true","j","pattern_08","5790.0999999940395","true","68","","","","","","","","","","","","","","","","","","",""
"","","","","","html-keyboard-response","172","525022","0.0-2.0-7.0-0.36","5d658bd7d70c7100014cfc3d","B2","batch2","","null","<p class=block-text>Trial 76 out of 78</p>","null","pattern_show_trial_num","","","","","","","","","","","","","","","","","","","","","","","","",""
"","","","","","image-keyboard-response","173","530209","0.0-2.0-7.0-1.36","5d658bd7d70c7100014cfc3d","B2","batch2","","5184.899999991059","stim/yes_37_dia_w1.png","j","pattern_response","false","f","pattern_59","5184.899999991059","false","68","","","","","","","","","","","","","","","","","","",""
"","","","","","html-keyboard-response","174","531525","0.0-2.0-7.0-0.37","5d658bd7d70c7100014cfc3d","B2","batch2","","null","<p class=block-text>Trial 77 out of 78</p>","null","pattern_show_trial_num","","","","","","","","","","","","","","","","","","","","","","","","",""
"","","","","","image-keyboard-response","175","545041","0.0-2.0-7.0-1.37","5d658bd7d70c7100014cfc3d","B2","batch2","","13514.199999988079","stim/no_46_1_b.png","j","pattern_response","true","j","pattern_26","13514.199999988079","true","69","","","","","","","","","","","","","","","","","","",""
"","","","","","html-keyboard-response","176","546362","0.0-2.0-7.0-0.38","5d658bd7d70c7100014cfc3d","B2","batch2","","null","<p class=block-text>Trial 78 out of 78</p>","null","pattern_show_trial_num","","","","","","","","","","","","","","","","","","","","","","","","",""
"","","","","","image-keyboard-response","177","552401","0.0-2.0-7.0-1.38","5d658bd7d70c7100014cfc3d","B2","batch2","","6037.70000000298","stim/no_65_1_b.png","j","pattern_response","true","j","pattern_38","6037.70000000298","true","70","","","","","","","","","","","","","","","","","","",""
"","","","","","html-button-response","178","555872","0.0-2.0-8.0","5d658bd7d70c7100014cfc3d","B2","batch2","","2955.7999999970198","<p class = block-text>This concludes the 4-in-a-row detection game.Thank you for your responses!<br>
            You responded correctly on 90% of the trials.<br>
            When you are ready, press ""Continue"" button to continue </p>","0","","","","","","","","","","","","","","","","","","","","","","","","","",""
"true","","","","","fullscreen","179","718299","0.0-3.0-0.0","5d658bd7d70c7100014cfc3d","B2","batch2","","","","","","","","","","","","","","","","","","","","","","","","","","","","","",""
"","","","","","instructions","180","764668","0.0-3.0-1.0-0.0-0.0","5d658bd7d70c7100014cfc3d","B2","batch2","[{""page_index"":0,""viewing_time"":10744},{""page_index"":1,""viewing_time"":5360.0999999940395},{""page_index"":2,""viewing_time"":3209.800000011921},{""page_index"":3,""viewing_time"":8619},{""page_index"":4,""viewing_time"":7475.0999999940395},{""page_index"":5,""viewing_time"":8131.9000000059605},{""page_index"":6,""viewing_time"":2827.8999999910593}]","46368.09999999404","","","tol-instructions","","","","","","","","","","","","","","","","","","","","","","","","",""
"","","","","","html-button-response","181","765722","0.0-3.0-1.0-1.0-0.0","5d658bd7d70c7100014cfc3d","B2","batch2","","1053.300000011921","<p class=block-text> Let's answer a few questions <br>","0","tol_enter_quiz","","","","","","","","","","","","","","","","","","","","","","","","",""
"","","","","","html-button-response","182","769762","0.0-3.0-1.0-1.0-1.0","5d658bd7d70c7100014cfc3d","B2","batch2","","4038.7999999970198","<p class = block-text>True or False: You can only move the ball on top of a peg. <br></p>","1","tol_quiz","false","","","","","","","","","","","","","","","","","","","","","","","",""
"","","","","","html-button-response","183","771841","0.0-3.0-1.0-1.0-2.0","5d658bd7d70c7100014cfc3d","B2","batch2","","2078","<p class = block-text>Incorrect. Remember, you can only move the ball on top of a peg.</p>","0","tol_quiz_feedback","","","","","","","","","","","","","","","","","","","","","","","","",""
"","","","","","html-button-response","184","775135","0.0-3.0-1.0-1.0-3.0","5d658bd7d70c7100014cfc3d","B2","batch2","","3294.300000011921","<p class = block-text>True or False: You should try to match your board with the target board with fewest moves possible. <br></p>","0","tol_quiz","true","","","","","","","","","","","","","","","","","","","","","","","",""
"","","","","","html-button-response","185","775864","0.0-3.0-1.0-1.0-4.0","5d658bd7d70c7100014cfc3d","B2","batch2","","728","<p class = block-text>Correct! </p>","0","tol_quiz_feedback","","","","","","","","","","","","","","","","","","","","","","","","",""
"","","","","","html-button-response","186","777590","0.0-3.0-1.0-2.0-0.0","5d658bd7d70c7100014cfc3d","B2","batch2","","1725.1000000089407","<p class = block-text>You made too many incorrect choices.</p><p class = block-text>You will now repeat the instructions and quiz</p>","0","","","","","","","","","","","","","","","","","","","","","","","","","",""
"","","","","","instructions","187","783676","0.0-3.0-1.1-0.1-0.1","5d658bd7d70c7100014cfc3d","B2","batch2","[{""page_index"":0,""viewing_time"":1295.1000000089407},{""page_index"":1,""viewing_time"":610.2000000029802},{""page_index"":2,""viewing_time"":381.59999999403954},{""page_index"":3,""viewing_time"":852.0999999940395},{""page_index"":4,""viewing_time"":696.2000000029802},{""page_index"":5,""viewing_time"":750.1000000089407},{""page_index"":6,""viewing_time"":1500}]","6085.5","","","tol-instructions","","","","","","","","","","","","","","","","","","","","","","","","",""
"","","","","","html-button-response","188","784481","0.0-3.0-1.1-1.1-0.1","5d658bd7d70c7100014cfc3d","B2","batch2","","804.2999999970198","<p class=block-text> Let's answer a few questions <br>","0","tol_enter_quiz","","","","","","","","","","","","","","","","","","","","","","","","",""
"","","","","","html-button-response","189","785542","0.0-3.0-1.1-1.1-1.1","5d658bd7d70c7100014cfc3d","B2","batch2","","1060.2000000029802","<p class = block-text>True or False: You can only move the ball on top of a peg. <br></p>","0","tol_quiz","true","","","","","","","","","","","","","","","","","","","","","","","",""
"","","","","","html-button-response","190","786128","0.0-3.0-1.1-1.1-2.1","5d658bd7d70c7100014cfc3d","B2","batch2","","585.4000000059605","<p class = block-text>Correct! You can only move the ball on top of a peg.</p>","0","tol_quiz_feedback","","","","","","","","","","","","","","","","","","","","","","","","",""
"","","","","","html-button-response","191","787800","0.0-3.0-1.1-1.1-3.1","5d658bd7d70c7100014cfc3d","B2","batch2","","1671.300000011921","<p class = block-text>True or False: You should try to match your board with the target board with fewest moves possible. <br></p>","0","tol_quiz","true","","","","","","","","","","","","","","","","","","","","","","","",""
"","","","","","html-button-response","192","788526","0.0-3.0-1.1-1.1-4.1","5d658bd7d70c7100014cfc3d","B2","batch2","","725.0999999940395","<p class = block-text>Correct! </p>","0","tol_quiz_feedback","","","","","","","","","","","","","","","","","","","","","","","","",""
"","","","","","html-button-response","193","789394","0.0-3.0-2.0","5d658bd7d70c7100014cfc3d","B2","batch2","","867.3000000119209","<p class=block-text> Now that you've understood the game, let's practice a few easier examples before we start!<br> <br>","0","","","","","","","","","","","","","","","","","","","","","","","","","",""
"","","","","","single-stim-button","194","791506","0.0-3.0-3.0-0.0","5d658bd7d70c7100014cfc3d","B2","batch2","","2110","","","tol_practice","","","","","","","","","tol_peg_2","2110","2110","0","[[1,2,0],[0,0],[0]]","1","[[1,2,0],[0,0],[3]]","practice","2110","","","","","","","",""
"","","","","","single-stim-button","195","792746","0.0-3.0-3.0-1.0","5d658bd7d70c7100014cfc3d","B2","batch2","","1240","","","tol_practice","","","","","","","","","tol_peg_3","1240","1240","0","[[1,2,0],[0,0],[3]]","1","[[1,2,0],[0,0],[3]]","practice","1240","","","","","","","",""
"","","","","","poldrack-single-stim","196","793748","0.0-3.0-4.0","5d658bd7d70c7100014cfc3d","B2","batch2","","-1","","","tol_feedback","true","","","","","","","","","1000","1000","500","","","","","","-1","none","true","","0","","",""
"","","","","","single-stim-button","197","796698","0.0-3.0-5.0-0.0","5d658bd7d70c7100014cfc3d","B2","batch2","","2949","","","tol_practice","","","","","","","","","tol_peg_1","2949","2949","0","[[1,0,0],[3,0],[0]]","2","[[0,0,0],[3,1],[2]]","practice","2949","","","","","","","",""
"","","","","","single-stim-button","198","798026","0.0-3.0-5.0-1.0","5d658bd7d70c7100014cfc3d","B2","batch2","","1328","","","tol_practice","","","","","","","","","tol_peg_3","1328","1328","0","[[1,0,0],[3,0],[2]]","2","[[0,0,0],[3,1],[2]]","practice","1328","","","","","","","",""
"","","","","","single-stim-button","199","799160","0.0-3.0-5.1-0.1","5d658bd7d70c7100014cfc3d","B2","batch2","","1133","","","tol_practice","","","","","","","","","tol_peg_1","1133","1133","0","[[0,0,0],[3,0],[2]]","3","[[0,0,0],[3,1],[2]]","practice","1133","","","","","","","",""
"","","","","","single-stim-button","200","800034","0.0-3.0-5.1-1.1","5d658bd7d70c7100014cfc3d","B2","batch2","","874","","","tol_practice","","","","","","","","","tol_peg_2","874","874","0","[[0,0,0],[3,1],[2]]","3","[[0,0,0],[3,1],[2]]","practice","874","","","","","","","",""
"","","","","","poldrack-single-stim","201","801036","0.0-3.0-6.0","5d658bd7d70c7100014cfc3d","B2","batch2","","-1","","","tol_feedback","true","","","","","","","","","1000","1000","500","","","","","","-1","none","true","","0","","",""
"","","","","","single-stim-button","202","803152","0.0-3.0-7.0-0.0","5d658bd7d70c7100014cfc3d","B2","batch2","","2115","","","tol_practice","","","","","","","","","tol_peg_2","2115","2115","0","[[1,2,0],[0,0],[0]]","4","[[1,0,0],[2,0],[3]]","practice","2115","","","","","","","",""
"","","","","","single-stim-button","203","804317","0.0-3.0-7.0-1.0","5d658bd7d70c7100014cfc3d","B2","batch2","","1164","","","tol_practice","","","","","","","","","tol_peg_3","1164","1164","0","[[1,2,0],[0,0],[3]]","4","[[1,0,0],[2,0],[3]]","practice","1164","","","","","","","",""
"","","","","","single-stim-button","204","805510","0.0-3.0-7.1-0.1","5d658bd7d70c7100014cfc3d","B2","batch2","","1193","","","tol_practice","","","","","","","","","tol_peg_1","1193","1193","0","[[1,0,0],[0,0],[3]]","5","[[1,0,0],[2,0],[3]]","practice","1193","","","","","","","",""
"","","","","","single-stim-button","205","806231","0.0-3.0-7.1-1.1","5d658bd7d70c7100014cfc3d","B2","batch2","","721","","","tol_practice","","","","","","","","","tol_peg_2","721","721","0","[[1,0,0],[2,0],[3]]","5","[[1,0,0],[2,0],[3]]","practice","721","","","","","","","",""
"","","","","","poldrack-single-stim","206","807233","0.0-3.0-8.0","5d658bd7d70c7100014cfc3d","B2","batch2","","-1","","","tol_feedback","true","","","","","","","","","1000","1000","500","","","","","","-1","none","true","","0","","",""
"","","","","","html-button-response","207","809362","0.0-3.0-9.0","5d658bd7d70c7100014cfc3d","B2","batch2","","2128.3999999910593","<div class = centerbox><p class = center-block-text>Great job! You are done with practice trials<br>You are about to start official trials.<br> <br> Problem <strong>1</strong> out of 25 problems</p></div>","0","tol_instruction","","","","","","","","","","","","","","","","","","","","","","","","",""
"","","","","","single-stim-button","208","814262","0.0-3.0-10.0-0.0","5d658bd7d70c7100014cfc3d","B2","batch2","","3883","","","tol_tohand","","","","","","","","","tol_peg_2","3883","3883","0","[[1,2,0],[0,0],[0]]","1","[[1,3,0],[2,0],[0]]","0","0","","","","","","3","",""
"","","","","","single-stim-button","209","814940","0.0-3.0-10.0-1.0","5d658bd7d70c7100014cfc3d","B2","batch2","","678","","","tol_toboard","","","","","","","","","tol_peg_1","678","678","0","[[1,2,3],[0,0],[0]]","1","[[1,3,0],[2,0],[0]]","0","0","","","","","","3","",""
"","","","","","single-stim-button","210","816502","0.0-3.0-10.1-0.1","5d658bd7d70c7100014cfc3d","B2","batch2","","1561","","","tol_tohand","","","","","","","","","tol_peg_1","1561","1561","0","[[1,2,0],[0,0],[0]]","2","[[1,3,0],[2,0],[0]]","0","0","","","","","","3","",""
"","","","","","single-stim-button","211","817706","0.0-3.0-10.1-1.1","5d658bd7d70c7100014cfc3d","B2","batch2","","1203","","","tol_toboard","","","","","","","","","tol_peg_3","1203","1203","0","[[1,2,0],[0,0],[3]]","2","[[1,3,0],[2,0],[0]]","0","0","","","","","","3","",""
"","","","","","single-stim-button","212","818628","0.0-3.0-10.2-0.2","5d658bd7d70c7100014cfc3d","B2","batch2","","921","","","tol_tohand","","","","","","","","","tol_peg_1","921","921","0","[[1,0,0],[0,0],[3]]","3","[[1,3,0],[2,0],[0]]","0","0","","","","","","3","",""
"","","","","","single-stim-button","213","819526","0.0-3.0-10.2-1.2","5d658bd7d70c7100014cfc3d","B2","batch2","","897","","","tol_toboard","","","","","","","","","tol_peg_2","897","897","0","[[1,0,0],[2,0],[3]]","3","[[1,3,0],[2,0],[0]]","0","0","","","","","","3","",""
"","","","","","single-stim-button","214","820252","0.0-3.0-10.3-0.3","5d658bd7d70c7100014cfc3d","B2","batch2","","726","","","tol_tohand","","","","","","","","","tol_peg_3","726","726","0","[[1,0,0],[2,0],[0]]","4","[[1,3,0],[2,0],[0]]","0","0","","","","","","3","",""
"","","","","","single-stim-button","215","820916","0.0-3.0-10.3-1.3","5d658bd7d70c7100014cfc3d","B2","batch2","","663","","","tol_toboard","","","","","","","","","tol_peg_1","663","663","0","[[1,3,0],[2,0],[0]]","4","[[1,3,0],[2,0],[0]]","0","0","","","","","","3","",""
"","","","","","poldrack-single-stim","216","821924","0.0-3.0-11.0","5d658bd7d70c7100014cfc3d","B2","batch2","","-1","","","tol_feedback","true","","","","","","","","","1000","1000","500","","","","","","-1","none","true","3883","7091","","",""
"","","","","","html-button-response","217","823846","0.0-3.0-12.0","5d658bd7d70c7100014cfc3d","B2","batch2","","1920.3999999910593","<div class = centerbox><p class = center-block-text>problem <strong>2</strong> out of 25 problems</p></div>","0","tol_trial_num","","","","","","","","","","","","","","","","","","","","","","","","",""
"","","","","","single-stim-button","218","827979","0.0-3.0-13.0-0.0","5d658bd7d70c7100014cfc3d","B2","batch2","","4132","","","tol_tohand","","","","","","","","","tol_peg_1","4132","4132","0","[[1,0,0],[3,0],[0]]","1","[[2,1,3],[0,0],[0]]","1","0","","","","","","5","",""
"","","","","","single-stim-button","219","830330","0.0-3.0-13.0-1.0","5d658bd7d70c7100014cfc3d","B2","batch2","","2350","","","tol_toboard","","","","","","","","","tol_peg_3","2350","2350","0","[[1,0,0],[3,0],[2]]","1","[[2,1,3],[0,0],[0]]","1","0","","","","","","5","",""
"","","","","","single-stim-button","220","834760","0.0-3.0-13.1-0.1","5d658bd7d70c7100014cfc3d","B2","batch2","","4429","","","tol_tohand","","","","","","","","","tol_peg_3","4429","4429","0","[[1,0,0],[3,0],[0]]","2","[[2,1,3],[0,0],[0]]","1","0","","","","","","5","",""
"","","","","","single-stim-button","221","835384","0.0-3.0-13.1-1.1","5d658bd7d70c7100014cfc3d","B2","batch2","","623","","","tol_toboard","","","","","","","","","tol_peg_2","623","623","0","[[1,0,0],[3,2],[0]]","2","[[2,1,3],[0,0],[0]]","1","0","","","","","","5","",""
"","","","","","single-stim-button","222","836346","0.0-3.0-13.2-0.2","5d658bd7d70c7100014cfc3d","B2","batch2","","962","","","tol_tohand","","","","","","","","","tol_peg_1","962","962","0","[[0,0,0],[3,2],[0]]","3","[[2,1,3],[0,0],[0]]","1","0","","","","","","5","",""
"","","","","","single-stim-button","223","837230","0.0-3.0-13.2-1.2","5d658bd7d70c7100014cfc3d","B2","batch2","","883","","","tol_toboard","","","","","","","","","tol_peg_3","883","883","0","[[0,0,0],[3,2],[1]]","3","[[2,1,3],[0,0],[0]]","1","0","","","","","","5","",""
"","","","","","single-stim-button","224","840988","0.0-3.0-13.3-0.3","5d658bd7d70c7100014cfc3d","B2","batch2","","3757","","","tol_tohand","","","","","","","","","tol_peg_2","3757","3757","0","[[0,0,0],[3,0],[1]]","4","[[2,1,3],[0,0],[0]]","1","0","","","","","","5","",""
"","","","","","single-stim-button","225","842651","0.0-3.0-13.3-1.3","5d658bd7d70c7100014cfc3d","B2","batch2","","1662","","","tol_toboard","","","","","","","","","tol_peg_1","1662","1662","0","[[2,0,0],[3,0],[1]]","4","[[2,1,3],[0,0],[0]]","1","0","","","","","","5","",""
"","","","","","single-stim-button","226","843315","0.0-3.0-13.4-0.4","5d658bd7d70c7100014cfc3d","B2","batch2","","663","","","tol_tohand","","","","","","","","","tol_peg_2","663","663","0","[[2,0,0],[0,0],[1]]","5","[[2,1,3],[0,0],[0]]","1","0","","","","","","5","",""
"","","","","","single-stim-button","227","847761","0.0-3.0-13.4-1.4","5d658bd7d70c7100014cfc3d","B2","batch2","","4445","","","tol_toboard","","","","","","","","","tol_peg_2","4445","4445","0","[[2,0,0],[3,0],[1]]","5","[[2,1,3],[0,0],[0]]","1","0","","","","","","5","",""
"","","","","","single-stim-button","228","848518","0.0-3.0-13.5-0.5","5d658bd7d70c7100014cfc3d","B2","batch2","","756","","","tol_tohand","","","","","","","","","tol_peg_3","756","756","0","[[2,0,0],[3,0],[0]]","6","[[2,1,3],[0,0],[0]]","1","0","","","","","","5","",""
"","","","","","single-stim-button","229","849253","0.0-3.0-13.5-1.5","5d658bd7d70c7100014cfc3d","B2","batch2","","735","","","tol_toboard","","","","","","","","","tol_peg_2","735","735","0","[[2,0,0],[3,1],[0]]","6","[[2,1,3],[0,0],[0]]","1","0","","","","","","5","",""
"","","","","","single-stim-button","230","851885","0.0-3.0-13.6-0.6","5d658bd7d70c7100014cfc3d","B2","batch2","","2631","","","tol_tohand","","","","","","","","","tol_peg_2","2631","2631","0","[[2,0,0],[3,0],[0]]","7","[[2,1,3],[0,0],[0]]","1","0","","","","","","5","",""
"","","","","","single-stim-button","231","852737","0.0-3.0-13.6-1.6","5d658bd7d70c7100014cfc3d","B2","batch2","","851","","","tol_toboard","","","","","","","","","tol_peg_1","851","851","0","[[2,1,0],[3,0],[0]]","7","[[2,1,3],[0,0],[0]]","1","0","","","","","","5","",""
"","","","","","single-stim-button","232","853659","0.0-3.0-13.7-0.7","5d658bd7d70c7100014cfc3d","B2","batch2","","921","","","tol_tohand","","","","","","","","","tol_peg_2","921","921","0","[[2,1,0],[0,0],[0]]","8","[[2,1,3],[0,0],[0]]","1","0","","","","","","5","",""
"","","","","","single-stim-button","233","854463","0.0-3.0-13.7-1.7","5d658bd7d70c7100014cfc3d","B2","batch2","","803","","","tol_toboard","","","","","","","","","tol_peg_1","803","803","0","[[2,1,3],[0,0],[0]]","8","[[2,1,3],[0,0],[0]]","1","0","","","","","","5","",""
"","","","","","poldrack-single-stim","234","855465","0.0-3.0-14.0","5d658bd7d70c7100014cfc3d","B2","batch2","","-1","","","tol_feedback","true","","","","","","","","","1000","1000","500","","","","","","-1","none","true","4132","18251","","",""
"","","","","","html-button-response","235","857901","0.0-3.0-15.0","5d658bd7d70c7100014cfc3d","B2","batch2","","2435","<div class = centerbox><p class = center-block-text>problem <strong>3</strong> out of 25 problems</p></div>","0","tol_trial_num","","","","","","","","","","","","","","","","","","","","","","","","",""
"","","","","","single-stim-button","236","862369","0.0-3.0-16.0-0.0","5d658bd7d70c7100014cfc3d","B2","batch2","","4468","","","tol_tohand","","","","","","","","","tol_peg_1","4468","4468","0","[[2,0,0],[0,0],[1]]","1","[[1,2,0],[3,0],[0]]","2","0","","","","","","4","",""
"","","","","","single-stim-button","237","863235","0.0-3.0-16.0-1.0","5d658bd7d70c7100014cfc3d","B2","batch2","","866","","","tol_toboard","","","","","","","","","tol_peg_2","866","866","0","[[2,0,0],[3,0],[1]]","1","[[1,2,0],[3,0],[0]]","2","0","","","","","","4","",""
"","","","","","single-stim-button","238","864807","0.0-3.0-16.1-0.1","5d658bd7d70c7100014cfc3d","B2","batch2","","1571","","","tol_tohand","","","","","","","","","tol_peg_1","1571","1571","0","[[0,0,0],[3,0],[1]]","2","[[1,2,0],[3,0],[0]]","2","0","","","","","","4","",""
"","","","","","single-stim-button","239","865596","0.0-3.0-16.1-1.1","5d658bd7d70c7100014cfc3d","B2","batch2","","788","","","tol_toboard","","","","","","","","","tol_peg_2","788","788","0","[[0,0,0],[3,2],[1]]","2","[[1,2,0],[3,0],[0]]","2","0","","","","","","4","",""
"","","","","","single-stim-button","240","866144","0.0-3.0-16.2-0.2","5d658bd7d70c7100014cfc3d","B2","batch2","","547","","","tol_tohand","","","","","","","","","tol_peg_3","547","547","0","[[0,0,0],[3,2],[0]]","3","[[1,2,0],[3,0],[0]]","2","0","","","","","","4","",""
"","","","","","single-stim-button","241","866877","0.0-3.0-16.2-1.2","5d658bd7d70c7100014cfc3d","B2","batch2","","733","","","tol_toboard","","","","","","","","","tol_peg_1","733","733","0","[[1,0,0],[3,2],[0]]","3","[[1,2,0],[3,0],[0]]","2","0","","","","","","4","",""
"","","","","","single-stim-button","242","867533","0.0-3.0-16.3-0.3","5d658bd7d70c7100014cfc3d","B2","batch2","","655","","","tol_tohand","","","","","","","","","tol_peg_2","655","655","0","[[1,0,0],[3,0],[0]]","4","[[1,2,0],[3,0],[0]]","2","0","","","","","","4","",""
"","","","","","single-stim-button","243","868337","0.0-3.0-16.3-1.3","5d658bd7d70c7100014cfc3d","B2","batch2","","804","","","tol_toboard","","","","","","","","","tol_peg_1","804","804","0","[[1,2,0],[3,0],[0]]","4","[[1,2,0],[3,0],[0]]","2","0","","","","","","4","",""
"","","","","","poldrack-single-stim","244","869350","0.0-3.0-17.0","5d658bd7d70c7100014cfc3d","B2","batch2","","-1","","","tol_feedback","true","","","","","","","","","1000","1000","500","","","","","","-1","none","true","4468","7241","","",""
"","","","","","html-button-response","245","870345","0.0-3.0-18.0","5d658bd7d70c7100014cfc3d","B2","batch2","","994.9000000059605","<div class = centerbox><p class = center-block-text>problem <strong>4</strong> out of 25 problems</p></div>","0","tol_trial_num","","","","","","","","","","","","","","","","","","","","","","","","",""
"","","","","","single-stim-button","246","873517","0.0-3.0-19.0-0.0","5d658bd7d70c7100014cfc3d","B2","batch2","","3171","","","tol_tohand","","","","","","","","","tol_peg_2","3171","3171","0","[[3,0,0],[2,0],[0]]","1","[[3,0,0],[1,0],[2]]","3","0","","","","","","3","",""
"","","","","","single-stim-button","247","874165","0.0-3.0-19.0-1.0","5d658bd7d70c7100014cfc3d","B2","batch2","","647","","","tol_toboard","","","","","","","","","tol_peg_1","647","647","0","[[3,1,0],[2,0],[0]]","1","[[3,0,0],[1,0],[2]]","3","0","","","","","","3","",""
"","","","","","single-stim-button","248","875026","0.0-3.0-19.1-0.1","5d658bd7d70c7100014cfc3d","B2","batch2","","860","","","tol_tohand","","","","","","","","","tol_peg_2","860","860","0","[[3,1,0],[0,0],[0]]","2","[[3,0,0],[1,0],[2]]","3","0","","","","","","3","",""
"","","","","","single-stim-button","249","875947","0.0-3.0-19.1-1.1","5d658bd7d70c7100014cfc3d","B2","batch2","","920","","","tol_toboard","","","","","","","","","tol_peg_3","920","920","0","[[3,1,0],[0,0],[2]]","2","[[3,0,0],[1,0],[2]]","3","0","","","","","","3","",""
"","","","","","single-stim-button","250","876743","0.0-3.0-19.2-0.2","5d658bd7d70c7100014cfc3d","B2","batch2","","795","","","tol_tohand","","","","","","","","","tol_peg_1","795","795","0","[[3,0,0],[0,0],[2]]","3","[[3,0,0],[1,0],[2]]","3","0","","","","","","3","",""
"","","","","","single-stim-button","251","877297","0.0-3.0-19.2-1.2","5d658bd7d70c7100014cfc3d","B2","batch2","","553","","","tol_toboard","","","","","","","","","tol_peg_2","553","553","0","[[3,0,0],[1,0],[2]]","3","[[3,0,0],[1,0],[2]]","3","0","","","","","","3","",""
"","","","","","poldrack-single-stim","252","878299","0.0-3.0-20.0","5d658bd7d70c7100014cfc3d","B2","batch2","","-1","","","tol_feedback","true","","","","","","","","","1000","1000","500","","","","","","-1","none","true","3171","4826","","",""
"","","","","","html-button-response","253","991262","0.0-3.0-21.0","5d658bd7d70c7100014cfc3d","B2","batch2","","112960.29999999702","<div class = centerbox><p class = center-block-text>problem <strong>5</strong> out of 25 problems</p></div>","0","tol_trial_num","","","","","","","","","","","","","","","","","","","","","","","","",""
"","","","","","single-stim-button","254","1009385","0.0-3.0-22.0-0.0","5d658bd7d70c7100014cfc3d","B2","batch2","","18121","","","tol_tohand","","","","","","","","","tol_peg_3","18121","18121","0","[[1,0,0],[2,0],[0]]","1","[[0,0,0],[1,2],[3]]","4","0","","","","","","7","",""
"","","","","","single-stim-button","255","1012743","0.0-3.0-22.0-1.0","5d658bd7d70c7100014cfc3d","B2","batch2","","3358","","","tol_toboard","","","","","","","","","tol_peg_1","3358","3358","0","[[1,3,0],[2,0],[0]]","1","[[0,0,0],[1,2],[3]]","4","0","","","","","","7","",""
"","","","","","single-stim-button","256","1013392","0.0-3.0-22.1-0.1","5d658bd7d70c7100014cfc3d","B2","batch2","","648","","","tol_tohand","","","","","","","","","tol_peg_2","648","648","0","[[1,3,0],[0,0],[0]]","2","[[0,0,0],[1,2],[3]]","4","0","","","","","","7","",""
"","","","","","single-stim-button","257","1014001","0.0-3.0-22.1-1.1","5d658bd7d70c7100014cfc3d","B2","batch2","","608","","","tol_toboard","","","","","","","","","tol_peg_3","608","608","0","[[1,3,0],[0,0],[2]]","2","[[0,0,0],[1,2],[3]]","4","0","","","","","","7","",""
"","","","","","single-stim-button","258","1015399","0.0-3.0-22.2-0.2","5d658bd7d70c7100014cfc3d","B2","batch2","","1397","","","tol_tohand","","","","","","","","","tol_peg_1","1397","1397","0","[[1,0,0],[0,0],[2]]","3","[[0,0,0],[1,2],[3]]","4","0","","","","","","7","",""
"","","","","","single-stim-button","259","1016313","0.0-3.0-22.2-1.2","5d658bd7d70c7100014cfc3d","B2","batch2","","914","","","tol_toboard","","","","","","","","","tol_peg_2","914","914","0","[[1,0,0],[3,0],[2]]","3","[[0,0,0],[1,2],[3]]","4","0","","","","","","7","",""
"","","","","","single-stim-button","260","1018673","0.0-3.0-22.3-0.3","5d658bd7d70c7100014cfc3d","B2","batch2","","2358","","","tol_tohand","","","","","","","","","tol_peg_1","2358","2358","0","[[0,0,0],[3,0],[2]]","4","[[0,0,0],[1,2],[3]]","4","0","","","","","","7","",""
"","","","","","single-stim-button","261","1019635","0.0-3.0-22.3-1.3","5d658bd7d70c7100014cfc3d","B2","batch2","","961","","","tol_toboard","","","","","","","","","tol_peg_2","961","961","0","[[0,0,0],[3,1],[2]]","4","[[0,0,0],[1,2],[3]]","4","0","","","","","","7","",""
"","","","","","single-stim-button","262","1021368","0.0-3.0-22.4-0.4","5d658bd7d70c7100014cfc3d","B2","batch2","","1733","","","tol_tohand","","","","","","","","","tol_peg_3","1733","1733","0","[[0,0,0],[3,1],[0]]","5","[[0,0,0],[1,2],[3]]","4","0","","","","","","7","",""
"","","","","","single-stim-button","263","1022243","0.0-3.0-22.4-1.4","5d658bd7d70c7100014cfc3d","B2","batch2","","874","","","tol_toboard","","","","","","","","","tol_peg_1","874","874","0","[[2,0,0],[3,1],[0]]","5","[[0,0,0],[1,2],[3]]","4","0","","","","","","7","",""
"","","","","","single-stim-button","264","1024969","0.0-3.0-22.5-0.5","5d658bd7d70c7100014cfc3d","B2","batch2","","2725","","","tol_tohand","","","","","","","","","tol_peg_2","2725","2725","0","[[2,0,0],[3,0],[0]]","6","[[0,0,0],[1,2],[3]]","4","0","","","","","","7","",""
"","","","","","single-stim-button","265","1025891","0.0-3.0-22.5-1.5","5d658bd7d70c7100014cfc3d","B2","batch2","","920","","","tol_toboard","","","","","","","","","tol_peg_1","920","920","0","[[2,1,0],[3,0],[0]]","6","[[0,0,0],[1,2],[3]]","4","0","","","","","","7","",""
"","","","","","single-stim-button","266","1026775","0.0-3.0-22.6-0.6","5d658bd7d70c7100014cfc3d","B2","batch2","","883","","","tol_tohand","","","","","","","","","tol_peg_2","883","883","0","[[2,1,0],[0,0],[0]]","7","[[0,0,0],[1,2],[3]]","4","0","","","","","","7","",""
"","","","","","single-stim-button","267","1027469","0.0-3.0-22.6-1.6","5d658bd7d70c7100014cfc3d","B2","batch2","","693","","","tol_toboard","","","","","","","","","tol_peg_3","693","693","0","[[2,1,0],[0,0],[3]]","7","[[0,0,0],[1,2],[3]]","4","0","","","","","","7","",""
"","","","","","single-stim-button","268","1028595","0.0-3.0-22.7-0.7","5d658bd7d70c7100014cfc3d","B2","batch2","","1124","","","tol_tohand","","","","","","","","","tol_peg_1","1124","1124","0","[[2,0,0],[0,0],[3]]","8","[[0,0,0],[1,2],[3]]","4","0","","","","","","7","",""
"","","","","","single-stim-button","269","1029313","0.0-3.0-22.7-1.7","5d658bd7d70c7100014cfc3d","B2","batch2","","717","","","tol_toboard","","","","","","","","","tol_peg_2","717","717","0","[[2,0,0],[1,0],[3]]","8","[[0,0,0],[1,2],[3]]","4","0","","","","","","7","",""
"","","","","","single-stim-button","270","1029820","0.0-3.0-22.8-0.8","5d658bd7d70c7100014cfc3d","B2","batch2","","507","","","tol_tohand","","","","","","","","","tol_peg_1","507","507","0","[[0,0,0],[1,0],[3]]","9","[[0,0,0],[1,2],[3]]","4","0","","","","","","7","",""
"","","","","","single-stim-button","271","1030383","0.0-3.0-22.8-1.8","5d658bd7d70c7100014cfc3d","B2","batch2","","563","","","tol_toboard","","","","","","","","","tol_peg_2","563","563","0","[[0,0,0],[1,2],[3]]","9","[[0,0,0],[1,2],[3]]","4","0","","","","","","7","",""
"","","","","","poldrack-single-stim","272","1031385","0.0-3.0-23.0","5d658bd7d70c7100014cfc3d","B2","batch2","","-1","","","tol_feedback","true","","","","","","","","","1000","1000","500","","","","","","-1","none","true","18121","29496","","",""
"","","","","","html-button-response","273","1032289","0.0-3.0-24.0","5d658bd7d70c7100014cfc3d","B2","batch2","","903.0999999940395","<div class = centerbox><p class = center-block-text>problem <strong>6</strong> out of 25 problems</p></div>","0","tol_trial_num","","","","","","","","","","","","","","","","","","","","","","","","",""
"","","","","","single-stim-button","274","1037453","0.0-3.0-25.0-0.0","5d658bd7d70c7100014cfc3d","B2","batch2","","5164","","","tol_tohand","","","","","","","","","tol_peg_2","5164","5164","0","[[0,0,0],[1,0],[3]]","1","[[1,0,0],[2,3],[0]]","5","0","","","","","","6","",""
"","","","","","single-stim-button","275","1039391","0.0-3.0-25.0-1.0","5d658bd7d70c7100014cfc3d","B2","batch2","","1937","","","tol_toboard","","","","","","","","","tol_peg_1","1937","1937","0","[[2,0,0],[1,0],[3]]","1","[[1,0,0],[2,3],[0]]","5","0","","","","","","6","",""
"","","","","","single-stim-button","276","1040149","0.0-3.0-25.1-0.1","5d658bd7d70c7100014cfc3d","B2","batch2","","757","","","tol_tohand","","","","","","","","","tol_peg_2","757","757","0","[[2,0,0],[0,0],[3]]","2","[[1,0,0],[2,3],[0]]","5","0","","","","","","6","",""
"","","","","","single-stim-button","277","1041477","0.0-3.0-25.1-1.1","5d658bd7d70c7100014cfc3d","B2","batch2","","1327","","","tol_toboard","","","","","","","","","tol_peg_1","1327","1327","0","[[2,1,0],[0,0],[3]]","2","[[1,0,0],[2,3],[0]]","5","0","","","","","","6","",""
"","","","","","single-stim-button","278","1044977","0.0-3.0-25.2-0.2","5d658bd7d70c7100014cfc3d","B2","batch2","","3499","","","tol_tohand","","","","","","","","","tol_peg_3","3499","3499","0","[[2,1,0],[0,0],[0]]","3","[[1,0,0],[2,3],[0]]","5","0","","","","","","6","",""
"","","","","","single-stim-button","279","1046344","0.0-3.0-25.2-1.2","5d658bd7d70c7100014cfc3d","B2","batch2","","1367","","","tol_toboard","","","","","","","","","tol_peg_2","1367","1367","0","[[2,1,0],[3,0],[0]]","3","[[1,0,0],[2,3],[0]]","5","0","","","","","","6","",""
"","","","","","single-stim-button","280","1047469","0.0-3.0-25.3-0.3","5d658bd7d70c7100014cfc3d","B2","batch2","","1124","","","tol_tohand","","","","","","","","","tol_peg_1","1124","1124","0","[[2,0,0],[3,0],[0]]","4","[[1,0,0],[2,3],[0]]","5","0","","","","","","6","",""
"","","","","","single-stim-button","281","1048501","0.0-3.0-25.3-1.3","5d658bd7d70c7100014cfc3d","B2","batch2","","1031","","","tol_toboard","","","","","","","","","tol_peg_3","1031","1031","0","[[2,0,0],[3,0],[1]]","4","[[1,0,0],[2,3],[0]]","5","0","","","","","","6","",""
"","","","","","single-stim-button","282","1052133","0.0-3.0-25.4-0.4","5d658bd7d70c7100014cfc3d","B2","batch2","","3632","","","tol_tohand","","","","","","","","","tol_peg_1","3632","3632","0","[[0,0,0],[3,0],[1]]","5","[[1,0,0],[2,3],[0]]","5","0","","","","","","6","",""
"","","","","","single-stim-button","283","1053313","0.0-3.0-25.4-1.4","5d658bd7d70c7100014cfc3d","B2","batch2","","1180","","","tol_toboard","","","","","","","","","tol_peg_2","1180","1180","0","[[0,0,0],[3,2],[1]]","5","[[1,0,0],[2,3],[0]]","5","0","","","","","","6","",""
"","","","","","single-stim-button","284","1054563","0.0-3.0-25.5-0.5","5d658bd7d70c7100014cfc3d","B2","batch2","","1250","","","tol_tohand","","","","","","","","","tol_peg_3","1250","1250","0","[[0,0,0],[3,2],[0]]","6","[[1,0,0],[2,3],[0]]","5","0","","","","","","6","",""
"","","","","","single-stim-button","285","1055358","0.0-3.0-25.5-1.5","5d658bd7d70c7100014cfc3d","B2","batch2","","795","","","tol_toboard","","","","","","","","","tol_peg_1","795","795","0","[[1,0,0],[3,2],[0]]","6","[[1,0,0],[2,3],[0]]","5","0","","","","","","6","",""
"","","","","","single-stim-button","286","1056523","0.0-3.0-25.6-0.6","5d658bd7d70c7100014cfc3d","B2","batch2","","1164","","","tol_tohand","","","","","","","","","tol_peg_2","1164","1164","0","[[1,0,0],[3,0],[0]]","7","[[1,0,0],[2,3],[0]]","5","0","","","","","","6","",""
"","","","","","single-stim-button","287","1057531","0.0-3.0-25.6-1.6","5d658bd7d70c7100014cfc3d","B2","batch2","","1008","","","tol_toboard","","","","","","","","","tol_peg_3","1008","1008","0","[[1,0,0],[3,0],[2]]","7","[[1,0,0],[2,3],[0]]","5","0","","","","","","6","",""
"","","","","","single-stim-button","288","1058321","0.0-3.0-25.7-0.7","5d658bd7d70c7100014cfc3d","B2","batch2","","789","","","tol_tohand","","","","","","","","","tol_peg_2","789","789","0","[[1,0,0],[0,0],[2]]","8","[[1,0,0],[2,3],[0]]","5","0","","","","","","6","",""
"","","","","","single-stim-button","289","1059007","0.0-3.0-25.7-1.7","5d658bd7d70c7100014cfc3d","B2","batch2","","686","","","tol_toboard","","","","","","","","","tol_peg_1","686","686","0","[[1,3,0],[0,0],[2]]","8","[[1,0,0],[2,3],[0]]","5","0","","","","","","6","",""
"","","","","","single-stim-button","290","1059900","0.0-3.0-25.8-0.8","5d658bd7d70c7100014cfc3d","B2","batch2","","893","","","tol_tohand","","","","","","","","","tol_peg_3","893","893","0","[[1,3,0],[0,0],[0]]","9","[[1,0,0],[2,3],[0]]","5","0","","","","","","6","",""
"","","","","","single-stim-button","291","1060577","0.0-3.0-25.8-1.8","5d658bd7d70c7100014cfc3d","B2","batch2","","676","","","tol_toboard","","","","","","","","","tol_peg_2","676","676","0","[[1,3,0],[2,0],[0]]","9","[[1,0,0],[2,3],[0]]","5","0","","","","","","6","",""
"","","","","","single-stim-button","292","1061203","0.0-3.0-25.9-0.9","5d658bd7d70c7100014cfc3d","B2","batch2","","625","","","tol_tohand","","","","","","","","","tol_peg_1","625","625","0","[[1,0,0],[2,0],[0]]","10","[[1,0,0],[2,3],[0]]","5","0","","","","","","6","",""
"","","","","","single-stim-button","293","1061915","0.0-3.0-25.9-1.9","5d658bd7d70c7100014cfc3d","B2","batch2","","712","","","tol_toboard","","","","","","","","","tol_peg_2","712","712","0","[[1,0,0],[2,3],[0]]","10","[[1,0,0],[2,3],[0]]","5","0","","","","","","6","",""
"","","","","","poldrack-single-stim","294","1062918","0.0-3.0-26.0","5d658bd7d70c7100014cfc3d","B2","batch2","","-1","","","tol_feedback","true","","","","","","","","","1000","1000","500","","","","","","-1","none","true","5164","18897","","",""
"","","","","","html-button-response","295","1063867","0.0-3.0-27.0","5d658bd7d70c7100014cfc3d","B2","batch2","","948.1999999880791","<div class = centerbox><p class = center-block-text>problem <strong>7</strong> out of 25 problems</p></div>","0","tol_trial_num","","","","","","","","","","","","","","","","","","","","","","","","",""
"","","","","","single-stim-button","296","1070867","0.0-3.0-28.0-0.0","5d658bd7d70c7100014cfc3d","B2","batch2","","7000","","","tol_tohand","","","","","","","","","tol_peg_3","7000","7000","0","[[2,1,0],[0,0],[0]]","1","[[1,2,0],[3,0],[0]]","6","0","","","","","","5","",""
"","","","","","single-stim-button","297","1071641","0.0-3.0-28.0-1.0","5d658bd7d70c7100014cfc3d","B2","batch2","","773","","","tol_toboard","","","","","","","","","tol_peg_2","773","773","0","[[2,1,0],[3,0],[0]]","1","[[1,2,0],[3,0],[0]]","6","0","","","","","","5","",""
"","","","","","single-stim-button","298","1072547","0.0-3.0-28.1-0.1","5d658bd7d70c7100014cfc3d","B2","batch2","","906","","","tol_tohand","","","","","","","","","tol_peg_1","906","906","0","[[2,0,0],[3,0],[0]]","2","[[1,2,0],[3,0],[0]]","6","0","","","","","","5","",""
"","","","","","single-stim-button","299","1073773","0.0-3.0-28.1-1.1","5d658bd7d70c7100014cfc3d","B2","batch2","","1225","","","tol_toboard","","","","","","","","","tol_peg_3","1225","1225","0","[[2,0,0],[3,0],[1]]","2","[[1,2,0],[3,0],[0]]","6","0","","","","","","5","",""
"","","","","","single-stim-button","300","1074601","0.0-3.0-28.2-0.2","5d658bd7d70c7100014cfc3d","B2","batch2","","828","","","tol_tohand","","","","","","","","","tol_peg_1","828","828","0","[[0,0,0],[3,0],[1]]","3","[[1,2,0],[3,0],[0]]","6","0","","","","","","5","",""
"","","","","","single-stim-button","301","1075211","0.0-3.0-28.2-1.2","5d658bd7d70c7100014cfc3d","B2","batch2","","609","","","tol_toboard","","","","","","","","","tol_peg_2","609","609","0","[[0,0,0],[3,2],[1]]","3","[[1,2,0],[3,0],[0]]","6","0","","","","","","5","",""
"","","","","","single-stim-button","302","1075891","0.0-3.0-28.3-0.3","5d658bd7d70c7100014cfc3d","B2","batch2","","680","","","tol_tohand","","","","","","","","","tol_peg_3","680","680","0","[[0,0,0],[3,2],[0]]","4","[[1,2,0],[3,0],[0]]","6","0","","","","","","5","",""
"","","","","","single-stim-button","303","1076647","0.0-3.0-28.3-1.3","5d658bd7d70c7100014cfc3d","B2","batch2","","756","","","tol_toboard","","","","","","","","","tol_peg_1","756","756","0","[[1,0,0],[3,2],[0]]","4","[[1,2,0],[3,0],[0]]","6","0","","","","","","5","",""
"","","","","","single-stim-button","304","1077109","0.0-3.0-28.4-0.4","5d658bd7d70c7100014cfc3d","B2","batch2","","462","","","tol_tohand","","","","","","","","","tol_peg_2","462","462","0","[[1,0,0],[3,0],[0]]","5","[[1,2,0],[3,0],[0]]","6","0","","","","","","5","",""
"","","","","","single-stim-button","305","1077664","0.0-3.0-28.4-1.4","5d658bd7d70c7100014cfc3d","B2","batch2","","555","","","tol_toboard","","","","","","","","","tol_peg_1","555","555","0","[[1,2,0],[3,0],[0]]","5","[[1,2,0],[3,0],[0]]","6","0","","","","","","5","",""
"","","","","","poldrack-single-stim","306","1078670","0.0-3.0-29.0","5d658bd7d70c7100014cfc3d","B2","batch2","","-1","","","tol_feedback","true","","","","","","","","","1000","1000","500","","","","","","-1","none","true","7000","9876","","",""
"","","","","","html-button-response","307","1079499","0.0-3.0-30.0","5d658bd7d70c7100014cfc3d","B2","batch2","","827.5","<div class = centerbox><p class = center-block-text>problem <strong>8</strong> out of 25 problems</p></div>","0","tol_trial_num","","","","","","","","","","","","","","","","","","","","","","","","",""
"","","","","","single-stim-button","308","1081725","0.0-3.0-31.0-0.0","5d658bd7d70c7100014cfc3d","B2","batch2","","2226","","","tol_tohand","","","","","","","","","tol_peg_3","2226","2226","0","[[0,0,0],[2,3],[0]]","1","[[1,2,0],[3,0],[0]]","7","0","","","","","","4","",""
"","","","","","single-stim-button","309","1082569","0.0-3.0-31.0-1.0","5d658bd7d70c7100014cfc3d","B2","batch2","","843","","","tol_toboard","","","","","","","","","tol_peg_1","843","843","0","[[1,0,0],[2,3],[0]]","1","[[1,2,0],[3,0],[0]]","7","0","","","","","","4","",""
"","","","","","single-stim-button","310","1083484","0.0-3.0-31.1-0.1","5d658bd7d70c7100014cfc3d","B2","batch2","","915","","","tol_tohand","","","","","","","","","tol_peg_2","915","915","0","[[1,0,0],[2,0],[0]]","2","[[1,2,0],[3,0],[0]]","7","0","","","","","","4","",""
"","","","","","single-stim-button","311","1084179","0.0-3.0-31.1-1.1","5d658bd7d70c7100014cfc3d","B2","batch2","","695","","","tol_toboard","","","","","","","","","tol_peg_3","695","695","0","[[1,0,0],[2,0],[3]]","2","[[1,2,0],[3,0],[0]]","7","0","","","","","","4","",""
"","","","","","single-stim-button","312","1084843","0.0-3.0-31.2-0.2","5d658bd7d70c7100014cfc3d","B2","batch2","","664","","","tol_tohand","","","","","","","","","tol_peg_2","664","664","0","[[1,0,0],[0,0],[3]]","3","[[1,2,0],[3,0],[0]]","7","0","","","","","","4","",""
"","","","","","single-stim-button","313","1085273","0.0-3.0-31.2-1.2","5d658bd7d70c7100014cfc3d","B2","batch2","","429","","","tol_toboard","","","","","","","","","tol_peg_1","429","429","0","[[1,2,0],[0,0],[3]]","3","[[1,2,0],[3,0],[0]]","7","0","","","","","","4","",""
"","","","","","single-stim-button","314","1087459","0.0-3.0-31.3-0.3","5d658bd7d70c7100014cfc3d","B2","batch2","","2186","","","tol_tohand","","","","","","","","","tol_peg_3","2186","2186","0","[[1,2,0],[0,0],[0]]","4","[[1,2,0],[3,0],[0]]","7","0","","","","","","4","",""
"","","","","","single-stim-button","315","1087983","0.0-3.0-31.3-1.3","5d658bd7d70c7100014cfc3d","B2","batch2","","523","","","tol_toboard","","","","","","","","","tol_peg_2","523","523","0","[[1,2,0],[3,0],[0]]","4","[[1,2,0],[3,0],[0]]","7","0","","","","","","4","",""
"","","","","","poldrack-single-stim","316","1088984","0.0-3.0-32.0","5d658bd7d70c7100014cfc3d","B2","batch2","","-1","","","tol_feedback","true","","","","","","","","","1000","1000","500","","","","","","-1","none","true","2226","5991","","",""
"","","","","","html-button-response","317","1089585","0.0-3.0-33.0","5d658bd7d70c7100014cfc3d","B2","batch2","","600.0999999940395","<div class = centerbox><p class = center-block-text>problem <strong>9</strong> out of 25 problems</p></div>","0","tol_trial_num","","","","","","","","","","","","","","","","","","","","","","","","",""
"","","","","","single-stim-button","318","1093093","0.0-3.0-34.0-0.0","5d658bd7d70c7100014cfc3d","B2","batch2","","3508","","","tol_tohand","","","","","","","","","tol_peg_1","3508","3508","0","[[3,0,0],[0,0],[1]]","1","[[2,1,0],[3,0],[0]]","8","0","","","","","","6","",""
"","","","","","single-stim-button","319","1094553","0.0-3.0-34.0-1.0","5d658bd7d70c7100014cfc3d","B2","batch2","","1459","","","tol_toboard","","","","","","","","","tol_peg_2","1459","1459","0","[[3,0,0],[2,0],[1]]","1","[[2,1,0],[3,0],[0]]","8","0","","","","","","6","",""
"","","","","","single-stim-button","320","1097851","0.0-3.0-34.1-0.1","5d658bd7d70c7100014cfc3d","B2","batch2","","3298","","","tol_tohand","","","","","","","","","tol_peg_1","3298","3298","0","[[0,0,0],[2,0],[1]]","2","[[2,1,0],[3,0],[0]]","8","0","","","","","","6","",""
"","","","","","single-stim-button","321","1103054","0.0-3.0-34.1-1.1","5d658bd7d70c7100014cfc3d","B2","batch2","","5202","","","tol_toboard","","","","","","","","","tol_peg_1","5202","5202","0","[[3,0,0],[2,0],[1]]","2","[[2,1,0],[3,0],[0]]","8","0","","","","","","6","",""
"","","","","","single-stim-button","322","1103811","0.0-3.0-34.2-0.2","5d658bd7d70c7100014cfc3d","B2","batch2","","756","","","tol_tohand","","","","","","","","","tol_peg_3","756","756","0","[[3,0,0],[2,0],[0]]","3","[[2,1,0],[3,0],[0]]","8","0","","","","","","6","",""
"","","","","","single-stim-button","323","1104405","0.0-3.0-34.2-1.2","5d658bd7d70c7100014cfc3d","B2","batch2","","594","","","tol_toboard","","","","","","","","","tol_peg_2","594","594","0","[[3,0,0],[2,1],[0]]","3","[[2,1,0],[3,0],[0]]","8","0","","","","","","6","",""
"","","","","","single-stim-button","324","1105054","0.0-3.0-34.3-0.3","5d658bd7d70c7100014cfc3d","B2","batch2","","647","","","tol_tohand","","","","","","","","","tol_peg_1","647","647","0","[[0,0,0],[2,1],[0]]","4","[[2,1,0],[3,0],[0]]","8","0","","","","","","6","",""
"","","","","","single-stim-button","325","1106131","0.0-3.0-34.3-1.3","5d658bd7d70c7100014cfc3d","B2","batch2","","1076","","","tol_toboard","","","","","","","","","tol_peg_3","1076","1076","0","[[0,0,0],[2,1],[3]]","4","[[2,1,0],[3,0],[0]]","8","0","","","","","","6","",""
"","","","","","single-stim-button","326","1109085","0.0-3.0-34.4-0.4","5d658bd7d70c7100014cfc3d","B2","batch2","","2954","","","tol_tohand","","","","","","","","","tol_peg_2","2954","2954","0","[[0,0,0],[2,0],[3]]","5","[[2,1,0],[3,0],[0]]","8","0","","","","","","6","",""
"","","","","","single-stim-button","327","1110374","0.0-3.0-34.4-1.4","5d658bd7d70c7100014cfc3d","B2","batch2","","1287","","","tol_toboard","","","","","","","","","tol_peg_1","1287","1287","0","[[1,0,0],[2,0],[3]]","5","[[2,1,0],[3,0],[0]]","8","0","","","","","","6","",""
"","","","","","single-stim-button","328","1112546","0.0-3.0-34.5-0.5","5d658bd7d70c7100014cfc3d","B2","batch2","","2172","","","tol_tohand","","","","","","","","","tol_peg_3","2172","2172","0","[[1,0,0],[2,0],[0]]","6","[[2,1,0],[3,0],[0]]","8","0","","","","","","6","",""
"","","","","","single-stim-button","329","1113350","0.0-3.0-34.5-1.5","5d658bd7d70c7100014cfc3d","B2","batch2","","803","","","tol_toboard","","","","","","","","","tol_peg_2","803","803","0","[[1,0,0],[2,3],[0]]","6","[[2,1,0],[3,0],[0]]","8","0","","","","","","6","",""
"","","","","","single-stim-button","330","1114124","0.0-3.0-34.6-0.6","5d658bd7d70c7100014cfc3d","B2","batch2","","774","","","tol_tohand","","","","","","","","","tol_peg_1","774","774","0","[[0,0,0],[2,3],[0]]","7","[[2,1,0],[3,0],[0]]","8","0","","","","","","6","",""
"","","","","","single-stim-button","331","1114906","0.0-3.0-34.6-1.6","5d658bd7d70c7100014cfc3d","B2","batch2","","781","","","tol_toboard","","","","","","","","","tol_peg_3","781","781","0","[[0,0,0],[2,3],[1]]","7","[[2,1,0],[3,0],[0]]","8","0","","","","","","6","",""
"","","","","","single-stim-button","332","1116248","0.0-3.0-34.7-0.7","5d658bd7d70c7100014cfc3d","B2","batch2","","1342","","","tol_tohand","","","","","","","","","tol_peg_2","1342","1342","0","[[0,0,0],[2,0],[1]]","8","[[2,1,0],[3,0],[0]]","8","0","","","","","","6","",""
"","","","","","single-stim-button","333","1119358","0.0-3.0-34.7-1.7","5d658bd7d70c7100014cfc3d","B2","batch2","","3110","","","tol_toboard","","","","","","","","","tol_peg_2","3110","3110","0","[[0,0,0],[2,3],[1]]","8","[[2,1,0],[3,0],[0]]","8","0","","","","","","6","",""
"","","","","","single-stim-button","334","1123968","0.0-3.0-34.8-0.8","5d658bd7d70c7100014cfc3d","B2","batch2","","4610","","","tol_tohand","","","","","","","","","tol_peg_2","4610","4610","0","[[0,0,0],[2,0],[1]]","9","[[2,1,0],[3,0],[0]]","8","0","","","","","","6","",""
"","","","","","single-stim-button","335","1124796","0.0-3.0-34.8-1.8","5d658bd7d70c7100014cfc3d","B2","batch2","","827","","","tol_toboard","","","","","","","","","tol_peg_1","827","827","0","[[3,0,0],[2,0],[1]]","9","[[2,1,0],[3,0],[0]]","8","0","","","","","","6","",""
"","","","","","single-stim-button","336","1125617","0.0-3.0-34.9-0.9","5d658bd7d70c7100014cfc3d","B2","batch2","","820","","","tol_tohand","","","","","","","","","tol_peg_3","820","820","0","[[3,0,0],[2,0],[0]]","10","[[2,1,0],[3,0],[0]]","8","0","","","","","","6","",""
"","","","","","single-stim-button","337","1126482","0.0-3.0-34.9-1.9","5d658bd7d70c7100014cfc3d","B2","batch2","","865","","","tol_toboard","","","","","","","","","tol_peg_1","865","865","0","[[3,1,0],[2,0],[0]]","10","[[2,1,0],[3,0],[0]]","8","0","","","","","","6","",""
"","","","","","single-stim-button","338","1127154","0.0-3.0-34.10-0.10","5d658bd7d70c7100014cfc3d","B2","batch2","","672","","","tol_tohand","","","","","","","","","tol_peg_2","672","672","0","[[3,1,0],[0,0],[0]]","11","[[2,1,0],[3,0],[0]]","8","0","","","","","","6","",""
"","","","","","single-stim-button","339","1127756","0.0-3.0-34.10-1.10","5d658bd7d70c7100014cfc3d","B2","batch2","","601","","","tol_toboard","","","","","","","","","tol_peg_3","601","601","0","[[3,1,0],[0,0],[2]]","11","[[2,1,0],[3,0],[0]]","8","0","","","","","","6","",""
"","","","","","single-stim-button","340","1128560","0.0-3.0-34.11-0.11","5d658bd7d70c7100014cfc3d","B2","batch2","","803","","","tol_tohand","","","","","","","","","tol_peg_1","803","803","0","[[3,0,0],[0,0],[2]]","12","[[2,1,0],[3,0],[0]]","8","0","","","","","","6","",""
"","","","","","single-stim-button","341","1129576","0.0-3.0-34.11-1.11","5d658bd7d70c7100014cfc3d","B2","batch2","","1016","","","tol_toboard","","","","","","","","","tol_peg_2","1016","1016","0","[[3,0,0],[1,0],[2]]","12","[[2,1,0],[3,0],[0]]","8","0","","","","","","6","",""
"","","","","","single-stim-button","342","1130772","0.0-3.0-34.12-0.12","5d658bd7d70c7100014cfc3d","B2","batch2","","1196","","","tol_tohand","","","","","","","","","tol_peg_1","1196","1196","0","[[0,0,0],[1,0],[2]]","13","[[2,1,0],[3,0],[0]]","8","0","","","","","","6","",""
"","","","","","single-stim-button","343","1131482","0.0-3.0-34.12-1.12","5d658bd7d70c7100014cfc3d","B2","batch2","","709","","","tol_toboard","","","","","","","","","tol_peg_2","709","709","0","[[0,0,0],[1,3],[2]]","13","[[2,1,0],[3,0],[0]]","8","0","","","","","","6","",""
"","","","","","single-stim-button","344","1132047","0.0-3.0-34.13-0.13","5d658bd7d70c7100014cfc3d","B2","batch2","","564","","","tol_tohand","","","","","","","","","tol_peg_3","564","564","0","[[0,0,0],[1,3],[0]]","14","[[2,1,0],[3,0],[0]]","8","0","","","","","","6","",""
"","","","","","single-stim-button","345","1132739","0.0-3.0-34.13-1.13","5d658bd7d70c7100014cfc3d","B2","batch2","","692","","","tol_toboard","","","","","","","","","tol_peg_1","692","692","0","[[2,0,0],[1,3],[0]]","14","[[2,1,0],[3,0],[0]]","8","0","","","","","","6","",""
"","","","","","single-stim-button","346","1133601","0.0-3.0-34.14-0.14","5d658bd7d70c7100014cfc3d","B2","batch2","","861","","","tol_tohand","","","","","","","","","tol_peg_2","861","861","0","[[2,0,0],[1,0],[0]]","15","[[2,1,0],[3,0],[0]]","8","0","","","","","","6","",""
