"success","timeout","failed_images","failed_audio","failed_video","trial_type","trial_index","time_elapsed","internal_node_id","subject_id","study_id","session_id","view_history","rt","stimulus","response","task","correct","answer","item","fiar_detect_rt","fiar_detect_correct","total_correct_fiar_detect","post_trial_gap","choices","spm_correct","spm_rt","mouse_click","stim_duration","block_duration","timing_post_trial","current_position","tol_num_moves_made","tol_target","tol_problem_id","tol_rt","key_press","possible_responses","tol_correct","preplanning","tol_rt_per_trial","tol_min_moves"
"true","false","[]","[]","[]","preload","0","4330","0.0-0.0","5d6ef023cfe0a400198f911e","F1","batch6","","","","","","","","","","","","","","","","","","","","","","","","","","","","","",""
"true","","","","","fullscreen","1","20009","0.0-1.0-0.0","5d6ef023cfe0a400198f911e","F1","batch6","","","","","","","","","","","","","","","","","","","","","","","","","","","","","",""
"true","","","","","fullscreen","2","24992","0.0-2.0-0.0","5d6ef023cfe0a400198f911e","F1","batch6","","","","","","","","","","","","","","","","","","","","","","","","","","","","","",""
"","","","","","instructions","3","56838","0.0-2.0-1.0-0.0","5d6ef023cfe0a400198f911e","F1","batch6","[{""page_index"":0,""viewing_time"":24988},{""page_index"":1,""viewing_time"":6856}]","31844","","","","","","","","","","","","","","","","","","","","","","","","","","","",""
"","","","","","html-button-response","4","59557","0.0-2.0-1.0-1.0-0.0","5d6ef023cfe0a400198f911e","F1","batch6","","2719","<p class=block-text> Let's answer a few questions <br>","0","pattern_enter_quiz","","","","","","","","","","","","","","","","","","","","","","","","",""
"","","","","","html-button-response","5","63197","0.0-2.0-1.0-1.0-1.0","5d6ef023cfe0a400198f911e","F1","batch6","","3639","<p class = block-text>True or False: You will have as much time as you want to make each choice. <br></p>","1","pattern_quiz","true","","","","","","","","","","","","","","","","","","","","","","","",""
"","","","","","html-button-response","6","64998","0.0-2.0-1.0-1.0-2.0","5d6ef023cfe0a400198f911e","F1","batch6","","1799","<p class = block-text>Correct! You should make your choice <strong> as fast as you can</strong>.</p>","0","pattern_quiz_feedback","","","","","","","","","","","","","","","","","","","","","","","","",""
"","","","","","html-button-response","7","69350","0.0-2.0-1.0-1.0-3.0","5d6ef023cfe0a400198f911e","F1","batch6","","4351","<p class = block-text>True or False: You will look for 4 pieces in black or white color connected in a row either horizontally, vertically or diagonally. <br></p>","0","pattern_quiz","true","","","","","","","","","","","","","","","","","","","","","","","",""
"","","","","","html-button-response","8","70087","0.0-2.0-1.0-1.0-4.0","5d6ef023cfe0a400198f911e","F1","batch6","","735","<p class = block-text>Correct! </p>","0","pattern_quiz_feedback","","","","","","","","","","","","","","","","","","","","","","","","",""
"","","","","","html-button-response","9","73558","0.0-2.0-2.0","5d6ef023cfe0a400198f911e","F1","batch6","","3471","<p class=block-text> Now that you've understood the game, let's do a few practice trials before we start!<br> <br>","0","pattern_enter_practice","","","","","","","","","","","","","","","","","","","","","","","","",""
"","","","","","image-keyboard-response","10","77884","0.0-2.0-3.0-0.0","5d6ef023cfe0a400198f911e","F1","batch6","","4317","stim/prac_no_16_1.png","j","pattern_practice","true","j","","","","","","","","","","","","","","","","","","","","","","",""
"","","","","","html-keyboard-response","11","78907","0.0-2.0-3.0-1.0","5d6ef023cfe0a400198f911e","F1","batch6","","null","<p style=""font-size:30px;color:green;"">Correct!</p>","null","pattern_feedback","","","","","","","","","","","","","","","","","","","","","","","","",""
"","","","","","image-keyboard-response","12","80502","0.0-2.0-3.0-0.1","5d6ef023cfe0a400198f911e","F1","batch6","","1589","stim/prac_yes_18_hor_w1.png","f","pattern_practice","true","f","","","","","","","","","","","","","","","","","","","","","","",""
"","","","","","html-keyboard-response","13","81511","0.0-2.0-3.0-1.1","5d6ef023cfe0a400198f911e","F1","batch6","","null","<p style=""font-size:30px;color:green;"">Correct!</p>","null","pattern_feedback","","","","","","","","","","","","","","","","","","","","","","","","",""
"","","","","","image-keyboard-response","14","83921","0.0-2.0-3.0-0.2","5d6ef023cfe0a400198f911e","F1","batch6","","2404","stim/prac_yes_20_dia_b1.png","f","pattern_practice","true","f","","","","","","","","","","","","","","","","","","","","","","",""
"","","","","","html-keyboard-response","15","84945","0.0-2.0-3.0-1.2","5d6ef023cfe0a400198f911e","F1","batch6","","null","<p style=""font-size:30px;color:green;"">Correct!</p>","null","pattern_feedback","","","","","","","","","","","","","","","","","","","","","","","","",""
"","","","","","image-keyboard-response","16","87101","0.0-2.0-3.0-0.3","5d6ef023cfe0a400198f911e","F1","batch6","","2150","stim/prac_no_18_1.png","j","pattern_practice","true","j","","","","","","","","","","","","","","","","","","","","","","",""
"","","","","","html-keyboard-response","17","88114","0.0-2.0-3.0-1.3","5d6ef023cfe0a400198f911e","F1","batch6","","null","<p style=""font-size:30px;color:green;"">Correct!</p>","null","pattern_feedback","","","","","","","","","","","","","","","","","","","","","","","","",""
"","","","","","image-keyboard-response","18","88953","0.0-2.0-3.0-0.4","5d6ef023cfe0a400198f911e","F1","batch6","","833","stim/prac_yes_16_ver_w1.png","f","pattern_practice","true","f","","","","","","","","","","","","","","","","","","","","","","",""
"","","","","","html-keyboard-response","19","89983","0.0-2.0-3.0-1.4","5d6ef023cfe0a400198f911e","F1","batch6","","null","<p style=""font-size:30px;color:green;"">Correct!</p>","null","pattern_feedback","","","","","","","","","","","","","","","","","","","","","","","","",""
"","","","","","html-button-response","20","93503","0.0-2.0-4.0","5d6ef023cfe0a400198f911e","F1","batch6","","3519","<p class=block-text> Good job! You are done with practice trials!<br>
        You responded correctly on 100% of the trials.<br>
        Press the button below to start official trials. Now you won't see any feedback about your response</p>","0","pattern_enter_official_trials","","","","","","","","","","","","","","","","","","","","","","","","",""
"","","","","","html-keyboard-response","21","94307","0.0-2.0-5.0-0.0","5d6ef023cfe0a400198f911e","F1","batch6","","null","<p class=block-text>Trial 1 out of 78</p>","null","pattern_show_trial_num","","","","","","","","","","","","","","","","","","","","","","","","",""
"","","","","","image-keyboard-response","22","98117","0.0-2.0-5.0-1.0","5d6ef023cfe0a400198f911e","F1","batch6","","3804","stim/no_45_1_w.png","j","pattern_response","true","j","pattern_25","3804","true","1","","","","","","","","","","","","","","","","","","",""
"","","","","","html-keyboard-response","23","99437","0.0-2.0-5.0-0.1","5d6ef023cfe0a400198f911e","F1","batch6","","null","<p class=block-text>Trial 2 out of 78</p>","null","pattern_show_trial_num","","","","","","","","","","","","","","","","","","","","","","","","",""
"","","","","","image-keyboard-response","24","101215","0.0-2.0-5.0-1.1","5d6ef023cfe0a400198f911e","F1","batch6","","1771","stim/no_12_1.png","j","pattern_response","true","j","pattern_01","1771","true","2","","","","","","","","","","","","","","","","","","",""
"","","","","","html-keyboard-response","25","102538","0.0-2.0-5.0-0.2","5d6ef023cfe0a400198f911e","F1","batch6","","null","<p class=block-text>Trial 3 out of 78</p>","null","pattern_show_trial_num","","","","","","","","","","","","","","","","","","","","","","","","",""
"","","","","","image-keyboard-response","26","103551","0.0-2.0-5.0-1.2","5d6ef023cfe0a400198f911e","F1","batch6","","1008","stim/yes_23_ver_b1.png","f","pattern_response","true","f","pattern_48","1008","true","3","","","","","","","","","","","","","","","","","","",""
"","","","","","html-keyboard-response","27","104877","0.0-2.0-5.0-0.3","5d6ef023cfe0a400198f911e","F1","batch6","","null","<p class=block-text>Trial 4 out of 78</p>","null","pattern_show_trial_num","","","","","","","","","","","","","","","","","","","","","","","","",""
"","","","","","image-keyboard-response","28","108294","0.0-2.0-5.0-1.3","5d6ef023cfe0a400198f911e","F1","batch6","","3410","stim/yes_33_dia_w1_w.png","f","pattern_response","true","f","pattern_56","3410","true","4","","","","","","","","","","","","","","","","","","",""
"","","","","","html-keyboard-response","29","109602","0.0-2.0-5.0-0.4","5d6ef023cfe0a400198f911e","F1","batch6","","null","<p class=block-text>Trial 5 out of 78</p>","null","pattern_show_trial_num","","","","","","","","","","","","","","","","","","","","","","","","",""
"","","","","","image-keyboard-response","30","110789","0.0-2.0-5.0-1.4","5d6ef023cfe0a400198f911e","F1","batch6","","1181","stim/no_53_1_b.png","f","pattern_response","false","j","pattern_33","1181","false","4","","","","","","","","","","","","","","","","","","",""
"","","","","","html-keyboard-response","31","112112","0.0-2.0-5.0-0.5","5d6ef023cfe0a400198f911e","F1","batch6","","null","<p class=block-text>Trial 6 out of 78</p>","null","pattern_show_trial_num","","","","","","","","","","","","","","","","","","","","","","","","",""
"","","","","","image-keyboard-response","32","113656","0.0-2.0-5.0-1.5","5d6ef023cfe0a400198f911e","F1","batch6","","1539","stim/yes_44_ver_w1_w.png","f","pattern_response","true","f","pattern_66","1539","true","5","","","","","","","","","","","","","","","","","","",""
"","","","","","html-keyboard-response","33","114979","0.0-2.0-5.0-0.6","5d6ef023cfe0a400198f911e","F1","batch6","","null","<p class=block-text>Trial 7 out of 78</p>","null","pattern_show_trial_num","","","","","","","","","","","","","","","","","","","","","","","","",""
"","","","","","image-keyboard-response","34","118346","0.0-2.0-5.0-1.6","5d6ef023cfe0a400198f911e","F1","batch6","","3361","stim/no_37_2_w.png","j","pattern_response","true","j","pattern_19","3361","true","6","","","","","","","","","","","","","","","","","","",""
"","","","","","html-keyboard-response","35","119647","0.0-2.0-5.0-0.7","5d6ef023cfe0a400198f911e","F1","batch6","","null","<p class=block-text>Trial 8 out of 78</p>","null","pattern_show_trial_num","","","","","","","","","","","","","","","","","","","","","","","","",""
"","","","","","image-keyboard-response","36","123326","0.0-2.0-5.0-1.7","5d6ef023cfe0a400198f911e","F1","batch6","","3673","stim/no_39_1_w.png","j","pattern_response","true","j","pattern_21","3673","true","7","","","","","","","","","","","","","","","","","","",""
"","","","","","html-keyboard-response","37","124634","0.0-2.0-5.0-0.8","5d6ef023cfe0a400198f911e","F1","batch6","","null","<p class=block-text>Trial 9 out of 78</p>","null","pattern_show_trial_num","","","","","","","","","","","","","","","","","","","","","","","","",""
"","","","","","image-keyboard-response","38","127850","0.0-2.0-5.0-1.8","5d6ef023cfe0a400198f911e","F1","batch6","","3210","stim/no_30_1_b.png","j","pattern_response","true","j","pattern_13","3210","true","8","","","","","","","","","","","","","","","","","","",""
"","","","","","html-keyboard-response","39","129171","0.0-2.0-5.0-0.9","5d6ef023cfe0a400198f911e","F1","batch6","","null","<p class=block-text>Trial 10 out of 78</p>","null","pattern_show_trial_num","","","","","","","","","","","","","","","","","","","","","","","","",""
"","","","","","image-keyboard-response","40","130248","0.0-2.0-5.0-1.9","5d6ef023cfe0a400198f911e","F1","batch6","","1071","stim/yes_17_ver_b1_b.png","f","pattern_response","true","f","pattern_46","1071","true","9","","","","","","","","","","","","","","","","","","",""
"","","","","","html-keyboard-response","41","131569","0.0-2.0-5.0-0.10","5d6ef023cfe0a400198f911e","F1","batch6","","null","<p class=block-text>Trial 11 out of 78</p>","null","pattern_show_trial_num","","","","","","","","","","","","","","","","","","","","","","","","",""
"","","","","","image-keyboard-response","42","133148","0.0-2.0-5.0-1.10","5d6ef023cfe0a400198f911e","F1","batch6","","1573","stim/yes_15_dia_b1u_b.png","f","pattern_response","true","f","pattern_44","1573","true","10","","","","","","","","","","","","","","","","","","",""
"","","","","","html-keyboard-response","43","134470","0.0-2.0-5.0-0.11","5d6ef023cfe0a400198f911e","F1","batch6","","null","<p class=block-text>Trial 12 out of 78</p>","null","pattern_show_trial_num","","","","","","","","","","","","","","","","","","","","","","","","",""
"","","","","","image-keyboard-response","44","136293","0.0-2.0-5.0-1.11","5d6ef023cfe0a400198f911e","F1","batch6","","1817","stim/yes_30_ver_b1_b.png","f","pattern_response","true","f","pattern_54","1817","true","11","","","","","","","","","","","","","","","","","","",""
"","","","","","html-keyboard-response","45","137616","0.0-2.0-5.0-0.12","5d6ef023cfe0a400198f911e","F1","batch6","","null","<p class=block-text>Trial 13 out of 78</p>","null","pattern_show_trial_num","","","","","","","","","","","","","","","","","","","","","","","","",""
"","","","","","image-keyboard-response","46","143714","0.0-2.0-5.0-1.12","5d6ef023cfe0a400198f911e","F1","batch6","","6093","stim/yes_63_dia_b1.png","j","pattern_response","false","f","pattern_78","6093","false","11","","","","","","","","","","","","","","","","","","",""
"","","","","","html-keyboard-response","47","145033","0.0-2.0-5.0-0.13","5d6ef023cfe0a400198f911e","F1","batch6","","null","<p class=block-text>Trial 14 out of 78</p>","null","pattern_show_trial_num","","","","","","","","","","","","","","","","","","","","","","","","",""
"","","","","","image-keyboard-response","48","151583","0.0-2.0-5.0-1.13","5d6ef023cfe0a400198f911e","F1","batch6","","6545","stim/yes_46_ver_b1_b.png","j","pattern_response","false","f","pattern_68","6545","false","11","","","","","","","","","","","","","","","","","","",""
"","","","","","html-keyboard-response","49","152898","0.0-2.0-5.0-0.14","5d6ef023cfe0a400198f911e","F1","batch6","","null","<p class=block-text>Trial 15 out of 78</p>","null","pattern_show_trial_num","","","","","","","","","","","","","","","","","","","","","","","","",""
"","","","","","image-keyboard-response","50","158643","0.0-2.0-5.0-1.14","5d6ef023cfe0a400198f911e","F1","batch6","","5740","stim/no_49_2_b.png","j","pattern_response","true","j","pattern_29","5740","true","12","","","","","","","","","","","","","","","","","","",""
"","","","","","html-keyboard-response","51","159960","0.0-2.0-5.0-0.15","5d6ef023cfe0a400198f911e","F1","batch6","","null","<p class=block-text>Trial 16 out of 78</p>","null","pattern_show_trial_num","","","","","","","","","","","","","","","","","","","","","","","","",""
"","","","","","image-keyboard-response","52","165606","0.0-2.0-5.0-1.15","5d6ef023cfe0a400198f911e","F1","batch6","","5640","stim/no_36_1_b.png","j","pattern_response","true","j","pattern_17","5640","true","13","","","","","","","","","","","","","","","","","","",""
"","","","","","html-keyboard-response","53","166929","0.0-2.0-5.0-0.16","5d6ef023cfe0a400198f911e","F1","batch6","","null","<p class=block-text>Trial 17 out of 78</p>","null","pattern_show_trial_num","","","","","","","","","","","","","","","","","","","","","","","","",""
"","","","","","image-keyboard-response","54","167722","0.0-2.0-5.0-1.16","5d6ef023cfe0a400198f911e","F1","batch6","","787","stim/yes_36_ver_w1_w.png","f","pattern_response","true","f","pattern_58","787","true","14","","","","","","","","","","","","","","","","","","",""
"","","","","","html-keyboard-response","55","169047","0.0-2.0-5.0-0.17","5d6ef023cfe0a400198f911e","F1","batch6","","null","<p class=block-text>Trial 18 out of 78</p>","null","pattern_show_trial_num","","","","","","","","","","","","","","","","","","","","","","","","",""
"","","","","","image-keyboard-response","56","169792","0.0-2.0-5.0-1.17","5d6ef023cfe0a400198f911e","F1","batch6","","738","stim/yes_29_hor_b1_b.png","f","pattern_response","true","f","pattern_52","738","true","15","","","","","","","","","","","","","","","","","","",""
"","","","","","html-keyboard-response","57","171107","0.0-2.0-5.0-0.18","5d6ef023cfe0a400198f911e","F1","batch6","","null","<p class=block-text>Trial 19 out of 78</p>","null","pattern_show_trial_num","","","","","","","","","","","","","","","","","","","","","","","","",""
"","","","","","image-keyboard-response","58","177412","0.0-2.0-5.0-1.18","5d6ef023cfe0a400198f911e","F1","batch6","","6300","stim/no_67_1.png","j","pattern_response","true","j","pattern_39","6300","true","16","","","","","","","","","","","","","","","","","","",""
"","","","","","html-keyboard-response","59","178735","0.0-2.0-5.0-0.19","5d6ef023cfe0a400198f911e","F1","batch6","","null","<p class=block-text>Trial 20 out of 78</p>","null","pattern_show_trial_num","","","","","","","","","","","","","","","","","","","","","","","","",""
"","","","","","image-keyboard-response","60","180031","0.0-2.0-5.0-1.19","5d6ef023cfe0a400198f911e","F1","batch6","","1289","stim/yes_53_ver_b1_b.png","f","pattern_response","true","f","pattern_74","1289","true","17","","","","","","","","","","","","","","","","","","",""
"","","","","","html-keyboard-response","61","181338","0.0-2.0-5.0-0.20","5d6ef023cfe0a400198f911e","F1","batch6","","null","<p class=block-text>Trial 21 out of 78</p>","null","pattern_show_trial_num","","","","","","","","","","","","","","","","","","","","","","","","",""
"","","","","","image-keyboard-response","62","184696","0.0-2.0-5.0-1.20","5d6ef023cfe0a400198f911e","F1","batch6","","3352","stim/no_22_1_b.png","j","pattern_response","true","j","pattern_07","3352","true","18","","","","","","","","","","","","","","","","","","",""
"","","","","","html-keyboard-response","63","186009","0.0-2.0-5.0-0.21","5d6ef023cfe0a400198f911e","F1","batch6","","null","<p class=block-text>Trial 22 out of 78</p>","null","pattern_show_trial_num","","","","","","","","","","","","","","","","","","","","","","","","",""
"","","","","","image-keyboard-response","64","190919","0.0-2.0-5.0-1.21","5d6ef023cfe0a400198f911e","F1","batch6","","4904","stim/no_51_1.png","j","pattern_response","true","j","pattern_31","4904","true","19","","","","","","","","","","","","","","","","","","",""
"","","","","","html-keyboard-response","65","192238","0.0-2.0-5.0-0.22","5d6ef023cfe0a400198f911e","F1","batch6","","null","<p class=block-text>Trial 23 out of 78</p>","null","pattern_show_trial_num","","","","","","","","","","","","","","","","","","","","","","","","",""
"","","","","","image-keyboard-response","66","193412","0.0-2.0-5.0-1.22","5d6ef023cfe0a400198f911e","F1","batch6","","1169","stim/yes_49_hor_w1_b.png","f","pattern_response","true","f","pattern_70","1169","true","20","","","","","","","","","","","","","","","","","","",""
"","","","","","html-keyboard-response","67","194735","0.0-2.0-5.0-0.23","5d6ef023cfe0a400198f911e","F1","batch6","","null","<p class=block-text>Trial 24 out of 78</p>","null","pattern_show_trial_num","","","","","","","","","","","","","","","","","","","","","","","","",""
"","","","","","image-keyboard-response","68","199362","0.0-2.0-5.0-1.23","5d6ef023cfe0a400198f911e","F1","batch6","","4619","stim/no_25_1_b.png","j","pattern_response","true","j","pattern_09","4619","true","21","","","","","","","","","","","","","","","","","","",""
"","","","","","html-keyboard-response","69","200674","0.0-2.0-5.0-0.24","5d6ef023cfe0a400198f911e","F1","batch6","","null","<p class=block-text>Trial 25 out of 78</p>","null","pattern_show_trial_num","","","","","","","","","","","","","","","","","","","","","","","","",""
"","","","","","image-keyboard-response","70","204587","0.0-2.0-5.0-1.24","5d6ef023cfe0a400198f911e","F1","batch6","","3907","stim/no_28_2.png","j","pattern_response","true","j","pattern_11","3907","true","22","","","","","","","","","","","","","","","","","","",""
"","","","","","html-keyboard-response","71","205909","0.0-2.0-5.0-0.25","5d6ef023cfe0a400198f911e","F1","batch6","","null","<p class=block-text>Trial 26 out of 78</p>","null","pattern_show_trial_num","","","","","","","","","","","","","","","","","","","","","","","","",""
"","","","","","image-keyboard-response","72","207092","0.0-2.0-5.0-1.25","5d6ef023cfe0a400198f911e","F1","batch6","","1177","stim/yes_37_hor_w1_w.png","f","pattern_response","true","f","pattern_60","1177","true","23","","","","","","","","","","","","","","","","","","",""
"","","","","","html-keyboard-response","73","208405","0.0-2.0-5.0-0.26","5d6ef023cfe0a400198f911e","F1","batch6","","null","<p class=block-text>Trial 27 out of 78</p>","null","pattern_show_trial_num","","","","","","","","","","","","","","","","","","","","","","","","",""
"","","","","","image-keyboard-response","74","212584","0.0-2.0-5.0-1.26","5d6ef023cfe0a400198f911e","F1","batch6","","4173","stim/no_33_1_b.png","j","pattern_response","true","j","pattern_15","4173","true","24","","","","","","","","","","","","","","","","","","",""
"","","","","","html-keyboard-response","75","213895","0.0-2.0-5.0-0.27","5d6ef023cfe0a400198f911e","F1","batch6","","null","<p class=block-text>Trial 28 out of 78</p>","null","pattern_show_trial_num","","","","","","","","","","","","","","","","","","","","","","","","",""
"","","","","","image-keyboard-response","76","218978","0.0-2.0-5.0-1.27","5d6ef023cfe0a400198f911e","F1","batch6","","5077","stim/no_43_2_b.png","j","pattern_response","true","j","pattern_23","5077","true","25","","","","","","","","","","","","","","","","","","",""
"","","","","","html-keyboard-response","77","220296","0.0-2.0-5.0-0.28","5d6ef023cfe0a400198f911e","F1","batch6","","null","<p class=block-text>Trial 29 out of 78</p>","null","pattern_show_trial_num","","","","","","","","","","","","","","","","","","","","","","","","",""
"","","","","","image-keyboard-response","78","221298","0.0-2.0-5.0-1.28","5d6ef023cfe0a400198f911e","F1","batch6","","995","stim/yes_70_ver_b1.png","f","pattern_response","true","f","pattern_80","995","true","26","","","","","","","","","","","","","","","","","","",""
"","","","","","html-keyboard-response","79","222618","0.0-2.0-5.0-0.29","5d6ef023cfe0a400198f911e","F1","batch6","","null","<p class=block-text>Trial 30 out of 78</p>","null","pattern_show_trial_num","","","","","","","","","","","","","","","","","","","","","","","","",""
"","","","","","image-keyboard-response","80","230008","0.0-2.0-5.0-1.29","5d6ef023cfe0a400198f911e","F1","batch6","","7384","stim/no_58_1_w.png","j","pattern_response","true","j","pattern_35","7384","true","27","","","","","","","","","","","","","","","","","","",""
"","","","","","html-keyboard-response","81","231323","0.0-2.0-5.0-0.30","5d6ef023cfe0a400198f911e","F1","batch6","","null","<p class=block-text>Trial 31 out of 78</p>","null","pattern_show_trial_num","","","","","","","","","","","","","","","","","","","","","","","","",""
"","","","","","image-keyboard-response","82","232972","0.0-2.0-5.0-1.30","5d6ef023cfe0a400198f911e","F1","batch6","","1643","stim/yes_51_dia_b1.png","f","pattern_response","true","f","pattern_72","1643","true","28","","","","","","","","","","","","","","","","","","",""
"","","","","","html-keyboard-response","83","234291","0.0-2.0-5.0-0.31","5d6ef023cfe0a400198f911e","F1","batch6","","null","<p class=block-text>Trial 32 out of 78</p>","null","pattern_show_trial_num","","","","","","","","","","","","","","","","","","","","","","","","",""
"","","","","","image-keyboard-response","84","239104","0.0-2.0-5.0-1.31","5d6ef023cfe0a400198f911e","F1","batch6","","4809","stim/yes_58_dia_w1_w.png","j","pattern_response","false","f","pattern_76","4809","false","28","","","","","","","","","","","","","","","","","","",""
"","","","","","html-keyboard-response","85","240419","0.0-2.0-5.0-0.32","5d6ef023cfe0a400198f911e","F1","batch6","","null","<p class=block-text>Trial 33 out of 78</p>","null","pattern_show_trial_num","","","","","","","","","","","","","","","","","","","","","","","","",""
"","","","","","image-keyboard-response","86","241591","0.0-2.0-5.0-1.32","5d6ef023cfe0a400198f911e","F1","batch6","","1165","stim/yes_26_dia_w2_w.png","f","pattern_response","true","f","pattern_50","1165","true","29","","","","","","","","","","","","","","","","","","",""
"","","","","","html-keyboard-response","87","242902","0.0-2.0-5.0-0.33","5d6ef023cfe0a400198f911e","F1","batch6","","null","<p class=block-text>Trial 34 out of 78</p>","null","pattern_show_trial_num","","","","","","","","","","","","","","","","","","","","","","","","",""
"","","","","","image-keyboard-response","88","247251","0.0-2.0-5.0-1.33","5d6ef023cfe0a400198f911e","F1","batch6","","4343","stim/no_47_1_b.png","j","pattern_response","true","j","pattern_27","4343","true","30","","","","","","","","","","","","","","","","","","",""
"","","","","","html-keyboard-response","89","248577","0.0-2.0-5.0-0.34","5d6ef023cfe0a400198f911e","F1","batch6","","null","<p class=block-text>Trial 35 out of 78</p>","null","pattern_show_trial_num","","","","","","","","","","","","","","","","","","","","","","","","",""
"","","","","","image-keyboard-response","90","249427","0.0-2.0-5.0-1.34","5d6ef023cfe0a400198f911e","F1","batch6","","844","stim/yes_39_hor_w1_w.png","f","pattern_response","true","f","pattern_62","844","true","31","","","","","","","","","","","","","","","","","","",""
"","","","","","html-keyboard-response","91","250746","0.0-2.0-5.0-0.35","5d6ef023cfe0a400198f911e","F1","batch6","","null","<p class=block-text>Trial 36 out of 78</p>","null","pattern_show_trial_num","","","","","","","","","","","","","","","","","","","","","","","","",""
"","","","","","image-keyboard-response","92","251448","0.0-2.0-5.0-1.35","5d6ef023cfe0a400198f911e","F1","batch6","","697","stim/yes_12_hor_w1_w.png","f","pattern_response","true","f","pattern_42","697","true","32","","","","","","","","","","","","","","","","","","",""
"","","","","","html-keyboard-response","93","252770","0.0-2.0-5.0-0.36","5d6ef023cfe0a400198f911e","F1","batch6","","null","<p class=block-text>Trial 37 out of 78</p>","null","pattern_show_trial_num","","","","","","","","","","","","","","","","","","","","","","","","",""
"","","","","","image-keyboard-response","94","257009","0.0-2.0-5.0-1.36","5d6ef023cfe0a400198f911e","F1","batch6","","4233","stim/yes_42_dia_w1_w.png","f","pattern_response","true","f","pattern_64","4233","true","33","","","","","","","","","","","","","","","","","","",""
"","","","","","html-keyboard-response","95","258337","0.0-2.0-5.0-0.37","5d6ef023cfe0a400198f911e","F1","batch6","","null","<p class=block-text>Trial 38 out of 78</p>","null","pattern_show_trial_num","","","","","","","","","","","","","","","","","","","","","","","","",""
"","","","","","image-keyboard-response","96","260056","0.0-2.0-5.0-1.37","5d6ef023cfe0a400198f911e","F1","batch6","","1713","stim/no_15_1_w.png","j","pattern_response","true","j","pattern_03","1713","true","34","","","","","","","","","","","","","","","","","","",""
"","","","","","html-keyboard-response","97","261384","0.0-2.0-5.0-0.38","5d6ef023cfe0a400198f911e","F1","batch6","","null","<p class=block-text>Trial 39 out of 78</p>","null","pattern_show_trial_num","","","","","","","","","","","","","","","","","","","","","","","","",""
"","","","","","image-keyboard-response","98","263075","0.0-2.0-5.0-1.38","5d6ef023cfe0a400198f911e","F1","batch6","","1684","stim/no_18_1_b.png","j","pattern_response","true","j","pattern_05","1684","true","35","","","","","","","","","","","","","","","","","","",""
"","","","","","image-keyboard-response","99","265959","0.0-2.0-6.0","5d6ef023cfe0a400198f911e","F1","batch6","","2376","stim/empty_board.png","j","attention_check","true","j","","","","","500","[""f"",""j""]","","","","","","","","","","","","","","","","",""
"","","","","","html-keyboard-response","100","266760","0.0-2.0-7.0-0.0","5d6ef023cfe0a400198f911e","F1","batch6","","null","<p class=block-text>Trial 40 out of 78</p>","null","pattern_show_trial_num","","","","","","","","","","","","","","","","","","","","","","","","",""
"","","","","","image-keyboard-response","101","271317","0.0-2.0-7.0-1.0","5d6ef023cfe0a400198f911e","F1","batch6","","4548","stim/no_29_1_b.png","j","pattern_response","true","j","pattern_12","4548","true","36","","","","","","","","","","","","","","","","","","",""
"","","","","","html-keyboard-response","102","272641","0.0-2.0-7.0-0.1","5d6ef023cfe0a400198f911e","F1","batch6","","null","<p class=block-text>Trial 41 out of 78</p>","null","pattern_show_trial_num","","","","","","","","","","","","","","","","","","","","","","","","",""
"","","","","","image-keyboard-response","103","274649","0.0-2.0-7.0-1.1","5d6ef023cfe0a400198f911e","F1","batch6","","2000","stim/no_17_1_w.png","j","pattern_response","true","j","pattern_04","2000","true","37","","","","","","","","","","","","","","","","","","",""
"","","","","","html-keyboard-response","104","275970","0.0-2.0-7.0-0.2","5d6ef023cfe0a400198f911e","F1","batch6","","null","<p class=block-text>Trial 42 out of 78</p>","null","pattern_show_trial_num","","","","","","","","","","","","","","","","","","","","","","","","",""
"","","","","","image-keyboard-response","105","281655","0.0-2.0-7.0-1.2","5d6ef023cfe0a400198f911e","F1","batch6","","5679","stim/no_50_1.png","j","pattern_response","true","j","pattern_30","5679","true","38","","","","","","","","","","","","","","","","","","",""
"","","","","","html-keyboard-response","106","282967","0.0-2.0-7.0-0.3","5d6ef023cfe0a400198f911e","F1","batch6","","null","<p class=block-text>Trial 43 out of 78</p>","null","pattern_show_trial_num","","","","","","","","","","","","","","","","","","","","","","","","",""
"","","","","","image-keyboard-response","107","287251","0.0-2.0-7.0-1.3","5d6ef023cfe0a400198f911e","F1","batch6","","4279","stim/no_48_1_w.png","j","pattern_response","true","j","pattern_28","4279","true","39","","","","","","","","","","","","","","","","","","",""
"","","","","","html-keyboard-response","108","288571","0.0-2.0-7.0-0.4","5d6ef023cfe0a400198f911e","F1","batch6","","null","<p class=block-text>Trial 44 out of 78</p>","null","pattern_show_trial_num","","","","","","","","","","","","","","","","","","","","","","","","",""
"","","","","","image-keyboard-response","109","295544","0.0-2.0-7.0-1.4","5d6ef023cfe0a400198f911e","F1","batch6","","6968","stim/no_70_2.png","j","pattern_response","true","j","pattern_40","6968","true","40","","","","","","","","","","","","","","","","","","",""
"","","","","","html-keyboard-response","110","296860","0.0-2.0-7.0-0.5","5d6ef023cfe0a400198f911e","F1","batch6","","null","<p class=block-text>Trial 45 out of 78</p>","null","pattern_show_trial_num","","","","","","","","","","","","","","","","","","","","","","","","",""
"","","","","","image-keyboard-response","111","302891","0.0-2.0-7.0-1.5","5d6ef023cfe0a400198f911e","F1","batch6","","6024","stim/no_36_2_w.png","j","pattern_response","true","j","pattern_18","6024","true","41","","","","","","","","","","","","","","","","","","",""
"","","","","","html-keyboard-response","112","304211","0.0-2.0-7.0-0.6","5d6ef023cfe0a400198f911e","F1","batch6","","null","<p class=block-text>Trial 46 out of 78</p>","null","pattern_show_trial_num","","","","","","","","","","","","","","","","","","","","","","","","",""
"","","","","","image-keyboard-response","113","305097","0.0-2.0-7.0-1.6","5d6ef023cfe0a400198f911e","F1","batch6","","881","stim/yes_25_hor_b1_b.png","f","pattern_response","true","f","pattern_49","881","true","42","","","","","","","","","","","","","","","","","","",""
"","","","","","html-keyboard-response","114","306414","0.0-2.0-7.0-0.7","5d6ef023cfe0a400198f911e","F1","batch6","","null","<p class=block-text>Trial 47 out of 78</p>","null","pattern_show_trial_num","","","","","","","","","","","","","","","","","","","","","","","","",""
"","","","","","image-keyboard-response","115","309883","0.0-2.0-7.0-1.7","5d6ef023cfe0a400198f911e","F1","batch6","","3463","stim/yes_50_dia_w1.png","f","pattern_response","true","f","pattern_71","3463","true","43","","","","","","","","","","","","","","","","","","",""
"","","","","","html-keyboard-response","116","311201","0.0-2.0-7.0-0.8","5d6ef023cfe0a400198f911e","F1","batch6","","null","<p class=block-text>Trial 48 out of 78</p>","null","pattern_show_trial_num","","","","","","","","","","","","","","","","","","","","","","","","",""
"","","","","","image-keyboard-response","117","315401","0.0-2.0-7.0-1.8","5d6ef023cfe0a400198f911e","F1","batch6","","4195","stim/no_52_1.png","j","pattern_response","true","j","pattern_32","4195","true","44","","","","","","","","","","","","","","","","","","",""
"","","","","","html-keyboard-response","118","316723","0.0-2.0-7.0-0.9","5d6ef023cfe0a400198f911e","F1","batch6","","null","<p class=block-text>Trial 49 out of 78</p>","null","pattern_show_trial_num","","","","","","","","","","","","","","","","","","","","","","","","",""
"","","","","","image-keyboard-response","119","320801","0.0-2.0-7.0-1.9","5d6ef023cfe0a400198f911e","F1","batch6","","4073","stim/yes_40_dia_b1_b.png","f","pattern_response","true","f","pattern_63","4073","true","45","","","","","","","","","","","","","","","","","","",""
"","","","","","html-keyboard-response","120","322126","0.0-2.0-7.0-0.10","5d6ef023cfe0a400198f911e","F1","batch6","","null","<p class=block-text>Trial 50 out of 78</p>","null","pattern_show_trial_num","","","","","","","","","","","","","","","","","","","","","","","","",""
"","","","","","image-keyboard-response","121","327339","0.0-2.0-7.0-1.10","5d6ef023cfe0a400198f911e","F1","batch6","","5207","stim/no_42_1_w.png","j","pattern_response","true","j","pattern_22","5207","true","46","","","","","","","","","","","","","","","","","","",""
"","","","","","html-keyboard-response","122","328660","0.0-2.0-7.0-0.11","5d6ef023cfe0a400198f911e","F1","batch6","","null","<p class=block-text>Trial 51 out of 78</p>","null","pattern_show_trial_num","","","","","","","","","","","","","","","","","","","","","","","","",""
"","","","","","image-keyboard-response","123","330366","0.0-2.0-7.0-1.11","5d6ef023cfe0a400198f911e","F1","batch6","","1700","stim/no_13_2_b.png","j","pattern_response","true","j","pattern_02","1700","true","47","","","","","","","","","","","","","","","","","","",""
"","","","","","html-keyboard-response","124","331687","0.0-2.0-7.0-0.12","5d6ef023cfe0a400198f911e","F1","batch6","","null","<p class=block-text>Trial 52 out of 78</p>","null","pattern_show_trial_num","","","","","","","","","","","","","","","","","","","","","","","","",""
"","","","","","image-keyboard-response","125","333609","0.0-2.0-7.0-1.12","5d6ef023cfe0a400198f911e","F1","batch6","","1917","stim/yes_31_hor_b1.png","f","pattern_response","true","f","pattern_55","1917","true","48","","","","","","","","","","","","","","","","","","",""
"","","","","","html-keyboard-response","126","334931","0.0-2.0-7.0-0.13","5d6ef023cfe0a400198f911e","F1","batch6","","null","<p class=block-text>Trial 53 out of 78</p>","null","pattern_show_trial_num","","","","","","","","","","","","","","","","","","","","","","","","",""
"","","","","","image-keyboard-response","127","340467","0.0-2.0-7.0-1.13","5d6ef023cfe0a400198f911e","F1","batch6","","5532","stim/no_55_1_w.png","j","pattern_response","true","j","pattern_34","5532","true","49","","","","","","","","","","","","","","","","","","",""
"","","","","","html-keyboard-response","128","341788","0.0-2.0-7.0-0.14","5d6ef023cfe0a400198f911e","F1","batch6","","null","<p class=block-text>Trial 54 out of 78</p>","null","pattern_show_trial_num","","","","","","","","","","","","","","","","","","","","","","","","",""
"","","","","","image-keyboard-response","129","344611","0.0-2.0-7.0-1.14","5d6ef023cfe0a400198f911e","F1","batch6","","2817","stim/no_32_1_w.png","j","pattern_response","true","j","pattern_14","2817","true","50","","","","","","","","","","","","","","","","","","",""
"","","","","","html-keyboard-response","130","345934","0.0-2.0-7.0-0.15","5d6ef023cfe0a400198f911e","F1","batch6","","null","<p class=block-text>Trial 55 out of 78</p>","null","pattern_show_trial_num","","","","","","","","","","","","","","","","","","","","","","","","",""
"","","","","","image-keyboard-response","131","351072","0.0-2.0-7.0-1.15","5d6ef023cfe0a400198f911e","F1","batch6","","5131","stim/no_62_1_w.png","j","pattern_response","true","j","pattern_36","5131","true","51","","","","","","","","","","","","","","","","","","",""
"","","","","","html-keyboard-response","132","352386","0.0-2.0-7.0-0.16","5d6ef023cfe0a400198f911e","F1","batch6","","null","<p class=block-text>Trial 56 out of 78</p>","null","pattern_show_trial_num","","","","","","","","","","","","","","","","","","","","","","","","",""
"","","","","","image-keyboard-response","133","355189","0.0-2.0-7.0-1.16","5d6ef023cfe0a400198f911e","F1","batch6","","2796","stim/yes_48_dia_w1_w.png","f","pattern_response","true","f","pattern_69","2796","true","52","","","","","","","","","","","","","","","","","","",""
"","","","","","html-keyboard-response","134","356510","0.0-2.0-7.0-0.17","5d6ef023cfe0a400198f911e","F1","batch6","","null","<p class=block-text>Trial 57 out of 78</p>","null","pattern_show_trial_num","","","","","","","","","","","","","","","","","","","","","","","","",""
"","","","","","image-keyboard-response","135","361577","0.0-2.0-7.0-1.17","5d6ef023cfe0a400198f911e","F1","batch6","","5060","stim/yes_37_dia_w1.png","j","pattern_response","false","f","pattern_59","5060","false","52","","","","","","","","","","","","","","","","","","",""
"","","","","","html-keyboard-response","136","362896","0.0-2.0-7.0-0.18","5d6ef023cfe0a400198f911e","F1","batch6","","null","<p class=block-text>Trial 58 out of 78</p>","null","pattern_show_trial_num","","","","","","","","","","","","","","","","","","","","","","","","",""
"","","","","","image-keyboard-response","137","364431","0.0-2.0-7.0-1.18","5d6ef023cfe0a400198f911e","F1","batch6","","1529","stim/yes_55_hor_w1_w.png","f","pattern_response","true","f","pattern_75","1529","true","53","","","","","","","","","","","","","","","","","","",""
"","","","","","html-keyboard-response","138","365749","0.0-2.0-7.0-0.19","5d6ef023cfe0a400198f911e","F1","batch6","","null","<p class=block-text>Trial 59 out of 78</p>","null","pattern_show_trial_num","","","","","","","","","","","","","","","","","","","","","","","","",""
"","","","","","image-keyboard-response","139","367881","0.0-2.0-7.0-1.19","5d6ef023cfe0a400198f911e","F1","batch6","","2126","stim/yes_35_dia_b1.png","f","pattern_response","true","f","pattern_57","2126","true","54","","","","","","","","","","","","","","","","","","",""
"","","","","","html-keyboard-response","140","369201","0.0-2.0-7.0-0.20","5d6ef023cfe0a400198f911e","F1","batch6","","null","<p class=block-text>Trial 60 out of 78</p>","null","pattern_show_trial_num","","","","","","","","","","","","","","","","","","","","","","","","",""
"","","","","","image-keyboard-response","141","369940","0.0-2.0-7.0-1.20","5d6ef023cfe0a400198f911e","F1","batch6","","734","stim/yes_14_hor_b1_w.png","f","pattern_response","true","f","pattern_43","734","true","55","","","","","","","","","","","","","","","","","","",""
"","","","","","html-keyboard-response","142","371258","0.0-2.0-7.0-0.21","5d6ef023cfe0a400198f911e","F1","batch6","","null","<p class=block-text>Trial 61 out of 78</p>","null","pattern_show_trial_num","","","","","","","","","","","","","","","","","","","","","","","","",""
"","","","","","image-keyboard-response","143","372084","0.0-2.0-7.0-1.21","5d6ef023cfe0a400198f911e","F1","batch6","","821","stim/yes_29_ver_w1.png","f","pattern_response","true","f","pattern_53","821","true","56","","","","","","","","","","","","","","","","","","",""
"","","","","","html-keyboard-response","144","373404","0.0-2.0-7.0-0.22","5d6ef023cfe0a400198f911e","F1","batch6","","null","<p class=block-text>Trial 62 out of 78</p>","null","pattern_show_trial_num","","","","","","","","","","","","","","","","","","","","","","","","",""
"","","","","","image-keyboard-response","145","375842","0.0-2.0-7.0-1.22","5d6ef023cfe0a400198f911e","F1","batch6","","2432","stim/yes_60_ver_b1_b.png","f","pattern_response","true","f","pattern_77","2432","true","57","","","","","","","","","","","","","","","","","","",""
"","","","","","html-keyboard-response","146","377159","0.0-2.0-7.0-0.23","5d6ef023cfe0a400198f911e","F1","batch6","","null","<p class=block-text>Trial 63 out of 78</p>","null","pattern_show_trial_num","","","","","","","","","","","","","","","","","","","","","","","","",""
"","","","","","image-keyboard-response","147","382314","0.0-2.0-7.0-1.23","5d6ef023cfe0a400198f911e","F1","batch6","","5149","stim/no_44_1.png","j","pattern_response","true","j","pattern_24","5149","true","58","","","","","","","","","","","","","","","","","","",""
"","","","","","html-keyboard-response","148","383632","0.0-2.0-7.0-0.24","5d6ef023cfe0a400198f911e","F1","batch6","","null","<p class=block-text>Trial 64 out of 78</p>","null","pattern_show_trial_num","","","","","","","","","","","","","","","","","","","","","","","","",""
"","","","","","image-keyboard-response","149","384523","0.0-2.0-7.0-1.24","5d6ef023cfe0a400198f911e","F1","batch6","","884","stim/yes_28_ver_b1.png","f","pattern_response","true","f","pattern_51","884","true","59","","","","","","","","","","","","","","","","","","",""
"","","","","","html-keyboard-response","150","385850","0.0-2.0-7.0-0.25","5d6ef023cfe0a400198f911e","F1","batch6","","null","<p class=block-text>Trial 65 out of 78</p>","null","pattern_show_trial_num","","","","","","","","","","","","","","","","","","","","","","","","",""
"","","","","","image-keyboard-response","151","386547","0.0-2.0-7.0-1.25","5d6ef023cfe0a400198f911e","F1","batch6","","692","stim/yes_22_ver_w1.png","f","pattern_response","true","f","pattern_47","692","true","60","","","","","","","","","","","","","","","","","","",""
"","","","","","html-keyboard-response","152","387862","0.0-2.0-7.0-0.26","5d6ef023cfe0a400198f911e","F1","batch6","","null","<p class=block-text>Trial 66 out of 78</p>","null","pattern_show_trial_num","","","","","","","","","","","","","","","","","","","","","","","","",""
"","","","","","image-keyboard-response","153","390648","0.0-2.0-7.0-1.26","5d6ef023cfe0a400198f911e","F1","batch6","","2779","stim/no_26_1_w.png","j","pattern_response","true","j","pattern_10","2779","true","61","","","","","","","","","","","","","","","","","","",""
"","","","","","html-keyboard-response","154","391962","0.0-2.0-7.0-0.27","5d6ef023cfe0a400198f911e","F1","batch6","","null","<p class=block-text>Trial 67 out of 78</p>","null","pattern_show_trial_num","","","","","","","","","","","","","","","","","","","","","","","","",""
"","","","","","image-keyboard-response","155","392800","0.0-2.0-7.0-1.27","5d6ef023cfe0a400198f911e","F1","batch6","","831","stim/yes_38_hor_b1_b.png","f","pattern_response","true","f","pattern_61","831","true","62","","","","","","","","","","","","","","","","","","",""
"","","","","","html-keyboard-response","156","394121","0.0-2.0-7.0-0.28","5d6ef023cfe0a400198f911e","F1","batch6","","null","<p class=block-text>Trial 68 out of 78</p>","null","pattern_show_trial_num","","","","","","","","","","","","","","","","","","","","","","","","",""
"","","","","","image-keyboard-response","157","395666","0.0-2.0-7.0-1.28","5d6ef023cfe0a400198f911e","F1","batch6","","1538","stim/yes_45_hor_b2_b.png","f","pattern_response","true","f","pattern_67","1538","true","63","","","","","","","","","","","","","","","","","","",""
"","","","","","html-keyboard-response","158","396984","0.0-2.0-7.0-0.29","5d6ef023cfe0a400198f911e","F1","batch6","","null","<p class=block-text>Trial 69 out of 78</p>","null","pattern_show_trial_num","","","","","","","","","","","","","","","","","","","","","","","","",""
"","","","","","image-keyboard-response","159","402328","0.0-2.0-7.0-1.29","5d6ef023cfe0a400198f911e","F1","batch6","","5338","stim/no_34_1_b.png","j","pattern_response","true","j","pattern_16","5338","true","64","","","","","","","","","","","","","","","","","","",""
"","","","","","html-keyboard-response","160","403649","0.0-2.0-7.0-0.30","5d6ef023cfe0a400198f911e","F1","batch6","","null","<p class=block-text>Trial 70 out of 78</p>","null","pattern_show_trial_num","","","","","","","","","","","","","","","","","","","","","","","","",""
"","","","","","image-keyboard-response","161","406251","0.0-2.0-7.0-1.30","5d6ef023cfe0a400198f911e","F1","batch6","","2596","stim/no_20_1_w.png","j","pattern_response","true","j","pattern_06","2596","true","65","","","","","","","","","","","","","","","","","","",""
"","","","","","html-keyboard-response","162","407569","0.0-2.0-7.0-0.31","5d6ef023cfe0a400198f911e","F1","batch6","","null","<p class=block-text>Trial 71 out of 78</p>","null","pattern_show_trial_num","","","","","","","","","","","","","","","","","","","","","","","","",""
"","","","","","image-keyboard-response","163","408535","0.0-2.0-7.0-1.31","5d6ef023cfe0a400198f911e","F1","batch6","","960","stim/yes_17_dia_w1.png","f","pattern_response","true","f","pattern_45","960","true","66","","","","","","","","","","","","","","","","","","",""
"","","","","","html-keyboard-response","164","409849","0.0-2.0-7.0-0.32","5d6ef023cfe0a400198f911e","F1","batch6","","null","<p class=block-text>Trial 72 out of 78</p>","null","pattern_show_trial_num","","","","","","","","","","","","","","","","","","","","","","","","",""
"","","","","","image-keyboard-response","165","411338","0.0-2.0-7.0-1.32","5d6ef023cfe0a400198f911e","F1","batch6","","1483","stim/yes_52_ver_w1.png","f","pattern_response","true","f","pattern_73","1483","true","67","","","","","","","","","","","","","","","","","","",""
"","","","","","html-keyboard-response","166","412654","0.0-2.0-7.0-0.33","5d6ef023cfe0a400198f911e","F1","batch6","","null","<p class=block-text>Trial 73 out of 78</p>","null","pattern_show_trial_num","","","","","","","","","","","","","","","","","","","","","","","","",""
"","","","","","image-keyboard-response","167","420567","0.0-2.0-7.0-1.33","5d6ef023cfe0a400198f911e","F1","batch6","","7908","stim/no_65_1_b.png","j","pattern_response","true","j","pattern_38","7908","true","68","","","","","","","","","","","","","","","","","","",""
"","","","","","html-keyboard-response","168","421886","0.0-2.0-7.0-0.34","5d6ef023cfe0a400198f911e","F1","batch6","","null","<p class=block-text>Trial 74 out of 78</p>","null","pattern_show_trial_num","","","","","","","","","","","","","","","","","","","","","","","","",""
"","","","","","image-keyboard-response","169","426304","0.0-2.0-7.0-1.34","5d6ef023cfe0a400198f911e","F1","batch6","","4411","stim/yes_67_hor_b1.png","f","pattern_response","true","f","pattern_79","4411","true","69","","","","","","","","","","","","","","","","","","",""
"","","","","","html-keyboard-response","170","427629","0.0-2.0-7.0-0.35","5d6ef023cfe0a400198f911e","F1","batch6","","null","<p class=block-text>Trial 75 out of 78</p>","null","pattern_show_trial_num","","","","","","","","","","","","","","","","","","","","","","","","",""
"","","","","","image-keyboard-response","171","433005","0.0-2.0-7.0-1.35","5d6ef023cfe0a400198f911e","F1","batch6","","5369","stim/no_38_1_b.png","j","pattern_response","true","j","pattern_20","5369","true","70","","","","","","","","","","","","","","","","","","",""
"","","","","","html-keyboard-response","172","434325","0.0-2.0-7.0-0.36","5d6ef023cfe0a400198f911e","F1","batch6","","null","<p class=block-text>Trial 76 out of 78</p>","null","pattern_show_trial_num","","","","","","","","","","","","","","","","","","","","","","","","",""
"","","","","","image-keyboard-response","173","438820","0.0-2.0-7.0-1.36","5d6ef023cfe0a400198f911e","F1","batch6","","4489","stim/no_46_1_b.png","j","pattern_response","true","j","pattern_26","4489","true","71","","","","","","","","","","","","","","","","","","",""
"","","","","","html-keyboard-response","174","440135","0.0-2.0-7.0-0.37","5d6ef023cfe0a400198f911e","F1","batch6","","null","<p class=block-text>Trial 77 out of 78</p>","null","pattern_show_trial_num","","","","","","","","","","","","","","","","","","","","","","","","",""
"","","","","","image-keyboard-response","175","443244","0.0-2.0-7.0-1.37","5d6ef023cfe0a400198f911e","F1","batch6","","3103","stim/no_23_1.png","j","pattern_response","true","j","pattern_08","3103","true","72","","","","","","","","","","","","","","","","","","",""
"","","","","","html-keyboard-response","176","444567","0.0-2.0-7.0-0.38","5d6ef023cfe0a400198f911e","F1","batch6","","null","<p class=block-text>Trial 78 out of 78</p>","null","pattern_show_trial_num","","","","","","","","","","","","","","","","","","","","","","","","",""
"","","","","","image-keyboard-response","177","445573","0.0-2.0-7.0-1.38","5d6ef023cfe0a400198f911e","F1","batch6","","998","stim/yes_43_ver_w1_w.png","f","pattern_response","true","f","pattern_65","998","true","73","","","","","","","","","","","","","","","","","","",""
"","","","","","html-button-response","178","451553","0.0-2.0-8.0","5d6ef023cfe0a400198f911e","F1","batch6","","5472","<p class = block-text>This concludes the 4-in-a-row detection game.Thank you for your responses!<br>
            You responded correctly on 94% of the trials.<br>
            When you are ready, press ""Continue"" button to continue </p>","0","","","","","","","","","","","","","","","","","","","","","","","","","",""
"true","","","","","fullscreen","179","455204","0.0-3.0-0.0","5d6ef023cfe0a400198f911e","F1","batch6","","","","","spm_fullscreen","","","","","","","","","","","","","","","","","","","","","","","","",""
"","","","","","html-button-response","180","466465","0.0-3.0-1.0","5d6ef023cfe0a400198f911e","F1","batch6","","11260","<p class = block-text><b>Instructions</b> <br>This is a widely used intelligence test in research. <br>In this test, a figure with a missing piece will be presented.<br>Below the figure are alternative pieces to complete the figure, only one of which is correct.<br> Different figures might involve different principles for obtaining the missing piece<br>Your job is to select the most logical piece to complete the figure.</p>","0","","","","","","","","","","","","","","","","","","","","","","","","","",""
"","","","","","html-keyboard-response","181","467278","0.0-3.0-2.0-0.0","5d6ef023cfe0a400198f911e","F1","batch6","","null","<p class=block-text>Trial 1 out of 60</p>","null","spm_show_trial_num","","","","","","","","","","","","","","","","","","","","","","","","",""
"","","","","","image-button-response","182","476801","0.0-3.0-2.0-1.0","5d6ef023cfe0a400198f911e","F1","batch6","","9522","img/question_1_1.jpeg","3","spm_respsonse","1","4","mat_01","","","","","","1","9522","","","","","","","","","","","","","","",""
"","","","","","html-keyboard-response","183","477866","0.0-3.0-2.0-0.1","5d6ef023cfe0a400198f911e","F1","batch6","","null","<p class=block-text>Trial 2 out of 60</p>","null","spm_show_trial_num","","","","","","","","","","","","","","","","","","","","","","","","",""
"","","","","","image-button-response","184","482825","0.0-3.0-2.0-1.1","5d6ef023cfe0a400198f911e","F1","batch6","","4957","img/question_1_2.jpeg","4","spm_respsonse","1","5","mat_02","","","","","","1","4957","","","","","","","","","","","","","","",""
"","","","","","html-keyboard-response","185","483895","0.0-3.0-2.0-0.2","5d6ef023cfe0a400198f911e","F1","batch6","","null","<p class=block-text>Trial 3 out of 60</p>","null","spm_show_trial_num","","","","","","","","","","","","","","","","","","","","","","","","",""
"","","","","","image-button-response","186","487634","0.0-3.0-2.0-1.2","5d6ef023cfe0a400198f911e","F1","batch6","","3737","img/question_1_3.jpeg","0","spm_respsonse","1","1","mat_03","","","","","","1","3737","","","","","","","","","","","","","","",""
"","","","","","html-keyboard-response","187","488695","0.0-3.0-2.0-0.3","5d6ef023cfe0a400198f911e","F1","batch6","","null","<p class=block-text>Trial 4 out of 60</p>","null","spm_show_trial_num","","","","","","","","","","","","","","","","","","","","","","","","",""
"","","","","","image-button-response","188","492642","0.0-3.0-2.0-1.3","5d6ef023cfe0a400198f911e","F1","batch6","","3946","img/question_1_4.jpeg","1","spm_respsonse","1","2","mat_04","","","","","","1","3946","","","","","","","","","","","","","","",""
"","","","","","html-keyboard-response","189","493706","0.0-3.0-2.0-0.4","5d6ef023cfe0a400198f911e","F1","batch6","","null","<p class=block-text>Trial 5 out of 60</p>","null","spm_show_trial_num","","","","","","","","","","","","","","","","","","","","","","","","",""
"","","","","","image-button-response","190","498786","0.0-3.0-2.0-1.4","5d6ef023cfe0a400198f911e","F1","batch6","","5078","img/question_1_5.jpeg","5","spm_respsonse","1","6","mat_05","","","","","","1","5078","","","","","","","","","","","","","","",""
"","","","","","html-keyboard-response","191","499847","0.0-3.0-2.0-0.5","5d6ef023cfe0a400198f911e","F1","batch6","","null","<p class=block-text>Trial 6 out of 60</p>","null","spm_show_trial_num","","","","","","","","","","","","","","","","","","","","","","","","",""
"","","","","","image-button-response","192","504314","0.0-3.0-2.0-1.5","5d6ef023cfe0a400198f911e","F1","batch6","","4465","img/question_1_6.jpeg","2","spm_respsonse","1","3","mat_06","","","","","","1","4465","","","","","","","","","","","","","","",""
"","","","","","html-keyboard-response","193","505377","0.0-3.0-2.0-0.6","5d6ef023cfe0a400198f911e","F1","batch6","","null","<p class=block-text>Trial 7 out of 60</p>","null","spm_show_trial_num","","","","","","","","","","","","","","","","","","","","","","","","",""
"","","","","","image-button-response","194","511082","0.0-3.0-2.0-1.6","5d6ef023cfe0a400198f911e","F1","batch6","","5702","img/question_1_7.jpeg","5","spm_respsonse","1","6","mat_07","","","","","","1","5702","","","","","","","","","","","","","","",""
"","","","","","html-keyboard-response","195","512150","0.0-3.0-2.0-0.7","5d6ef023cfe0a400198f911e","F1","batch6","","null","<p class=block-text>Trial 8 out of 60</p>","null","spm_show_trial_num","","","","","","","","","","","","","","","","","","","","","","","","",""
"","","","","","image-button-response","196","518355","0.0-3.0-2.0-1.7","5d6ef023cfe0a400198f911e","F1","batch6","","6202","img/question_1_8.jpeg","1","spm_respsonse","1","2","mat_08","","","","","","1","6202","","","","","","","","","","","","","","",""
"","","","","","html-keyboard-response","197","519420","0.0-3.0-2.0-0.8","5d6ef023cfe0a400198f911e","F1","batch6","","null","<p class=block-text>Trial 9 out of 60</p>","null","spm_show_trial_num","","","","","","","","","","","","","","","","","","","","","","","","",""
"","","","","","image-button-response","198","524507","0.0-3.0-2.0-1.8","5d6ef023cfe0a400198f911e","F1","batch6","","5084","img/question_1_9.jpeg","0","spm_respsonse","1","1","mat_09","","","","","","1","5084","","","","","","","","","","","","","","",""
"","","","","","html-keyboard-response","199","525582","0.0-3.0-2.0-0.9","5d6ef023cfe0a400198f911e","F1","batch6","","null","<p class=block-text>Trial 10 out of 60</p>","null","spm_show_trial_num","","","","","","","","","","","","","","","","","","","","","","","","",""
"","","","","","image-button-response","200","533659","0.0-3.0-2.0-1.9","5d6ef023cfe0a400198f911e","F1","batch6","","8075","img/question_1_10.jpeg","2","spm_respsonse","1","3","mat_10","","","","","","1","8075","","","","","","","","","","","","","","",""
"","","","","","html-keyboard-response","201","534729","0.0-3.0-2.0-0.10","5d6ef023cfe0a400198f911e","F1","batch6","","null","<p class=block-text>Trial 11 out of 60</p>","null","spm_show_trial_num","","","","","","","","","","","","","","","","","","","","","","","","",""
"","","","","","image-button-response","202","542339","0.0-3.0-2.0-1.10","5d6ef023cfe0a400198f911e","F1","batch6","","7608","img/question_1_11.jpeg","3","spm_respsonse","1","4","mat_11","","","","","","1","7608","","","","","","","","","","","","","","",""
"","","","","","html-keyboard-response","203","543402","0.0-3.0-2.0-0.11","5d6ef023cfe0a400198f911e","F1","batch6","","null","<p class=block-text>Trial 12 out of 60</p>","null","spm_show_trial_num","","","","","","","","","","","","","","","","","","","","","","","","",""
"","","","","","image-button-response","204","557603","0.0-3.0-2.0-1.11","5d6ef023cfe0a400198f911e","F1","batch6","","14201","img/question_1_12.jpeg","4","spm_respsonse","1","5","mat_12","","","","","","1","14201","","","","","","","","","","","","","","",""
"","","","","","html-keyboard-response","205","558677","0.0-3.0-2.0-0.12","5d6ef023cfe0a400198f911e","F1","batch6","","null","<p class=block-text>Trial 13 out of 60</p>","null","spm_show_trial_num","","","","","","","","","","","","","","","","","","","","","","","","",""
"","","","","","image-button-response","206","564868","0.0-3.0-2.0-1.12","5d6ef023cfe0a400198f911e","F1","batch6","","6188","img/question_2_1.jpeg","1","spm_respsonse","1","2","mat_13","","","","","","1","6188","","","","","","","","","","","","","","",""
"","","","","","html-keyboard-response","207","565938","0.0-3.0-2.0-0.13","5d6ef023cfe0a400198f911e","F1","batch6","","null","<p class=block-text>Trial 14 out of 60</p>","null","spm_show_trial_num","","","","","","","","","","","","","","","","","","","","","","","","",""
"","","","","","image-button-response","208","572764","0.0-3.0-2.0-1.13","5d6ef023cfe0a400198f911e","F1","batch6","","6823","img/question_2_2.jpeg","5","spm_respsonse","1","6","mat_14","","","","","","1","6823","","","","","","","","","","","","","","",""
"","","","","","html-keyboard-response","209","573839","0.0-3.0-2.0-0.14","5d6ef023cfe0a400198f911e","F1","batch6","","null","<p class=block-text>Trial 15 out of 60</p>","null","spm_show_trial_num","","","","","","","","","","","","","","","","","","","","","","","","",""
"","","","","","image-button-response","210","577604","0.0-3.0-2.0-1.14","5d6ef023cfe0a400198f911e","F1","batch6","","3762","img/question_2_3.jpeg","0","spm_respsonse","1","1","mat_15","","","","","","1","3762","","","","","","","","","","","","","","",""
"","","","","","html-keyboard-response","211","578664","0.0-3.0-2.0-0.15","5d6ef023cfe0a400198f911e","F1","batch6","","null","<p class=block-text>Trial 16 out of 60</p>","null","spm_show_trial_num","","","","","","","","","","","","","","","","","","","","","","","","",""
"","","","","","image-button-response","212","584500","0.0-3.0-2.0-1.15","5d6ef023cfe0a400198f911e","F1","batch6","","5833","img/question_2_4.jpeg","1","spm_respsonse","1","2","mat_16","","","","","","1","5833","","","","","","","","","","","","","","",""
"","","","","","html-keyboard-response","213","585564","0.0-3.0-2.0-0.16","5d6ef023cfe0a400198f911e","F1","batch6","","null","<p class=block-text>Trial 17 out of 60</p>","null","spm_show_trial_num","","","","","","","","","","","","","","","","","","","","","","","","",""
"","","","","","image-button-response","214","592501","0.0-3.0-2.0-1.16","5d6ef023cfe0a400198f911e","F1","batch6","","6935","img/question_2_5.jpeg","0","spm_respsonse","1","1","mat_17","","","","","","1","6935","","","","","","","","","","","","","","",""
"","","","","","html-keyboard-response","215","593566","0.0-3.0-2.0-0.17","5d6ef023cfe0a400198f911e","F1","batch6","","null","<p class=block-text>Trial 18 out of 60</p>","null","spm_show_trial_num","","","","","","","","","","","","","","","","","","","","","","","","",""
"","","","","","image-button-response","216","602997","0.0-3.0-2.0-1.17","5d6ef023cfe0a400198f911e","F1","batch6","","9429","img/question_2_6.jpeg","2","spm_respsonse","1","3","mat_18","","","","","","1","9429","","","","","","","","","","","","","","",""
"","","","","","html-keyboard-response","217","604069","0.0-3.0-2.0-0.18","5d6ef023cfe0a400198f911e","F1","batch6","","null","<p class=block-text>Trial 19 out of 60</p>","null","spm_show_trial_num","","","","","","","","","","","","","","","","","","","","","","","","",""
"","","","","","image-button-response","218","612181","0.0-3.0-2.0-1.18","5d6ef023cfe0a400198f911e","F1","batch6","","8110","img/question_2_7.jpeg","4","spm_respsonse","1","5","mat_19","","","","","","1","8110","","","","","","","","","","","","","","",""
"","","","","","html-keyboard-response","219","613247","0.0-3.0-2.0-0.19","5d6ef023cfe0a400198f911e","F1","batch6","","null","<p class=block-text>Trial 20 out of 60</p>","null","spm_show_trial_num","","","","","","","","","","","","","","","","","","","","","","","","",""
"","","","","","image-button-response","220","619845","0.0-3.0-2.0-1.19","5d6ef023cfe0a400198f911e","F1","batch6","","6596","img/question_2_8.jpeg","5","spm_respsonse","1","6","mat_20","","","","","","1","6596","","","","","","","","","","","","","","",""
"","","","","","html-keyboard-response","221","620915","0.0-3.0-2.0-0.20","5d6ef023cfe0a400198f911e","F1","batch6","","null","<p class=block-text>Trial 21 out of 60</p>","null","spm_show_trial_num","","","","","","","","","","","","","","","","","","","","","","","","",""
"","","","","","image-button-response","222","626117","0.0-3.0-2.0-1.20","5d6ef023cfe0a400198f911e","F1","batch6","","5201","img/question_2_9.jpeg","3","spm_respsonse","1","4","mat_21","","","","","","1","5201","","","","","","","","","","","","","","",""
"","","","","","html-keyboard-response","223","627185","0.0-3.0-2.0-0.21","5d6ef023cfe0a400198f911e","F1","batch6","","null","<p class=block-text>Trial 22 out of 60</p>","null","spm_show_trial_num","","","","","","","","","","","","","","","","","","","","","","","","",""
"","","","","","image-button-response","224","633437","0.0-3.0-2.0-1.21","5d6ef023cfe0a400198f911e","F1","batch6","","6250","img/question_2_10.jpeg","2","spm_respsonse","1","3","mat_22","","","","","","1","6250","","","","","","","","","","","","","","",""
"","","","","","html-keyboard-response","225","634501","0.0-3.0-2.0-0.22","5d6ef023cfe0a400198f911e","F1","batch6","","null","<p class=block-text>Trial 23 out of 60</p>","null","spm_show_trial_num","","","","","","","","","","","","","","","","","","","","","","","","",""
"","","","","","image-button-response","226","638662","0.0-3.0-2.0-1.22","5d6ef023cfe0a400198f911e","F1","batch6","","4158","img/question_2_11.jpeg","3","spm_respsonse","1","4","mat_23","","","","","","1","4158","","","","","","","","","","","","","","",""
"","","","","","html-keyboard-response","227","639726","0.0-3.0-2.0-0.23","5d6ef023cfe0a400198f911e","F1","batch6","","null","<p class=block-text>Trial 24 out of 60</p>","null","spm_show_trial_num","","","","","","","","","","","","","","","","","","","","","","","","",""
"","","","","","image-button-response","228","648493","0.0-3.0-2.0-1.23","5d6ef023cfe0a400198f911e","F1","batch6","","8766","img/question_2_12.jpeg","4","spm_respsonse","1","5","mat_24","","","","","","1","8766","","","","","","","","","","","","","","",""
"","","","","","html-button-response","229","652230","0.0-3.0-3.0","5d6ef023cfe0a400198f911e","F1","batch6","","3482","<p class = block-text>Attention check: Please choose 1<br></p>","0","attention_check","true","","","","","","","","","","","","","","","","","","","","","","","",""
"","","","","","html-keyboard-response","230","653031","0.0-3.0-4.0-0.0","5d6ef023cfe0a400198f911e","F1","batch6","","null","<p class=block-text>Trial 25 out of 60</p>","null","spm_show_trial_num","","","","","","","","","","","","","","","","","","","","","","","","",""
"","","","","","image-button-response","231","664886","0.0-3.0-4.0-1.0","5d6ef023cfe0a400198f911e","F1","batch6","","11854","img/question_3_1.jpeg","7","spm_respsonse","1","8","mat_25","","","","","","1","11854","","","","","","","","","","","","","","",""
"","","","","","html-keyboard-response","232","665957","0.0-3.0-4.0-0.1","5d6ef023cfe0a400198f911e","F1","batch6","","null","<p class=block-text>Trial 26 out of 60</p>","null","spm_show_trial_num","","","","","","","","","","","","","","","","","","","","","","","","",""
"","","","","","image-button-response","233","679160","0.0-3.0-4.0-1.1","5d6ef023cfe0a400198f911e","F1","batch6","","13200","img/question_3_2.jpeg","1","spm_respsonse","1","2","mat_26","","","","","","1","13200","","","","","","","","","","","","","","",""
"","","","","","html-keyboard-response","234","680226","0.0-3.0-4.0-0.2","5d6ef023cfe0a400198f911e","F1","batch6","","null","<p class=block-text>Trial 27 out of 60</p>","null","spm_show_trial_num","","","","","","","","","","","","","","","","","","","","","","","","",""
"","","","","","image-button-response","235","687599","0.0-3.0-4.0-1.2","5d6ef023cfe0a400198f911e","F1","batch6","","7370","img/question_3_3.jpeg","2","spm_respsonse","1","3","mat_27","","","","","","1","7370","","","","","","","","","","","","","","",""
"","","","","","html-keyboard-response","236","688666","0.0-3.0-4.0-0.3","5d6ef023cfe0a400198f911e","F1","batch6","","null","<p class=block-text>Trial 28 out of 60</p>","null","spm_show_trial_num","","","","","","","","","","","","","","","","","","","","","","","","",""
"","","","","","image-button-response","237","701176","0.0-3.0-4.0-1.3","5d6ef023cfe0a400198f911e","F1","batch6","","12508","img/question_3_4.jpeg","7","spm_respsonse","1","8","mat_28","","","","","","1","12508","","","","","","","","","","","","","","",""
"","","","","","html-keyboard-response","238","702240","0.0-3.0-4.0-0.4","5d6ef023cfe0a400198f911e","F1","batch6","","null","<p class=block-text>Trial 29 out of 60</p>","null","spm_show_trial_num","","","","","","","","","","","","","","","","","","","","","","","","",""
"","","","","","image-button-response","239","714320","0.0-3.0-4.0-1.4","5d6ef023cfe0a400198f911e","F1","batch6","","12077","img/question_3_5.jpeg","6","spm_respsonse","1","7","mat_29","","","","","","1","12077","","","","","","","","","","","","","","",""
"","","","","","html-keyboard-response","240","715394","0.0-3.0-4.0-0.5","5d6ef023cfe0a400198f911e","F1","batch6","","null","<p class=block-text>Trial 30 out of 60</p>","null","spm_show_trial_num","","","","","","","","","","","","","","","","","","","","","","","","",""
"","","","","","image-button-response","241","725416","0.0-3.0-4.0-1.5","5d6ef023cfe0a400198f911e","F1","batch6","","10021","img/question_3_6.jpeg","3","spm_respsonse","1","4","mat_30","","","","","","1","10021","","","","","","","","","","","","","","",""
"","","","","","html-keyboard-response","242","726485","0.0-3.0-4.0-0.6","5d6ef023cfe0a400198f911e","F1","batch6","","null","<p class=block-text>Trial 31 out of 60</p>","null","spm_show_trial_num","","","","","","","","","","","","","","","","","","","","","","","","",""
"","","","","","image-button-response","243","734345","0.0-3.0-4.0-1.6","5d6ef023cfe0a400198f911e","F1","batch6","","7858","img/question_3_7.jpeg","4","spm_respsonse","1","5","mat_31","","","","","","1","7858","","","","","","","","","","","","","","",""
"","","","","","html-keyboard-response","244","735419","0.0-3.0-4.0-0.7","5d6ef023cfe0a400198f911e","F1","batch6","","null","<p class=block-text>Trial 32 out of 60</p>","null","spm_show_trial_num","","","","","","","","","","","","","","","","","","","","","","","","",""
"","","","","","image-button-response","245","760081","0.0-3.0-4.0-1.7","5d6ef023cfe0a400198f911e","F1","batch6","","24660","img/question_3_8.jpeg","0","spm_respsonse","1","1","mat_32","","","","","","1","24660","","","","","","","","","","","","","","",""
"","","","","","html-keyboard-response","246","761154","0.0-3.0-4.0-0.8","5d6ef023cfe0a400198f911e","F1","batch6","","null","<p class=block-text>Trial 33 out of 60</p>","null","spm_show_trial_num","","","","","","","","","","","","","","","","","","","","","","","","",""
"","","","","","image-button-response","247","772018","0.0-3.0-4.0-1.8","5d6ef023cfe0a400198f911e","F1","batch6","","10861","img/question_3_9.jpeg","6","spm_respsonse","1","7","mat_33","","","","","","1","10861","","","","","","","","","","","","","","",""
"","","","","","html-keyboard-response","248","773085","0.0-3.0-4.0-0.9","5d6ef023cfe0a400198f911e","F1","batch6","","null","<p class=block-text>Trial 34 out of 60</p>","null","spm_show_trial_num","","","","","","","","","","","","","","","","","","","","","","","","",""
"","","","","","image-button-response","249","779081","0.0-3.0-4.0-1.9","5d6ef023cfe0a400198f911e","F1","batch6","","5994","img/question_3_10.jpeg","5","spm_respsonse","1","6","mat_34","","","","","","1","5994","","","","","","","","","","","","","","",""
"","","","","","html-keyboard-response","250","780145","0.0-3.0-4.0-0.10","5d6ef023cfe0a400198f911e","F1","batch6","","null","<p class=block-text>Trial 35 out of 60</p>","null","spm_show_trial_num","","","","","","","","","","","","","","","","","","","","","","","","",""
"","","","","","image-button-response","251","814539","0.0-3.0-4.0-1.10","5d6ef023cfe0a400198f911e","F1","batch6","","34391","img/question_3_11.jpeg","0","spm_respsonse","1","1","mat_35","","","","","","1","34391","","","","","","","","","","","","","","",""
"","","","","","html-keyboard-response","252","815598","0.0-3.0-4.0-0.11","5d6ef023cfe0a400198f911e","F1","batch6","","null","<p class=block-text>Trial 36 out of 60</p>","null","spm_show_trial_num","","","","","","","","","","","","","","","","","","","","","","","","",""
"","","","","","image-button-response","253","834467","0.0-3.0-4.0-1.11","5d6ef023cfe0a400198f911e","F1","batch6","","18866","img/question_3_12.jpeg","3","spm_respsonse","0","2","mat_36","","","","","","0","18866","","","","","","","","","","","","","","",""
"","","","","","html-keyboard-response","254","835539","0.0-3.0-4.0-0.12","5d6ef023cfe0a400198f911e","F1","batch6","","null","<p class=block-text>Trial 37 out of 60</p>","null","spm_show_trial_num","","","","","","","","","","","","","","","","","","","","","","","","",""
"","","","","","image-button-response","255","844995","0.0-3.0-4.0-1.12","5d6ef023cfe0a400198f911e","F1","batch6","","9455","img/question_4_1.jpeg","2","spm_respsonse","1","3","mat_37","","","","","","1","9455","","","","","","","","","","","","","","",""
"","","","","","html-keyboard-response","256","846064","0.0-3.0-4.0-0.13","5d6ef023cfe0a400198f911e","F1","batch6","","null","<p class=block-text>Trial 38 out of 60</p>","null","spm_show_trial_num","","","","","","","","","","","","","","","","","","","","","","","","",""
"","","","","","image-button-response","257","858380","0.0-3.0-4.0-1.13","5d6ef023cfe0a400198f911e","F1","batch6","","12313","img/question_4_2.jpeg","3","spm_respsonse","1","4","mat_38","","","","","","1","12313","","","","","","","","","","","","","","",""
"","","","","","html-keyboard-response","258","859441","0.0-3.0-4.0-0.14","5d6ef023cfe0a400198f911e","F1","batch6","","null","<p class=block-text>Trial 39 out of 60</p>","null","spm_show_trial_num","","","","","","","","","","","","","","","","","","","","","","","","",""
"","","","","","image-button-response","259","870132","0.0-3.0-4.0-1.14","5d6ef023cfe0a400198f911e","F1","batch6","","10690","img/question_4_3.jpeg","2","spm_respsonse","1","3","mat_39","","","","","","1","10690","","","","","","","","","","","","","","",""
"","","","","","html-keyboard-response","260","871203","0.0-3.0-4.0-0.15","5d6ef023cfe0a400198f911e","F1","batch6","","null","<p class=block-text>Trial 40 out of 60</p>","null","spm_show_trial_num","","","","","","","","","","","","","","","","","","","","","","","","",""
"","","","","","image-button-response","261","889244","0.0-3.0-4.0-1.15","5d6ef023cfe0a400198f911e","F1","batch6","","18038","img/question_4_4.jpeg","6","spm_respsonse","1","7","mat_40","","","","","","1","18038","","","","","","","","","","","","","","",""
"","","","","","html-keyboard-response","262","890314","0.0-3.0-4.0-0.16","5d6ef023cfe0a400198f911e","F1","batch6","","null","<p class=block-text>Trial 41 out of 60</p>","null","spm_show_trial_num","","","","","","","","","","","","","","","","","","","","","","","","",""
"","","","","","image-button-response","263","902253","0.0-3.0-4.0-1.16","5d6ef023cfe0a400198f911e","F1","batch6","","11936","img/question_4_5.jpeg","7","spm_respsonse","1","8","mat_41","","","","","","1","11936","","","","","","","","","","","","","","",""
"","","","","","html-keyboard-response","264","903317","0.0-3.0-4.0-0.17","5d6ef023cfe0a400198f911e","F1","batch6","","null","<p class=block-text>Trial 42 out of 60</p>","null","spm_show_trial_num","","","","","","","","","","","","","","","","","","","","","","","","",""
"","","","","","image-button-response","265","915917","0.0-3.0-4.0-1.17","5d6ef023cfe0a400198f911e","F1","batch6","","12598","img/question_4_6.jpeg","5","spm_respsonse","1","6","mat_42","","","","","","1","12598","","","","","","","","","","","","","","",""
"","","","","","html-keyboard-response","266","916980","0.0-3.0-4.0-0.18","5d6ef023cfe0a400198f911e","F1","batch6","","null","<p class=block-text>Trial 43 out of 60</p>","null","spm_show_trial_num","","","","","","","","","","","","","","","","","","","","","","","","",""
"","","","","","image-button-response","267","935134","0.0-3.0-4.0-1.18","5d6ef023cfe0a400198f911e","F1","batch6","","18151","img/question_4_7.jpeg","4","spm_respsonse","1","5","mat_43","","","","","","1","18151","","","","","","","","","","","","","","",""
"","","","","","html-keyboard-response","268","936204","0.0-3.0-4.0-0.19","5d6ef023cfe0a400198f911e","F1","batch6","","null","<p class=block-text>Trial 44 out of 60</p>","null","spm_show_trial_num","","","","","","","","","","","","","","","","","","","","","","","","",""
"","","","","","image-button-response","269","946013","0.0-3.0-4.0-1.19","5d6ef023cfe0a400198f911e","F1","batch6","","9808","img/question_4_8.jpeg","3","spm_respsonse","1","4","mat_44","","","","","","1","9808","","","","","","","","","","","","","","",""
"","","","","","html-keyboard-response","270","947075","0.0-3.0-4.0-0.20","5d6ef023cfe0a400198f911e","F1","batch6","","null","<p class=block-text>Trial 45 out of 60</p>","null","spm_show_trial_num","","","","","","","","","","","","","","","","","","","","","","","","",""
"","","","","","image-button-response","271","958414","0.0-3.0-4.0-1.20","5d6ef023cfe0a400198f911e","F1","batch6","","11338","img/question_4_9.jpeg","3","spm_respsonse","0","1","mat_45","","","","","","0","11338","","","","","","","","","","","","","","",""
"","","","","","html-keyboard-response","272","959478","0.0-3.0-4.0-0.21","5d6ef023cfe0a400198f911e","F1","batch6","","null","<p class=block-text>Trial 46 out of 60</p>","null","spm_show_trial_num","","","","","","","","","","","","","","","","","","","","","","","","",""
"","","","","","image-button-response","273","981615","0.0-3.0-4.0-1.21","5d6ef023cfe0a400198f911e","F1","batch6","","22136","img/question_4_10.jpeg","1","spm_respsonse","1","2","mat_46","","","","","","1","22136","","","","","","","","","","","","","","",""
"","","","","","html-keyboard-response","274","982676","0.0-3.0-4.0-0.22","5d6ef023cfe0a400198f911e","F1","batch6","","null","<p class=block-text>Trial 47 out of 60</p>","null","spm_show_trial_num","","","","","","","","","","","","","","","","","","","","","","","","",""
"","","","","","image-button-response","275","1004032","0.0-3.0-4.0-1.22","5d6ef023cfe0a400198f911e","F1","batch6","","21354","img/question_4_11.jpeg","1","spm_respsonse","0","5","mat_47","","","","","","0","21354","","","","","","","","","","","","","","",""
"","","","","","html-keyboard-response","276","1005099","0.0-3.0-4.0-0.23","5d6ef023cfe0a400198f911e","F1","batch6","","null","<p class=block-text>Trial 48 out of 60</p>","null","spm_show_trial_num","","","","","","","","","","","","","","","","","","","","","","","","",""
"","","","","","image-button-response","277","1025352","0.0-3.0-4.0-1.23","5d6ef023cfe0a400198f911e","F1","batch6","","20251","img/question_4_12.jpeg","5","spm_respsonse","1","6","mat_48","","","","","","1","20251","","","","","","","","","","","","","","",""
"","","","","","html-keyboard-response","278","1026415","0.0-3.0-4.0-0.24","5d6ef023cfe0a400198f911e","F1","batch6","","null","<p class=block-text>Trial 49 out of 60</p>","null","spm_show_trial_num","","","","","","","","","","","","","","","","","","","","","","","","",""
"","","","","","image-button-response","279","1033096","0.0-3.0-4.0-1.24","5d6ef023cfe0a400198f911e","F1","batch6","","6679","img/question_5_1.jpeg","6","spm_respsonse","1","7","mat_49","","","","","","1","6679","","","","","","","","","","","","","","",""
"","","","","","html-keyboard-response","280","1034163","0.0-3.0-4.0-0.25","5d6ef023cfe0a400198f911e","F1","batch6","","null","<p class=block-text>Trial 50 out of 60</p>","null","spm_show_trial_num","","","","","","","","","","","","","","","","","","","","","","","","",""
"","","","","","image-button-response","281","1048720","0.0-3.0-4.0-1.25","5d6ef023cfe0a400198f911e","F1","batch6","","14554","img/question_5_2.jpeg","5","spm_respsonse","1","6","mat_50","","","","","","1","14554","","","","","","","","","","","","","","",""
"","","","","","html-keyboard-response","282","1049790","0.0-3.0-4.0-0.26","5d6ef023cfe0a400198f911e","F1","batch6","","null","<p class=block-text>Trial 51 out of 60</p>","null","spm_show_trial_num","","","","","","","","","","","","","","","","","","","","","","","","",""
"","","","","","image-button-response","283","1066025","0.0-3.0-4.0-1.26","5d6ef023cfe0a400198f911e","F1","batch6","","16233","img/question_5_3.jpeg","7","spm_respsonse","1","8","mat_51","","","","","","1","16233","","","","","","","","","","","","","","",""
"","","","","","html-keyboard-response","284","1067095","0.0-3.0-4.0-0.27","5d6ef023cfe0a400198f911e","F1","batch6","","null","<p class=block-text>Trial 52 out of 60</p>","null","spm_show_trial_num","","","","","","","","","","","","","","","","","","","","","","","","",""
"","","","","","image-button-response","285","1073905","0.0-3.0-4.0-1.27","5d6ef023cfe0a400198f911e","F1","batch6","","6808","img/question_5_4.jpeg","1","spm_respsonse","1","2","mat_52","","","","","","1","6808","","","","","","","","","","","","","","",""
"","","","","","html-keyboard-response","286","1074966","0.0-3.0-4.0-0.28","5d6ef023cfe0a400198f911e","F1","batch6","","null","<p class=block-text>Trial 53 out of 60</p>","null","spm_show_trial_num","","","","","","","","","","","","","","","","","","","","","","","","",""
"","","","","","image-button-response","287","1080873","0.0-3.0-4.0-1.28","5d6ef023cfe0a400198f911e","F1","batch6","","5905","img/question_5_5.jpeg","0","spm_respsonse","1","1","mat_53","","","","","","1","5905","","","","","","","","","","","","","","",""
"","","","","","html-keyboard-response","288","1081947","0.0-3.0-4.0-0.29","5d6ef023cfe0a400198f911e","F1","batch6","","null","<p class=block-text>Trial 54 out of 60</p>","null","spm_show_trial_num","","","","","","","","","","","","","","","","","","","","","","","","",""
"","","","","","image-button-response","289","1092746","0.0-3.0-4.0-1.29","5d6ef023cfe0a400198f911e","F1","batch6","","10797","img/question_5_6.jpeg","4","spm_respsonse","1","5","mat_54","","","","","","1","10797","","","","","","","","","","","","","","",""
"","","","","","html-keyboard-response","290","1093809","0.0-3.0-4.0-0.30","5d6ef023cfe0a400198f911e","F1","batch6","","null","<p class=block-text>Trial 55 out of 60</p>","null","spm_show_trial_num","","","","","","","","","","","","","","","","","","","","","","","","",""
"","","","","","image-button-response","291","1109074","0.0-3.0-4.0-1.30","5d6ef023cfe0a400198f911e","F1","batch6","","15264","img/question_5_7.jpeg","5","spm_respsonse","0","1","mat_55","","","","","","0","15264","","","","","","","","","","","","","","",""
"","","","","","html-keyboard-response","292","1110133","0.0-3.0-4.0-0.31","5d6ef023cfe0a400198f911e","F1","batch6","","null","<p class=block-text>Trial 56 out of 60</p>","null","spm_show_trial_num","","","","","","","","","","","","","","","","","","","","","","","","",""
"","","","","","image-button-response","293","1118898","0.0-3.0-4.0-1.31","5d6ef023cfe0a400198f911e","F1","batch6","","8764","img/question_5_8.jpeg","5","spm_respsonse","1","6","mat_56","","","","","","1","8764","","","","","","","","","","","","","","",""
"","","","","","html-keyboard-response","294","1119965","0.0-3.0-4.0-0.32","5d6ef023cfe0a400198f911e","F1","batch6","","null","<p class=block-text>Trial 57 out of 60</p>","null","spm_show_trial_num","","","","","","","","","","","","","","","","","","","","","","","","",""
"","","","","","image-button-response","295","1129066","0.0-3.0-4.0-1.32","5d6ef023cfe0a400198f911e","F1","batch6","","9101","img/question_5_9.jpeg","2","spm_respsonse","1","3","mat_57","","","","","","1","9101","","","","","","","","","","","","","","",""
"","","","","","html-keyboard-response","296","1130130","0.0-3.0-4.0-0.33","5d6ef023cfe0a400198f911e","F1","batch6","","null","<p class=block-text>Trial 58 out of 60</p>","null","spm_show_trial_num","","","","","","","","","","","","","","","","","","","","","","","","",""
"","","","","","image-button-response","297","1140483","0.0-3.0-4.0-1.33","5d6ef023cfe0a400198f911e","F1","batch6","","10350","img/question_5_10.jpeg","1","spm_respsonse","1","2","mat_58","","","","","","1","10350","","","","","","","","","","","","","","",""
"","","","","","html-keyboard-response","298","1141551","0.0-3.0-4.0-0.34","5d6ef023cfe0a400198f911e","F1","batch6","","null","<p class=block-text>Trial 59 out of 60</p>","null","spm_show_trial_num","","","","","","","","","","","","","","","","","","","","","","","","",""
"","","","","","image-button-response","299","1151996","0.0-3.0-4.0-1.34","5d6ef023cfe0a400198f911e","F1","batch6","","10442","img/question_5_11.jpeg","3","spm_respsonse","1","4","mat_59","","","","","","1","10442","","","","","","","","","","","","","","",""
"","","","","","html-keyboard-response","300","1153058","0.0-3.0-4.0-0.35","5d6ef023cfe0a400198f911e","F1","batch6","","null","<p class=block-text>Trial 60 out of 60</p>","null","spm_show_trial_num","","","","","","","","","","","","","","","","","","","","","","","","",""
"","","","","","image-button-response","301","1181892","0.0-3.0-4.0-1.35","5d6ef023cfe0a400198f911e","F1","batch6","","28831","img/question_5_12.jpeg","6","spm_respsonse","0","5","mat_60","","","","","","0","28831","","","","","","","","","","","","","","",""
"","","","","","html-button-response","302","1185100","0.0-3.0-5.0","5d6ef023cfe0a400198f911e","F1","batch6","","2948","<p class= block-text>This concludes the Standard Progressive Matrix game. Thank you for your responses!<br> When you are ready, click the button continue</p>","0","spm_goodbye","","","","","","","","","","","","","","","","","","","","","","","","",""
"true","","","","","fullscreen","303","1188456","0.0-4.0-0.0","5d6ef023cfe0a400198f911e","F1","batch6","","","","","","","","","","","","","","","","","","","","","","","","","","","","","",""
"","","","","","instructions","304","1248134","0.0-4.0-1.0-0.0-0.0","5d6ef023cfe0a400198f911e","F1","batch6","[{""page_index"":0,""viewing_time"":13683},{""page_index"":1,""viewing_time"":5991},{""page_index"":2,""viewing_time"":3961},{""page_index"":3,""viewing_time"":12545},{""page_index"":4,""viewing_time"":7935},{""page_index"":5,""viewing_time"":12122},{""page_index"":6,""viewing_time"":3439}]","59676","","","tol-instructions","","","","","","","","","","","","","","","","","","","","","","","","",""
"","","","","","html-button-response","305","1249310","0.0-4.0-1.0-1.0-0.0","5d6ef023cfe0a400198f911e","F1","batch6","","1176","<p class=block-text> Let's answer a few questions <br>","0","tol_enter_quiz","","","","","","","","","","","","","","","","","","","","","","","","",""
"","","","","","html-button-response","306","1256014","0.0-4.0-1.0-1.0-1.0","5d6ef023cfe0a400198f911e","F1","batch6","","6704","<p class = block-text>True or False: You can only move the ball on top of a peg. <br></p>","0","tol_quiz","true","","","","","","","","","","","","","","","","","","","","","","","",""
"","","","","","html-button-response","307","1257158","0.0-4.0-1.0-1.0-2.0","5d6ef023cfe0a400198f911e","F1","batch6","","1143","<p class = block-text>Correct! You can only move the ball on top of a peg.</p>","0","tol_quiz_feedback","","","","","","","","","","","","","","","","","","","","","","","","",""
"","","","","","html-button-response","308","1261062","0.0-4.0-1.0-1.0-3.0","5d6ef023cfe0a400198f911e","F1","batch6","","3903","<p class = block-text>True or False: You should try to match your board with the target board with fewest moves possible. <br></p>","0","tol_quiz","true","","","","","","","","","","","","","","","","","","","","","","","",""
"","","","","","html-button-response","309","1261822","0.0-4.0-1.0-1.0-4.0","5d6ef023cfe0a400198f911e","F1","batch6","","759","<p class = block-text>Correct! </p>","0","tol_quiz_feedback","","","","","","","","","","","","","","","","","","","","","","","","",""
"","","","","","html-button-response","310","1263799","0.0-4.0-2.0","5d6ef023cfe0a400198f911e","F1","batch6","","1976","<p class=block-text> Now that you've understood the game, let's practice a few easier examples before we start!<br> <br>","0","","","","","","","","","","","","","","","","","","","","","","","","","",""
"","","","","","single-stim-button","311","1266311","0.0-4.0-3.0-0.0","5d6ef023cfe0a400198f911e","F1","batch6","","2510","","","tol_practice","","","","","","","","","","","tol_peg_2","2510","2510","0","[[1,2,0],[0,0],[0]]","1","[[1,2,0],[0,0],[3]]","practice","2510","","","","","",""
"","","","","","single-stim-button","312","1267375","0.0-4.0-3.0-1.0","5d6ef023cfe0a400198f911e","F1","batch6","","1064","","","tol_practice","","","","","","","","","","","tol_peg_3","1064","1064","0","[[1,2,0],[0,0],[3]]","1","[[1,2,0],[0,0],[3]]","practice","1064","","","","","",""
"","","","","","poldrack-single-stim","313","1268385","0.0-4.0-4.0","5d6ef023cfe0a400198f911e","F1","batch6","","-1","","","tol_feedback","true","","","","","","","","","","","1000","1000","500","","","","","","-1","none","true","","0",""
"","","","","","single-stim-button","314","1271822","0.0-4.0-5.0-0.0","5d6ef023cfe0a400198f911e","F1","batch6","","3436","","","tol_practice","","","","","","","","","","","tol_peg_1","3436","3436","0","[[1,0,0],[3,0],[0]]","2","[[0,0,0],[3,1],[2]]","practice","3436","","","","","",""
"","","","","","single-stim-button","315","1272903","0.0-4.0-5.0-1.0","5d6ef023cfe0a400198f911e","F1","batch6","","1080","","","tol_practice","","","","","","","","","","","tol_peg_3","1080","1080","0","[[1,0,0],[3,0],[2]]","2","[[0,0,0],[3,1],[2]]","practice","1080","","","","","",""
"","","","","","single-stim-button","316","1273910","0.0-4.0-5.1-0.1","5d6ef023cfe0a400198f911e","F1","batch6","","1007","","","tol_practice","","","","","","","","","","","tol_peg_1","1007","1007","0","[[0,0,0],[3,0],[2]]","3","[[0,0,0],[3,1],[2]]","practice","1007","","","","","",""
"","","","","","single-stim-button","317","1274615","0.0-4.0-5.1-1.1","5d6ef023cfe0a400198f911e","F1","batch6","","705","","","tol_practice","","","","","","","","","","","tol_peg_2","705","705","0","[[0,0,0],[3,1],[2]]","3","[[0,0,0],[3,1],[2]]","practice","705","","","","","",""
"","","","","","poldrack-single-stim","318","1275625","0.0-4.0-6.0","5d6ef023cfe0a400198f911e","F1","batch6","","-1","","","tol_feedback","true","","","","","","","","","","","1000","1000","500","","","","","","-1","none","true","","0",""
"","","","","","single-stim-button","319","1278567","0.0-4.0-7.0-0.0","5d6ef023cfe0a400198f911e","F1","batch6","","2941","","","tol_practice","","","","","","","","","","","tol_peg_2","2941","2941","0","[[1,2,0],[0,0],[0]]","4","[[1,0,0],[2,0],[3]]","practice","2941","","","","","",""
"","","","","","single-stim-button","320","1279559","0.0-4.0-7.0-1.0","5d6ef023cfe0a400198f911e","F1","batch6","","991","","","tol_practice","","","","","","","","","","","tol_peg_3","991","991","0","[[1,2,0],[0,0],[3]]","4","[[1,0,0],[2,0],[3]]","practice","991","","","","","",""
"","","","","","single-stim-button","321","1280319","0.0-4.0-7.1-0.1","5d6ef023cfe0a400198f911e","F1","batch6","","759","","","tol_practice","","","","","","","","","","","tol_peg_1","759","759","0","[[1,0,0],[0,0],[3]]","5","[[1,0,0],[2,0],[3]]","practice","759","","","","","",""
"","","","","","single-stim-button","322","1281023","0.0-4.0-7.1-1.1","5d6ef023cfe0a400198f911e","F1","batch6","","704","","","tol_practice","","","","","","","","","","","tol_peg_2","704","704","0","[[1,0,0],[2,0],[3]]","5","[[1,0,0],[2,0],[3]]","practice","704","","","","","",""
"","","","","","poldrack-single-stim","323","1282030","0.0-4.0-8.0","5d6ef023cfe0a400198f911e","F1","batch6","","-1","","","tol_feedback","true","","","","","","","","","","","1000","1000","500","","","","","","-1","none","true","","0",""
"","","","","","html-button-response","324","1285559","0.0-4.0-9.0","5d6ef023cfe0a400198f911e","F1","batch6","","3528","<div class = centerbox><p class = center-block-text>Great job! You are done with practice trials<br>You are about to start official trials.<br> <br> Problem <strong>1</strong> out of 25 problems</p></div>","0","tol_instruction","","","","","","","","","","","","","","","","","","","","","","","","",""
"","","","","","single-stim-button","325","1291247","0.0-4.0-10.0-0.0","5d6ef023cfe0a400198f911e","F1","batch6","","4679","","","tol_tohand","","","","","","","","","","","tol_peg_1","4679","4679","0","[[1,0,0],[3,0],[0]]","1","[[1,3,0],[2,0],[0]]","0","0","","","","","","3"
"","","","","","single-stim-button","326","1292279","0.0-4.0-10.0-1.0","5d6ef023cfe0a400198f911e","F1","batch6","","1031","","","tol_toboard","","","","","","","","","","","tol_peg_3","1031","1031","0","[[1,0,0],[3,0],[2]]","1","[[1,3,0],[2,0],[0]]","0","0","","","","","","3"
"","","","","","single-stim-button","327","1292815","0.0-4.0-10.1-0.1","5d6ef023cfe0a400198f911e","F1","batch6","","536","","","tol_tohand","","","","","","","","","","","tol_peg_2","536","536","0","[[1,0,0],[0,0],[2]]","2","[[1,3,0],[2,0],[0]]","0","0","","","","","","3"
"","","","","","single-stim-button","328","1293592","0.0-4.0-10.1-1.1","5d6ef023cfe0a400198f911e","F1","batch6","","777","","","tol_toboard","","","","","","","","","","","tol_peg_1","777","777","0","[[1,3,0],[0,0],[2]]","2","[[1,3,0],[2,0],[0]]","0","0","","","","","","3"
"","","","","","single-stim-button","329","1294208","0.0-4.0-10.2-0.2","5d6ef023cfe0a400198f911e","F1","batch6","","615","","","tol_tohand","","","","","","","","","","","tol_peg_3","615","615","0","[[1,3,0],[0,0],[0]]","3","[[1,3,0],[2,0],[0]]","0","0","","","","","","3"
"","","","","","single-stim-button","330","1294911","0.0-4.0-10.2-1.2","5d6ef023cfe0a400198f911e","F1","batch6","","703","","","tol_toboard","","","","","","","","","","","tol_peg_2","703","703","0","[[1,3,0],[2,0],[0]]","3","[[1,3,0],[2,0],[0]]","0","0","","","","","","3"
"","","","","","poldrack-single-stim","331","1295925","0.0-4.0-11.0","5d6ef023cfe0a400198f911e","F1","batch6","","-1","","","tol_feedback","true","","","","","","","","","","","1000","1000","500","","","","","","-1","none","true","4679","5830",""
"","","","","","html-button-response","332","1298207","0.0-4.0-12.0","5d6ef023cfe0a400198f911e","F1","batch6","","2281","<div class = centerbox><p class = center-block-text>problem <strong>2</strong> out of 25 problems</p></div>","0","tol_trial_num","","","","","","","","","","","","","","","","","","","","","","","","",""
"","","","","","single-stim-button","333","1303440","0.0-4.0-13.0-0.0","5d6ef023cfe0a400198f911e","F1","batch6","","5233","","","tol_tohand","","","","","","","","","","","tol_peg_1","5233","5233","0","[[1,0,0],[3,0],[0]]","1","[[2,1,3],[0,0],[0]]","1","0","","","","","","5"
"","","","","","single-stim-button","334","1306712","0.0-4.0-13.0-1.0","5d6ef023cfe0a400198f911e","F1","batch6","","3271","","","tol_toboard","","","","","","","","","","","tol_peg_2","3271","3271","0","[[1,0,0],[3,2],[0]]","1","[[2,1,3],[0,0],[0]]","1","0","","","","","","5"
"","","","","","single-stim-button","335","1308680","0.0-4.0-13.1-0.1","5d6ef023cfe0a400198f911e","F1","batch6","","1968","","","tol_tohand","","","","","","","","","","","tol_peg_1","1968","1968","0","[[0,0,0],[3,2],[0]]","2","[[2,1,3],[0,0],[0]]","1","0","","","","","","5"
"","","","","","single-stim-button","336","1309792","0.0-4.0-13.1-1.1","5d6ef023cfe0a400198f911e","F1","batch6","","1112","","","tol_toboard","","","","","","","","","","","tol_peg_3","1112","1112","0","[[0,0,0],[3,2],[1]]","2","[[2,1,3],[0,0],[0]]","1","0","","","","","","5"
"","","","","","single-stim-button","337","1310400","0.0-4.0-13.2-0.2","5d6ef023cfe0a400198f911e","F1","batch6","","608","","","tol_tohand","","","","","","","","","","","tol_peg_2","608","608","0","[[0,0,0],[3,0],[1]]","3","[[2,1,3],[0,0],[0]]","1","0","","","","","","5"
"","","","","","single-stim-button","338","1311015","0.0-4.0-13.2-1.2","5d6ef023cfe0a400198f911e","F1","batch6","","615","","","tol_toboard","","","","","","","","","","","tol_peg_1","615","615","0","[[2,0,0],[3,0],[1]]","3","[[2,1,3],[0,0],[0]]","1","0","","","","","","5"
"","","","","","single-stim-button","339","1311728","0.0-4.0-13.3-0.3","5d6ef023cfe0a400198f911e","F1","batch6","","712","","","tol_tohand","","","","","","","","","","","tol_peg_3","712","712","0","[[2,0,0],[3,0],[0]]","4","[[2,1,3],[0,0],[0]]","1","0","","","","","","5"
"","","","","","single-stim-button","340","1312360","0.0-4.0-13.3-1.3","5d6ef023cfe0a400198f911e","F1","batch6","","632","","","tol_toboard","","","","","","","","","","","tol_peg_1","632","632","0","[[2,1,0],[3,0],[0]]","4","[[2,1,3],[0,0],[0]]","1","0","","","","","","5"
"","","","","","single-stim-button","341","1312874","0.0-4.0-13.4-0.4","5d6ef023cfe0a400198f911e","F1","batch6","","512","","","tol_tohand","","","","","","","","","","","tol_peg_2","512","512","0","[[2,1,0],[0,0],[0]]","5","[[2,1,3],[0,0],[0]]","1","0","","","","","","5"
"","","","","","single-stim-button","342","1313559","0.0-4.0-13.4-1.4","5d6ef023cfe0a400198f911e","F1","batch6","","685","","","tol_toboard","","","","","","","","","","","tol_peg_1","685","685","0","[[2,1,3],[0,0],[0]]","5","[[2,1,3],[0,0],[0]]","1","0","","","","","","5"
"","","","","","poldrack-single-stim","343","1314564","0.0-4.0-14.0","5d6ef023cfe0a400198f911e","F1","batch6","","-1","","","tol_feedback","true","","","","","","","","","","","1000","1000","500","","","","","","-1","none","true","5233","9033",""
"","","","","","html-button-response","344","1315487","0.0-4.0-15.0","5d6ef023cfe0a400198f911e","F1","batch6","","922","<div class = centerbox><p class = center-block-text>problem <strong>3</strong> out of 25 problems</p></div>","0","tol_trial_num","","","","","","","","","","","","","","","","","","","","","","","","",""
"","","","","","single-stim-button","345","1320121","0.0-4.0-16.0-0.0","5d6ef023cfe0a400198f911e","F1","batch6","","4633","","","tol_tohand","","","","","","","","","","","tol_peg_1","4633","4633","0","[[2,0,0],[0,0],[1]]","1","[[1,2,0],[3,0],[0]]","2","0","","","","","","4"
"","","","","","single-stim-button","346","1320776","0.0-4.0-16.0-1.0","5d6ef023cfe0a400198f911e","F1","batch6","","655","","","tol_toboard","","","","","","","","","","","tol_peg_2","655","655","0","[[2,0,0],[3,0],[1]]","1","[[1,2,0],[3,0],[0]]","2","0","","","","","","4"
"","","","","","single-stim-button","347","1326280","0.0-4.0-16.1-0.1","5d6ef023cfe0a400198f911e","F1","batch6","","5504","","","tol_tohand","","","","","","","","","","","tol_peg_1","5504","5504","0","[[0,0,0],[3,0],[1]]","2","[[1,2,0],[3,0],[0]]","2","0","","","","","","4"
"","","","","","single-stim-button","348","1327120","0.0-4.0-16.1-1.1","5d6ef023cfe0a400198f911e","F1","batch6","","838","","","tol_toboard","","","","","","","","","","","tol_peg_2","838","838","0","[[0,0,0],[3,2],[1]]","2","[[1,2,0],[3,0],[0]]","2","0","","","","","","4"
"","","","","","single-stim-button","349","1327648","0.0-4.0-16.2-0.2","5d6ef023cfe0a400198f911e","F1","batch6","","527","","","tol_tohand","","","","","","","","","","","tol_peg_3","527","527","0","[[0,0,0],[3,2],[0]]","3","[[1,2,0],[3,0],[0]]","2","0","","","","","","4"
"","","","","","single-stim-button","350","1328352","0.0-4.0-16.2-1.2","5d6ef023cfe0a400198f911e","F1","batch6","","704","","","tol_toboard","","","","","","","","","","","tol_peg_1","704","704","0","[[1,0,0],[3,2],[0]]","3","[[1,2,0],[3,0],[0]]","2","0","","","","","","4"
"","","","","","single-stim-button","351","1329048","0.0-4.0-16.3-0.3","5d6ef023cfe0a400198f911e","F1","batch6","","695","","","tol_tohand","","","","","","","","","","","tol_peg_2","695","695","0","[[1,0,0],[3,0],[0]]","4","[[1,2,0],[3,0],[0]]","2","0","","","","","","4"
"","","","","","single-stim-button","352","1329720","0.0-4.0-16.3-1.3","5d6ef023cfe0a400198f911e","F1","batch6","","670","","","tol_toboard","","","","","","","","","","","tol_peg_1","670","670","0","[[1,2,0],[3,0],[0]]","4","[[1,2,0],[3,0],[0]]","2","0","","","","","","4"
"","","","","","poldrack-single-stim","353","1330731","0.0-4.0-17.0","5d6ef023cfe0a400198f911e","F1","batch6","","-1","","","tol_feedback","true","","","","","","","","","","","1000","1000","500","","","","","","-1","none","true","4633","11359",""
"","","","","","html-button-response","354","1331672","0.0-4.0-18.0","5d6ef023cfe0a400198f911e","F1","batch6","","941","<div class = centerbox><p class = center-block-text>problem <strong>4</strong> out of 25 problems</p></div>","0","tol_trial_num","","","","","","","","","","","","","","","","","","","","","","","","",""
"","","","","","single-stim-button","355","1335544","0.0-4.0-19.0-0.0","5d6ef023cfe0a400198f911e","F1","batch6","","3872","","","tol_tohand","","","","","","","","","","","tol_peg_2","3872","3872","0","[[3,0,0],[2,0],[0]]","1","[[3,0,0],[1,0],[2]]","3","0","","","","","","3"
"","","","","","single-stim-button","356","1336136","0.0-4.0-19.0-1.0","5d6ef023cfe0a400198f911e","F1","batch6","","592","","","tol_toboard","","","","","","","","","","","tol_peg_1","592","592","0","[[3,1,0],[2,0],[0]]","1","[[3,0,0],[1,0],[2]]","3","0","","","","","","3"
"","","","","","single-stim-button","357","1336624","0.0-4.0-19.1-0.1","5d6ef023cfe0a400198f911e","F1","batch6","","488","","","tol_tohand","","","","","","","","","","","tol_peg_2","488","488","0","[[3,1,0],[0,0],[0]]","2","[[3,0,0],[1,0],[2]]","3","0","","","","","","3"
"","","","","","single-stim-button","358","1337144","0.0-4.0-19.1-1.1","5d6ef023cfe0a400198f911e","F1","batch6","","520","","","tol_toboard","","","","","","","","","","","tol_peg_3","520","520","0","[[3,1,0],[0,0],[2]]","2","[[3,0,0],[1,0],[2]]","3","0","","","","","","3"
"","","","","","single-stim-button","359","1337793","0.0-4.0-19.2-0.2","5d6ef023cfe0a400198f911e","F1","batch6","","648","","","tol_tohand","","","","","","","","","","","tol_peg_1","648","648","0","[[3,0,0],[0,0],[2]]","3","[[3,0,0],[1,0],[2]]","3","0","","","","","","3"
