"success","timeout","failed_images","failed_audio","failed_video","trial_type","trial_index","time_elapsed","internal_node_id","subject_id","study_id","session_id","view_history","rt","stimulus","response","task","correct","answer","item","fiar_detect_rt","fiar_detect_correct","total_correct_fiar_detect","post_trial_gap","choices","mouse_click","stim_duration","block_duration","timing_post_trial","current_position","tol_num_moves_made","tol_target","tol_problem_id","tol_rt","key_press","possible_responses","tol_correct","preplanning","tol_rt_per_trial","tol_min_moves","spm_correct","spm_rt"
"true","false","[]","[]","[]","preload","0","38963","0.0-0.0","5d6fbd3f9ba41b0018d20082","D2","batch4","","","","","","","","","","","","","","","","","","","","","","","","","","","","","",""
"true","","","","","fullscreen","1","50444","0.0-1.0-0.0","5d6fbd3f9ba41b0018d20082","D2","batch4","","","","","","","","","","","","","","","","","","","","","","","","","","","","","",""
"true","","","","","fullscreen","2","57415","0.0-2.0-0.0","5d6fbd3f9ba41b0018d20082","D2","batch4","","","","","","","","","","","","","","","","","","","","","","","","","","","","","",""
"","","","","","instructions","3","71169","0.0-2.0-1.0-0.0","5d6fbd3f9ba41b0018d20082","D2","batch4","[{""page_index"":0,""viewing_time"":9616.399999999441},{""page_index"":1,""viewing_time"":4136.800000000745}]","13753.299999999814","","","","","","","","","","","","","","","","","","","","","","","","","","","",""
"","","","","","html-button-response","4","72692","0.0-2.0-1.0-1.0-0.0","5d6fbd3f9ba41b0018d20082","D2","batch4","","1522.0999999996275","<p class=block-text> Let's answer a few questions <br>","0","pattern_enter_quiz","","","","","","","","","","","","","","","","","","","","","","","","",""
"","","","","","html-button-response","5","75135","0.0-2.0-1.0-1.0-1.0","5d6fbd3f9ba41b0018d20082","D2","batch4","","2441.2000000001863","<p class = block-text>True or False: You will have as much time as you want to make each choice. <br></p>","1","pattern_quiz","true","","","","","","","","","","","","","","","","","","","","","","","",""
"","","","","","html-button-response","6","75926","0.0-2.0-1.0-1.0-2.0","5d6fbd3f9ba41b0018d20082","D2","batch4","","790.7000000001863","<p class = block-text>Correct! You should make your choice <strong> as fast as you can</strong>.</p>","0","pattern_quiz_feedback","","","","","","","","","","","","","","","","","","","","","","","","",""
"","","","","","html-button-response","7","78719","0.0-2.0-1.0-1.0-3.0","5d6fbd3f9ba41b0018d20082","D2","batch4","","2791.5","<p class = block-text>True or False: You will look for 4 pieces in black or white color connected in a row either horizontally, vertically or diagonally. <br></p>","0","pattern_quiz","true","","","","","","","","","","","","","","","","","","","","","","","",""
"","","","","","html-button-response","8","79426","0.0-2.0-1.0-1.0-4.0","5d6fbd3f9ba41b0018d20082","D2","batch4","","706.8999999994412","<p class = block-text>Correct! </p>","0","pattern_quiz_feedback","","","","","","","","","","","","","","","","","","","","","","","","",""
"","","","","","html-button-response","9","80903","0.0-2.0-2.0","5d6fbd3f9ba41b0018d20082","D2","batch4","","1475.0999999996275","<p class=block-text> Now that you've understood the game, let's do a few practice trials before we start!<br> <br>","0","pattern_enter_practice","","","","","","","","","","","","","","","","","","","","","","","","",""
"","","","","","image-keyboard-response","10","82861","0.0-2.0-3.0-0.0","5d6fbd3f9ba41b0018d20082","D2","batch4","","1955.4000000003725","stim/prac_yes_16_ver_w1.png","f","pattern_practice","true","f","","","","","","","","","","","","","","","","","","","","","","",""
"","","","","","html-keyboard-response","11","83889","0.0-2.0-3.0-1.0","5d6fbd3f9ba41b0018d20082","D2","batch4","","null","<p style=""font-size:30px;color:green;"">Correct!</p>","null","pattern_feedback","","","","","","","","","","","","","","","","","","","","","","","","",""
"","","","","","image-keyboard-response","12","84981","0.0-2.0-3.0-0.1","5d6fbd3f9ba41b0018d20082","D2","batch4","","1090.7000000001863","stim/prac_no_16_1.png","j","pattern_practice","true","j","","","","","","","","","","","","","","","","","","","","","","",""
"","","","","","html-keyboard-response","13","85992","0.0-2.0-3.0-1.1","5d6fbd3f9ba41b0018d20082","D2","batch4","","null","<p style=""font-size:30px;color:green;"">Correct!</p>","null","pattern_feedback","","","","","","","","","","","","","","","","","","","","","","","","",""
"","","","","","image-keyboard-response","14","87024","0.0-2.0-3.0-0.2","5d6fbd3f9ba41b0018d20082","D2","batch4","","1038.2000000001863","stim/prac_no_18_1.png","j","pattern_practice","true","j","","","","","","","","","","","","","","","","","","","","","","",""
"","","","","","html-keyboard-response","15","88041","0.0-2.0-3.0-1.2","5d6fbd3f9ba41b0018d20082","D2","batch4","","null","<p style=""font-size:30px;color:green;"">Correct!</p>","null","pattern_feedback","","","","","","","","","","","","","","","","","","","","","","","","",""
"","","","","","image-keyboard-response","16","89748","0.0-2.0-3.0-0.3","5d6fbd3f9ba41b0018d20082","D2","batch4","","1705.9000000003725","stim/prac_yes_20_dia_b1.png","j","pattern_practice","false","f","","","","","","","","","","","","","","","","","","","","","","",""
"","","","","","html-keyboard-response","17","90768","0.0-2.0-3.0-1.3","5d6fbd3f9ba41b0018d20082","D2","batch4","","null","<p style=""font-size:30px;color:red;"">Wrong.</p>","null","pattern_feedback","","","","","","","","","","","","","","","","","","","","","","","","",""
"","","","","","image-keyboard-response","18","91948","0.0-2.0-3.0-0.4","5d6fbd3f9ba41b0018d20082","D2","batch4","","1177.7999999998137","stim/prac_yes_18_hor_w1.png","f","pattern_practice","true","f","","","","","","","","","","","","","","","","","","","","","","",""
"","","","","","html-keyboard-response","19","92978","0.0-2.0-3.0-1.4","5d6fbd3f9ba41b0018d20082","D2","batch4","","null","<p style=""font-size:30px;color:green;"">Correct!</p>","null","pattern_feedback","","","","","","","","","","","","","","","","","","","","","","","","",""
"","","","","","html-button-response","20","102124","0.0-2.0-4.0","5d6fbd3f9ba41b0018d20082","D2","batch4","","9145.100000000559","<p class=block-text> Good job! You are done with practice trials!<br>
        You responded correctly on 80% of the trials.<br>
        Press the button below to start official trials. Now you won't see any feedback about your response</p>","0","pattern_enter_official_trials","","","","","","","","","","","","","","","","","","","","","","","","",""
"","","","","","html-keyboard-response","21","102939","0.0-2.0-5.0-0.0","5d6fbd3f9ba41b0018d20082","D2","batch4","","null","<p class=block-text>Trial 1 out of 78</p>","null","pattern_show_trial_num","","","","","","","","","","","","","","","","","","","","","","","","",""
"","","","","","image-keyboard-response","22","107010","0.0-2.0-5.0-1.0","5d6fbd3f9ba41b0018d20082","D2","batch4","","4066.899999999441","stim/yes_63_dia_b1.png","j","pattern_response","false","f","pattern_78","4066.899999999441","false","0","","","","","","","","","","","","","","","","","","",""
"","","","","","html-keyboard-response","23","108320","0.0-2.0-5.0-0.1","5d6fbd3f9ba41b0018d20082","D2","batch4","","null","<p class=block-text>Trial 2 out of 78</p>","null","pattern_show_trial_num","","","","","","","","","","","","","","","","","","","","","","","","",""
"","","","","","image-keyboard-response","24","111607","0.0-2.0-5.0-1.1","5d6fbd3f9ba41b0018d20082","D2","batch4","","3285.600000000559","stim/no_51_1.png","j","pattern_response","true","j","pattern_31","3285.600000000559","true","1","","","","","","","","","","","","","","","","","","",""
"","","","","","html-keyboard-response","25","112920","0.0-2.0-5.0-0.2","5d6fbd3f9ba41b0018d20082","D2","batch4","","null","<p class=block-text>Trial 3 out of 78</p>","null","pattern_show_trial_num","","","","","","","","","","","","","","","","","","","","","","","","",""
"","","","","","image-keyboard-response","26","116658","0.0-2.0-5.0-1.2","5d6fbd3f9ba41b0018d20082","D2","batch4","","3734.7999999998137","stim/no_47_1_b.png","j","pattern_response","true","j","pattern_27","3734.7999999998137","true","2","","","","","","","","","","","","","","","","","","",""
"","","","","","html-keyboard-response","27","117983","0.0-2.0-5.0-0.3","5d6fbd3f9ba41b0018d20082","D2","batch4","","null","<p class=block-text>Trial 4 out of 78</p>","null","pattern_show_trial_num","","","","","","","","","","","","","","","","","","","","","","","","",""
"","","","","","image-keyboard-response","28","119065","0.0-2.0-5.0-1.3","5d6fbd3f9ba41b0018d20082","D2","batch4","","1077.2000000001863","stim/no_15_1_w.png","j","pattern_response","true","j","pattern_03","1077.2000000001863","true","3","","","","","","","","","","","","","","","","","","",""
"","","","","","html-keyboard-response","29","120382","0.0-2.0-5.0-0.4","5d6fbd3f9ba41b0018d20082","D2","batch4","","null","<p class=block-text>Trial 5 out of 78</p>","null","pattern_show_trial_num","","","","","","","","","","","","","","","","","","","","","","","","",""
"","","","","","image-keyboard-response","30","123979","0.0-2.0-5.0-1.4","5d6fbd3f9ba41b0018d20082","D2","batch4","","3594.100000000559","stim/yes_49_hor_w1_b.png","f","pattern_response","true","f","pattern_70","3594.100000000559","true","4","","","","","","","","","","","","","","","","","","",""
"","","","","","html-keyboard-response","31","125298","0.0-2.0-5.0-0.5","5d6fbd3f9ba41b0018d20082","D2","batch4","","null","<p class=block-text>Trial 6 out of 78</p>","null","pattern_show_trial_num","","","","","","","","","","","","","","","","","","","","","","","","",""
"","","","","","image-keyboard-response","32","129883","0.0-2.0-5.0-1.5","5d6fbd3f9ba41b0018d20082","D2","batch4","","4581.899999999441","stim/yes_53_ver_b1_b.png","j","pattern_response","false","f","pattern_74","4581.899999999441","false","4","","","","","","","","","","","","","","","","","","",""
"","","","","","html-keyboard-response","33","131214","0.0-2.0-5.0-0.6","5d6fbd3f9ba41b0018d20082","D2","batch4","","null","<p class=block-text>Trial 7 out of 78</p>","null","pattern_show_trial_num","","","","","","","","","","","","","","","","","","","","","","","","",""
"","","","","","image-keyboard-response","34","132473","0.0-2.0-5.0-1.6","5d6fbd3f9ba41b0018d20082","D2","batch4","","1257.5999999996275","stim/yes_39_hor_w1_w.png","f","pattern_response","true","f","pattern_62","1257.5999999996275","true","5","","","","","","","","","","","","","","","","","","",""
"","","","","","html-keyboard-response","35","133786","0.0-2.0-5.0-0.7","5d6fbd3f9ba41b0018d20082","D2","batch4","","null","<p class=block-text>Trial 8 out of 78</p>","null","pattern_show_trial_num","","","","","","","","","","","","","","","","","","","","","","","","",""
"","","","","","image-keyboard-response","36","136321","0.0-2.0-5.0-1.7","5d6fbd3f9ba41b0018d20082","D2","batch4","","2532.2999999998137","stim/no_28_2.png","j","pattern_response","true","j","pattern_11","2532.2999999998137","true","6","","","","","","","","","","","","","","","","","","",""
"","","","","","html-keyboard-response","37","137629","0.0-2.0-5.0-0.8","5d6fbd3f9ba41b0018d20082","D2","batch4","","null","<p class=block-text>Trial 9 out of 78</p>","null","pattern_show_trial_num","","","","","","","","","","","","","","","","","","","","","","","","",""
"","","","","","image-keyboard-response","38","138552","0.0-2.0-5.0-1.8","5d6fbd3f9ba41b0018d20082","D2","batch4","","919.7000000001863","stim/yes_17_ver_b1_b.png","f","pattern_response","true","f","pattern_46","919.7000000001863","true","7","","","","","","","","","","","","","","","","","","",""
"","","","","","html-keyboard-response","39","139879","0.0-2.0-5.0-0.9","5d6fbd3f9ba41b0018d20082","D2","batch4","","null","<p class=block-text>Trial 10 out of 78</p>","null","pattern_show_trial_num","","","","","","","","","","","","","","","","","","","","","","","","",""
"","","","","","image-keyboard-response","40","141008","0.0-2.0-5.0-1.9","5d6fbd3f9ba41b0018d20082","D2","batch4","","1125.9000000003725","stim/no_18_1_b.png","j","pattern_response","true","j","pattern_05","1125.9000000003725","true","8","","","","","","","","","","","","","","","","","","",""
"","","","","","html-keyboard-response","41","142327","0.0-2.0-5.0-0.10","5d6fbd3f9ba41b0018d20082","D2","batch4","","null","<p class=block-text>Trial 11 out of 78</p>","null","pattern_show_trial_num","","","","","","","","","","","","","","","","","","","","","","","","",""
"","","","","","image-keyboard-response","42","145200","0.0-2.0-5.0-1.10","5d6fbd3f9ba41b0018d20082","D2","batch4","","2871.7999999998137","stim/yes_42_dia_w1_w.png","j","pattern_response","false","f","pattern_64","2871.7999999998137","false","8","","","","","","","","","","","","","","","","","","",""
"","","","","","html-keyboard-response","43","146512","0.0-2.0-5.0-0.11","5d6fbd3f9ba41b0018d20082","D2","batch4","","null","<p class=block-text>Trial 12 out of 78</p>","null","pattern_show_trial_num","","","","","","","","","","","","","","","","","","","","","","","","",""
"","","","","","image-keyboard-response","44","147868","0.0-2.0-5.0-1.11","5d6fbd3f9ba41b0018d20082","D2","batch4","","1358.1000000005588","stim/no_22_1_b.png","j","pattern_response","true","j","pattern_07","1358.1000000005588","true","9","","","","","","","","","","","","","","","","","","",""
"","","","","","html-keyboard-response","45","149184","0.0-2.0-5.0-0.12","5d6fbd3f9ba41b0018d20082","D2","batch4","","null","<p class=block-text>Trial 13 out of 78</p>","null","pattern_show_trial_num","","","","","","","","","","","","","","","","","","","","","","","","",""
"","","","","","image-keyboard-response","46","152554","0.0-2.0-5.0-1.12","5d6fbd3f9ba41b0018d20082","D2","batch4","","3367.9000000003725","stim/no_39_1_w.png","j","pattern_response","true","j","pattern_21","3367.9000000003725","true","10","","","","","","","","","","","","","","","","","","",""
"","","","","","html-keyboard-response","47","153882","0.0-2.0-5.0-0.13","5d6fbd3f9ba41b0018d20082","D2","batch4","","null","<p class=block-text>Trial 14 out of 78</p>","null","pattern_show_trial_num","","","","","","","","","","","","","","","","","","","","","","","","",""
"","","","","","image-keyboard-response","48","155137","0.0-2.0-5.0-1.13","5d6fbd3f9ba41b0018d20082","D2","batch4","","1251.6000000005588","stim/yes_15_dia_b1u_b.png","f","pattern_response","true","f","pattern_44","1251.6000000005588","true","11","","","","","","","","","","","","","","","","","","",""
"","","","","","html-keyboard-response","49","156465","0.0-2.0-5.0-0.14","5d6fbd3f9ba41b0018d20082","D2","batch4","","null","<p class=block-text>Trial 15 out of 78</p>","null","pattern_show_trial_num","","","","","","","","","","","","","","","","","","","","","","","","",""
"","","","","","image-keyboard-response","50","157296","0.0-2.0-5.0-1.14","5d6fbd3f9ba41b0018d20082","D2","batch4","","829.5","stim/yes_29_hor_b1_b.png","f","pattern_response","true","f","pattern_52","829.5","true","12","","","","","","","","","","","","","","","","","","",""
"","","","","","html-keyboard-response","51","158614","0.0-2.0-5.0-0.15","5d6fbd3f9ba41b0018d20082","D2","batch4","","null","<p class=block-text>Trial 16 out of 78</p>","null","pattern_show_trial_num","","","","","","","","","","","","","","","","","","","","","","","","",""
"","","","","","image-keyboard-response","52","160971","0.0-2.0-5.0-1.15","5d6fbd3f9ba41b0018d20082","D2","batch4","","2356.4000000003725","stim/no_43_2_b.png","j","pattern_response","true","j","pattern_23","2356.4000000003725","true","13","","","","","","","","","","","","","","","","","","",""
"","","","","","html-keyboard-response","53","162290","0.0-2.0-5.0-0.16","5d6fbd3f9ba41b0018d20082","D2","batch4","","null","<p class=block-text>Trial 17 out of 78</p>","null","pattern_show_trial_num","","","","","","","","","","","","","","","","","","","","","","","","",""
"","","","","","image-keyboard-response","54","163307","0.0-2.0-5.0-1.16","5d6fbd3f9ba41b0018d20082","D2","batch4","","1015.7000000001863","stim/yes_70_ver_b1.png","f","pattern_response","true","f","pattern_80","1015.7000000001863","true","14","","","","","","","","","","","","","","","","","","",""
"","","","","","html-keyboard-response","55","164629","0.0-2.0-5.0-0.17","5d6fbd3f9ba41b0018d20082","D2","batch4","","null","<p class=block-text>Trial 18 out of 78</p>","null","pattern_show_trial_num","","","","","","","","","","","","","","","","","","","","","","","","",""
"","","","","","image-keyboard-response","56","166206","0.0-2.0-5.0-1.17","5d6fbd3f9ba41b0018d20082","D2","batch4","","1574.199999999255","stim/no_30_1_b.png","j","pattern_response","true","j","pattern_13","1574.199999999255","true","15","","","","","","","","","","","","","","","","","","",""
"","","","","","html-keyboard-response","57","167527","0.0-2.0-5.0-0.18","5d6fbd3f9ba41b0018d20082","D2","batch4","","null","<p class=block-text>Trial 19 out of 78</p>","null","pattern_show_trial_num","","","","","","","","","","","","","","","","","","","","","","","","",""
"","","","","","image-keyboard-response","58","171852","0.0-2.0-5.0-1.18","5d6fbd3f9ba41b0018d20082","D2","batch4","","4322","stim/yes_58_dia_w1_w.png","f","pattern_response","true","f","pattern_76","4322","true","16","","","","","","","","","","","","","","","","","","",""
"","","","","","html-keyboard-response","59","173177","0.0-2.0-5.0-0.19","5d6fbd3f9ba41b0018d20082","D2","batch4","","null","<p class=block-text>Trial 20 out of 78</p>","null","pattern_show_trial_num","","","","","","","","","","","","","","","","","","","","","","","","",""
"","","","","","image-keyboard-response","60","174487","0.0-2.0-5.0-1.19","5d6fbd3f9ba41b0018d20082","D2","batch4","","1309.2000000001863","stim/yes_33_dia_w1_w.png","j","pattern_response","false","f","pattern_56","1309.2000000001863","false","16","","","","","","","","","","","","","","","","","","",""
"","","","","","html-keyboard-response","61","175809","0.0-2.0-5.0-0.20","5d6fbd3f9ba41b0018d20082","D2","batch4","","null","<p class=block-text>Trial 21 out of 78</p>","null","pattern_show_trial_num","","","","","","","","","","","","","","","","","","","","","","","","",""
"","","","","","image-keyboard-response","62","177628","0.0-2.0-5.0-1.20","5d6fbd3f9ba41b0018d20082","D2","batch4","","1817","stim/yes_44_ver_w1_w.png","f","pattern_response","true","f","pattern_66","1817","true","17","","","","","","","","","","","","","","","","","","",""
"","","","","","html-keyboard-response","63","178942","0.0-2.0-5.0-0.21","5d6fbd3f9ba41b0018d20082","D2","batch4","","null","<p class=block-text>Trial 22 out of 78</p>","null","pattern_show_trial_num","","","","","","","","","","","","","","","","","","","","","","","","",""
"","","","","","image-keyboard-response","64","183077","0.0-2.0-5.0-1.21","5d6fbd3f9ba41b0018d20082","D2","batch4","","4133.899999999441","stim/no_33_1_b.png","j","pattern_response","true","j","pattern_15","4133.899999999441","true","18","","","","","","","","","","","","","","","","","","",""
"","","","","","html-keyboard-response","65","184406","0.0-2.0-5.0-0.22","5d6fbd3f9ba41b0018d20082","D2","batch4","","null","<p class=block-text>Trial 23 out of 78</p>","null","pattern_show_trial_num","","","","","","","","","","","","","","","","","","","","","","","","",""
"","","","","","image-keyboard-response","66","189342","0.0-2.0-5.0-1.22","5d6fbd3f9ba41b0018d20082","D2","batch4","","4934","stim/yes_51_dia_b1.png","j","pattern_response","false","f","pattern_72","4934","false","18","","","","","","","","","","","","","","","","","","",""
"","","","","","html-keyboard-response","67","190653","0.0-2.0-5.0-0.23","5d6fbd3f9ba41b0018d20082","D2","batch4","","null","<p class=block-text>Trial 24 out of 78</p>","null","pattern_show_trial_num","","","","","","","","","","","","","","","","","","","","","","","","",""
"","","","","","image-keyboard-response","68","194218","0.0-2.0-5.0-1.23","5d6fbd3f9ba41b0018d20082","D2","batch4","","3561.699999999255","stim/no_58_1_w.png","j","pattern_response","true","j","pattern_35","3561.699999999255","true","19","","","","","","","","","","","","","","","","","","",""
"","","","","","html-keyboard-response","69","195535","0.0-2.0-5.0-0.24","5d6fbd3f9ba41b0018d20082","D2","batch4","","null","<p class=block-text>Trial 25 out of 78</p>","null","pattern_show_trial_num","","","","","","","","","","","","","","","","","","","","","","","","",""
"","","","","","image-keyboard-response","70","198117","0.0-2.0-5.0-1.24","5d6fbd3f9ba41b0018d20082","D2","batch4","","2579.9000000003725","stim/no_36_1_b.png","j","pattern_response","true","j","pattern_17","2579.9000000003725","true","20","","","","","","","","","","","","","","","","","","",""
"","","","","","html-keyboard-response","71","199435","0.0-2.0-5.0-0.25","5d6fbd3f9ba41b0018d20082","D2","batch4","","null","<p class=block-text>Trial 26 out of 78</p>","null","pattern_show_trial_num","","","","","","","","","","","","","","","","","","","","","","","","",""
"","","","","","image-keyboard-response","72","203018","0.0-2.0-5.0-1.25","5d6fbd3f9ba41b0018d20082","D2","batch4","","3579.9000000003725","stim/no_49_2_b.png","j","pattern_response","true","j","pattern_29","3579.9000000003725","true","21","","","","","","","","","","","","","","","","","","",""
"","","","","","html-keyboard-response","73","204332","0.0-2.0-5.0-0.26","5d6fbd3f9ba41b0018d20082","D2","batch4","","null","<p class=block-text>Trial 27 out of 78</p>","null","pattern_show_trial_num","","","","","","","","","","","","","","","","","","","","","","","","",""
"","","","","","image-keyboard-response","74","205836","0.0-2.0-5.0-1.26","5d6fbd3f9ba41b0018d20082","D2","batch4","","1500.800000000745","stim/yes_46_ver_b1_b.png","f","pattern_response","true","f","pattern_68","1500.800000000745","true","22","","","","","","","","","","","","","","","","","","",""
"","","","","","html-keyboard-response","75","207160","0.0-2.0-5.0-0.27","5d6fbd3f9ba41b0018d20082","D2","batch4","","null","<p class=block-text>Trial 28 out of 78</p>","null","pattern_show_trial_num","","","","","","","","","","","","","","","","","","","","","","","","",""
"","","","","","image-keyboard-response","76","208183","0.0-2.0-5.0-1.27","5d6fbd3f9ba41b0018d20082","D2","batch4","","1019.4000000003725","stim/yes_30_ver_b1_b.png","f","pattern_response","true","f","pattern_54","1019.4000000003725","true","23","","","","","","","","","","","","","","","","","","",""
"","","","","","html-keyboard-response","77","209499","0.0-2.0-5.0-0.28","5d6fbd3f9ba41b0018d20082","D2","batch4","","null","<p class=block-text>Trial 29 out of 78</p>","null","pattern_show_trial_num","","","","","","","","","","","","","","","","","","","","","","","","",""
"","","","","","image-keyboard-response","78","210579","0.0-2.0-5.0-1.28","5d6fbd3f9ba41b0018d20082","D2","batch4","","1079","stim/yes_37_hor_w1_w.png","f","pattern_response","true","f","pattern_60","1079","true","24","","","","","","","","","","","","","","","","","","",""
"","","","","","html-keyboard-response","79","211899","0.0-2.0-5.0-0.29","5d6fbd3f9ba41b0018d20082","D2","batch4","","null","<p class=block-text>Trial 30 out of 78</p>","null","pattern_show_trial_num","","","","","","","","","","","","","","","","","","","","","","","","",""
"","","","","","image-keyboard-response","80","212625","0.0-2.0-5.0-1.29","5d6fbd3f9ba41b0018d20082","D2","batch4","","722.1999999992549","stim/yes_36_ver_w1_w.png","f","pattern_response","true","f","pattern_58","722.1999999992549","true","25","","","","","","","","","","","","","","","","","","",""
"","","","","","html-keyboard-response","81","213947","0.0-2.0-5.0-0.30","5d6fbd3f9ba41b0018d20082","D2","batch4","","null","<p class=block-text>Trial 31 out of 78</p>","null","pattern_show_trial_num","","","","","","","","","","","","","","","","","","","","","","","","",""
"","","","","","image-keyboard-response","82","216366","0.0-2.0-5.0-1.30","5d6fbd3f9ba41b0018d20082","D2","batch4","","2417.600000000559","stim/no_37_2_w.png","j","pattern_response","true","j","pattern_19","2417.600000000559","true","26","","","","","","","","","","","","","","","","","","",""
"","","","","","html-keyboard-response","83","217679","0.0-2.0-5.0-0.31","5d6fbd3f9ba41b0018d20082","D2","batch4","","null","<p class=block-text>Trial 32 out of 78</p>","null","pattern_show_trial_num","","","","","","","","","","","","","","","","","","","","","","","","",""
"","","","","","image-keyboard-response","84","218394","0.0-2.0-5.0-1.31","5d6fbd3f9ba41b0018d20082","D2","batch4","","710.7000000001863","stim/yes_12_hor_w1_w.png","f","pattern_response","true","f","pattern_42","710.7000000001863","true","27","","","","","","","","","","","","","","","","","","",""
"","","","","","html-keyboard-response","85","219712","0.0-2.0-5.0-0.32","5d6fbd3f9ba41b0018d20082","D2","batch4","","null","<p class=block-text>Trial 33 out of 78</p>","null","pattern_show_trial_num","","","","","","","","","","","","","","","","","","","","","","","","",""
"","","","","","image-keyboard-response","86","224206","0.0-2.0-5.0-1.32","5d6fbd3f9ba41b0018d20082","D2","batch4","","4490","stim/no_45_1_w.png","j","pattern_response","true","j","pattern_25","4490","true","28","","","","","","","","","","","","","","","","","","",""
"","","","","","html-keyboard-response","87","225528","0.0-2.0-5.0-0.33","5d6fbd3f9ba41b0018d20082","D2","batch4","","null","<p class=block-text>Trial 34 out of 78</p>","null","pattern_show_trial_num","","","","","","","","","","","","","","","","","","","","","","","","",""
"","","","","","image-keyboard-response","88","227877","0.0-2.0-5.0-1.33","5d6fbd3f9ba41b0018d20082","D2","batch4","","2343.4000000003725","stim/no_25_1_b.png","j","pattern_response","true","j","pattern_09","2343.4000000003725","true","29","","","","","","","","","","","","","","","","","","",""
"","","","","","html-keyboard-response","89","229193","0.0-2.0-5.0-0.34","5d6fbd3f9ba41b0018d20082","D2","batch4","","null","<p class=block-text>Trial 35 out of 78</p>","null","pattern_show_trial_num","","","","","","","","","","","","","","","","","","","","","","","","",""
"","","","","","image-keyboard-response","90","230453","0.0-2.0-5.0-1.34","5d6fbd3f9ba41b0018d20082","D2","batch4","","1257.5","stim/yes_23_ver_b1.png","f","pattern_response","true","f","pattern_48","1257.5","true","30","","","","","","","","","","","","","","","","","","",""
"","","","","","html-keyboard-response","91","231776","0.0-2.0-5.0-0.35","5d6fbd3f9ba41b0018d20082","D2","batch4","","null","<p class=block-text>Trial 36 out of 78</p>","null","pattern_show_trial_num","","","","","","","","","","","","","","","","","","","","","","","","",""
"","","","","","image-keyboard-response","92","236268","0.0-2.0-5.0-1.35","5d6fbd3f9ba41b0018d20082","D2","batch4","","4490.299999999814","stim/no_53_1_b.png","j","pattern_response","true","j","pattern_33","4490.299999999814","true","31","","","","","","","","","","","","","","","","","","",""
"","","","","","html-keyboard-response","93","237589","0.0-2.0-5.0-0.36","5d6fbd3f9ba41b0018d20082","D2","batch4","","null","<p class=block-text>Trial 37 out of 78</p>","null","pattern_show_trial_num","","","","","","","","","","","","","","","","","","","","","","","","",""
"","","","","","image-keyboard-response","94","238723","0.0-2.0-5.0-1.36","5d6fbd3f9ba41b0018d20082","D2","batch4","","1130.9000000003725","stim/no_12_1.png","j","pattern_response","true","j","pattern_01","1130.9000000003725","true","32","","","","","","","","","","","","","","","","","","",""
"","","","","","html-keyboard-response","95","240039","0.0-2.0-5.0-0.37","5d6fbd3f9ba41b0018d20082","D2","batch4","","null","<p class=block-text>Trial 38 out of 78</p>","null","pattern_show_trial_num","","","","","","","","","","","","","","","","","","","","","","","","",""
"","","","","","image-keyboard-response","96","241882","0.0-2.0-5.0-1.37","5d6fbd3f9ba41b0018d20082","D2","batch4","","1841.2999999998137","stim/yes_26_dia_w2_w.png","f","pattern_response","true","f","pattern_50","1841.2999999998137","true","33","","","","","","","","","","","","","","","","","","",""
"","","","","","html-keyboard-response","97","243204","0.0-2.0-5.0-0.38","5d6fbd3f9ba41b0018d20082","D2","batch4","","null","<p class=block-text>Trial 39 out of 78</p>","null","pattern_show_trial_num","","","","","","","","","","","","","","","","","","","","","","","","",""
"","","","","","image-keyboard-response","98","248163","0.0-2.0-5.0-1.38","5d6fbd3f9ba41b0018d20082","D2","batch4","","4956.5","stim/no_67_1.png","j","pattern_response","true","j","pattern_39","4956.5","true","34","","","","","","","","","","","","","","","","","","",""
"","","","","","image-keyboard-response","99","250639","0.0-2.0-6.0","5d6fbd3f9ba41b0018d20082","D2","batch4","","1966.7999999998137","stim/empty_board.png","j","attention_check","true","j","","","","","500","[""f"",""j""]","","","","","","","","","","","","","","","","",""
"","","","","","html-keyboard-response","100","251453","0.0-2.0-7.0-0.0","5d6fbd3f9ba41b0018d20082","D2","batch4","","null","<p class=block-text>Trial 40 out of 78</p>","null","pattern_show_trial_num","","","","","","","","","","","","","","","","","","","","","","","","",""
"","","","","","image-keyboard-response","101","257921","0.0-2.0-7.0-1.0","5d6fbd3f9ba41b0018d20082","D2","batch4","","6466.199999999255","stim/no_65_1_b.png","j","pattern_response","true","j","pattern_38","6466.199999999255","true","35","","","","","","","","","","","","","","","","","","",""
"","","","","","html-keyboard-response","102","259251","0.0-2.0-7.0-0.1","5d6fbd3f9ba41b0018d20082","D2","batch4","","null","<p class=block-text>Trial 41 out of 78</p>","null","pattern_show_trial_num","","","","","","","","","","","","","","","","","","","","","","","","",""
"","","","","","image-keyboard-response","103","263379","0.0-2.0-7.0-1.1","5d6fbd3f9ba41b0018d20082","D2","batch4","","4125.799999999814","stim/no_50_1.png","j","pattern_response","true","j","pattern_30","4125.799999999814","true","36","","","","","","","","","","","","","","","","","","",""
"","","","","","html-keyboard-response","104","264696","0.0-2.0-7.0-0.2","5d6fbd3f9ba41b0018d20082","D2","batch4","","null","<p class=block-text>Trial 42 out of 78</p>","null","pattern_show_trial_num","","","","","","","","","","","","","","","","","","","","","","","","",""
"","","","","","image-keyboard-response","105","266522","0.0-2.0-7.0-1.2","5d6fbd3f9ba41b0018d20082","D2","batch4","","1823.4000000003725","stim/no_26_1_w.png","j","pattern_response","true","j","pattern_10","1823.4000000003725","true","37","","","","","","","","","","","","","","","","","","",""
"","","","","","html-keyboard-response","106","267830","0.0-2.0-7.0-0.3","5d6fbd3f9ba41b0018d20082","D2","batch4","","null","<p class=block-text>Trial 43 out of 78</p>","null","pattern_show_trial_num","","","","","","","","","","","","","","","","","","","","","","","","",""
"","","","","","image-keyboard-response","107","269751","0.0-2.0-7.0-1.3","5d6fbd3f9ba41b0018d20082","D2","batch4","","1909.5999999996275","stim/yes_45_hor_b2_b.png","f","pattern_response","true","f","pattern_67","1909.5999999996275","true","38","","","","","","","","","","","","","","","","","","",""
"","","","","","html-keyboard-response","108","271074","0.0-2.0-7.0-0.4","5d6fbd3f9ba41b0018d20082","D2","batch4","","null","<p class=block-text>Trial 44 out of 78</p>","null","pattern_show_trial_num","","","","","","","","","","","","","","","","","","","","","","","","",""
"","","","","","image-keyboard-response","109","274744","0.0-2.0-7.0-1.4","5d6fbd3f9ba41b0018d20082","D2","batch4","","3667.399999999441","stim/yes_55_hor_w1_w.png","j","pattern_response","false","f","pattern_75","3667.399999999441","false","38","","","","","","","","","","","","","","","","","","",""
"","","","","","html-keyboard-response","110","276070","0.0-2.0-7.0-0.5","5d6fbd3f9ba41b0018d20082","D2","batch4","","null","<p class=block-text>Trial 45 out of 78</p>","null","pattern_show_trial_num","","","","","","","","","","","","","","","","","","","","","","","","",""
"","","","","","image-keyboard-response","111","278553","0.0-2.0-7.0-1.5","5d6fbd3f9ba41b0018d20082","D2","batch4","","2480.2999999998137","stim/yes_48_dia_w1_w.png","f","pattern_response","true","f","pattern_69","2480.2999999998137","true","39","","","","","","","","","","","","","","","","","","",""
"","","","","","html-keyboard-response","112","279869","0.0-2.0-7.0-0.6","5d6fbd3f9ba41b0018d20082","D2","batch4","","null","<p class=block-text>Trial 46 out of 78</p>","null","pattern_show_trial_num","","","","","","","","","","","","","","","","","","","","","","","","",""
"","","","","","image-keyboard-response","113","280544","0.0-2.0-7.0-1.6","5d6fbd3f9ba41b0018d20082","D2","batch4","","671.7999999998137","stim/yes_14_hor_b1_w.png","f","pattern_response","true","f","pattern_43","671.7999999998137","true","40","","","","","","","","","","","","","","","","","","",""
"","","","","","html-keyboard-response","114","281873","0.0-2.0-7.0-0.7","5d6fbd3f9ba41b0018d20082","D2","batch4","","null","<p class=block-text>Trial 47 out of 78</p>","null","pattern_show_trial_num","","","","","","","","","","","","","","","","","","","","","","","","",""
"","","","","","image-keyboard-response","115","283714","0.0-2.0-7.0-1.7","5d6fbd3f9ba41b0018d20082","D2","batch4","","1838.2999999998137","stim/yes_29_ver_w1.png","f","pattern_response","true","f","pattern_53","1838.2999999998137","true","41","","","","","","","","","","","","","","","","","","",""
"","","","","","html-keyboard-response","116","285035","0.0-2.0-7.0-0.8","5d6fbd3f9ba41b0018d20082","D2","batch4","","null","<p class=block-text>Trial 48 out of 78</p>","null","pattern_show_trial_num","","","","","","","","","","","","","","","","","","","","","","","","",""
"","","","","","image-keyboard-response","117","289928","0.0-2.0-7.0-1.8","5d6fbd3f9ba41b0018d20082","D2","batch4","","4890.5999999996275","stim/no_70_2.png","j","pattern_response","true","j","pattern_40","4890.5999999996275","true","42","","","","","","","","","","","","","","","","","","",""
"","","","","","html-keyboard-response","118","291253","0.0-2.0-7.0-0.9","5d6fbd3f9ba41b0018d20082","D2","batch4","","null","<p class=block-text>Trial 49 out of 78</p>","null","pattern_show_trial_num","","","","","","","","","","","","","","","","","","","","","","","","",""
"","","","","","image-keyboard-response","119","292181","0.0-2.0-7.0-1.9","5d6fbd3f9ba41b0018d20082","D2","batch4","","926.5999999996275","stim/yes_52_ver_w1.png","f","pattern_response","true","f","pattern_73","926.5999999996275","true","43","","","","","","","","","","","","","","","","","","",""
"","","","","","html-keyboard-response","120","293487","0.0-2.0-7.0-0.10","5d6fbd3f9ba41b0018d20082","D2","batch4","","null","<p class=block-text>Trial 50 out of 78</p>","null","pattern_show_trial_num","","","","","","","","","","","","","","","","","","","","","","","","",""
"","","","","","image-keyboard-response","121","294931","0.0-2.0-7.0-1.10","5d6fbd3f9ba41b0018d20082","D2","batch4","","1442.9000000003725","stim/yes_38_hor_b1_b.png","f","pattern_response","true","f","pattern_61","1442.9000000003725","true","44","","","","","","","","","","","","","","","","","","",""
"","","","","","html-keyboard-response","122","296251","0.0-2.0-7.0-0.11","5d6fbd3f9ba41b0018d20082","D2","batch4","","null","<p class=block-text>Trial 51 out of 78</p>","null","pattern_show_trial_num","","","","","","","","","","","","","","","","","","","","","","","","",""
"","","","","","image-keyboard-response","123","297234","0.0-2.0-7.0-1.11","5d6fbd3f9ba41b0018d20082","D2","batch4","","981","stim/no_13_2_b.png","j","pattern_response","true","j","pattern_02","981","true","45","","","","","","","","","","","","","","","","","","",""
"","","","","","html-keyboard-response","124","298562","0.0-2.0-7.0-0.12","5d6fbd3f9ba41b0018d20082","D2","batch4","","null","<p class=block-text>Trial 52 out of 78</p>","null","pattern_show_trial_num","","","","","","","","","","","","","","","","","","","","","","","","",""
"","","","","","image-keyboard-response","125","302287","0.0-2.0-7.0-1.12","5d6fbd3f9ba41b0018d20082","D2","batch4","","3721.9000000003725","stim/no_42_1_w.png","j","pattern_response","true","j","pattern_22","3721.9000000003725","true","46","","","","","","","","","","","","","","","","","","",""
"","","","","","html-keyboard-response","126","303610","0.0-2.0-7.0-0.13","5d6fbd3f9ba41b0018d20082","D2","batch4","","null","<p class=block-text>Trial 53 out of 78</p>","null","pattern_show_trial_num","","","","","","","","","","","","","","","","","","","","","","","","",""
"","","","","","image-keyboard-response","127","307054","0.0-2.0-7.0-1.13","5d6fbd3f9ba41b0018d20082","D2","batch4","","3442","stim/no_46_1_b.png","j","pattern_response","true","j","pattern_26","3442","true","47","","","","","","","","","","","","","","","","","","",""
"","","","","","html-keyboard-response","128","308376","0.0-2.0-7.0-0.14","5d6fbd3f9ba41b0018d20082","D2","batch4","","null","<p class=block-text>Trial 54 out of 78</p>","null","pattern_show_trial_num","","","","","","","","","","","","","","","","","","","","","","","","",""
"","","","","","image-keyboard-response","129","309438","0.0-2.0-7.0-1.14","5d6fbd3f9ba41b0018d20082","D2","batch4","","1058.3999999994412","stim/yes_17_dia_w1.png","f","pattern_response","true","f","pattern_45","1058.3999999994412","true","48","","","","","","","","","","","","","","","","","","",""
"","","","","","html-keyboard-response","130","310759","0.0-2.0-7.0-0.15","5d6fbd3f9ba41b0018d20082","D2","batch4","","null","<p class=block-text>Trial 55 out of 78</p>","null","pattern_show_trial_num","","","","","","","","","","","","","","","","","","","","","","","","",""
"","","","","","image-keyboard-response","131","313698","0.0-2.0-7.0-1.15","5d6fbd3f9ba41b0018d20082","D2","batch4","","2938.4000000003725","stim/yes_37_dia_w1.png","j","pattern_response","false","f","pattern_59","2938.4000000003725","false","48","","","","","","","","","","","","","","","","","","",""
"","","","","","html-keyboard-response","132","315012","0.0-2.0-7.0-0.16","5d6fbd3f9ba41b0018d20082","D2","batch4","","null","<p class=block-text>Trial 56 out of 78</p>","null","pattern_show_trial_num","","","","","","","","","","","","","","","","","","","","","","","","",""
"","","","","","image-keyboard-response","133","315860","0.0-2.0-7.0-1.16","5d6fbd3f9ba41b0018d20082","D2","batch4","","846.1000000005588","stim/yes_25_hor_b1_b.png","f","pattern_response","true","f","pattern_49","846.1000000005588","true","49","","","","","","","","","","","","","","","","","","",""
"","","","","","html-keyboard-response","134","317172","0.0-2.0-7.0-0.17","5d6fbd3f9ba41b0018d20082","D2","batch4","","null","<p class=block-text>Trial 57 out of 78</p>","null","pattern_show_trial_num","","","","","","","","","","","","","","","","","","","","","","","","",""
"","","","","","image-keyboard-response","135","318844","0.0-2.0-7.0-1.17","5d6fbd3f9ba41b0018d20082","D2","batch4","","1670.6000000005588","stim/no_29_1_b.png","j","pattern_response","true","j","pattern_12","1670.6000000005588","true","50","","","","","","","","","","","","","","","","","","",""
"","","","","","html-keyboard-response","136","320172","0.0-2.0-7.0-0.18","5d6fbd3f9ba41b0018d20082","D2","batch4","","null","<p class=block-text>Trial 58 out of 78</p>","null","pattern_show_trial_num","","","","","","","","","","","","","","","","","","","","","","","","",""
"","","","","","image-keyboard-response","137","322760","0.0-2.0-7.0-1.18","5d6fbd3f9ba41b0018d20082","D2","batch4","","2586","stim/no_44_1.png","j","pattern_response","true","j","pattern_24","2586","true","51","","","","","","","","","","","","","","","","","","",""
"","","","","","html-keyboard-response","138","324088","0.0-2.0-7.0-0.19","5d6fbd3f9ba41b0018d20082","D2","batch4","","null","<p class=block-text>Trial 59 out of 78</p>","null","pattern_show_trial_num","","","","","","","","","","","","","","","","","","","","","","","","",""
"","","","","","image-keyboard-response","139","326953","0.0-2.0-7.0-1.19","5d6fbd3f9ba41b0018d20082","D2","batch4","","2861.7999999998137","stim/yes_40_dia_b1_b.png","j","pattern_response","false","f","pattern_63","2861.7999999998137","false","51","","","","","","","","","","","","","","","","","","",""
"","","","","","html-keyboard-response","140","328273","0.0-2.0-7.0-0.20","5d6fbd3f9ba41b0018d20082","D2","batch4","","null","<p class=block-text>Trial 60 out of 78</p>","null","pattern_show_trial_num","","","","","","","","","","","","","","","","","","","","","","","","",""
"","","","","","image-keyboard-response","141","329855","0.0-2.0-7.0-1.20","5d6fbd3f9ba41b0018d20082","D2","batch4","","1582.2000000001863","stim/no_20_1_w.png","j","pattern_response","true","j","pattern_06","1582.2000000001863","true","52","","","","","","","","","","","","","","","","","","",""
"","","","","","html-keyboard-response","142","331185","0.0-2.0-7.0-0.21","5d6fbd3f9ba41b0018d20082","D2","batch4","","null","<p class=block-text>Trial 61 out of 78</p>","null","pattern_show_trial_num","","","","","","","","","","","","","","","","","","","","","","","","",""
"","","","","","image-keyboard-response","143","335691","0.0-2.0-7.0-1.21","5d6fbd3f9ba41b0018d20082","D2","batch4","","4504","stim/no_62_1_w.png","j","pattern_response","true","j","pattern_36","4504","true","53","","","","","","","","","","","","","","","","","","",""
"","","","","","html-keyboard-response","144","337016","0.0-2.0-7.0-0.22","5d6fbd3f9ba41b0018d20082","D2","batch4","","null","<p class=block-text>Trial 62 out of 78</p>","null","pattern_show_trial_num","","","","","","","","","","","","","","","","","","","","","","","","",""
"","","","","","image-keyboard-response","145","337700","0.0-2.0-7.0-1.22","5d6fbd3f9ba41b0018d20082","D2","batch4","","681.2999999998137","stim/yes_28_ver_b1.png","f","pattern_response","true","f","pattern_51","681.2999999998137","true","54","","","","","","","","","","","","","","","","","","",""
"","","","","","html-keyboard-response","146","339004","0.0-2.0-7.0-0.23","5d6fbd3f9ba41b0018d20082","D2","batch4","","null","<p class=block-text>Trial 63 out of 78</p>","null","pattern_show_trial_num","","","","","","","","","","","","","","","","","","","","","","","","",""
"","","","","","image-keyboard-response","147","343160","0.0-2.0-7.0-1.23","5d6fbd3f9ba41b0018d20082","D2","batch4","","4154.799999999814","stim/yes_50_dia_w1.png","j","pattern_response","false","f","pattern_71","4154.799999999814","false","54","","","","","","","","","","","","","","","","","","",""
"","","","","","html-keyboard-response","148","344479","0.0-2.0-7.0-0.24","5d6fbd3f9ba41b0018d20082","D2","batch4","","null","<p class=block-text>Trial 64 out of 78</p>","null","pattern_show_trial_num","","","","","","","","","","","","","","","","","","","","","","","","",""
"","","","","","image-keyboard-response","149","347769","0.0-2.0-7.0-1.24","5d6fbd3f9ba41b0018d20082","D2","batch4","","3288.4000000003725","stim/no_36_2_w.png","j","pattern_response","true","j","pattern_18","3288.4000000003725","true","55","","","","","","","","","","","","","","","","","","",""
"","","","","","html-keyboard-response","150","349082","0.0-2.0-7.0-0.25","5d6fbd3f9ba41b0018d20082","D2","batch4","","null","<p class=block-text>Trial 65 out of 78</p>","null","pattern_show_trial_num","","","","","","","","","","","","","","","","","","","","","","","","",""
"","","","","","image-keyboard-response","151","353230","0.0-2.0-7.0-1.25","5d6fbd3f9ba41b0018d20082","D2","batch4","","4144.700000000186","stim/no_52_1.png","j","pattern_response","true","j","pattern_32","4144.700000000186","true","56","","","","","","","","","","","","","","","","","","",""
"","","","","","html-keyboard-response","152","354553","0.0-2.0-7.0-0.26","5d6fbd3f9ba41b0018d20082","D2","batch4","","null","<p class=block-text>Trial 66 out of 78</p>","null","pattern_show_trial_num","","","","","","","","","","","","","","","","","","","","","","","","",""
"","","","","","image-keyboard-response","153","357282","0.0-2.0-7.0-1.26","5d6fbd3f9ba41b0018d20082","D2","batch4","","2727.300000000745","stim/no_32_1_w.png","j","pattern_response","true","j","pattern_14","2727.300000000745","true","57","","","","","","","","","","","","","","","","","","",""
"","","","","","html-keyboard-response","154","358610","0.0-2.0-7.0-0.27","5d6fbd3f9ba41b0018d20082","D2","batch4","","null","<p class=block-text>Trial 67 out of 78</p>","null","pattern_show_trial_num","","","","","","","","","","","","","","","","","","","","","","","","",""
"","","","","","image-keyboard-response","155","359860","0.0-2.0-7.0-1.27","5d6fbd3f9ba41b0018d20082","D2","batch4","","1247.0999999996275","stim/yes_22_ver_w1.png","f","pattern_response","true","f","pattern_47","1247.0999999996275","true","58","","","","","","","","","","","","","","","","","","",""
"","","","","","html-keyboard-response","156","361172","0.0-2.0-7.0-0.28","5d6fbd3f9ba41b0018d20082","D2","batch4","","null","<p class=block-text>Trial 68 out of 78</p>","null","pattern_show_trial_num","","","","","","","","","","","","","","","","","","","","","","","","",""
"","","","","","image-keyboard-response","157","363250","0.0-2.0-7.0-1.28","5d6fbd3f9ba41b0018d20082","D2","batch4","","2075.5","stim/yes_35_dia_b1.png","f","pattern_response","true","f","pattern_57","2075.5","true","59","","","","","","","","","","","","","","","","","","",""
"","","","","","html-keyboard-response","158","364571","0.0-2.0-7.0-0.29","5d6fbd3f9ba41b0018d20082","D2","batch4","","null","<p class=block-text>Trial 69 out of 78</p>","null","pattern_show_trial_num","","","","","","","","","","","","","","","","","","","","","","","","",""
"","","","","","image-keyboard-response","159","367522","0.0-2.0-7.0-1.29","5d6fbd3f9ba41b0018d20082","D2","batch4","","2949.2000000001863","stim/no_48_1_w.png","j","pattern_response","true","j","pattern_28","2949.2000000001863","true","60","","","","","","","","","","","","","","","","","","",""
"","","","","","html-keyboard-response","160","368838","0.0-2.0-7.0-0.30","5d6fbd3f9ba41b0018d20082","D2","batch4","","null","<p class=block-text>Trial 70 out of 78</p>","null","pattern_show_trial_num","","","","","","","","","","","","","","","","","","","","","","","","",""
"","","","","","image-keyboard-response","161","370599","0.0-2.0-7.0-1.30","5d6fbd3f9ba41b0018d20082","D2","batch4","","1759.2999999998137","stim/no_23_1.png","j","pattern_response","true","j","pattern_08","1759.2999999998137","true","61","","","","","","","","","","","","","","","","","","",""
"","","","","","html-keyboard-response","162","371919","0.0-2.0-7.0-0.31","5d6fbd3f9ba41b0018d20082","D2","batch4","","null","<p class=block-text>Trial 71 out of 78</p>","null","pattern_show_trial_num","","","","","","","","","","","","","","","","","","","","","","","","",""
"","","","","","image-keyboard-response","163","375938","0.0-2.0-7.0-1.31","5d6fbd3f9ba41b0018d20082","D2","batch4","","4015.4000000003725","stim/no_55_1_w.png","j","pattern_response","true","j","pattern_34","4015.4000000003725","true","62","","","","","","","","","","","","","","","","","","",""
"","","","","","html-keyboard-response","164","377258","0.0-2.0-7.0-0.32","5d6fbd3f9ba41b0018d20082","D2","batch4","","null","<p class=block-text>Trial 72 out of 78</p>","null","pattern_show_trial_num","","","","","","","","","","","","","","","","","","","","","","","","",""
"","","","","","image-keyboard-response","165","379240","0.0-2.0-7.0-1.32","5d6fbd3f9ba41b0018d20082","D2","batch4","","1978.2000000001863","stim/yes_31_hor_b1.png","f","pattern_response","true","f","pattern_55","1978.2000000001863","true","63","","","","","","","","","","","","","","","","","","",""
"","","","","","html-keyboard-response","166","380566","0.0-2.0-7.0-0.33","5d6fbd3f9ba41b0018d20082","D2","batch4","","null","<p class=block-text>Trial 73 out of 78</p>","null","pattern_show_trial_num","","","","","","","","","","","","","","","","","","","","","","","","",""
"","","","","","image-keyboard-response","167","382086","0.0-2.0-7.0-1.33","5d6fbd3f9ba41b0018d20082","D2","batch4","","1516.1000000005588","stim/yes_43_ver_w1_w.png","f","pattern_response","true","f","pattern_65","1516.1000000005588","true","64","","","","","","","","","","","","","","","","","","",""
"","","","","","html-keyboard-response","168","383396","0.0-2.0-7.0-0.34","5d6fbd3f9ba41b0018d20082","D2","batch4","","null","<p class=block-text>Trial 74 out of 78</p>","null","pattern_show_trial_num","","","","","","","","","","","","","","","","","","","","","","","","",""
"","","","","","image-keyboard-response","169","385099","0.0-2.0-7.0-1.34","5d6fbd3f9ba41b0018d20082","D2","batch4","","1699.2999999998137","stim/no_17_1_w.png","j","pattern_response","true","j","pattern_04","1699.2999999998137","true","65","","","","","","","","","","","","","","","","","","",""
"","","","","","html-keyboard-response","170","386417","0.0-2.0-7.0-0.35","5d6fbd3f9ba41b0018d20082","D2","batch4","","null","<p class=block-text>Trial 75 out of 78</p>","null","pattern_show_trial_num","","","","","","","","","","","","","","","","","","","","","","","","",""
"","","","","","image-keyboard-response","171","388826","0.0-2.0-7.0-1.35","5d6fbd3f9ba41b0018d20082","D2","batch4","","2406.0999999996275","stim/yes_60_ver_b1_b.png","f","pattern_response","true","f","pattern_77","2406.0999999996275","true","66","","","","","","","","","","","","","","","","","","",""
"","","","","","html-keyboard-response","172","390151","0.0-2.0-7.0-0.36","5d6fbd3f9ba41b0018d20082","D2","batch4","","null","<p class=block-text>Trial 76 out of 78</p>","null","pattern_show_trial_num","","","","","","","","","","","","","","","","","","","","","","","","",""
"","","","","","image-keyboard-response","173","393351","0.0-2.0-7.0-1.36","5d6fbd3f9ba41b0018d20082","D2","batch4","","3196.7999999998137","stim/no_34_1_b.png","j","pattern_response","true","j","pattern_16","3196.7999999998137","true","67","","","","","","","","","","","","","","","","","","",""
"","","","","","html-keyboard-response","174","394666","0.0-2.0-7.0-0.37","5d6fbd3f9ba41b0018d20082","D2","batch4","","null","<p class=block-text>Trial 77 out of 78</p>","null","pattern_show_trial_num","","","","","","","","","","","","","","","","","","","","","","","","",""
"","","","","","image-keyboard-response","175","398081","0.0-2.0-7.0-1.37","5d6fbd3f9ba41b0018d20082","D2","batch4","","3412.5","stim/no_38_1_b.png","j","pattern_response","true","j","pattern_20","3412.5","true","68","","","","","","","","","","","","","","","","","","",""
"","","","","","html-keyboard-response","176","399398","0.0-2.0-7.0-0.38","5d6fbd3f9ba41b0018d20082","D2","batch4","","null","<p class=block-text>Trial 78 out of 78</p>","null","pattern_show_trial_num","","","","","","","","","","","","","","","","","","","","","","","","",""
"","","","","","image-keyboard-response","177","400344","0.0-2.0-7.0-1.38","5d6fbd3f9ba41b0018d20082","D2","batch4","","942.7999999998137","stim/yes_67_hor_b1.png","f","pattern_response","true","f","pattern_79","942.7999999998137","true","69","","","","","","","","","","","","","","","","","","",""
"","","","","","html-button-response","178","405339","0.0-2.0-8.0","5d6fbd3f9ba41b0018d20082","D2","batch4","","4486.200000000186","<p class = block-text>This concludes the 4-in-a-row detection game.Thank you for your responses!<br>
            You responded correctly on 88% of the trials.<br>
            When you are ready, press ""Continue"" button to continue </p>","0","","","","","","","","","","","","","","","","","","","","","","","","","",""
"true","","","","","fullscreen","179","436482","0.0-3.0-0.0","5d6fbd3f9ba41b0018d20082","D2","batch4","","","","","","","","","","","","","","","","","","","","","","","","","","","","","",""
"","","","","","instructions","180","490403","0.0-3.0-1.0-0.0-0.0","5d6fbd3f9ba41b0018d20082","D2","batch4","[{""page_index"":0,""viewing_time"":6156.200000000186},{""page_index"":1,""viewing_time"":4151.9000000003725},{""page_index"":2,""viewing_time"":3491.5999999996275},{""page_index"":3,""viewing_time"":5260.799999999814},{""page_index"":4,""viewing_time"":6820.5},{""page_index"":5,""viewing_time"":5044.4000000003725},{""page_index"":6,""viewing_time"":22994.700000000186}]","53920.300000000745","","","tol-instructions","","","","","","","","","","","","","","","","","","","","","","","","",""
"","","","","","html-button-response","181","491833","0.0-3.0-1.0-1.0-0.0","5d6fbd3f9ba41b0018d20082","D2","batch4","","1429.199999999255","<p class=block-text> Let's answer a few questions <br>","0","tol_enter_quiz","","","","","","","","","","","","","","","","","","","","","","","","",""
"","","","","","html-button-response","182","495061","0.0-3.0-1.0-1.0-1.0","5d6fbd3f9ba41b0018d20082","D2","batch4","","3227.2999999998137","<p class = block-text>True or False: You can only move the ball on top of a peg. <br></p>","0","tol_quiz","true","","","","","","","","","","","","","","","","","","","","","","","",""
"","","","","","html-button-response","183","496025","0.0-3.0-1.0-1.0-2.0","5d6fbd3f9ba41b0018d20082","D2","batch4","","962.7000000001863","<p class = block-text>Correct! You can only move the ball on top of a peg.</p>","0","tol_quiz_feedback","","","","","","","","","","","","","","","","","","","","","","","","",""
"","","","","","html-button-response","184","498217","0.0-3.0-1.0-1.0-3.0","5d6fbd3f9ba41b0018d20082","D2","batch4","","2191.7000000001863","<p class = block-text>True or False: You should try to match your board with the target board with fewest moves possible. <br></p>","0","tol_quiz","true","","","","","","","","","","","","","","","","","","","","","","","",""
"","","","","","html-button-response","185","498823","0.0-3.0-1.0-1.0-4.0","5d6fbd3f9ba41b0018d20082","D2","batch4","","605.1999999992549","<p class = block-text>Correct! </p>","0","tol_quiz_feedback","","","","","","","","","","","","","","","","","","","","","","","","",""
"","","","","","html-button-response","186","499725","0.0-3.0-2.0","5d6fbd3f9ba41b0018d20082","D2","batch4","","901","<p class=block-text> Now that you've understood the game, let's practice a few easier examples before we start!<br> <br>","0","","","","","","","","","","","","","","","","","","","","","","","","","",""
"","","","","","single-stim-button","187","502370","0.0-3.0-3.0-0.0","5d6fbd3f9ba41b0018d20082","D2","batch4","","2642","","","tol_practice","","","","","","","","","tol_peg_2","2642","2642","0","[[1,2,0],[0,0],[0]]","1","[[1,2,0],[0,0],[3]]","practice","2642","","","","","","","",""
"","","","","","single-stim-button","188","503511","0.0-3.0-3.0-1.0","5d6fbd3f9ba41b0018d20082","D2","batch4","","1140","","","tol_practice","","","","","","","","","tol_peg_3","1140","1140","0","[[1,2,0],[0,0],[3]]","1","[[1,2,0],[0,0],[3]]","practice","1140","","","","","","","",""
"","","","","","poldrack-single-stim","189","504520","0.0-3.0-4.0","5d6fbd3f9ba41b0018d20082","D2","batch4","","-1","","","tol_feedback","true","","","","","","","","","1000","1000","500","","","","","","-1","none","true","","0","","",""
"","","","","","single-stim-button","190","508331","0.0-3.0-5.0-0.0","5d6fbd3f9ba41b0018d20082","D2","batch4","","3809","","","tol_practice","","","","","","","","","tol_peg_1","3809","3809","0","[[1,0,0],[3,0],[0]]","2","[[0,0,0],[3,1],[2]]","practice","3809","","","","","","","",""
"","","","","","single-stim-button","191","509193","0.0-3.0-5.0-1.0","5d6fbd3f9ba41b0018d20082","D2","batch4","","861","","","tol_practice","","","","","","","","","tol_peg_3","861","861","0","[[1,0,0],[3,0],[2]]","2","[[0,0,0],[3,1],[2]]","practice","861","","","","","","","",""
"","","","","","single-stim-button","192","509941","0.0-3.0-5.1-0.1","5d6fbd3f9ba41b0018d20082","D2","batch4","","747","","","tol_practice","","","","","","","","","tol_peg_1","747","747","0","[[0,0,0],[3,0],[2]]","3","[[0,0,0],[3,1],[2]]","practice","747","","","","","","","",""
"","","","","","single-stim-button","193","510943","0.0-3.0-5.1-1.1","5d6fbd3f9ba41b0018d20082","D2","batch4","","1002","","","tol_practice","","","","","","","","","tol_peg_2","1002","1002","0","[[0,0,0],[3,1],[2]]","3","[[0,0,0],[3,1],[2]]","practice","1002","","","","","","","",""
"","","","","","poldrack-single-stim","194","511947","0.0-3.0-6.0","5d6fbd3f9ba41b0018d20082","D2","batch4","","-1","","","tol_feedback","true","","","","","","","","","1000","1000","500","","","","","","-1","none","true","","0","","",""
"","","","","","single-stim-button","195","515397","0.0-3.0-7.0-0.0","5d6fbd3f9ba41b0018d20082","D2","batch4","","3450","","","tol_practice","","","","","","","","","tol_peg_2","3450","3450","0","[[1,2,0],[0,0],[0]]","4","[[1,0,0],[2,0],[3]]","practice","3450","","","","","","","",""
"","","","","","single-stim-button","196","517155","0.0-3.0-7.0-1.0","5d6fbd3f9ba41b0018d20082","D2","batch4","","1758","","","tol_practice","","","","","","","","","tol_peg_3","1758","1758","0","[[1,2,0],[0,0],[3]]","4","[[1,0,0],[2,0],[3]]","practice","1758","","","","","","","",""
"","","","","","single-stim-button","197","517954","0.0-3.0-7.1-0.1","5d6fbd3f9ba41b0018d20082","D2","batch4","","798","","","tol_practice","","","","","","","","","tol_peg_1","798","798","0","[[1,0,0],[0,0],[3]]","5","[[1,0,0],[2,0],[3]]","practice","798","","","","","","","",""
"","","","","","single-stim-button","198","518843","0.0-3.0-7.1-1.1","5d6fbd3f9ba41b0018d20082","D2","batch4","","888","","","tol_practice","","","","","","","","","tol_peg_2","888","888","0","[[1,0,0],[2,0],[3]]","5","[[1,0,0],[2,0],[3]]","practice","888","","","","","","","",""
"","","","","","poldrack-single-stim","199","519845","0.0-3.0-8.0","5d6fbd3f9ba41b0018d20082","D2","batch4","","-1","","","tol_feedback","true","","","","","","","","","1000","1000","500","","","","","","-1","none","true","","0","","",""
"","","","","","html-button-response","200","521867","0.0-3.0-9.0","5d6fbd3f9ba41b0018d20082","D2","batch4","","2021.7000000001863","<div class = centerbox><p class = center-block-text>Great job! You are done with practice trials<br>You are about to start official trials.<br> <br> Problem <strong>1</strong> out of 25 problems</p></div>","0","tol_instruction","","","","","","","","","","","","","","","","","","","","","","","","",""
"","","","","","single-stim-button","201","526033","0.0-3.0-10.0-0.0","5d6fbd3f9ba41b0018d20082","D2","batch4","","3162","","","tol_tohand","","","","","","","","","tol_peg_1","3162","3162","0","[[1,0,0],[3,0],[0]]","1","[[1,3,0],[2,0],[0]]","0","0","","","","","","3","",""
"","","","","","single-stim-button","202","531593","0.0-3.0-10.0-1.0","5d6fbd3f9ba41b0018d20082","D2","batch4","","5558","","","tol_toboard","","","","","","","","","tol_peg_3","5558","5558","0","[[1,0,0],[3,0],[2]]","1","[[1,3,0],[2,0],[0]]","0","0","","","","","","3","",""
"","","","","","single-stim-button","203","532721","0.0-3.0-10.1-0.1","5d6fbd3f9ba41b0018d20082","D2","batch4","","1126","","","tol_tohand","","","","","","","","","tol_peg_2","1126","1126","0","[[1,0,0],[0,0],[2]]","2","[[1,3,0],[2,0],[0]]","0","0","","","","","","3","",""
"","","","","","single-stim-button","204","533707","0.0-3.0-10.1-1.1","5d6fbd3f9ba41b0018d20082","D2","batch4","","986","","","tol_toboard","","","","","","","","","tol_peg_1","986","986","0","[[1,3,0],[0,0],[2]]","2","[[1,3,0],[2,0],[0]]","0","0","","","","","","3","",""
"","","","","","single-stim-button","205","534617","0.0-3.0-10.2-0.2","5d6fbd3f9ba41b0018d20082","D2","batch4","","910","","","tol_tohand","","","","","","","","","tol_peg_3","910","910","0","[[1,3,0],[0,0],[0]]","3","[[1,3,0],[2,0],[0]]","0","0","","","","","","3","",""
"","","","","","single-stim-button","206","535573","0.0-3.0-10.2-1.2","5d6fbd3f9ba41b0018d20082","D2","batch4","","955","","","tol_toboard","","","","","","","","","tol_peg_2","955","955","0","[[1,3,0],[2,0],[0]]","3","[[1,3,0],[2,0],[0]]","0","0","","","","","","3","",""
"","","","","","poldrack-single-stim","207","536584","0.0-3.0-11.0","5d6fbd3f9ba41b0018d20082","D2","batch4","","-1","","","tol_feedback","true","","","","","","","","","1000","1000","500","","","","","","-1","none","true","3162","5198","","",""
"","","","","","html-button-response","208","537705","0.0-3.0-12.0","5d6fbd3f9ba41b0018d20082","D2","batch4","","1119.6000000005588","<div class = centerbox><p class = center-block-text>problem <strong>2</strong> out of 25 problems</p></div>","0","tol_trial_num","","","","","","","","","","","","","","","","","","","","","","","","",""
"","","","","","single-stim-button","209","541397","0.0-3.0-13.0-0.0","5d6fbd3f9ba41b0018d20082","D2","batch4","","3691","","","tol_tohand","","","","","","","","","tol_peg_1","3691","3691","0","[[1,0,0],[3,0],[0]]","1","[[2,1,3],[0,0],[0]]","1","0","","","","","","5","",""
"","","","","","single-stim-button","210","543489","0.0-3.0-13.0-1.0","5d6fbd3f9ba41b0018d20082","D2","batch4","","2092","","","tol_toboard","","","","","","","","","tol_peg_3","2092","2092","0","[[1,0,0],[3,0],[2]]","1","[[2,1,3],[0,0],[0]]","1","0","","","","","","5","",""
"","","","","","single-stim-button","211","546801","0.0-3.0-13.1-0.1","5d6fbd3f9ba41b0018d20082","D2","batch4","","3311","","","tol_tohand","","","","","","","","","tol_peg_1","3311","3311","0","[[0,0,0],[3,0],[2]]","2","[[2,1,3],[0,0],[0]]","1","0","","","","","","5","",""
"","","","","","single-stim-button","212","549804","0.0-3.0-13.1-1.1","5d6fbd3f9ba41b0018d20082","D2","batch4","","3001","","","tol_toboard","","","","","","","","","tol_peg_2","3001","3001","0","[[0,0,0],[3,1],[2]]","2","[[2,1,3],[0,0],[0]]","1","0","","","","","","5","",""
"","","","","","single-stim-button","213","550363","0.0-3.0-13.2-0.2","5d6fbd3f9ba41b0018d20082","D2","batch4","","559","","","tol_tohand","","","","","","","","","tol_peg_3","559","559","0","[[0,0,0],[3,1],[0]]","3","[[2,1,3],[0,0],[0]]","1","0","","","","","","5","",""
"","","","","","single-stim-button","214","551015","0.0-3.0-13.2-1.2","5d6fbd3f9ba41b0018d20082","D2","batch4","","652","","","tol_toboard","","","","","","","","","tol_peg_1","652","652","0","[[2,0,0],[3,1],[0]]","3","[[2,1,3],[0,0],[0]]","1","0","","","","","","5","",""
"","","","","","single-stim-button","215","551831","0.0-3.0-13.3-0.3","5d6fbd3f9ba41b0018d20082","D2","batch4","","816","","","tol_tohand","","","","","","","","","tol_peg_2","816","816","0","[[2,0,0],[3,0],[0]]","4","[[2,1,3],[0,0],[0]]","1","0","","","","","","5","",""
"","","","","","single-stim-button","216","552655","0.0-3.0-13.3-1.3","5d6fbd3f9ba41b0018d20082","D2","batch4","","824","","","tol_toboard","","","","","","","","","tol_peg_1","824","824","0","[[2,1,0],[3,0],[0]]","4","[[2,1,3],[0,0],[0]]","1","0","","","","","","5","",""
"","","","","","single-stim-button","217","553317","0.0-3.0-13.4-0.4","5d6fbd3f9ba41b0018d20082","D2","batch4","","661","","","tol_tohand","","","","","","","","","tol_peg_2","661","661","0","[[2,1,0],[0,0],[0]]","5","[[2,1,3],[0,0],[0]]","1","0","","","","","","5","",""
"","","","","","single-stim-button","218","554023","0.0-3.0-13.4-1.4","5d6fbd3f9ba41b0018d20082","D2","batch4","","706","","","tol_toboard","","","","","","","","","tol_peg_1","706","706","0","[[2,1,3],[0,0],[0]]","5","[[2,1,3],[0,0],[0]]","1","0","","","","","","5","",""
"","","","","","poldrack-single-stim","219","555025","0.0-3.0-14.0","5d6fbd3f9ba41b0018d20082","D2","batch4","","-1","","","tol_feedback","true","","","","","","","","","1000","1000","500","","","","","","-1","none","true","3691","9038","","",""
"","","","","","html-button-response","220","555813","0.0-3.0-15.0","5d6fbd3f9ba41b0018d20082","D2","batch4","","787.2999999998137","<div class = centerbox><p class = center-block-text>problem <strong>3</strong> out of 25 problems</p></div>","0","tol_trial_num","","","","","","","","","","","","","","","","","","","","","","","","",""
"","","","","","single-stim-button","221","560214","0.0-3.0-16.0-0.0","5d6fbd3f9ba41b0018d20082","D2","batch4","","4401","","","tol_tohand","","","","","","","","","tol_peg_1","4401","4401","0","[[2,0,0],[0,0],[1]]","1","[[1,2,0],[3,0],[0]]","2","0","","","","","","4","",""
"","","","","","single-stim-button","222","562171","0.0-3.0-16.0-1.0","5d6fbd3f9ba41b0018d20082","D2","batch4","","1956","","","tol_toboard","","","","","","","","","tol_peg_2","1956","1956","0","[[2,0,0],[3,0],[1]]","1","[[1,2,0],[3,0],[0]]","2","0","","","","","","4","",""
"","","","","","single-stim-button","223","563369","0.0-3.0-16.1-0.1","5d6fbd3f9ba41b0018d20082","D2","batch4","","1197","","","tol_tohand","","","","","","","","","tol_peg_3","1197","1197","0","[[2,0,0],[3,0],[0]]","2","[[1,2,0],[3,0],[0]]","2","0","","","","","","4","",""
"","","","","","single-stim-button","224","564381","0.0-3.0-16.1-1.1","5d6fbd3f9ba41b0018d20082","D2","batch4","","1012","","","tol_toboard","","","","","","","","","tol_peg_2","1012","1012","0","[[2,0,0],[3,1],[0]]","2","[[1,2,0],[3,0],[0]]","2","0","","","","","","4","",""
"","","","","","single-stim-button","225","565811","0.0-3.0-16.2-0.2","5d6fbd3f9ba41b0018d20082","D2","batch4","","1429","","","tol_tohand","","","","","","","","","tol_peg_1","1429","1429","0","[[0,0,0],[3,1],[0]]","3","[[1,2,0],[3,0],[0]]","2","0","","","","","","4","",""
"","","","","","single-stim-button","226","567015","0.0-3.0-16.2-1.2","5d6fbd3f9ba41b0018d20082","D2","batch4","","1204","","","tol_toboard","","","","","","","","","tol_peg_3","1204","1204","0","[[0,0,0],[3,1],[2]]","3","[[1,2,0],[3,0],[0]]","2","0","","","","","","4","",""
"","","","","","single-stim-button","227","567925","0.0-3.0-16.3-0.3","5d6fbd3f9ba41b0018d20082","D2","batch4","","909","","","tol_tohand","","","","","","","","","tol_peg_2","909","909","0","[[0,0,0],[3,0],[2]]","4","[[1,2,0],[3,0],[0]]","2","0","","","","","","4","",""
"","","","","","single-stim-button","228","569185","0.0-3.0-16.3-1.3","5d6fbd3f9ba41b0018d20082","D2","batch4","","1260","","","tol_toboard","","","","","","","","","tol_peg_1","1260","1260","0","[[1,0,0],[3,0],[2]]","4","[[1,2,0],[3,0],[0]]","2","0","","","","","","4","",""
"","","","","","single-stim-button","229","569877","0.0-3.0-16.4-0.4","5d6fbd3f9ba41b0018d20082","D2","batch4","","691","","","tol_tohand","","","","","","","","","tol_peg_3","691","691","0","[[1,0,0],[3,0],[0]]","5","[[1,2,0],[3,0],[0]]","2","0","","","","","","4","",""
"","","","","","single-stim-button","230","570717","0.0-3.0-16.4-1.4","5d6fbd3f9ba41b0018d20082","D2","batch4","","840","","","tol_toboard","","","","","","","","","tol_peg_1","840","840","0","[[1,2,0],[3,0],[0]]","5","[[1,2,0],[3,0],[0]]","2","0","","","","","","4","",""
"","","","","","poldrack-single-stim","231","571719","0.0-3.0-17.0","5d6fbd3f9ba41b0018d20082","D2","batch4","","-1","","","tol_feedback","true","","","","","","","","","1000","1000","500","","","","","","-1","none","true","4401","8627","","",""
"","","","","","html-button-response","232","572481","0.0-3.0-18.0","5d6fbd3f9ba41b0018d20082","D2","batch4","","761.4000000003725","<div class = centerbox><p class = center-block-text>problem <strong>4</strong> out of 25 problems</p></div>","0","tol_trial_num","","","","","","","","","","","","","","","","","","","","","","","","",""
"","","","","","single-stim-button","233","577308","0.0-3.0-19.0-0.0","5d6fbd3f9ba41b0018d20082","D2","batch4","","4826","","","tol_tohand","","","","","","","","","tol_peg_2","4826","4826","0","[[3,0,0],[2,0],[0]]","1","[[3,0,0],[1,0],[2]]","3","0","","","","","","3","",""
"","","","","","single-stim-button","234","578833","0.0-3.0-19.0-1.0","5d6fbd3f9ba41b0018d20082","D2","batch4","","1524","","","tol_toboard","","","","","","","","","tol_peg_1","1524","1524","0","[[3,1,0],[2,0],[0]]","1","[[3,0,0],[1,0],[2]]","3","0","","","","","","3","",""
"","","","","","single-stim-button","235","579611","0.0-3.0-19.1-0.1","5d6fbd3f9ba41b0018d20082","D2","batch4","","778","","","tol_tohand","","","","","","","","","tol_peg_2","778","778","0","[[3,1,0],[0,0],[0]]","2","[[3,0,0],[1,0],[2]]","3","0","","","","","","3","",""
"","","","","","single-stim-button","236","580763","0.0-3.0-19.1-1.1","5d6fbd3f9ba41b0018d20082","D2","batch4","","1151","","","tol_toboard","","","","","","","","","tol_peg_3","1151","1151","0","[[3,1,0],[0,0],[2]]","2","[[3,0,0],[1,0],[2]]","3","0","","","","","","3","",""
"","","","","","single-stim-button","237","581601","0.0-3.0-19.2-0.2","5d6fbd3f9ba41b0018d20082","D2","batch4","","838","","","tol_tohand","","","","","","","","","tol_peg_1","838","838","0","[[3,0,0],[0,0],[2]]","3","[[3,0,0],[1,0],[2]]","3","0","","","","","","3","",""
"","","","","","single-stim-button","238","582403","0.0-3.0-19.2-1.2","5d6fbd3f9ba41b0018d20082","D2","batch4","","802","","","tol_toboard","","","","","","","","","tol_peg_2","802","802","0","[[3,0,0],[1,0],[2]]","3","[[3,0,0],[1,0],[2]]","3","0","","","","","","3","",""
"","","","","","poldrack-single-stim","239","583405","0.0-3.0-20.0","5d6fbd3f9ba41b0018d20082","D2","batch4","","-1","","","tol_feedback","true","","","","","","","","","1000","1000","500","","","","","","-1","none","true","4826","6442","","",""
"","","","","","html-button-response","240","584331","0.0-3.0-21.0","5d6fbd3f9ba41b0018d20082","D2","batch4","","925.4000000003725","<div class = centerbox><p class = center-block-text>problem <strong>5</strong> out of 25 problems</p></div>","0","tol_trial_num","","","","","","","","","","","","","","","","","","","","","","","","",""
"","","","","","single-stim-button","241","593777","0.0-3.0-22.0-0.0","5d6fbd3f9ba41b0018d20082","D2","batch4","","9446","","","tol_tohand","","","","","","","","","tol_peg_3","9446","9446","0","[[1,0,0],[2,0],[0]]","1","[[0,0,0],[1,2],[3]]","4","0","","","","","","7","",""
"","","","","","single-stim-button","242","597938","0.0-3.0-22.0-1.0","5d6fbd3f9ba41b0018d20082","D2","batch4","","4161","","","tol_toboard","","","","","","","","","tol_peg_1","4161","4161","0","[[1,3,0],[2,0],[0]]","1","[[0,0,0],[1,2],[3]]","4","0","","","","","","7","",""
"","","","","","single-stim-button","243","598723","0.0-3.0-22.1-0.1","5d6fbd3f9ba41b0018d20082","D2","batch4","","784","","","tol_tohand","","","","","","","","","tol_peg_2","784","784","0","[[1,3,0],[0,0],[0]]","2","[[0,0,0],[1,2],[3]]","4","0","","","","","","7","",""
"","","","","","single-stim-button","244","601265","0.0-3.0-22.1-1.1","5d6fbd3f9ba41b0018d20082","D2","batch4","","2542","","","tol_toboard","","","","","","","","","tol_peg_3","2542","2542","0","[[1,3,0],[0,0],[2]]","2","[[0,0,0],[1,2],[3]]","4","0","","","","","","7","",""
"","","","","","single-stim-button","245","602921","0.0-3.0-22.2-0.2","5d6fbd3f9ba41b0018d20082","D2","batch4","","1656","","","tol_tohand","","","","","","","","","tol_peg_1","1656","1656","0","[[1,0,0],[0,0],[2]]","3","[[0,0,0],[1,2],[3]]","4","0","","","","","","7","",""
"","","","","","single-stim-button","246","604477","0.0-3.0-22.2-1.2","5d6fbd3f9ba41b0018d20082","D2","batch4","","1556","","","tol_toboard","","","","","","","","","tol_peg_2","1556","1556","0","[[1,0,0],[3,0],[2]]","3","[[0,0,0],[1,2],[3]]","4","0","","","","","","7","",""
"","","","","","single-stim-button","247","606600","0.0-3.0-22.3-0.3","5d6fbd3f9ba41b0018d20082","D2","batch4","","2122","","","tol_tohand","","","","","","","","","tol_peg_1","2122","2122","0","[[0,0,0],[3,0],[2]]","4","[[0,0,0],[1,2],[3]]","4","0","","","","","","7","",""
"","","","","","single-stim-button","248","608791","0.0-3.0-22.3-1.3","5d6fbd3f9ba41b0018d20082","D2","batch4","","2190","","","tol_toboard","","","","","","","","","tol_peg_2","2190","2190","0","[[0,0,0],[3,1],[2]]","4","[[0,0,0],[1,2],[3]]","4","0","","","","","","7","",""
"","","","","","single-stim-button","249","609475","0.0-3.0-22.4-0.4","5d6fbd3f9ba41b0018d20082","D2","batch4","","684","","","tol_tohand","","","","","","","","","tol_peg_3","684","684","0","[[0,0,0],[3,1],[0]]","5","[[0,0,0],[1,2],[3]]","4","0","","","","","","7","",""
"","","","","","single-stim-button","250","611823","0.0-3.0-22.4-1.4","5d6fbd3f9ba41b0018d20082","D2","batch4","","2347","","","tol_toboard","","","","","","","","","tol_peg_1","2347","2347","0","[[2,0,0],[3,1],[0]]","5","[[0,0,0],[1,2],[3]]","4","0","","","","","","7","",""
"","","","","","single-stim-button","251","612593","0.0-3.0-22.5-0.5","5d6fbd3f9ba41b0018d20082","D2","batch4","","770","","","tol_tohand","","","","","","","","","tol_peg_2","770","770","0","[[2,0,0],[3,0],[0]]","6","[[0,0,0],[1,2],[3]]","4","0","","","","","","7","",""
"","","","","","single-stim-button","252","615229","0.0-3.0-22.5-1.5","5d6fbd3f9ba41b0018d20082","D2","batch4","","2636","","","tol_toboard","","","","","","","","","tol_peg_1","2636","2636","0","[[2,1,0],[3,0],[0]]","6","[[0,0,0],[1,2],[3]]","4","0","","","","","","7","",""
"","","","","","single-stim-button","253","616692","0.0-3.0-22.6-0.6","5d6fbd3f9ba41b0018d20082","D2","batch4","","1463","","","tol_tohand","","","","","","","","","tol_peg_2","1463","1463","0","[[2,1,0],[0,0],[0]]","7","[[0,0,0],[1,2],[3]]","4","0","","","","","","7","",""
"","","","","","single-stim-button","254","617733","0.0-3.0-22.6-1.6","5d6fbd3f9ba41b0018d20082","D2","batch4","","1040","","","tol_toboard","","","","","","","","","tol_peg_3","1040","1040","0","[[2,1,0],[0,0],[3]]","7","[[0,0,0],[1,2],[3]]","4","0","","","","","","7","",""
"","","","","","single-stim-button","255","618417","0.0-3.0-22.7-0.7","5d6fbd3f9ba41b0018d20082","D2","batch4","","684","","","tol_tohand","","","","","","","","","tol_peg_1","684","684","0","[[2,0,0],[0,0],[3]]","8","[[0,0,0],[1,2],[3]]","4","0","","","","","","7","",""
"","","","","","single-stim-button","256","619141","0.0-3.0-22.7-1.7","5d6fbd3f9ba41b0018d20082","D2","batch4","","724","","","tol_toboard","","","","","","","","","tol_peg_2","724","724","0","[[2,0,0],[1,0],[3]]","8","[[0,0,0],[1,2],[3]]","4","0","","","","","","7","",""
"","","","","","single-stim-button","257","619646","0.0-3.0-22.8-0.8","5d6fbd3f9ba41b0018d20082","D2","batch4","","503","","","tol_tohand","","","","","","","","","tol_peg_1","503","503","0","[[0,0,0],[1,0],[3]]","9","[[0,0,0],[1,2],[3]]","4","0","","","","","","7","",""
"","","","","","single-stim-button","258","620221","0.0-3.0-22.8-1.8","5d6fbd3f9ba41b0018d20082","D2","batch4","","575","","","tol_toboard","","","","","","","","","tol_peg_2","575","575","0","[[0,0,0],[1,2],[3]]","9","[[0,0,0],[1,2],[3]]","4","0","","","","","","7","",""
"","","","","","poldrack-single-stim","259","621237","0.0-3.0-23.0","5d6fbd3f9ba41b0018d20082","D2","batch4","","-1","","","tol_feedback","true","","","","","","","","","1000","1000","500","","","","","","-1","none","true","9446","18112","","",""
"","","","","","html-button-response","260","622523","0.0-3.0-24.0","5d6fbd3f9ba41b0018d20082","D2","batch4","","1284.7999999998137","<div class = centerbox><p class = center-block-text>problem <strong>6</strong> out of 25 problems</p></div>","0","tol_trial_num","","","","","","","","","","","","","","","","","","","","","","","","",""
"","","","","","single-stim-button","261","630430","0.0-3.0-25.0-0.0","5d6fbd3f9ba41b0018d20082","D2","batch4","","7907","","","tol_tohand","","","","","","","","","tol_peg_2","7907","7907","0","[[0,0,0],[1,0],[3]]","1","[[1,0,0],[2,3],[0]]","5","0","","","","","","6","",""
"","","","","","single-stim-button","262","631969","0.0-3.0-25.0-1.0","5d6fbd3f9ba41b0018d20082","D2","batch4","","1538","","","tol_toboard","","","","","","","","","tol_peg_1","1538","1538","0","[[2,0,0],[1,0],[3]]","1","[[1,0,0],[2,3],[0]]","5","0","","","","","","6","",""
"","","","","","single-stim-button","263","635569","0.0-3.0-25.1-0.1","5d6fbd3f9ba41b0018d20082","D2","batch4","","3599","","","tol_tohand","","","","","","","","","tol_peg_3","3599","3599","0","[[2,0,0],[1,0],[0]]","2","[[1,0,0],[2,3],[0]]","5","0","","","","","","6","",""
"","","","","","single-stim-button","264","637381","0.0-3.0-25.1-1.1","5d6fbd3f9ba41b0018d20082","D2","batch4","","1812","","","tol_toboard","","","","","","","","","tol_peg_1","1812","1812","0","[[2,3,0],[1,0],[0]]","2","[[1,0,0],[2,3],[0]]","5","0","","","","","","6","",""
"","","","","","single-stim-button","265","638129","0.0-3.0-25.2-0.2","5d6fbd3f9ba41b0018d20082","D2","batch4","","747","","","tol_tohand","","","","","","","","","tol_peg_2","747","747","0","[[2,3,0],[0,0],[0]]","3","[[1,0,0],[2,3],[0]]","5","0","","","","","","6","",""
"","","","","","single-stim-button","266","639161","0.0-3.0-25.2-1.2","5d6fbd3f9ba41b0018d20082","D2","batch4","","1032","","","tol_toboard","","","","","","","","","tol_peg_3","1032","1032","0","[[2,3,0],[0,0],[1]]","3","[[1,0,0],[2,3],[0]]","5","0","","","","","","6","",""
"","","","","","single-stim-button","267","639884","0.0-3.0-25.3-0.3","5d6fbd3f9ba41b0018d20082","D2","batch4","","723","","","tol_tohand","","","","","","","","","tol_peg_1","723","723","0","[[2,0,0],[0,0],[1]]","4","[[1,0,0],[2,3],[0]]","5","0","","","","","","6","",""
"","","","","","single-stim-button","268","640717","0.0-3.0-25.3-1.3","5d6fbd3f9ba41b0018d20082","D2","batch4","","833","","","tol_toboard","","","","","","","","","tol_peg_2","833","833","0","[[2,0,0],[3,0],[1]]","4","[[1,0,0],[2,3],[0]]","5","0","","","","","","6","",""
"","","","","","single-stim-button","269","641213","0.0-3.0-25.4-0.4","5d6fbd3f9ba41b0018d20082","D2","batch4","","496","","","tol_tohand","","","","","","","","","tol_peg_1","496","496","0","[[0,0,0],[3,0],[1]]","5","[[1,0,0],[2,3],[0]]","5","0","","","","","","6","",""
"","","","","","single-stim-button","270","642069","0.0-3.0-25.4-1.4","5d6fbd3f9ba41b0018d20082","D2","batch4","","856","","","tol_toboard","","","","","","","","","tol_peg_2","856","856","0","[[0,0,0],[3,2],[1]]","5","[[1,0,0],[2,3],[0]]","5","0","","","","","","6","",""
"","","","","","single-stim-button","271","642730","0.0-3.0-25.5-0.5","5d6fbd3f9ba41b0018d20082","D2","batch4","","661","","","tol_tohand","","","","","","","","","tol_peg_3","661","661","0","[[0,0,0],[3,2],[0]]","6","[[1,0,0],[2,3],[0]]","5","0","","","","","","6","",""
"","","","","","single-stim-button","272","643491","0.0-3.0-25.5-1.5","5d6fbd3f9ba41b0018d20082","D2","batch4","","761","","","tol_toboard","","","","","","","","","tol_peg_1","761","761","0","[[1,0,0],[3,2],[0]]","6","[[1,0,0],[2,3],[0]]","5","0","","","","","","6","",""
"","","","","","single-stim-button","273","646330","0.0-3.0-25.6-0.6","5d6fbd3f9ba41b0018d20082","D2","batch4","","2837","","","tol_tohand","","","","","","","","","tol_peg_2","2837","2837","0","[[1,0,0],[3,0],[0]]","7","[[1,0,0],[2,3],[0]]","5","0","","","","","","6","",""
"","","","","","single-stim-button","274","647955","0.0-3.0-25.6-1.6","5d6fbd3f9ba41b0018d20082","D2","batch4","","1625","","","tol_toboard","","","","","","","","","tol_peg_1","1625","1625","0","[[1,2,0],[3,0],[0]]","7","[[1,0,0],[2,3],[0]]","5","0","","","","","","6","",""
"","","","","","single-stim-button","275","648795","0.0-3.0-25.7-0.7","5d6fbd3f9ba41b0018d20082","D2","batch4","","838","","","tol_tohand","","","","","","","","","tol_peg_2","838","838","0","[[1,2,0],[0,0],[0]]","8","[[1,0,0],[2,3],[0]]","5","0","","","","","","6","",""
"","","","","","single-stim-button","276","650015","0.0-3.0-25.7-1.7","5d6fbd3f9ba41b0018d20082","D2","batch4","","1220","","","tol_toboard","","","","","","","","","tol_peg_3","1220","1220","0","[[1,2,0],[0,0],[3]]","8","[[1,0,0],[2,3],[0]]","5","0","","","","","","6","",""
"","","","","","single-stim-button","277","650745","0.0-3.0-25.8-0.8","5d6fbd3f9ba41b0018d20082","D2","batch4","","730","","","tol_tohand","","","","","","","","","tol_peg_1","730","730","0","[[1,0,0],[0,0],[3]]","9","[[1,0,0],[2,3],[0]]","5","0","","","","","","6","",""
"","","","","","single-stim-button","278","651507","0.0-3.0-25.8-1.8","5d6fbd3f9ba41b0018d20082","D2","batch4","","762","","","tol_toboard","","","","","","","","","tol_peg_2","762","762","0","[[1,0,0],[2,0],[3]]","9","[[1,0,0],[2,3],[0]]","5","0","","","","","","6","",""
"","","","","","single-stim-button","279","653263","0.0-3.0-25.9-0.9","5d6fbd3f9ba41b0018d20082","D2","batch4","","1755","","","tol_tohand","","","","","","","","","tol_peg_3","1755","1755","0","[[1,0,0],[2,0],[0]]","10","[[1,0,0],[2,3],[0]]","5","0","","","","","","6","",""
"","","","","","single-stim-button","280","653995","0.0-3.0-25.9-1.9","5d6fbd3f9ba41b0018d20082","D2","batch4","","731","","","tol_toboard","","","","","","","","","tol_peg_2","731","731","0","[[1,0,0],[2,3],[0]]","10","[[1,0,0],[2,3],[0]]","5","0","","","","","","6","",""
"","","","","","poldrack-single-stim","281","655012","0.0-3.0-26.0","5d6fbd3f9ba41b0018d20082","D2","batch4","","-1","","","tol_feedback","true","","","","","","","","","1000","1000","500","","","","","","-1","none","true","7907","20293","","",""
"","","","","","html-button-response","282","656125","0.0-3.0-27.0","5d6fbd3f9ba41b0018d20082","D2","batch4","","1109.9000000003725","<div class = centerbox><p class = center-block-text>problem <strong>7</strong> out of 25 problems</p></div>","0","tol_trial_num","","","","","","","","","","","","","","","","","","","","","","","","",""
"","","","","","single-stim-button","283","662841","0.0-3.0-28.0-0.0","5d6fbd3f9ba41b0018d20082","D2","batch4","","6716","","","tol_tohand","","","","","","","","","tol_peg_3","6716","6716","0","[[2,1,0],[0,0],[0]]","1","[[1,2,0],[3,0],[0]]","6","0","","","","","","5","",""
"","","","","","single-stim-button","284","663730","0.0-3.0-28.0-1.0","5d6fbd3f9ba41b0018d20082","D2","batch4","","888","","","tol_toboard","","","","","","","","","tol_peg_2","888","888","0","[[2,1,0],[3,0],[0]]","1","[[1,2,0],[3,0],[0]]","6","0","","","","","","5","",""
"","","","","","single-stim-button","285","664942","0.0-3.0-28.1-0.1","5d6fbd3f9ba41b0018d20082","D2","batch4","","1210","","","tol_tohand","","","","","","","","","tol_peg_1","1210","1210","0","[[2,0,0],[3,0],[0]]","2","[[1,2,0],[3,0],[0]]","6","0","","","","","","5","",""
"","","","","","single-stim-button","286","666239","0.0-3.0-28.1-1.1","5d6fbd3f9ba41b0018d20082","D2","batch4","","1297","","","tol_toboard","","","","","","","","","tol_peg_2","1297","1297","0","[[2,0,0],[3,1],[0]]","2","[[1,2,0],[3,0],[0]]","6","0","","","","","","5","",""
"","","","","","single-stim-button","287","666862","0.0-3.0-28.2-0.2","5d6fbd3f9ba41b0018d20082","D2","batch4","","621","","","tol_tohand","","","","","","","","","tol_peg_1","621","621","0","[[0,0,0],[3,1],[0]]","3","[[1,2,0],[3,0],[0]]","6","0","","","","","","5","",""
"","","","","","single-stim-button","288","668954","0.0-3.0-28.2-1.2","5d6fbd3f9ba41b0018d20082","D2","batch4","","2092","","","tol_toboard","","","","","","","","","tol_peg_3","2092","2092","0","[[0,0,0],[3,1],[2]]","3","[[1,2,0],[3,0],[0]]","6","0","","","","","","5","",""
"","","","","","single-stim-button","289","670003","0.0-3.0-28.3-0.3","5d6fbd3f9ba41b0018d20082","D2","batch4","","1049","","","tol_tohand","","","","","","","","","tol_peg_2","1049","1049","0","[[0,0,0],[3,0],[2]]","4","[[1,2,0],[3,0],[0]]","6","0","","","","","","5","",""
"","","","","","single-stim-button","290","670687","0.0-3.0-28.3-1.3","5d6fbd3f9ba41b0018d20082","D2","batch4","","684","","","tol_toboard","","","","","","","","","tol_peg_1","684","684","0","[[1,0,0],[3,0],[2]]","4","[[1,2,0],[3,0],[0]]","6","0","","","","","","5","",""
"","","","","","single-stim-button","291","671543","0.0-3.0-28.4-0.4","5d6fbd3f9ba41b0018d20082","D2","batch4","","856","","","tol_tohand","","","","","","","","","tol_peg_3","856","856","0","[[1,0,0],[3,0],[0]]","5","[[1,2,0],[3,0],[0]]","6","0","","","","","","5","",""
"","","","","","single-stim-button","292","672508","0.0-3.0-28.4-1.4","5d6fbd3f9ba41b0018d20082","D2","batch4","","963","","","tol_toboard","","","","","","","","","tol_peg_1","963","963","0","[[1,2,0],[3,0],[0]]","5","[[1,2,0],[3,0],[0]]","6","0","","","","","","5","",""
"","","","","","poldrack-single-stim","293","673515","0.0-3.0-29.0","5d6fbd3f9ba41b0018d20082","D2","batch4","","-1","","","tol_feedback","true","","","","","","","","","1000","1000","500","","","","","","-1","none","true","6716","10452","","",""
"","","","","","html-button-response","294","674279","0.0-3.0-30.0","5d6fbd3f9ba41b0018d20082","D2","batch4","","762.5999999996275","<div class = centerbox><p class = center-block-text>problem <strong>8</strong> out of 25 problems</p></div>","0","tol_trial_num","","","","","","","","","","","","","","","","","","","","","","","","",""
"","","","","","single-stim-button","295","679831","0.0-3.0-31.0-0.0","5d6fbd3f9ba41b0018d20082","D2","batch4","","5552","","","tol_tohand","","","","","","","","","tol_peg_3","5552","5552","0","[[0,0,0],[2,3],[0]]","1","[[1,2,0],[3,0],[0]]","7","0","","","","","","4","",""
"","","","","","single-stim-button","296","681027","0.0-3.0-31.0-1.0","5d6fbd3f9ba41b0018d20082","D2","batch4","","1196","","","tol_toboard","","","","","","","","","tol_peg_1","1196","1196","0","[[1,0,0],[2,3],[0]]","1","[[1,2,0],[3,0],[0]]","7","0","","","","","","4","",""
"","","","","","single-stim-button","297","681665","0.0-3.0-31.1-0.1","5d6fbd3f9ba41b0018d20082","D2","batch4","","637","","","tol_tohand","","","","","","","","","tol_peg_2","637","637","0","[[1,0,0],[2,0],[0]]","2","[[1,2,0],[3,0],[0]]","7","0","","","","","","4","",""
"","","","","","single-stim-button","298","683593","0.0-3.0-31.1-1.1","5d6fbd3f9ba41b0018d20082","D2","batch4","","1928","","","tol_toboard","","","","","","","","","tol_peg_3","1928","1928","0","[[1,0,0],[2,0],[3]]","2","[[1,2,0],[3,0],[0]]","7","0","","","","","","4","",""
"","","","","","single-stim-button","299","684395","0.0-3.0-31.2-0.2","5d6fbd3f9ba41b0018d20082","D2","batch4","","800","","","tol_tohand","","","","","","","","","tol_peg_2","800","800","0","[[1,0,0],[0,0],[3]]","3","[[1,2,0],[3,0],[0]]","7","0","","","","","","4","",""
"","","","","","single-stim-button","300","685242","0.0-3.0-31.2-1.2","5d6fbd3f9ba41b0018d20082","D2","batch4","","846","","","tol_toboard","","","","","","","","","tol_peg_1","846","846","0","[[1,2,0],[0,0],[3]]","3","[[1,2,0],[3,0],[0]]","7","0","","","","","","4","",""
"","","","","","single-stim-button","301","686370","0.0-3.0-31.3-0.3","5d6fbd3f9ba41b0018d20082","D2","batch4","","1128","","","tol_tohand","","","","","","","","","tol_peg_3","1128","1128","0","[[1,2,0],[0,0],[0]]","4","[[1,2,0],[3,0],[0]]","7","0","","","","","","4","",""
"","","","","","single-stim-button","302","687076","0.0-3.0-31.3-1.3","5d6fbd3f9ba41b0018d20082","D2","batch4","","704","","","tol_toboard","","","","","","","","","tol_peg_2","704","704","0","[[1,2,0],[3,0],[0]]","4","[[1,2,0],[3,0],[0]]","7","0","","","","","","4","",""
"","","","","","poldrack-single-stim","303","688079","0.0-3.0-32.0","5d6fbd3f9ba41b0018d20082","D2","batch4","","-1","","","tol_feedback","true","","","","","","","","","1000","1000","500","","","","","","-1","none","true","5552","8117","","",""
"","","","","","html-button-response","304","688997","0.0-3.0-33.0","5d6fbd3f9ba41b0018d20082","D2","batch4","","917.5999999996275","<div class = centerbox><p class = center-block-text>problem <strong>9</strong> out of 25 problems</p></div>","0","tol_trial_num","","","","","","","","","","","","","","","","","","","","","","","","",""
"","","","","","single-stim-button","305","695643","0.0-3.0-34.0-0.0","5d6fbd3f9ba41b0018d20082","D2","batch4","","6645","","","tol_tohand","","","","","","","","","tol_peg_1","6645","6645","0","[[3,0,0],[0,0],[1]]","1","[[2,1,0],[3,0],[0]]","8","0","","","","","","6","",""
"","","","","","single-stim-button","306","698551","0.0-3.0-34.0-1.0","5d6fbd3f9ba41b0018d20082","D2","batch4","","2908","","","tol_toboard","","","","","","","","","tol_peg_1","2908","2908","0","[[3,2,0],[0,0],[1]]","1","[[2,1,0],[3,0],[0]]","8","0","","","","","","6","",""
"","","","","","single-stim-button","307","699477","0.0-3.0-34.1-0.1","5d6fbd3f9ba41b0018d20082","D2","batch4","","925","","","tol_tohand","","","","","","","","","tol_peg_3","925","925","0","[[3,2,0],[0,0],[0]]","2","[[2,1,0],[3,0],[0]]","8","0","","","","","","6","",""
"","","","","","single-stim-button","308","700627","0.0-3.0-34.1-1.1","5d6fbd3f9ba41b0018d20082","D2","batch4","","1149","","","tol_toboard","","","","","","","","","tol_peg_2","1149","1149","0","[[3,2,0],[1,0],[0]]","2","[[2,1,0],[3,0],[0]]","8","0","","","","","","6","",""
"","","","","","single-stim-button","309","701405","0.0-3.0-34.2-0.2","5d6fbd3f9ba41b0018d20082","D2","batch4","","777","","","tol_tohand","","","","","","","","","tol_peg_1","777","777","0","[[3,0,0],[1,0],[0]]","3","[[2,1,0],[3,0],[0]]","8","0","","","","","","6","",""
"","","","","","single-stim-button","310","702875","0.0-3.0-34.2-1.2","5d6fbd3f9ba41b0018d20082","D2","batch4","","1470","","","tol_toboard","","","","","","","","","tol_peg_2","1470","1470","0","[[3,0,0],[1,2],[0]]","3","[[2,1,0],[3,0],[0]]","8","0","","","","","","6","",""
"","","","","","single-stim-button","311","703713","0.0-3.0-34.3-0.3","5d6fbd3f9ba41b0018d20082","D2","batch4","","836","","","tol_tohand","","","","","","","","","tol_peg_1","836","836","0","[[0,0,0],[1,2],[0]]","4","[[2,1,0],[3,0],[0]]","8","0","","","","","","6","",""
"","","","","","single-stim-button","312","704763","0.0-3.0-34.3-1.3","5d6fbd3f9ba41b0018d20082","D2","batch4","","1050","","","tol_toboard","","","","","","","","","tol_peg_3","1050","1050","0","[[0,0,0],[1,2],[3]]","4","[[2,1,0],[3,0],[0]]","8","0","","","","","","6","",""
"","","","","","single-stim-button","313","705307","0.0-3.0-34.4-0.4","5d6fbd3f9ba41b0018d20082","D2","batch4","","542","","","tol_tohand","","","","","","","","","tol_peg_2","542","542","0","[[0,0,0],[1,0],[3]]","5","[[2,1,0],[3,0],[0]]","8","0","","","","","","6","",""
"","","","","","single-stim-button","314","706077","0.0-3.0-34.4-1.4","5d6fbd3f9ba41b0018d20082","D2","batch4","","770","","","tol_toboard","","","","","","","","","tol_peg_1","770","770","0","[[2,0,0],[1,0],[3]]","5","[[2,1,0],[3,0],[0]]","8","0","","","","","","6","",""
"","","","","","single-stim-button","315","707064","0.0-3.0-34.5-0.5","5d6fbd3f9ba41b0018d20082","D2","batch4","","987","","","tol_tohand","","","","","","","","","tol_peg_2","987","987","0","[[2,0,0],[0,0],[3]]","6","[[2,1,0],[3,0],[0]]","8","0","","","","","","6","",""
"","","","","","single-stim-button","316","707795","0.0-3.0-34.5-1.5","5d6fbd3f9ba41b0018d20082","D2","batch4","","730","","","tol_toboard","","","","","","","","","tol_peg_1","730","730","0","[[2,1,0],[0,0],[3]]","6","[[2,1,0],[3,0],[0]]","8","0","","","","","","6","",""
"","","","","","single-stim-button","317","708750","0.0-3.0-34.6-0.6","5d6fbd3f9ba41b0018d20082","D2","batch4","","955","","","tol_tohand","","","","","","","","","tol_peg_3","955","955","0","[[2,1,0],[0,0],[0]]","7","[[2,1,0],[3,0],[0]]","8","0","","","","","","6","",""
"","","","","","single-stim-button","318","709265","0.0-3.0-34.6-1.6","5d6fbd3f9ba41b0018d20082","D2","batch4","","514","","","tol_toboard","","","","","","","","","tol_peg_2","514","514","0","[[2,1,0],[3,0],[0]]","7","[[2,1,0],[3,0],[0]]","8","0","","","","","","6","",""
"","","","","","poldrack-single-stim","319","710266","0.0-3.0-35.0","5d6fbd3f9ba41b0018d20082","D2","batch4","","-1","","","tol_feedback","true","","","","","","","","","1000","1000","500","","","","","","-1","none","true","6645","11667","","",""
"","","","","","html-button-response","320","711053","0.0-3.0-36.0","5d6fbd3f9ba41b0018d20082","D2","batch4","","785.9000000003725","<div class = centerbox><p class = center-block-text>problem <strong>10</strong> out of 25 problems</p></div>","0","tol_trial_num","","","","","","","","","","","","","","","","","","","","","","","","",""
"","","","","","single-stim-button","321","716215","0.0-3.0-37.0-0.0","5d6fbd3f9ba41b0018d20082","D2","batch4","","5162","","","tol_tohand","","","","","","","","","tol_peg_2","5162","5162","0","[[3,0,0],[0,0],[2]]","1","[[3,0,0],[2,1],[0]]","9","0","","","","","","3","",""
"","","","","","single-stim-button","322","717411","0.0-3.0-37.0-1.0","5d6fbd3f9ba41b0018d20082","D2","batch4","","1194","","","tol_toboard","","","","","","","","","tol_peg_1","1194","1194","0","[[3,1,0],[0,0],[2]]","1","[[3,0,0],[2,1],[0]]","9","0","","","","","","3","",""
"","","","","","single-stim-button","323","718631","0.0-3.0-37.1-0.1","5d6fbd3f9ba41b0018d20082","D2","batch4","","1220","","","tol_tohand","","","","","","","","","tol_peg_3","1220","1220","0","[[3,1,0],[0,0],[0]]","2","[[3,0,0],[2,1],[0]]","9","0","","","","","","3","",""
"","","","","","single-stim-button","324","719377","0.0-3.0-37.1-1.1","5d6fbd3f9ba41b0018d20082","D2","batch4","","745","","","tol_toboard","","","","","","","","","tol_peg_2","745","745","0","[[3,1,0],[2,0],[0]]","2","[[3,0,0],[2,1],[0]]","9","0","","","","","","3","",""
"","","","","","single-stim-button","325","719993","0.0-3.0-37.2-0.2","5d6fbd3f9ba41b0018d20082","D2","batch4","","616","","","tol_tohand","","","","","","","","","tol_peg_1","616","616","0","[[3,0,0],[2,0],[0]]","3","[[3,0,0],[2,1],[0]]","9","0","","","","","","3","",""
"","","","","","single-stim-button","326","720901","0.0-3.0-37.2-1.2","5d6fbd3f9ba41b0018d20082","D2","batch4","","908","","","tol_toboard","","","","","","","","","tol_peg_2","908","908","0","[[3,0,0],[2,1],[0]]","3","[[3,0,0],[2,1],[0]]","9","0","","","","","","3","",""
"","","","","","poldrack-single-stim","327","721909","0.0-3.0-38.0","5d6fbd3f9ba41b0018d20082","D2","batch4","","-1","","","tol_feedback","true","","","","","","","","","1000","1000","500","","","","","","-1","none","true","5162","6998","","",""
"","","","","","html-button-response","328","722829","0.0-3.0-39.0","5d6fbd3f9ba41b0018d20082","D2","batch4","","919","<div class = centerbox><p class = center-block-text>problem <strong>11</strong> out of 25 problems</p></div>","0","tol_trial_num","","","","","","","","","","","","","","","","","","","","","","","","",""
"","","","","","single-stim-button","329","727035","0.0-3.0-40.0-0.0","5d6fbd3f9ba41b0018d20082","D2","batch4","","4205","","","tol_tohand","","","","","","","","","tol_peg_2","4205","4205","0","[[1,2,0],[0,0],[0]]","1","[[2,0,0],[1,3],[0]]","10","0","","","","","","6","",""
"","","","","","single-stim-button","330","732011","0.0-3.0-40.0-1.0","5d6fbd3f9ba41b0018d20082","D2","batch4","","4976","","","tol_toboard","","","","","","","","","tol_peg_2","4976","4976","0","[[1,2,0],[3,0],[0]]","1","[[2,0,0],[1,3],[0]]","10","0","","","","","","6","",""
"","","","","","single-stim-button","331","732679","0.0-3.0-40.1-0.1","5d6fbd3f9ba41b0018d20082","D2","batch4","","667","","","tol_tohand","","","","","","","","","tol_peg_1","667","667","0","[[1,0,0],[3,0],[0]]","2","[[2,0,0],[1,3],[0]]","10","0","","","","","","6","",""
"","","","","","single-stim-button","332","733503","0.0-3.0-40.1-1.1","5d6fbd3f9ba41b0018d20082","D2","batch4","","824","","","tol_toboard","","","","","","","","","tol_peg_2","824","824","0","[[1,0,0],[3,2],[0]]","2","[[2,0,0],[1,3],[0]]","10","0","","","","","","6","",""
"","","","","","single-stim-button","333","734265","0.0-3.0-40.2-0.2","5d6fbd3f9ba41b0018d20082","D2","batch4","","762","","","tol_tohand","","","","","","","","","tol_peg_1","762","762","0","[[0,0,0],[3,2],[0]]","3","[[2,0,0],[1,3],[0]]","10","0","","","","","","6","",""
"","","","","","single-stim-button","334","735105","0.0-3.0-40.2-1.2","5d6fbd3f9ba41b0018d20082","D2","batch4","","839","","","tol_toboard","","","","","","","","","tol_peg_3","839","839","0","[[0,0,0],[3,2],[1]]","3","[[2,0,0],[1,3],[0]]","10","0","","","","","","6","",""
"","","","","","single-stim-button","335","735983","0.0-3.0-40.3-0.3","5d6fbd3f9ba41b0018d20082","D2","batch4","","877","","","tol_tohand","","","","","","","","","tol_peg_2","877","877","0","[[0,0,0],[3,0],[1]]","4","[[2,0,0],[1,3],[0]]","10","0","","","","","","6","",""
"","","","","","single-stim-button","336","737017","0.0-3.0-40.3-1.3","5d6fbd3f9ba41b0018d20082","D2","batch4","","1034","","","tol_toboard","","","","","","","","","tol_peg_1","1034","1034","0","[[2,0,0],[3,0],[1]]","4","[[2,0,0],[1,3],[0]]","10","0","","","","","","6","",""
"","","","","","single-stim-button","337","738175","0.0-3.0-40.4-0.4","5d6fbd3f9ba41b0018d20082","D2","batch4","","1158","","","tol_tohand","","","","","","","","","tol_peg_2","1158","1158","0","[[2,0,0],[0,0],[1]]","5","[[2,0,0],[1,3],[0]]","10","0","","","","","","6","",""
"","","","","","single-stim-button","338","739055","0.0-3.0-40.4-1.4","5d6fbd3f9ba41b0018d20082","D2","batch4","","879","","","tol_toboard","","","","","","","","","tol_peg_1","879","879","0","[[2,3,0],[0,0],[1]]","5","[[2,0,0],[1,3],[0]]","10","0","","","","","","6","",""
"","","","","","single-stim-button","339","739925","0.0-3.0-40.5-0.5","5d6fbd3f9ba41b0018d20082","D2","batch4","","869","","","tol_tohand","","","","","","","","","tol_peg_3","869","869","0","[[2,3,0],[0,0],[0]]","6","[[2,0,0],[1,3],[0]]","10","0","","","","","","6","",""
"","","","","","single-stim-button","340","740796","0.0-3.0-40.5-1.5","5d6fbd3f9ba41b0018d20082","D2","batch4","","870","","","tol_toboard","","","","","","","","","tol_peg_2","870","870","0","[[2,3,0],[1,0],[0]]","6","[[2,0,0],[1,3],[0]]","10","0","","","","","","6","",""
"","","","","","single-stim-button","341","741549","0.0-3.0-40.6-0.6","5d6fbd3f9ba41b0018d20082","D2","batch4","","751","","","tol_tohand","","","","","","","","","tol_peg_1","751","751","0","[[2,0,0],[1,0],[0]]","7","[[2,0,0],[1,3],[0]]","10","0","","","","","","6","",""
"","","","","","single-stim-button","342","742163","0.0-3.0-40.6-1.6","5d6fbd3f9ba41b0018d20082","D2","batch4","","614","","","tol_toboard","","","","","","","","","tol_peg_2","614","614","0","[[2,0,0],[1,3],[0]]","7","[[2,0,0],[1,3],[0]]","10","0","","","","","","6","",""
"","","","","","poldrack-single-stim","343","743165","0.0-3.0-41.0","5d6fbd3f9ba41b0018d20082","D2","batch4","","-1","","","tol_feedback","true","","","","","","","","","1000","1000","500","","","","","","-1","none","true","4205","9289","","",""
"","","","","","html-button-response","344","744301","0.0-3.0-42.0","5d6fbd3f9ba41b0018d20082","D2","batch4","","1135.2000000001863","<div class = centerbox><p class = center-block-text>problem <strong>12</strong> out of 25 problems</p></div>","0","tol_trial_num","","","","","","","","","","","","","","","","","","","","","","","","",""
"","","","","","single-stim-button","345","750203","0.0-3.0-43.0-0.0","5d6fbd3f9ba41b0018d20082","D2","batch4","","5901","","","tol_tohand","","","","","","","","","tol_peg_1","5901","5901","0","[[1,0,0],[3,0],[0]]","1","[[2,3,0],[0,0],[1]]","11","0","","","","","","4","",""
"","","","","","single-stim-button","346","750972","0.0-3.0-43.0-1.0","5d6fbd3f9ba41b0018d20082","D2","batch4","","768","","","tol_toboard","","","","","","","","","tol_peg_2","768","768","0","[[1,0,0],[3,2],[0]]","1","[[2,3,0],[0,0],[1]]","11","0","","","","","","4","",""
"","","","","","single-stim-button","347","751531","0.0-3.0-43.1-0.1","5d6fbd3f9ba41b0018d20082","D2","batch4","","559","","","tol_tohand","","","","","","","","","tol_peg_1","559","559","0","[[0,0,0],[3,2],[0]]","2","[[2,3,0],[0,0],[1]]","11","0","","","","","","4","",""
"","","","","","single-stim-button","348","752837","0.0-3.0-43.1-1.1","5d6fbd3f9ba41b0018d20082","D2","batch4","","1306","","","tol_toboard","","","","","","","","","tol_peg_3","1306","1306","0","[[0,0,0],[3,2],[1]]","2","[[2,3,0],[0,0],[1]]","11","0","","","","","","4","",""
