"success","timeout","failed_images","failed_audio","failed_video","trial_type","trial_index","time_elapsed","internal_node_id","subject_id","study_id","session_id","view_history","rt","stimulus","response","task","correct","answer","item","fiar_detect_rt","fiar_detect_correct","total_correct_fiar_detect","post_trial_gap","choices","mouse_click","stim_duration","block_duration","timing_post_trial","current_position","tol_num_moves_made","tol_target","tol_problem_id","tol_rt","key_press","possible_responses","tol_correct","preplanning","tol_rt_per_trial","tol_min_moves","spm_correct","spm_rt"
"true","false","[]","[]","[]","preload","0","3148","0.0-0.0","5d6f332829c25100188a4a27","C3","batch3","","","","","","","","","","","","","","","","","","","","","","","","","","","","","",""
"true","","","","","fullscreen","1","53402","0.0-1.0-0.0","5d6f332829c25100188a4a27","C3","batch3","","","","","","","","","","","","","","","","","","","","","","","","","","","","","",""
"true","","","","","fullscreen","2","65662","0.0-2.0-0.0","5d6f332829c25100188a4a27","C3","batch3","","","","","","","","","","","","","","","","","","","","","","","","","","","","","",""
"","","","","","instructions","3","132924","0.0-2.0-1.0-0.0","5d6f332829c25100188a4a27","C3","batch3","[{""page_index"":0,""viewing_time"":43433.5},{""page_index"":1,""viewing_time"":23827.70000000298}]","67261.60000000149","","","","","","","","","","","","","","","","","","","","","","","","","","","",""
"","","","","","html-button-response","4","137514","0.0-2.0-1.0-1.0-0.0","5d6f332829c25100188a4a27","C3","batch3","","4588.5","<p class=block-text> Let's answer a few questions <br>","0","pattern_enter_quiz","","","","","","","","","","","","","","","","","","","","","","","","",""
"","","","","","html-button-response","5","342147","0.0-2.0-1.0-1.0-1.0","5d6f332829c25100188a4a27","C3","batch3","","204631.5","<p class = block-text>True or False: You will have as much time as you want to make each choice. <br></p>","1","pattern_quiz","true","","","","","","","","","","","","","","","","","","","","","","","",""
"","","","","","html-button-response","6","351090","0.0-2.0-1.0-1.0-2.0","5d6f332829c25100188a4a27","C3","batch3","","8942.199999999255","<p class = block-text>Correct! You should make your choice <strong> as fast as you can</strong>.</p>","0","pattern_quiz_feedback","","","","","","","","","","","","","","","","","","","","","","","","",""
"","","","","","html-button-response","7","361097","0.0-2.0-1.0-1.0-3.0","5d6f332829c25100188a4a27","C3","batch3","","10005.199999999255","<p class = block-text>True or False: You will look for 4 pieces in black or white color connected in a row either horizontally, vertically or diagonally. <br></p>","0","pattern_quiz","true","","","","","","","","","","","","","","","","","","","","","","","",""
"","","","","","html-button-response","8","363560","0.0-2.0-1.0-1.0-4.0","5d6f332829c25100188a4a27","C3","batch3","","2462.39999999851","<p class = block-text>Correct! </p>","0","pattern_quiz_feedback","","","","","","","","","","","","","","","","","","","","","","","","",""
"","","","","","html-button-response","9","371301","0.0-2.0-2.0","5d6f332829c25100188a4a27","C3","batch3","","7739.89999999851","<p class=block-text> Now that you've understood the game, let's do a few practice trials before we start!<br> <br>","0","pattern_enter_practice","","","","","","","","","","","","","","","","","","","","","","","","",""
"","","","","","image-keyboard-response","10","372632","0.0-2.0-3.0-0.0","5d6f332829c25100188a4a27","C3","batch3","","1326.699999999255","stim/prac_yes_16_ver_w1.png","f","pattern_practice","true","f","","","","","","","","","","","","","","","","","","","","","","",""
"","","","","","html-keyboard-response","11","373638","0.0-2.0-3.0-1.0","5d6f332829c25100188a4a27","C3","batch3","","null","<p style=""font-size:30px;color:green;"">Correct!</p>","null","pattern_feedback","","","","","","","","","","","","","","","","","","","","","","","","",""
"","","","","","image-keyboard-response","12","374701","0.0-2.0-3.0-0.1","5d6f332829c25100188a4a27","C3","batch3","","1061.699999999255","stim/prac_yes_18_hor_w1.png","f","pattern_practice","true","f","","","","","","","","","","","","","","","","","","","","","","",""
"","","","","","html-keyboard-response","13","375708","0.0-2.0-3.0-1.1","5d6f332829c25100188a4a27","C3","batch3","","null","<p style=""font-size:30px;color:green;"">Correct!</p>","null","pattern_feedback","","","","","","","","","","","","","","","","","","","","","","","","",""
"","","","","","image-keyboard-response","14","376864","0.0-2.0-3.0-0.2","5d6f332829c25100188a4a27","C3","batch3","","1154.5999999977648","stim/prac_yes_20_dia_b1.png","f","pattern_practice","true","f","","","","","","","","","","","","","","","","","","","","","","",""
"","","","","","html-keyboard-response","15","377869","0.0-2.0-3.0-1.2","5d6f332829c25100188a4a27","C3","batch3","","null","<p style=""font-size:30px;color:green;"">Correct!</p>","null","pattern_feedback","","","","","","","","","","","","","","","","","","","","","","","","",""
"","","","","","image-keyboard-response","16","381181","0.0-2.0-3.0-0.3","5d6f332829c25100188a4a27","C3","batch3","","3310.900000002235","stim/prac_no_16_1.png","j","pattern_practice","true","j","","","","","","","","","","","","","","","","","","","","","","",""
"","","","","","html-keyboard-response","17","382211","0.0-2.0-3.0-1.3","5d6f332829c25100188a4a27","C3","batch3","","null","<p style=""font-size:30px;color:green;"">Correct!</p>","null","pattern_feedback","","","","","","","","","","","","","","","","","","","","","","","","",""
"","","","","","image-keyboard-response","18","383952","0.0-2.0-3.0-0.4","5d6f332829c25100188a4a27","C3","batch3","","1740","stim/prac_no_18_1.png","j","pattern_practice","true","j","","","","","","","","","","","","","","","","","","","","","","",""
"","","","","","html-keyboard-response","19","384954","0.0-2.0-3.0-1.4","5d6f332829c25100188a4a27","C3","batch3","","null","<p style=""font-size:30px;color:green;"">Correct!</p>","null","pattern_feedback","","","","","","","","","","","","","","","","","","","","","","","","",""
"","","","","","html-button-response","20","393901","0.0-2.0-4.0","5d6f332829c25100188a4a27","C3","batch3","","8946","<p class=block-text> Good job! You are done with practice trials!<br>
        You responded correctly on 100% of the trials.<br>
        Press the button below to start official trials. Now you won't see any feedback about your response</p>","0","pattern_enter_official_trials","","","","","","","","","","","","","","","","","","","","","","","","",""
"","","","","","html-keyboard-response","21","394709","0.0-2.0-5.0-0.0","5d6f332829c25100188a4a27","C3","batch3","","null","<p class=block-text>Trial 1 out of 78</p>","null","pattern_show_trial_num","","","","","","","","","","","","","","","","","","","","","","","","",""
"","","","","","image-keyboard-response","22","399318","0.0-2.0-5.0-1.0","5d6f332829c25100188a4a27","C3","batch3","","4607.400000002235","stim/no_58_1_w.png","j","pattern_response","true","j","pattern_35","4607.400000002235","true","1","","","","","","","","","","","","","","","","","","",""
"","","","","","html-keyboard-response","23","400637","0.0-2.0-5.0-0.1","5d6f332829c25100188a4a27","C3","batch3","","null","<p class=block-text>Trial 2 out of 78</p>","null","pattern_show_trial_num","","","","","","","","","","","","","","","","","","","","","","","","",""
"","","","","","image-keyboard-response","24","402270","0.0-2.0-5.0-1.1","5d6f332829c25100188a4a27","C3","batch3","","1631.9000000022352","stim/yes_49_hor_w1_b.png","f","pattern_response","true","f","pattern_70","1631.9000000022352","true","2","","","","","","","","","","","","","","","","","","",""
"","","","","","html-keyboard-response","25","403585","0.0-2.0-5.0-0.2","5d6f332829c25100188a4a27","C3","batch3","","null","<p class=block-text>Trial 3 out of 78</p>","null","pattern_show_trial_num","","","","","","","","","","","","","","","","","","","","","","","","",""
"","","","","","image-keyboard-response","26","404361","0.0-2.0-5.0-1.2","5d6f332829c25100188a4a27","C3","batch3","","775.1999999992549","stim/yes_17_ver_b1_b.png","f","pattern_response","true","f","pattern_46","775.1999999992549","true","3","","","","","","","","","","","","","","","","","","",""
"","","","","","html-keyboard-response","27","405676","0.0-2.0-5.0-0.3","5d6f332829c25100188a4a27","C3","batch3","","null","<p class=block-text>Trial 4 out of 78</p>","null","pattern_show_trial_num","","","","","","","","","","","","","","","","","","","","","","","","",""
"","","","","","image-keyboard-response","28","406821","0.0-2.0-5.0-1.3","5d6f332829c25100188a4a27","C3","batch3","","1144.4000000022352","stim/no_12_1.png","j","pattern_response","true","j","pattern_01","1144.4000000022352","true","4","","","","","","","","","","","","","","","","","","",""
"","","","","","html-keyboard-response","29","408125","0.0-2.0-5.0-0.4","5d6f332829c25100188a4a27","C3","batch3","","null","<p class=block-text>Trial 5 out of 78</p>","null","pattern_show_trial_num","","","","","","","","","","","","","","","","","","","","","","","","",""
"","","","","","image-keyboard-response","30","411892","0.0-2.0-5.0-1.4","5d6f332829c25100188a4a27","C3","batch3","","3765.400000002235","stim/yes_53_ver_b1_b.png","f","pattern_response","true","f","pattern_74","3765.400000002235","true","5","","","","","","","","","","","","","","","","","","",""
"","","","","","html-keyboard-response","31","413206","0.0-2.0-5.0-0.5","5d6f332829c25100188a4a27","C3","batch3","","null","<p class=block-text>Trial 6 out of 78</p>","null","pattern_show_trial_num","","","","","","","","","","","","","","","","","","","","","","","","",""
"","","","","","image-keyboard-response","32","414003","0.0-2.0-5.0-1.5","5d6f332829c25100188a4a27","C3","batch3","","795.5","stim/yes_12_hor_w1_w.png","f","pattern_response","true","f","pattern_42","795.5","true","6","","","","","","","","","","","","","","","","","","",""
"","","","","","html-keyboard-response","33","415311","0.0-2.0-5.0-0.6","5d6f332829c25100188a4a27","C3","batch3","","null","<p class=block-text>Trial 7 out of 78</p>","null","pattern_show_trial_num","","","","","","","","","","","","","","","","","","","","","","","","",""
"","","","","","image-keyboard-response","34","420175","0.0-2.0-5.0-1.6","5d6f332829c25100188a4a27","C3","batch3","","4862.199999999255","stim/no_51_1.png","j","pattern_response","true","j","pattern_31","4862.199999999255","true","7","","","","","","","","","","","","","","","","","","",""
"","","","","","html-keyboard-response","35","421506","0.0-2.0-5.0-0.7","5d6f332829c25100188a4a27","C3","batch3","","null","<p class=block-text>Trial 8 out of 78</p>","null","pattern_show_trial_num","","","","","","","","","","","","","","","","","","","","","","","","",""
"","","","","","image-keyboard-response","36","422307","0.0-2.0-5.0-1.7","5d6f332829c25100188a4a27","C3","batch3","","799.3000000007451","stim/no_15_1_w.png","j","pattern_response","true","j","pattern_03","799.3000000007451","true","8","","","","","","","","","","","","","","","","","","",""
"","","","","","html-keyboard-response","37","423628","0.0-2.0-5.0-0.8","5d6f332829c25100188a4a27","C3","batch3","","null","<p class=block-text>Trial 9 out of 78</p>","null","pattern_show_trial_num","","","","","","","","","","","","","","","","","","","","","","","","",""
"","","","","","image-keyboard-response","38","426930","0.0-2.0-5.0-1.8","5d6f332829c25100188a4a27","C3","batch3","","3300.39999999851","stim/yes_51_dia_b1.png","j","pattern_response","false","f","pattern_72","3300.39999999851","false","8","","","","","","","","","","","","","","","","","","",""
"","","","","","html-keyboard-response","39","428251","0.0-2.0-5.0-0.9","5d6f332829c25100188a4a27","C3","batch3","","null","<p class=block-text>Trial 10 out of 78</p>","null","pattern_show_trial_num","","","","","","","","","","","","","","","","","","","","","","","","",""
"","","","","","image-keyboard-response","40","429240","0.0-2.0-5.0-1.9","5d6f332829c25100188a4a27","C3","batch3","","987.4000000022352","stim/yes_36_ver_w1_w.png","f","pattern_response","true","f","pattern_58","987.4000000022352","true","9","","","","","","","","","","","","","","","","","","",""
"","","","","","html-keyboard-response","41","430552","0.0-2.0-5.0-0.10","5d6f332829c25100188a4a27","C3","batch3","","null","<p class=block-text>Trial 11 out of 78</p>","null","pattern_show_trial_num","","","","","","","","","","","","","","","","","","","","","","","","",""
"","","","","","image-keyboard-response","42","434369","0.0-2.0-5.0-1.10","5d6f332829c25100188a4a27","C3","batch3","","3815.800000000745","stim/no_37_2_w.png","j","pattern_response","true","j","pattern_19","3815.800000000745","true","10","","","","","","","","","","","","","","","","","","",""
"","","","","","html-keyboard-response","43","435696","0.0-2.0-5.0-0.11","5d6f332829c25100188a4a27","C3","batch3","","null","<p class=block-text>Trial 12 out of 78</p>","null","pattern_show_trial_num","","","","","","","","","","","","","","","","","","","","","","","","",""
"","","","","","image-keyboard-response","44","438124","0.0-2.0-5.0-1.11","5d6f332829c25100188a4a27","C3","batch3","","2426.39999999851","stim/no_22_1_b.png","j","pattern_response","true","j","pattern_07","2426.39999999851","true","11","","","","","","","","","","","","","","","","","","",""
"","","","","","html-keyboard-response","45","439448","0.0-2.0-5.0-0.12","5d6f332829c25100188a4a27","C3","batch3","","null","<p class=block-text>Trial 13 out of 78</p>","null","pattern_show_trial_num","","","","","","","","","","","","","","","","","","","","","","","","",""
"","","","","","image-keyboard-response","46","440308","0.0-2.0-5.0-1.12","5d6f332829c25100188a4a27","C3","batch3","","857.9000000022352","stim/yes_39_hor_w1_w.png","f","pattern_response","true","f","pattern_62","857.9000000022352","true","12","","","","","","","","","","","","","","","","","","",""
"","","","","","html-keyboard-response","47","441617","0.0-2.0-5.0-0.13","5d6f332829c25100188a4a27","C3","batch3","","null","<p class=block-text>Trial 14 out of 78</p>","null","pattern_show_trial_num","","","","","","","","","","","","","","","","","","","","","","","","",""
"","","","","","image-keyboard-response","48","445441","0.0-2.0-5.0-1.13","5d6f332829c25100188a4a27","C3","batch3","","3823.2999999970198","stim/no_67_1.png","j","pattern_response","true","j","pattern_39","3823.2999999970198","true","13","","","","","","","","","","","","","","","","","","",""
"","","","","","html-keyboard-response","49","446764","0.0-2.0-5.0-0.14","5d6f332829c25100188a4a27","C3","batch3","","null","<p class=block-text>Trial 15 out of 78</p>","null","pattern_show_trial_num","","","","","","","","","","","","","","","","","","","","","","","","",""
"","","","","","image-keyboard-response","50","448248","0.0-2.0-5.0-1.14","5d6f332829c25100188a4a27","C3","batch3","","1483","stim/no_25_1_b.png","j","pattern_response","true","j","pattern_09","1483","true","14","","","","","","","","","","","","","","","","","","",""
"","","","","","html-keyboard-response","51","449554","0.0-2.0-5.0-0.15","5d6f332829c25100188a4a27","C3","batch3","","null","<p class=block-text>Trial 16 out of 78</p>","null","pattern_show_trial_num","","","","","","","","","","","","","","","","","","","","","","","","",""
"","","","","","image-keyboard-response","52","450894","0.0-2.0-5.0-1.15","5d6f332829c25100188a4a27","C3","batch3","","1339.1000000014901","stim/yes_30_ver_b1_b.png","f","pattern_response","true","f","pattern_54","1339.1000000014901","true","15","","","","","","","","","","","","","","","","","","",""
"","","","","","html-keyboard-response","53","452200","0.0-2.0-5.0-0.16","5d6f332829c25100188a4a27","C3","batch3","","null","<p class=block-text>Trial 17 out of 78</p>","null","pattern_show_trial_num","","","","","","","","","","","","","","","","","","","","","","","","",""
"","","","","","image-keyboard-response","54","452961","0.0-2.0-5.0-1.16","5d6f332829c25100188a4a27","C3","batch3","","759.6999999992549","stim/yes_15_dia_b1u_b.png","f","pattern_response","true","f","pattern_44","759.6999999992549","true","16","","","","","","","","","","","","","","","","","","",""
"","","","","","html-keyboard-response","55","454280","0.0-2.0-5.0-0.17","5d6f332829c25100188a4a27","C3","batch3","","null","<p class=block-text>Trial 18 out of 78</p>","null","pattern_show_trial_num","","","","","","","","","","","","","","","","","","","","","","","","",""
"","","","","","image-keyboard-response","56","458782","0.0-2.0-5.0-1.17","5d6f332829c25100188a4a27","C3","batch3","","4500.10000000149","stim/no_49_2_b.png","j","pattern_response","true","j","pattern_29","4500.10000000149","true","17","","","","","","","","","","","","","","","","","","",""
"","","","","","html-keyboard-response","57","460097","0.0-2.0-5.0-0.18","5d6f332829c25100188a4a27","C3","batch3","","null","<p class=block-text>Trial 19 out of 78</p>","null","pattern_show_trial_num","","","","","","","","","","","","","","","","","","","","","","","","",""
"","","","","","image-keyboard-response","58","461126","0.0-2.0-5.0-1.18","5d6f332829c25100188a4a27","C3","batch3","","1027.300000000745","stim/yes_29_hor_b1_b.png","f","pattern_response","true","f","pattern_52","1027.300000000745","true","18","","","","","","","","","","","","","","","","","","",""
"","","","","","html-keyboard-response","59","462446","0.0-2.0-5.0-0.19","5d6f332829c25100188a4a27","C3","batch3","","null","<p class=block-text>Trial 20 out of 78</p>","null","pattern_show_trial_num","","","","","","","","","","","","","","","","","","","","","","","","",""
"","","","","","image-keyboard-response","60","463819","0.0-2.0-5.0-1.19","5d6f332829c25100188a4a27","C3","batch3","","1372.199999999255","stim/yes_23_ver_b1.png","f","pattern_response","true","f","pattern_48","1372.199999999255","true","19","","","","","","","","","","","","","","","","","","",""
"","","","","","html-keyboard-response","61","465147","0.0-2.0-5.0-0.20","5d6f332829c25100188a4a27","C3","batch3","","null","<p class=block-text>Trial 21 out of 78</p>","null","pattern_show_trial_num","","","","","","","","","","","","","","","","","","","","","","","","",""
"","","","","","image-keyboard-response","62","466857","0.0-2.0-5.0-1.20","5d6f332829c25100188a4a27","C3","batch3","","1709.6000000014901","stim/yes_46_ver_b1_b.png","f","pattern_response","true","f","pattern_68","1709.6000000014901","true","20","","","","","","","","","","","","","","","","","","",""
"","","","","","html-keyboard-response","63","468185","0.0-2.0-5.0-0.21","5d6f332829c25100188a4a27","C3","batch3","","null","<p class=block-text>Trial 22 out of 78</p>","null","pattern_show_trial_num","","","","","","","","","","","","","","","","","","","","","","","","",""
"","","","","","image-keyboard-response","64","469578","0.0-2.0-5.0-1.21","5d6f332829c25100188a4a27","C3","batch3","","1391.5999999977648","stim/yes_37_hor_w1_w.png","f","pattern_response","true","f","pattern_60","1391.5999999977648","true","21","","","","","","","","","","","","","","","","","","",""
"","","","","","html-keyboard-response","65","470890","0.0-2.0-5.0-0.22","5d6f332829c25100188a4a27","C3","batch3","","null","<p class=block-text>Trial 23 out of 78</p>","null","pattern_show_trial_num","","","","","","","","","","","","","","","","","","","","","","","","",""
"","","","","","image-keyboard-response","66","474166","0.0-2.0-5.0-1.22","5d6f332829c25100188a4a27","C3","batch3","","3274.39999999851","stim/no_28_2.png","j","pattern_response","true","j","pattern_11","3274.39999999851","true","22","","","","","","","","","","","","","","","","","","",""
"","","","","","html-keyboard-response","67","475478","0.0-2.0-5.0-0.23","5d6f332829c25100188a4a27","C3","batch3","","null","<p class=block-text>Trial 24 out of 78</p>","null","pattern_show_trial_num","","","","","","","","","","","","","","","","","","","","","","","","",""
"","","","","","image-keyboard-response","68","479689","0.0-2.0-5.0-1.23","5d6f332829c25100188a4a27","C3","batch3","","4210.400000002235","stim/yes_42_dia_w1_w.png","j","pattern_response","false","f","pattern_64","4210.400000002235","false","22","","","","","","","","","","","","","","","","","","",""
"","","","","","html-keyboard-response","69","481005","0.0-2.0-5.0-0.24","5d6f332829c25100188a4a27","C3","batch3","","null","<p class=block-text>Trial 25 out of 78</p>","null","pattern_show_trial_num","","","","","","","","","","","","","","","","","","","","","","","","",""
"","","","","","image-keyboard-response","70","482164","0.0-2.0-5.0-1.24","5d6f332829c25100188a4a27","C3","batch3","","1158.199999999255","stim/yes_26_dia_w2_w.png","f","pattern_response","true","f","pattern_50","1158.199999999255","true","23","","","","","","","","","","","","","","","","","","",""
"","","","","","html-keyboard-response","71","483470","0.0-2.0-5.0-0.25","5d6f332829c25100188a4a27","C3","batch3","","null","<p class=block-text>Trial 26 out of 78</p>","null","pattern_show_trial_num","","","","","","","","","","","","","","","","","","","","","","","","",""
"","","","","","image-keyboard-response","72","487426","0.0-2.0-5.0-1.25","5d6f332829c25100188a4a27","C3","batch3","","3955","stim/no_39_1_w.png","j","pattern_response","true","j","pattern_21","3955","true","24","","","","","","","","","","","","","","","","","","",""
"","","","","","html-keyboard-response","73","488748","0.0-2.0-5.0-0.26","5d6f332829c25100188a4a27","C3","batch3","","null","<p class=block-text>Trial 27 out of 78</p>","null","pattern_show_trial_num","","","","","","","","","","","","","","","","","","","","","","","","",""
"","","","","","image-keyboard-response","74","493835","0.0-2.0-5.0-1.26","5d6f332829c25100188a4a27","C3","batch3","","5085.79999999702","stim/no_53_1_b.png","j","pattern_response","true","j","pattern_33","5085.79999999702","true","25","","","","","","","","","","","","","","","","","","",""
"","","","","","html-keyboard-response","75","495148","0.0-2.0-5.0-0.27","5d6f332829c25100188a4a27","C3","batch3","","null","<p class=block-text>Trial 28 out of 78</p>","null","pattern_show_trial_num","","","","","","","","","","","","","","","","","","","","","","","","",""
"","","","","","image-keyboard-response","76","496943","0.0-2.0-5.0-1.27","5d6f332829c25100188a4a27","C3","batch3","","1793.699999999255","stim/no_30_1_b.png","j","pattern_response","true","j","pattern_13","1793.699999999255","true","26","","","","","","","","","","","","","","","","","","",""
"","","","","","html-keyboard-response","77","498261","0.0-2.0-5.0-0.28","5d6f332829c25100188a4a27","C3","batch3","","null","<p class=block-text>Trial 29 out of 78</p>","null","pattern_show_trial_num","","","","","","","","","","","","","","","","","","","","","","","","",""
"","","","","","image-keyboard-response","78","502167","0.0-2.0-5.0-1.28","5d6f332829c25100188a4a27","C3","batch3","","3904.400000002235","stim/no_47_1_b.png","j","pattern_response","true","j","pattern_27","3904.400000002235","true","27","","","","","","","","","","","","","","","","","","",""
"","","","","","html-keyboard-response","79","503476","0.0-2.0-5.0-0.29","5d6f332829c25100188a4a27","C3","batch3","","null","<p class=block-text>Trial 30 out of 78</p>","null","pattern_show_trial_num","","","","","","","","","","","","","","","","","","","","","","","","",""
"","","","","","image-keyboard-response","80","506802","0.0-2.0-5.0-1.29","5d6f332829c25100188a4a27","C3","batch3","","3323.900000002235","stim/no_33_1_b.png","j","pattern_response","true","j","pattern_15","3323.900000002235","true","28","","","","","","","","","","","","","","","","","","",""
"","","","","","html-keyboard-response","81","508120","0.0-2.0-5.0-0.30","5d6f332829c25100188a4a27","C3","batch3","","null","<p class=block-text>Trial 31 out of 78</p>","null","pattern_show_trial_num","","","","","","","","","","","","","","","","","","","","","","","","",""
"","","","","","image-keyboard-response","82","509819","0.0-2.0-5.0-1.30","5d6f332829c25100188a4a27","C3","batch3","","1697.5999999977648","stim/no_18_1_b.png","j","pattern_response","true","j","pattern_05","1697.5999999977648","true","29","","","","","","","","","","","","","","","","","","",""
"","","","","","html-keyboard-response","83","511128","0.0-2.0-5.0-0.31","5d6f332829c25100188a4a27","C3","batch3","","null","<p class=block-text>Trial 32 out of 78</p>","null","pattern_show_trial_num","","","","","","","","","","","","","","","","","","","","","","","","",""
"","","","","","image-keyboard-response","84","511960","0.0-2.0-5.0-1.31","5d6f332829c25100188a4a27","C3","batch3","","830","stim/yes_70_ver_b1.png","f","pattern_response","true","f","pattern_80","830","true","30","","","","","","","","","","","","","","","","","","",""
"","","","","","html-keyboard-response","85","513280","0.0-2.0-5.0-0.32","5d6f332829c25100188a4a27","C3","batch3","","null","<p class=block-text>Trial 33 out of 78</p>","null","pattern_show_trial_num","","","","","","","","","","","","","","","","","","","","","","","","",""
"","","","","","image-keyboard-response","86","515846","0.0-2.0-5.0-1.32","5d6f332829c25100188a4a27","C3","batch3","","2564.699999999255","stim/no_36_1_b.png","j","pattern_response","true","j","pattern_17","2564.699999999255","true","31","","","","","","","","","","","","","","","","","","",""
"","","","","","html-keyboard-response","87","517166","0.0-2.0-5.0-0.33","5d6f332829c25100188a4a27","C3","batch3","","null","<p class=block-text>Trial 34 out of 78</p>","null","pattern_show_trial_num","","","","","","","","","","","","","","","","","","","","","","","","",""
"","","","","","image-keyboard-response","88","522774","0.0-2.0-5.0-1.33","5d6f332829c25100188a4a27","C3","batch3","","5607.199999999255","stim/yes_58_dia_w1_w.png","j","pattern_response","false","f","pattern_76","5607.199999999255","false","31","","","","","","","","","","","","","","","","","","",""
"","","","","","html-keyboard-response","89","524093","0.0-2.0-5.0-0.34","5d6f332829c25100188a4a27","C3","batch3","","null","<p class=block-text>Trial 35 out of 78</p>","null","pattern_show_trial_num","","","","","","","","","","","","","","","","","","","","","","","","",""
"","","","","","image-keyboard-response","90","526427","0.0-2.0-5.0-1.34","5d6f332829c25100188a4a27","C3","batch3","","2333","stim/no_43_2_b.png","j","pattern_response","true","j","pattern_23","2333","true","32","","","","","","","","","","","","","","","","","","",""
"","","","","","html-keyboard-response","91","527729","0.0-2.0-5.0-0.35","5d6f332829c25100188a4a27","C3","batch3","","null","<p class=block-text>Trial 36 out of 78</p>","null","pattern_show_trial_num","","","","","","","","","","","","","","","","","","","","","","","","",""
"","","","","","image-keyboard-response","92","529040","0.0-2.0-5.0-1.35","5d6f332829c25100188a4a27","C3","batch3","","1309.2999999970198","stim/yes_33_dia_w1_w.png","f","pattern_response","true","f","pattern_56","1309.2999999970198","true","33","","","","","","","","","","","","","","","","","","",""
"","","","","","html-keyboard-response","93","530364","0.0-2.0-5.0-0.36","5d6f332829c25100188a4a27","C3","batch3","","null","<p class=block-text>Trial 37 out of 78</p>","null","pattern_show_trial_num","","","","","","","","","","","","","","","","","","","","","","","","",""
"","","","","","image-keyboard-response","94","536362","0.0-2.0-5.0-1.36","5d6f332829c25100188a4a27","C3","batch3","","5997.10000000149","stim/no_45_1_w.png","j","pattern_response","true","j","pattern_25","5997.10000000149","true","34","","","","","","","","","","","","","","","","","","",""
"","","","","","html-keyboard-response","95","537670","0.0-2.0-5.0-0.37","5d6f332829c25100188a4a27","C3","batch3","","null","<p class=block-text>Trial 38 out of 78</p>","null","pattern_show_trial_num","","","","","","","","","","","","","","","","","","","","","","","","",""
"","","","","","image-keyboard-response","96","542017","0.0-2.0-5.0-1.37","5d6f332829c25100188a4a27","C3","batch3","","4345.39999999851","stim/yes_44_ver_w1_w.png","j","pattern_response","false","f","pattern_66","4345.39999999851","false","34","","","","","","","","","","","","","","","","","","",""
"","","","","","html-keyboard-response","97","543344","0.0-2.0-5.0-0.38","5d6f332829c25100188a4a27","C3","batch3","","null","<p class=block-text>Trial 39 out of 78</p>","null","pattern_show_trial_num","","","","","","","","","","","","","","","","","","","","","","","","",""
"","","","","","image-keyboard-response","98","546382","0.0-2.0-5.0-1.38","5d6f332829c25100188a4a27","C3","batch3","","3036.7000000029802","stim/yes_63_dia_b1.png","f","pattern_response","true","f","pattern_78","3036.7000000029802","true","35","","","","","","","","","","","","","","","","","","",""
"","","","","","image-keyboard-response","99","552386","0.0-2.0-6.0","5d6f332829c25100188a4a27","C3","batch3","","5489.300000000745","stim/empty_board.png","j","attention_check","true","j","","","","","500","[""f"",""j""]","","","","","","","","","","","","","","","","",""
"","","","","","html-keyboard-response","100","553194","0.0-2.0-7.0-0.0","5d6f332829c25100188a4a27","C3","batch3","","null","<p class=block-text>Trial 40 out of 78</p>","null","pattern_show_trial_num","","","","","","","","","","","","","","","","","","","","","","","","",""
"","","","","","image-keyboard-response","101","556038","0.0-2.0-7.0-1.0","5d6f332829c25100188a4a27","C3","batch3","","2843.199999999255","stim/no_42_1_w.png","j","pattern_response","true","j","pattern_22","2843.199999999255","true","36","","","","","","","","","","","","","","","","","","",""
"","","","","","html-keyboard-response","102","557363","0.0-2.0-7.0-0.1","5d6f332829c25100188a4a27","C3","batch3","","null","<p class=block-text>Trial 41 out of 78</p>","null","pattern_show_trial_num","","","","","","","","","","","","","","","","","","","","","","","","",""
"","","","","","image-keyboard-response","103","562753","0.0-2.0-7.0-1.1","5d6f332829c25100188a4a27","C3","batch3","","5388.300000000745","stim/yes_40_dia_b1_b.png","f","pattern_response","true","f","pattern_63","5388.300000000745","true","37","","","","","","","","","","","","","","","","","","",""
"","","","","","html-keyboard-response","104","564081","0.0-2.0-7.0-0.2","5d6f332829c25100188a4a27","C3","batch3","","null","<p class=block-text>Trial 42 out of 78</p>","null","pattern_show_trial_num","","","","","","","","","","","","","","","","","","","","","","","","",""
"","","","","","image-keyboard-response","105","565684","0.0-2.0-7.0-1.2","5d6f332829c25100188a4a27","C3","batch3","","1601","stim/yes_17_dia_w1.png","f","pattern_response","true","f","pattern_45","1601","true","38","","","","","","","","","","","","","","","","","","",""
"","","","","","html-keyboard-response","106","566996","0.0-2.0-7.0-0.3","5d6f332829c25100188a4a27","C3","batch3","","null","<p class=block-text>Trial 43 out of 78</p>","null","pattern_show_trial_num","","","","","","","","","","","","","","","","","","","","","","","","",""
"","","","","","image-keyboard-response","107","573003","0.0-2.0-7.0-1.3","5d6f332829c25100188a4a27","C3","batch3","","6005.60000000149","stim/no_36_2_w.png","j","pattern_response","true","j","pattern_18","6005.60000000149","true","39","","","","","","","","","","","","","","","","","","",""
"","","","","","html-keyboard-response","108","574324","0.0-2.0-7.0-0.4","5d6f332829c25100188a4a27","C3","batch3","","null","<p class=block-text>Trial 44 out of 78</p>","null","pattern_show_trial_num","","","","","","","","","","","","","","","","","","","","","","","","",""
"","","","","","image-keyboard-response","109","576163","0.0-2.0-7.0-1.4","5d6f332829c25100188a4a27","C3","batch3","","1837.6000000014901","stim/no_13_2_b.png","j","pattern_response","true","j","pattern_02","1837.6000000014901","true","40","","","","","","","","","","","","","","","","","","",""
"","","","","","html-keyboard-response","110","577474","0.0-2.0-7.0-0.5","5d6f332829c25100188a4a27","C3","batch3","","null","<p class=block-text>Trial 45 out of 78</p>","null","pattern_show_trial_num","","","","","","","","","","","","","","","","","","","","","","","","",""
"","","","","","image-keyboard-response","111","580661","0.0-2.0-7.0-1.5","5d6f332829c25100188a4a27","C3","batch3","","3185.199999999255","stim/yes_52_ver_w1.png","f","pattern_response","true","f","pattern_73","3185.199999999255","true","41","","","","","","","","","","","","","","","","","","",""
"","","","","","html-keyboard-response","112","581974","0.0-2.0-7.0-0.6","5d6f332829c25100188a4a27","C3","batch3","","null","<p class=block-text>Trial 46 out of 78</p>","null","pattern_show_trial_num","","","","","","","","","","","","","","","","","","","","","","","","",""
"","","","","","image-keyboard-response","113","583584","0.0-2.0-7.0-1.6","5d6f332829c25100188a4a27","C3","batch3","","1608.8999999985099","stim/no_23_1.png","f","pattern_response","false","j","pattern_08","1608.8999999985099","false","41","","","","","","","","","","","","","","","","","","",""
"","","","","","html-keyboard-response","114","584889","0.0-2.0-7.0-0.7","5d6f332829c25100188a4a27","C3","batch3","","null","<p class=block-text>Trial 47 out of 78</p>","null","pattern_show_trial_num","","","","","","","","","","","","","","","","","","","","","","","","",""
"","","","","","image-keyboard-response","115","587020","0.0-2.0-7.0-1.7","5d6f332829c25100188a4a27","C3","batch3","","2130.099999997765","stim/no_26_1_w.png","j","pattern_response","true","j","pattern_10","2130.099999997765","true","42","","","","","","","","","","","","","","","","","","",""
"","","","","","html-keyboard-response","116","588346","0.0-2.0-7.0-0.8","5d6f332829c25100188a4a27","C3","batch3","","null","<p class=block-text>Trial 48 out of 78</p>","null","pattern_show_trial_num","","","","","","","","","","","","","","","","","","","","","","","","",""
"","","","","","image-keyboard-response","117","592839","0.0-2.0-7.0-1.8","5d6f332829c25100188a4a27","C3","batch3","","4491.400000002235","stim/no_46_1_b.png","j","pattern_response","true","j","pattern_26","4491.400000002235","true","43","","","","","","","","","","","","","","","","","","",""
"","","","","","html-keyboard-response","118","594161","0.0-2.0-7.0-0.9","5d6f332829c25100188a4a27","C3","batch3","","null","<p class=block-text>Trial 49 out of 78</p>","null","pattern_show_trial_num","","","","","","","","","","","","","","","","","","","","","","","","",""
"","","","","","image-keyboard-response","119","595401","0.0-2.0-7.0-1.9","5d6f332829c25100188a4a27","C3","batch3","","1238.300000000745","stim/yes_67_hor_b1.png","f","pattern_response","true","f","pattern_79","1238.300000000745","true","44","","","","","","","","","","","","","","","","","","",""
"","","","","","html-keyboard-response","120","596718","0.0-2.0-7.0-0.10","5d6f332829c25100188a4a27","C3","batch3","","null","<p class=block-text>Trial 50 out of 78</p>","null","pattern_show_trial_num","","","","","","","","","","","","","","","","","","","","","","","","",""
"","","","","","image-keyboard-response","121","598093","0.0-2.0-7.0-1.10","5d6f332829c25100188a4a27","C3","batch3","","1374","stim/no_17_1_w.png","j","pattern_response","true","j","pattern_04","1374","true","45","","","","","","","","","","","","","","","","","","",""
"","","","","","html-keyboard-response","122","599410","0.0-2.0-7.0-0.11","5d6f332829c25100188a4a27","C3","batch3","","null","<p class=block-text>Trial 51 out of 78</p>","null","pattern_show_trial_num","","","","","","","","","","","","","","","","","","","","","","","","",""
"","","","","","image-keyboard-response","123","601718","0.0-2.0-7.0-1.11","5d6f332829c25100188a4a27","C3","batch3","","2307.5","stim/yes_35_dia_b1.png","f","pattern_response","true","f","pattern_57","2307.5","true","46","","","","","","","","","","","","","","","","","","",""
"","","","","","html-keyboard-response","124","603042","0.0-2.0-7.0-0.12","5d6f332829c25100188a4a27","C3","batch3","","null","<p class=block-text>Trial 52 out of 78</p>","null","pattern_show_trial_num","","","","","","","","","","","","","","","","","","","","","","","","",""
"","","","","","image-keyboard-response","125","608676","0.0-2.0-7.0-1.12","5d6f332829c25100188a4a27","C3","batch3","","5632.599999997765","stim/yes_50_dia_w1.png","j","pattern_response","false","f","pattern_71","5632.599999997765","false","46","","","","","","","","","","","","","","","","","","",""
"","","","","","html-keyboard-response","126","609998","0.0-2.0-7.0-0.13","5d6f332829c25100188a4a27","C3","batch3","","null","<p class=block-text>Trial 53 out of 78</p>","null","pattern_show_trial_num","","","","","","","","","","","","","","","","","","","","","","","","",""
"","","","","","image-keyboard-response","127","611848","0.0-2.0-7.0-1.13","5d6f332829c25100188a4a27","C3","batch3","","1848.800000000745","stim/yes_38_hor_b1_b.png","f","pattern_response","true","f","pattern_61","1848.800000000745","true","47","","","","","","","","","","","","","","","","","","",""
"","","","","","html-keyboard-response","128","613168","0.0-2.0-7.0-0.14","5d6f332829c25100188a4a27","C3","batch3","","null","<p class=block-text>Trial 54 out of 78</p>","null","pattern_show_trial_num","","","","","","","","","","","","","","","","","","","","","","","","",""
"","","","","","image-keyboard-response","129","616388","0.0-2.0-7.0-1.14","5d6f332829c25100188a4a27","C3","batch3","","3217.60000000149","stim/no_50_1.png","j","pattern_response","true","j","pattern_30","3217.60000000149","true","48","","","","","","","","","","","","","","","","","","",""
"","","","","","html-keyboard-response","130","617702","0.0-2.0-7.0-0.15","5d6f332829c25100188a4a27","C3","batch3","","null","<p class=block-text>Trial 55 out of 78</p>","null","pattern_show_trial_num","","","","","","","","","","","","","","","","","","","","","","","","",""
"","","","","","image-keyboard-response","131","619067","0.0-2.0-7.0-1.15","5d6f332829c25100188a4a27","C3","batch3","","1363.800000000745","stim/no_20_1_w.png","j","pattern_response","true","j","pattern_06","1363.800000000745","true","49","","","","","","","","","","","","","","","","","","",""
"","","","","","html-keyboard-response","132","620372","0.0-2.0-7.0-0.16","5d6f332829c25100188a4a27","C3","batch3","","null","<p class=block-text>Trial 56 out of 78</p>","null","pattern_show_trial_num","","","","","","","","","","","","","","","","","","","","","","","","",""
"","","","","","image-keyboard-response","133","622008","0.0-2.0-7.0-1.16","5d6f332829c25100188a4a27","C3","batch3","","1635.2000000029802","stim/yes_25_hor_b1_b.png","f","pattern_response","true","f","pattern_49","1635.2000000029802","true","50","","","","","","","","","","","","","","","","","","",""
"","","","","","html-keyboard-response","134","623326","0.0-2.0-7.0-0.17","5d6f332829c25100188a4a27","C3","batch3","","null","<p class=block-text>Trial 57 out of 78</p>","null","pattern_show_trial_num","","","","","","","","","","","","","","","","","","","","","","","","",""
"","","","","","image-keyboard-response","135","629668","0.0-2.0-7.0-1.17","5d6f332829c25100188a4a27","C3","batch3","","6340.699999999255","stim/no_70_2.png","j","pattern_response","true","j","pattern_40","6340.699999999255","true","51","","","","","","","","","","","","","","","","","","",""
"","","","","","html-keyboard-response","136","630990","0.0-2.0-7.0-0.18","5d6f332829c25100188a4a27","C3","batch3","","null","<p class=block-text>Trial 58 out of 78</p>","null","pattern_show_trial_num","","","","","","","","","","","","","","","","","","","","","","","","",""
"","","","","","image-keyboard-response","137","635366","0.0-2.0-7.0-1.18","5d6f332829c25100188a4a27","C3","batch3","","4374.699999999255","stim/no_55_1_w.png","j","pattern_response","true","j","pattern_34","4374.699999999255","true","52","","","","","","","","","","","","","","","","","","",""
"","","","","","html-keyboard-response","138","636682","0.0-2.0-7.0-0.19","5d6f332829c25100188a4a27","C3","batch3","","null","<p class=block-text>Trial 59 out of 78</p>","null","pattern_show_trial_num","","","","","","","","","","","","","","","","","","","","","","","","",""
"","","","","","image-keyboard-response","139","640170","0.0-2.0-7.0-1.19","5d6f332829c25100188a4a27","C3","batch3","","3486.5","stim/no_38_1_b.png","j","pattern_response","true","j","pattern_20","3486.5","true","53","","","","","","","","","","","","","","","","","","",""
"","","","","","html-keyboard-response","140","641484","0.0-2.0-7.0-0.20","5d6f332829c25100188a4a27","C3","batch3","","null","<p class=block-text>Trial 60 out of 78</p>","null","pattern_show_trial_num","","","","","","","","","","","","","","","","","","","","","","","","",""
"","","","","","image-keyboard-response","141","644993","0.0-2.0-7.0-1.20","5d6f332829c25100188a4a27","C3","batch3","","3507.10000000149","stim/no_32_1_w.png","j","pattern_response","true","j","pattern_14","3507.10000000149","true","54","","","","","","","","","","","","","","","","","","",""
"","","","","","html-keyboard-response","142","646321","0.0-2.0-7.0-0.21","5d6f332829c25100188a4a27","C3","batch3","","null","<p class=block-text>Trial 61 out of 78</p>","null","pattern_show_trial_num","","","","","","","","","","","","","","","","","","","","","","","","",""
"","","","","","image-keyboard-response","143","650783","0.0-2.0-7.0-1.21","5d6f332829c25100188a4a27","C3","batch3","","4460.900000002235","stim/no_44_1.png","j","pattern_response","true","j","pattern_24","4460.900000002235","true","55","","","","","","","","","","","","","","","","","","",""
"","","","","","html-keyboard-response","144","652101","0.0-2.0-7.0-0.22","5d6f332829c25100188a4a27","C3","batch3","","null","<p class=block-text>Trial 62 out of 78</p>","null","pattern_show_trial_num","","","","","","","","","","","","","","","","","","","","","","","","",""
"","","","","","image-keyboard-response","145","653974","0.0-2.0-7.0-1.22","5d6f332829c25100188a4a27","C3","batch3","","1871.800000000745","stim/yes_60_ver_b1_b.png","f","pattern_response","true","f","pattern_77","1871.800000000745","true","56","","","","","","","","","","","","","","","","","","",""
"","","","","","html-keyboard-response","146","655292","0.0-2.0-7.0-0.23","5d6f332829c25100188a4a27","C3","batch3","","null","<p class=block-text>Trial 63 out of 78</p>","null","pattern_show_trial_num","","","","","","","","","","","","","","","","","","","","","","","","",""
"","","","","","image-keyboard-response","147","658470","0.0-2.0-7.0-1.23","5d6f332829c25100188a4a27","C3","batch3","","3177.39999999851","stim/yes_55_hor_w1_w.png","f","pattern_response","true","f","pattern_75","3177.39999999851","true","57","","","","","","","","","","","","","","","","","","",""
"","","","","","html-keyboard-response","148","659795","0.0-2.0-7.0-0.24","5d6f332829c25100188a4a27","C3","batch3","","null","<p class=block-text>Trial 64 out of 78</p>","null","pattern_show_trial_num","","","","","","","","","","","","","","","","","","","","","","","","",""
"","","","","","image-keyboard-response","149","661090","0.0-2.0-7.0-1.24","5d6f332829c25100188a4a27","C3","batch3","","1293.7000000029802","stim/yes_29_ver_w1.png","f","pattern_response","true","f","pattern_53","1293.7000000029802","true","58","","","","","","","","","","","","","","","","","","",""
"","","","","","html-keyboard-response","150","662412","0.0-2.0-7.0-0.25","5d6f332829c25100188a4a27","C3","batch3","","null","<p class=block-text>Trial 65 out of 78</p>","null","pattern_show_trial_num","","","","","","","","","","","","","","","","","","","","","","","","",""
"","","","","","image-keyboard-response","151","664210","0.0-2.0-7.0-1.25","5d6f332829c25100188a4a27","C3","batch3","","1797.199999999255","stim/yes_45_hor_b2_b.png","f","pattern_response","true","f","pattern_67","1797.199999999255","true","59","","","","","","","","","","","","","","","","","","",""
"","","","","","html-keyboard-response","152","665530","0.0-2.0-7.0-0.26","5d6f332829c25100188a4a27","C3","batch3","","null","<p class=block-text>Trial 66 out of 78</p>","null","pattern_show_trial_num","","","","","","","","","","","","","","","","","","","","","","","","",""
"","","","","","image-keyboard-response","153","671430","0.0-2.0-7.0-1.26","5d6f332829c25100188a4a27","C3","batch3","","5897.900000002235","stim/no_62_1_w.png","j","pattern_response","true","j","pattern_36","5897.900000002235","true","60","","","","","","","","","","","","","","","","","","",""
"","","","","","html-keyboard-response","154","672744","0.0-2.0-7.0-0.27","5d6f332829c25100188a4a27","C3","batch3","","null","<p class=block-text>Trial 67 out of 78</p>","null","pattern_show_trial_num","","","","","","","","","","","","","","","","","","","","","","","","",""
"","","","","","image-keyboard-response","155","677697","0.0-2.0-7.0-1.27","5d6f332829c25100188a4a27","C3","batch3","","4951.699999999255","stim/no_48_1_w.png","j","pattern_response","true","j","pattern_28","4951.699999999255","true","61","","","","","","","","","","","","","","","","","","",""
"","","","","","html-keyboard-response","156","679003","0.0-2.0-7.0-0.28","5d6f332829c25100188a4a27","C3","batch3","","null","<p class=block-text>Trial 68 out of 78</p>","null","pattern_show_trial_num","","","","","","","","","","","","","","","","","","","","","","","","",""
"","","","","","image-keyboard-response","157","681120","0.0-2.0-7.0-1.28","5d6f332829c25100188a4a27","C3","batch3","","2115","stim/yes_31_hor_b1.png","f","pattern_response","true","f","pattern_55","2115","true","62","","","","","","","","","","","","","","","","","","",""
"","","","","","html-keyboard-response","158","682445","0.0-2.0-7.0-0.29","5d6f332829c25100188a4a27","C3","batch3","","null","<p class=block-text>Trial 69 out of 78</p>","null","pattern_show_trial_num","","","","","","","","","","","","","","","","","","","","","","","","",""
"","","","","","image-keyboard-response","159","686850","0.0-2.0-7.0-1.29","5d6f332829c25100188a4a27","C3","batch3","","4403.89999999851","stim/yes_48_dia_w1_w.png","j","pattern_response","false","f","pattern_69","4403.89999999851","false","62","","","","","","","","","","","","","","","","","","",""
"","","","","","html-keyboard-response","160","688172","0.0-2.0-7.0-0.30","5d6f332829c25100188a4a27","C3","batch3","","null","<p class=block-text>Trial 70 out of 78</p>","null","pattern_show_trial_num","","","","","","","","","","","","","","","","","","","","","","","","",""
"","","","","","image-keyboard-response","161","690459","0.0-2.0-7.0-1.30","5d6f332829c25100188a4a27","C3","batch3","","2285.89999999851","stim/yes_14_hor_b1_w.png","f","pattern_response","true","f","pattern_43","2285.89999999851","true","63","","","","","","","","","","","","","","","","","","",""
"","","","","","html-keyboard-response","162","691762","0.0-2.0-7.0-0.31","5d6f332829c25100188a4a27","C3","batch3","","null","<p class=block-text>Trial 71 out of 78</p>","null","pattern_show_trial_num","","","","","","","","","","","","","","","","","","","","","","","","",""
"","","","","","image-keyboard-response","163","697309","0.0-2.0-7.0-1.31","5d6f332829c25100188a4a27","C3","batch3","","5545.5","stim/no_52_1.png","j","pattern_response","true","j","pattern_32","5545.5","true","64","","","","","","","","","","","","","","","","","","",""
"","","","","","html-keyboard-response","164","698631","0.0-2.0-7.0-0.32","5d6f332829c25100188a4a27","C3","batch3","","null","<p class=block-text>Trial 72 out of 78</p>","null","pattern_show_trial_num","","","","","","","","","","","","","","","","","","","","","","","","",""
"","","","","","image-keyboard-response","165","705995","0.0-2.0-7.0-1.32","5d6f332829c25100188a4a27","C3","batch3","","7362.39999999851","stim/no_65_1_b.png","j","pattern_response","true","j","pattern_38","7362.39999999851","true","65","","","","","","","","","","","","","","","","","","",""
"","","","","","html-keyboard-response","166","707321","0.0-2.0-7.0-0.33","5d6f332829c25100188a4a27","C3","batch3","","null","<p class=block-text>Trial 73 out of 78</p>","null","pattern_show_trial_num","","","","","","","","","","","","","","","","","","","","","","","","",""
"","","","","","image-keyboard-response","167","708757","0.0-2.0-7.0-1.33","5d6f332829c25100188a4a27","C3","batch3","","1435.0999999977648","stim/yes_43_ver_w1_w.png","f","pattern_response","true","f","pattern_65","1435.0999999977648","true","66","","","","","","","","","","","","","","","","","","",""
"","","","","","html-keyboard-response","168","710074","0.0-2.0-7.0-0.34","5d6f332829c25100188a4a27","C3","batch3","","null","<p class=block-text>Trial 74 out of 78</p>","null","pattern_show_trial_num","","","","","","","","","","","","","","","","","","","","","","","","",""
"","","","","","image-keyboard-response","169","713127","0.0-2.0-7.0-1.34","5d6f332829c25100188a4a27","C3","batch3","","3051.60000000149","stim/no_34_1_b.png","j","pattern_response","true","j","pattern_16","3051.60000000149","true","67","","","","","","","","","","","","","","","","","","",""
"","","","","","html-keyboard-response","170","714449","0.0-2.0-7.0-0.35","5d6f332829c25100188a4a27","C3","batch3","","null","<p class=block-text>Trial 75 out of 78</p>","null","pattern_show_trial_num","","","","","","","","","","","","","","","","","","","","","","","","",""
"","","","","","image-keyboard-response","171","715620","0.0-2.0-7.0-1.35","5d6f332829c25100188a4a27","C3","batch3","","1170.199999999255","stim/yes_22_ver_w1.png","f","pattern_response","true","f","pattern_47","1170.199999999255","true","68","","","","","","","","","","","","","","","","","","",""
"","","","","","html-keyboard-response","172","716921","0.0-2.0-7.0-0.36","5d6f332829c25100188a4a27","C3","batch3","","null","<p class=block-text>Trial 76 out of 78</p>","null","pattern_show_trial_num","","","","","","","","","","","","","","","","","","","","","","","","",""
"","","","","","image-keyboard-response","173","721458","0.0-2.0-7.0-1.36","5d6f332829c25100188a4a27","C3","batch3","","4535.400000002235","stim/yes_37_dia_w1.png","f","pattern_response","true","f","pattern_59","4535.400000002235","true","69","","","","","","","","","","","","","","","","","","",""
"","","","","","html-keyboard-response","174","722761","0.0-2.0-7.0-0.37","5d6f332829c25100188a4a27","C3","batch3","","null","<p class=block-text>Trial 77 out of 78</p>","null","pattern_show_trial_num","","","","","","","","","","","","","","","","","","","","","","","","",""
"","","","","","image-keyboard-response","175","724314","0.0-2.0-7.0-1.37","5d6f332829c25100188a4a27","C3","batch3","","1551.300000000745","stim/yes_28_ver_b1.png","f","pattern_response","true","f","pattern_51","1551.300000000745","true","70","","","","","","","","","","","","","","","","","","",""
"","","","","","html-keyboard-response","176","725631","0.0-2.0-7.0-0.38","5d6f332829c25100188a4a27","C3","batch3","","null","<p class=block-text>Trial 78 out of 78</p>","null","pattern_show_trial_num","","","","","","","","","","","","","","","","","","","","","","","","",""
"","","","","","image-keyboard-response","177","728319","0.0-2.0-7.0-1.38","5d6f332829c25100188a4a27","C3","batch3","","2685.199999999255","stim/no_29_1_b.png","j","pattern_response","true","j","pattern_12","2685.199999999255","true","71","","","","","","","","","","","","","","","","","","",""
"","","","","","html-button-response","178","745339","0.0-2.0-8.0","5d6f332829c25100188a4a27","C3","batch3","","16518.10000000149","<p class = block-text>This concludes the 4-in-a-row detection game.Thank you for your responses!<br>
            You responded correctly on 91% of the trials.<br>
            When you are ready, press ""Continue"" button to continue </p>","0","","","","","","","","","","","","","","","","","","","","","","","","","",""
"true","","","","","fullscreen","179","751942","0.0-3.0-0.0","5d6f332829c25100188a4a27","C3","batch3","","","","","","","","","","","","","","","","","","","","","","","","","","","","","",""
"","","","","","instructions","180","959816","0.0-3.0-1.0-0.0-0.0","5d6f332829c25100188a4a27","C3","batch3","[{""page_index"":0,""viewing_time"":59459.699999999255},{""page_index"":1,""viewing_time"":68881.90000000224},{""page_index"":2,""viewing_time"":11698.699999999255},{""page_index"":3,""viewing_time"":25062.699999999255},{""page_index"":4,""viewing_time"":13701.10000000149},{""page_index"":5,""viewing_time"":21618.099999997765},{""page_index"":6,""viewing_time"":7450.699999999255}]","207873.19999999925","","","tol-instructions","","","","","","","","","","","","","","","","","","","","","","","","",""
"","","","","","html-button-response","181","962320","0.0-3.0-1.0-1.0-0.0","5d6f332829c25100188a4a27","C3","batch3","","2503.099999997765","<p class=block-text> Let's answer a few questions <br>","0","tol_enter_quiz","","","","","","","","","","","","","","","","","","","","","","","","",""
"","","","","","html-button-response","182","970628","0.0-3.0-1.0-1.0-1.0","5d6f332829c25100188a4a27","C3","batch3","","8306.5","<p class = block-text>True or False: You can only move the ball on top of a peg. <br></p>","1","tol_quiz","false","","","","","","","","","","","","","","","","","","","","","","","",""
"","","","","","html-button-response","183","972677","0.0-3.0-1.0-1.0-2.0","5d6f332829c25100188a4a27","C3","batch3","","2048.300000000745","<p class = block-text>Incorrect. Remember, you can only move the ball on top of a peg.</p>","0","tol_quiz_feedback","","","","","","","","","","","","","","","","","","","","","","","","",""
"","","","","","html-button-response","184","978808","0.0-3.0-1.0-1.0-3.0","5d6f332829c25100188a4a27","C3","batch3","","6129.89999999851","<p class = block-text>True or False: You should try to match your board with the target board with fewest moves possible. <br></p>","0","tol_quiz","true","","","","","","","","","","","","","","","","","","","","","","","",""
"","","","","","html-button-response","185","979754","0.0-3.0-1.0-1.0-4.0","5d6f332829c25100188a4a27","C3","batch3","","945.1000000014901","<p class = block-text>Correct! </p>","0","tol_quiz_feedback","","","","","","","","","","","","","","","","","","","","","","","","",""
"","","","","","html-button-response","186","984189","0.0-3.0-1.0-2.0-0.0","5d6f332829c25100188a4a27","C3","batch3","","4434.699999999255","<p class = block-text>You made too many incorrect choices.</p><p class = block-text>You will now repeat the instructions and quiz</p>","0","","","","","","","","","","","","","","","","","","","","","","","","","",""
"","","","","","instructions","187","1224397","0.0-3.0-1.1-0.1-0.1","5d6f332829c25100188a4a27","C3","batch3","[{""page_index"":0,""viewing_time"":45166.800000000745},{""page_index"":1,""viewing_time"":6070.099999997765},{""page_index"":2,""viewing_time"":33043.900000002235},{""page_index"":3,""viewing_time"":61874.89999999851},{""page_index"":4,""viewing_time"":35239.39999999851},{""page_index"":5,""viewing_time"":50206.70000000298},{""page_index"":6,""viewing_time"":8603.89999999851}]","240205.8999999985","","","tol-instructions","","","","","","","","","","","","","","","","","","","","","","","","",""
"","","","","","html-button-response","188","1226475","0.0-3.0-1.1-1.1-0.1","5d6f332829c25100188a4a27","C3","batch3","","2077.699999999255","<p class=block-text> Let's answer a few questions <br>","0","tol_enter_quiz","","","","","","","","","","","","","","","","","","","","","","","","",""
"","","","","","html-button-response","189","1388397","0.0-3.0-1.1-1.1-1.1","5d6f332829c25100188a4a27","C3","batch3","","161919.8999999985","<p class = block-text>True or False: You can only move the ball on top of a peg. <br></p>","1","tol_quiz","false","","","","","","","","","","","","","","","","","","","","","","","",""
"","","","","","html-button-response","190","1393628","0.0-3.0-1.1-1.1-2.1","5d6f332829c25100188a4a27","C3","batch3","","5230.5","<p class = block-text>Incorrect. Remember, you can only move the ball on top of a peg.</p>","0","tol_quiz_feedback","","","","","","","","","","","","","","","","","","","","","","","","",""
"","","","","","html-button-response","191","1400849","0.0-3.0-1.1-1.1-3.1","5d6f332829c25100188a4a27","C3","batch3","","7220.10000000149","<p class = block-text>True or False: You should try to match your board with the target board with fewest moves possible. <br></p>","0","tol_quiz","true","","","","","","","","","","","","","","","","","","","","","","","",""
"","","","","","html-button-response","192","1402011","0.0-3.0-1.1-1.1-4.1","5d6f332829c25100188a4a27","C3","batch3","","1161.3999999985099","<p class = block-text>Correct! </p>","0","tol_quiz_feedback","","","","","","","","","","","","","","","","","","","","","","","","",""
"","","","","","html-button-response","193","1404021","0.0-3.0-1.1-2.1-0.1","5d6f332829c25100188a4a27","C3","batch3","","2009.2000000029802","<p class = block-text>You made too many incorrect choices.</p><p class = block-text>You will now repeat the instructions and quiz</p>","0","","","","","","","","","","","","","","","","","","","","","","","","","",""
"","","","","","instructions","194","1417094","0.0-3.0-1.2-0.2-0.2","5d6f332829c25100188a4a27","C3","batch3","[{""page_index"":0,""viewing_time"":1428},{""page_index"":1,""viewing_time"":897.1999999992549},{""page_index"":2,""viewing_time"":845.8000000007451},{""page_index"":3,""viewing_time"":847.5},{""page_index"":4,""viewing_time"":542},{""page_index"":5,""viewing_time"":689.1000000014901},{""page_index"":6,""viewing_time"":7822.5}]","13072.39999999851","","","tol-instructions","","","","","","","","","","","","","","","","","","","","","","","","",""
"","","","","","html-button-response","195","1418936","0.0-3.0-1.2-1.2-0.2","5d6f332829c25100188a4a27","C3","batch3","","1841.300000000745","<p class=block-text> Let's answer a few questions <br>","0","tol_enter_quiz","","","","","","","","","","","","","","","","","","","","","","","","",""
"","","","","","html-button-response","196","1424563","0.0-3.0-1.2-1.2-1.2","5d6f332829c25100188a4a27","C3","batch3","","5625.800000000745","<p class = block-text>True or False: You can only move the ball on top of a peg. <br></p>","0","tol_quiz","true","","","","","","","","","","","","","","","","","","","","","","","",""
"","","","","","html-button-response","197","1425685","0.0-3.0-1.2-1.2-2.2","5d6f332829c25100188a4a27","C3","batch3","","1121.6000000014901","<p class = block-text>Correct! You can only move the ball on top of a peg.</p>","0","tol_quiz_feedback","","","","","","","","","","","","","","","","","","","","","","","","",""
"","","","","","html-button-response","198","1430958","0.0-3.0-1.2-1.2-3.2","5d6f332829c25100188a4a27","C3","batch3","","5271.599999997765","<p class = block-text>True or False: You should try to match your board with the target board with fewest moves possible. <br></p>","0","tol_quiz","true","","","","","","","","","","","","","","","","","","","","","","","",""
"","","","","","html-button-response","199","1431834","0.0-3.0-1.2-1.2-4.2","5d6f332829c25100188a4a27","C3","batch3","","876","<p class = block-text>Correct! </p>","0","tol_quiz_feedback","","","","","","","","","","","","","","","","","","","","","","","","",""
"","","","","","html-button-response","200","1435018","0.0-3.0-2.0","5d6f332829c25100188a4a27","C3","batch3","","3182.599999997765","<p class=block-text> Now that you've understood the game, let's practice a few easier examples before we start!<br> <br>","0","","","","","","","","","","","","","","","","","","","","","","","","","",""
"","","","","","single-stim-button","201","1442024","0.0-3.0-3.0-0.0","5d6f332829c25100188a4a27","C3","batch3","","7005","","","tol_practice","","","","","","","","","tol_peg_2","7005","7005","0","[[1,2,0],[0,0],[0]]","1","[[1,2,0],[0,0],[3]]","practice","7005","","","","","","","",""
"","","","","","single-stim-button","202","1444360","0.0-3.0-3.0-1.0","5d6f332829c25100188a4a27","C3","batch3","","2335","","","tol_practice","","","","","","","","","tol_peg_3","2335","2335","0","[[1,2,0],[0,0],[3]]","1","[[1,2,0],[0,0],[3]]","practice","2335","","","","","","","",""
"","","","","","poldrack-single-stim","203","1445373","0.0-3.0-4.0","5d6f332829c25100188a4a27","C3","batch3","","-1","","","tol_feedback","true","","","","","","","","","1000","1000","500","","","","","","-1","none","true","","0","","",""
"","","","","","single-stim-button","204","1448979","0.0-3.0-5.0-0.0","5d6f332829c25100188a4a27","C3","batch3","","3606","","","tol_practice","","","","","","","","","tol_peg_1","3606","3606","0","[[1,0,0],[3,0],[0]]","2","[[0,0,0],[3,1],[2]]","practice","3606","","","","","","","",""
"","","","","","single-stim-button","205","1450655","0.0-3.0-5.0-1.0","5d6f332829c25100188a4a27","C3","batch3","","1674","","","tol_practice","","","","","","","","","tol_peg_3","1674","1674","0","[[1,0,0],[3,0],[2]]","2","[[0,0,0],[3,1],[2]]","practice","1674","","","","","","","",""
"","","","","","single-stim-button","206","1451817","0.0-3.0-5.1-0.1","5d6f332829c25100188a4a27","C3","batch3","","1162","","","tol_practice","","","","","","","","","tol_peg_1","1162","1162","0","[[0,0,0],[3,0],[2]]","3","[[0,0,0],[3,1],[2]]","practice","1162","","","","","","","",""
"","","","","","single-stim-button","207","1452871","0.0-3.0-5.1-1.1","5d6f332829c25100188a4a27","C3","batch3","","1053","","","tol_practice","","","","","","","","","tol_peg_2","1053","1053","0","[[0,0,0],[3,1],[2]]","3","[[0,0,0],[3,1],[2]]","practice","1053","","","","","","","",""
"","","","","","poldrack-single-stim","208","1453874","0.0-3.0-6.0","5d6f332829c25100188a4a27","C3","batch3","","-1","","","tol_feedback","true","","","","","","","","","1000","1000","500","","","","","","-1","none","true","","0","","",""
"","","","","","single-stim-button","209","1458398","0.0-3.0-7.0-0.0","5d6f332829c25100188a4a27","C3","batch3","","4523","","","tol_practice","","","","","","","","","tol_peg_2","4523","4523","0","[[1,2,0],[0,0],[0]]","4","[[1,0,0],[2,0],[3]]","practice","4523","","","","","","","",""
"","","","","","single-stim-button","210","1459330","0.0-3.0-7.0-1.0","5d6f332829c25100188a4a27","C3","batch3","","931","","","tol_practice","","","","","","","","","tol_peg_3","931","931","0","[[1,2,0],[0,0],[3]]","4","[[1,0,0],[2,0],[3]]","practice","931","","","","","","","",""
"","","","","","single-stim-button","211","1460349","0.0-3.0-7.1-0.1","5d6f332829c25100188a4a27","C3","batch3","","1019","","","tol_practice","","","","","","","","","tol_peg_1","1019","1019","0","[[1,0,0],[0,0],[3]]","5","[[1,0,0],[2,0],[3]]","practice","1019","","","","","","","",""
"","","","","","single-stim-button","212","1461257","0.0-3.0-7.1-1.1","5d6f332829c25100188a4a27","C3","batch3","","907","","","tol_practice","","","","","","","","","tol_peg_2","907","907","0","[[1,0,0],[2,0],[3]]","5","[[1,0,0],[2,0],[3]]","practice","907","","","","","","","",""
"","","","","","poldrack-single-stim","213","1462260","0.0-3.0-8.0","5d6f332829c25100188a4a27","C3","batch3","","-1","","","tol_feedback","true","","","","","","","","","1000","1000","500","","","","","","-1","none","true","","0","","",""
"","","","","","html-button-response","214","1471316","0.0-3.0-9.0","5d6f332829c25100188a4a27","C3","batch3","","9055.900000002235","<div class = centerbox><p class = center-block-text>Great job! You are done with practice trials<br>You are about to start official trials.<br> <br> Problem <strong>1</strong> out of 25 problems</p></div>","0","tol_instruction","","","","","","","","","","","","","","","","","","","","","","","","",""
"","","","","","single-stim-button","215","1477879","0.0-3.0-10.0-0.0","5d6f332829c25100188a4a27","C3","batch3","","5558","","","tol_tohand","","","","","","","","","tol_peg_2","5558","5558","0","[[1,2,0],[0,0],[0]]","1","[[1,3,0],[2,0],[0]]","0","0","","","","","","3","",""
"","","","","","single-stim-button","216","1479495","0.0-3.0-10.0-1.0","5d6f332829c25100188a4a27","C3","batch3","","1615","","","tol_toboard","","","","","","","","","tol_peg_3","1615","1615","0","[[1,2,0],[0,0],[3]]","1","[[1,3,0],[2,0],[0]]","0","0","","","","","","3","",""
"","","","","","single-stim-button","217","1480516","0.0-3.0-10.1-0.1","5d6f332829c25100188a4a27","C3","batch3","","1021","","","tol_tohand","","","","","","","","","tol_peg_1","1021","1021","0","[[1,0,0],[0,0],[3]]","2","[[1,3,0],[2,0],[0]]","0","0","","","","","","3","",""
"","","","","","single-stim-button","218","1481260","0.0-3.0-10.1-1.1","5d6f332829c25100188a4a27","C3","batch3","","742","","","tol_toboard","","","","","","","","","tol_peg_2","742","742","0","[[1,0,0],[2,0],[3]]","2","[[1,3,0],[2,0],[0]]","0","0","","","","","","3","",""
"","","","","","single-stim-button","219","1483268","0.0-3.0-10.2-0.2","5d6f332829c25100188a4a27","C3","batch3","","2008","","","tol_tohand","","","","","","","","","tol_peg_3","2008","2008","0","[[1,0,0],[2,0],[0]]","3","[[1,3,0],[2,0],[0]]","0","0","","","","","","3","",""
"","","","","","single-stim-button","220","1484205","0.0-3.0-10.2-1.2","5d6f332829c25100188a4a27","C3","batch3","","936","","","tol_toboard","","","","","","","","","tol_peg_1","936","936","0","[[1,3,0],[2,0],[0]]","3","[[1,3,0],[2,0],[0]]","0","0","","","","","","3","",""
"","","","","","poldrack-single-stim","221","1485207","0.0-3.0-11.0","5d6f332829c25100188a4a27","C3","batch3","","-1","","","tol_feedback","true","","","","","","","","","1000","1000","500","","","","","","-1","none","true","5558","8587","","",""
"","","","","","html-button-response","222","1486708","0.0-3.0-12.0","5d6f332829c25100188a4a27","C3","batch3","","1500.300000000745","<div class = centerbox><p class = center-block-text>problem <strong>2</strong> out of 25 problems</p></div>","0","tol_trial_num","","","","","","","","","","","","","","","","","","","","","","","","",""
"","","","","","single-stim-button","223","1489402","0.0-3.0-13.0-0.0","5d6f332829c25100188a4a27","C3","batch3","","2692","","","tol_tohand","","","","","","","","","tol_peg_2","2692","2692","0","[[1,2,0],[0,0],[0]]","1","[[2,1,3],[0,0],[0]]","1","0","","","","","","5","",""
"","","","","","single-stim-button","224","1491104","0.0-3.0-13.0-1.0","5d6f332829c25100188a4a27","C3","batch3","","1701","","","tol_toboard","","","","","","","","","tol_peg_2","1701","1701","0","[[1,2,0],[3,0],[0]]","1","[[2,1,3],[0,0],[0]]","1","0","","","","","","5","",""
"","","","","","single-stim-button","225","1493462","0.0-3.0-13.1-0.1","5d6f332829c25100188a4a27","C3","batch3","","2357","","","tol_tohand","","","","","","","","","tol_peg_1","2357","2357","0","[[1,0,0],[3,0],[0]]","2","[[2,1,3],[0,0],[0]]","1","0","","","","","","5","",""
"","","","","","single-stim-button","226","1496771","0.0-3.0-13.1-1.1","5d6f332829c25100188a4a27","C3","batch3","","3309","","","tol_toboard","","","","","","","","","tol_peg_3","3309","3309","0","[[1,0,0],[3,0],[2]]","2","[[2,1,3],[0,0],[0]]","1","0","","","","","","5","",""
"","","","","","single-stim-button","227","1499836","0.0-3.0-13.2-0.2","5d6f332829c25100188a4a27","C3","batch3","","3065","","","tol_tohand","","","","","","","","","tol_peg_1","3065","3065","0","[[0,0,0],[3,0],[2]]","3","[[2,1,3],[0,0],[0]]","1","0","","","","","","5","",""
"","","","","","single-stim-button","228","1504777","0.0-3.0-13.2-1.2","5d6f332829c25100188a4a27","C3","batch3","","4937","","","tol_toboard","","","","","","","","","tol_peg_2","4937","4937","0","[[0,0,0],[3,1],[2]]","3","[[2,1,3],[0,0],[0]]","1","0","","","","","","5","",""
"","","","","","single-stim-button","229","1506429","0.0-3.0-13.3-0.3","5d6f332829c25100188a4a27","C3","batch3","","1651","","","tol_tohand","","","","","","","","","tol_peg_3","1651","1651","0","[[0,0,0],[3,1],[0]]","4","[[2,1,3],[0,0],[0]]","1","0","","","","","","5","",""
"","","","","","single-stim-button","230","1508330","0.0-3.0-13.3-1.3","5d6f332829c25100188a4a27","C3","batch3","","1900","","","tol_toboard","","","","","","","","","tol_peg_1","1900","1900","0","[[2,0,0],[3,1],[0]]","4","[[2,1,3],[0,0],[0]]","1","0","","","","","","5","",""
"","","","","","single-stim-button","231","1513151","0.0-3.0-13.4-0.4","5d6f332829c25100188a4a27","C3","batch3","","4821","","","tol_tohand","","","","","","","","","tol_peg_2","4821","4821","0","[[2,0,0],[3,0],[0]]","5","[[2,1,3],[0,0],[0]]","1","0","","","","","","5","",""
"","","","","","single-stim-button","232","1514710","0.0-3.0-13.4-1.4","5d6f332829c25100188a4a27","C3","batch3","","1557","","","tol_toboard","","","","","","","","","tol_peg_1","1557","1557","0","[[2,1,0],[3,0],[0]]","5","[[2,1,3],[0,0],[0]]","1","0","","","","","","5","",""
"","","","","","single-stim-button","233","1515433","0.0-3.0-13.5-0.5","5d6f332829c25100188a4a27","C3","batch3","","723","","","tol_tohand","","","","","","","","","tol_peg_2","723","723","0","[[2,1,0],[0,0],[0]]","6","[[2,1,3],[0,0],[0]]","1","0","","","","","","5","",""
"","","","","","single-stim-button","234","1516673","0.0-3.0-13.5-1.5","5d6f332829c25100188a4a27","C3","batch3","","1239","","","tol_toboard","","","","","","","","","tol_peg_1","1239","1239","0","[[2,1,3],[0,0],[0]]","6","[[2,1,3],[0,0],[0]]","1","0","","","","","","5","",""
"","","","","","poldrack-single-stim","235","1517678","0.0-3.0-14.0","5d6f332829c25100188a4a27","C3","batch3","","-1","","","tol_feedback","true","","","","","","","","","1000","1000","500","","","","","","-1","none","true","2692","15309","","",""
"","","","","","html-button-response","236","1519097","0.0-3.0-15.0","5d6f332829c25100188a4a27","C3","batch3","","1418.9000000022352","<div class = centerbox><p class = center-block-text>problem <strong>3</strong> out of 25 problems</p></div>","0","tol_trial_num","","","","","","","","","","","","","","","","","","","","","","","","",""
"","","","","","single-stim-button","237","1522302","0.0-3.0-16.0-0.0","5d6f332829c25100188a4a27","C3","batch3","","3204","","","tol_tohand","","","","","","","","","tol_peg_1","3204","3204","0","[[2,0,0],[0,0],[1]]","1","[[1,2,0],[3,0],[0]]","2","0","","","","","","4","",""
"","","","","","single-stim-button","238","1523906","0.0-3.0-16.0-1.0","5d6f332829c25100188a4a27","C3","batch3","","1604","","","tol_toboard","","","","","","","","","tol_peg_2","1604","1604","0","[[2,0,0],[3,0],[1]]","1","[[1,2,0],[3,0],[0]]","2","0","","","","","","4","",""
"","","","","","single-stim-button","239","1529594","0.0-3.0-16.1-0.1","5d6f332829c25100188a4a27","C3","batch3","","5686","","","tol_tohand","","","","","","","","","tol_peg_3","5686","5686","0","[[2,0,0],[3,0],[0]]","2","[[1,2,0],[3,0],[0]]","2","0","","","","","","4","",""
"","","","","","single-stim-button","240","1531130","0.0-3.0-16.1-1.1","5d6f332829c25100188a4a27","C3","batch3","","1536","","","tol_toboard","","","","","","","","","tol_peg_1","1536","1536","0","[[2,1,0],[3,0],[0]]","2","[[1,2,0],[3,0],[0]]","2","0","","","","","","4","",""
"","","","","","single-stim-button","241","1534363","0.0-3.0-16.2-0.2","5d6f332829c25100188a4a27","C3","batch3","","3232","","","tol_tohand","","","","","","","","","tol_peg_2","3232","3232","0","[[2,1,0],[0,0],[0]]","3","[[1,2,0],[3,0],[0]]","2","0","","","","","","4","",""
"","","","","","single-stim-button","242","1535481","0.0-3.0-16.2-1.2","5d6f332829c25100188a4a27","C3","batch3","","1118","","","tol_toboard","","","","","","","","","tol_peg_3","1118","1118","0","[[2,1,0],[0,0],[3]]","3","[[1,2,0],[3,0],[0]]","2","0","","","","","","4","",""
"","","","","","single-stim-button","243","1537214","0.0-3.0-16.3-0.3","5d6f332829c25100188a4a27","C3","batch3","","1733","","","tol_tohand","","","","","","","","","tol_peg_1","1733","1733","0","[[2,0,0],[0,0],[3]]","4","[[1,2,0],[3,0],[0]]","2","0","","","","","","4","",""
"","","","","","single-stim-button","244","1539367","0.0-3.0-16.3-1.3","5d6f332829c25100188a4a27","C3","batch3","","2153","","","tol_toboard","","","","","","","","","tol_peg_2","2153","2153","0","[[2,0,0],[1,0],[3]]","4","[[1,2,0],[3,0],[0]]","2","0","","","","","","4","",""
"","","","","","single-stim-button","245","1540569","0.0-3.0-16.4-0.4","5d6f332829c25100188a4a27","C3","batch3","","1201","","","tol_tohand","","","","","","","","","tol_peg_1","1201","1201","0","[[0,0,0],[1,0],[3]]","5","[[1,2,0],[3,0],[0]]","2","0","","","","","","4","",""
"","","","","","single-stim-button","246","1541634","0.0-3.0-16.4-1.4","5d6f332829c25100188a4a27","C3","batch3","","1065","","","tol_toboard","","","","","","","","","tol_peg_2","1065","1065","0","[[0,0,0],[1,2],[3]]","5","[[1,2,0],[3,0],[0]]","2","0","","","","","","4","",""
"","","","","","single-stim-button","247","1545379","0.0-3.0-16.5-0.5","5d6f332829c25100188a4a27","C3","batch3","","3745","","","tol_tohand","","","","","","","","","tol_peg_3","3745","3745","0","[[0,0,0],[1,2],[0]]","6","[[1,2,0],[3,0],[0]]","2","0","","","","","","4","",""
"","","","","","single-stim-button","248","1546521","0.0-3.0-16.5-1.5","5d6f332829c25100188a4a27","C3","batch3","","1141","","","tol_toboard","","","","","","","","","tol_peg_1","1141","1141","0","[[3,0,0],[1,2],[0]]","6","[[1,2,0],[3,0],[0]]","2","0","","","","","","4","",""
"","","","","","single-stim-button","249","1548426","0.0-3.0-16.6-0.6","5d6f332829c25100188a4a27","C3","batch3","","1903","","","tol_tohand","","","","","","","","","tol_peg_2","1903","1903","0","[[3,0,0],[1,0],[0]]","7","[[1,2,0],[3,0],[0]]","2","0","","","","","","4","",""
"","","","","","single-stim-button","250","1549688","0.0-3.0-16.6-1.6","5d6f332829c25100188a4a27","C3","batch3","","1261","","","tol_toboard","","","","","","","","","tol_peg_3","1261","1261","0","[[3,0,0],[1,0],[2]]","7","[[1,2,0],[3,0],[0]]","2","0","","","","","","4","",""
"","","","","","single-stim-button","251","1552012","0.0-3.0-16.7-0.7","5d6f332829c25100188a4a27","C3","batch3","","2324","","","tol_tohand","","","","","","","","","tol_peg_2","2324","2324","0","[[3,0,0],[0,0],[2]]","8","[[1,2,0],[3,0],[0]]","2","0","","","","","","4","",""
"","","","","","single-stim-button","252","1553439","0.0-3.0-16.7-1.7","5d6f332829c25100188a4a27","C3","batch3","","1426","","","tol_toboard","","","","","","","","","tol_peg_1","1426","1426","0","[[3,1,0],[0,0],[2]]","8","[[1,2,0],[3,0],[0]]","2","0","","","","","","4","",""
"","","","","","single-stim-button","253","1556272","0.0-3.0-16.8-0.8","5d6f332829c25100188a4a27","C3","batch3","","2832","","","tol_tohand","","","","","","","","","tol_peg_3","2832","2832","0","[[3,1,0],[0,0],[0]]","9","[[1,2,0],[3,0],[0]]","2","0","","","","","","4","",""
"","","","","","single-stim-button","254","1557152","0.0-3.0-16.8-1.8","5d6f332829c25100188a4a27","C3","batch3","","880","","","tol_toboard","","","","","","","","","tol_peg_2","880","880","0","[[3,1,0],[2,0],[0]]","9","[[1,2,0],[3,0],[0]]","2","0","","","","","","4","",""
"","","","","","single-stim-button","255","1558326","0.0-3.0-16.9-0.9","5d6f332829c25100188a4a27","C3","batch3","","1173","","","tol_tohand","","","","","","","","","tol_peg_1","1173","1173","0","[[3,0,0],[2,0],[0]]","10","[[1,2,0],[3,0],[0]]","2","0","","","","","","4","",""
"","","","","","single-stim-button","256","1559329","0.0-3.0-16.9-1.9","5d6f332829c25100188a4a27","C3","batch3","","1003","","","tol_toboard","","","","","","","","","tol_peg_3","1003","1003","0","[[3,0,0],[2,0],[1]]","10","[[1,2,0],[3,0],[0]]","2","0","","","","","","4","",""
"","","","","","single-stim-button","257","1561977","0.0-3.0-16.10-0.10","5d6f332829c25100188a4a27","C3","batch3","","2648","","","tol_tohand","","","","","","","","","tol_peg_1","2648","2648","0","[[0,0,0],[2,0],[1]]","11","[[1,2,0],[3,0],[0]]","2","0","","","","","","4","",""
"","","","","","single-stim-button","258","1563036","0.0-3.0-16.10-1.10","5d6f332829c25100188a4a27","C3","batch3","","1058","","","tol_toboard","","","","","","","","","tol_peg_2","1058","1058","0","[[0,0,0],[2,3],[1]]","11","[[1,2,0],[3,0],[0]]","2","0","","","","","","4","",""
"","","","","","single-stim-button","259","1563761","0.0-3.0-16.11-0.11","5d6f332829c25100188a4a27","C3","batch3","","724","","","tol_tohand","","","","","","","","","tol_peg_3","724","724","0","[[0,0,0],[2,3],[0]]","12","[[1,2,0],[3,0],[0]]","2","0","","","","","","4","",""
"","","","","","single-stim-button","260","1564944","0.0-3.0-16.11-1.11","5d6f332829c25100188a4a27","C3","batch3","","1182","","","tol_toboard","","","","","","","","","tol_peg_1","1182","1182","0","[[1,0,0],[2,3],[0]]","12","[[1,2,0],[3,0],[0]]","2","0","","","","","","4","",""
"","","","","","single-stim-button","261","1567302","0.0-3.0-16.12-0.12","5d6f332829c25100188a4a27","C3","batch3","","2357","","","tol_tohand","","","","","","","","","tol_peg_2","2357","2357","0","[[1,0,0],[2,0],[0]]","13","[[1,2,0],[3,0],[0]]","2","0","","","","","","4","",""
"","","","","","single-stim-button","262","1569084","0.0-3.0-16.12-1.12","5d6f332829c25100188a4a27","C3","batch3","","1782","","","tol_toboard","","","","","","","","","tol_peg_3","1782","1782","0","[[1,0,0],[2,0],[3]]","13","[[1,2,0],[3,0],[0]]","2","0","","","","","","4","",""
"","","","","","single-stim-button","263","1572907","0.0-3.0-16.13-0.13","5d6f332829c25100188a4a27","C3","batch3","","3823","","","tol_tohand","","","","","","","","","tol_peg_2","3823","3823","0","[[1,0,0],[0,0],[3]]","14","[[1,2,0],[3,0],[0]]","2","0","","","","","","4","",""
"","","","","","single-stim-button","264","1574148","0.0-3.0-16.13-1.13","5d6f332829c25100188a4a27","C3","batch3","","1240","","","tol_toboard","","","","","","","","","tol_peg_1","1240","1240","0","[[1,2,0],[0,0],[3]]","14","[[1,2,0],[3,0],[0]]","2","0","","","","","","4","",""
"","","","","","single-stim-button","265","1575331","0.0-3.0-16.14-0.14","5d6f332829c25100188a4a27","C3","batch3","","1181","","","tol_tohand","","","","","","","","","tol_peg_3","1181","1181","0","[[1,2,0],[0,0],[0]]","15","[[1,2,0],[3,0],[0]]","2","0","","","","","","4","",""
"","","","","","single-stim-button","266","1576266","0.0-3.0-16.14-1.14","5d6f332829c25100188a4a27","C3","batch3","","935","","","tol_toboard","","","","","","","","","tol_peg_2","935","935","0","[[1,2,0],[3,0],[0]]","15","[[1,2,0],[3,0],[0]]","2","0","","","","","","4","",""
"","","","","","poldrack-single-stim","267","1577278","0.0-3.0-17.0","5d6f332829c25100188a4a27","C3","batch3","","-1","","","tol_feedback","true","","","","","","","","","1000","1000","500","","","","","","-1","none","true","3204","37766","","",""
"","","","","","html-button-response","268","1578549","0.0-3.0-18.0","5d6f332829c25100188a4a27","C3","batch3","","1269.8999999985099","<div class = centerbox><p class = center-block-text>problem <strong>4</strong> out of 25 problems</p></div>","0","tol_trial_num","","","","","","","","","","","","","","","","","","","","","","","","",""
"","","","","","single-stim-button","269","1586908","0.0-3.0-19.0-0.0","5d6f332829c25100188a4a27","C3","batch3","","8359","","","tol_tohand","","","","","","","","","tol_peg_2","8359","8359","0","[[3,0,0],[2,0],[0]]","1","[[3,0,0],[1,0],[2]]","3","0","","","","","","3","",""
"","","","","","single-stim-button","270","1587713","0.0-3.0-19.0-1.0","5d6f332829c25100188a4a27","C3","batch3","","804","","","tol_toboard","","","","","","","","","tol_peg_1","804","804","0","[[3,1,0],[2,0],[0]]","1","[[3,0,0],[1,0],[2]]","3","0","","","","","","3","",""
"","","","","","single-stim-button","271","1588898","0.0-3.0-19.1-0.1","5d6f332829c25100188a4a27","C3","batch3","","1185","","","tol_tohand","","","","","","","","","tol_peg_2","1185","1185","0","[[3,1,0],[0,0],[0]]","2","[[3,0,0],[1,0],[2]]","3","0","","","","","","3","",""
"","","","","","single-stim-button","272","1589913","0.0-3.0-19.1-1.1","5d6f332829c25100188a4a27","C3","batch3","","1014","","","tol_toboard","","","","","","","","","tol_peg_3","1014","1014","0","[[3,1,0],[0,0],[2]]","2","[[3,0,0],[1,0],[2]]","3","0","","","","","","3","",""
"","","","","","single-stim-button","273","1590908","0.0-3.0-19.2-0.2","5d6f332829c25100188a4a27","C3","batch3","","993","","","tol_tohand","","","","","","","","","tol_peg_1","993","993","0","[[3,0,0],[0,0],[2]]","3","[[3,0,0],[1,0],[2]]","3","0","","","","","","3","",""
"","","","","","single-stim-button","274","1591963","0.0-3.0-19.2-1.2","5d6f332829c25100188a4a27","C3","batch3","","1055","","","tol_toboard","","","","","","","","","tol_peg_2","1055","1055","0","[[3,0,0],[1,0],[2]]","3","[[3,0,0],[1,0],[2]]","3","0","","","","","","3","",""
"","","","","","poldrack-single-stim","275","1592969","0.0-3.0-20.0","5d6f332829c25100188a4a27","C3","batch3","","-1","","","tol_feedback","true","","","","","","","","","1000","1000","500","","","","","","-1","none","true","8359","10537","","",""
"","","","","","html-button-response","276","1594289","0.0-3.0-21.0","5d6f332829c25100188a4a27","C3","batch3","","1318.800000000745","<div class = centerbox><p class = center-block-text>problem <strong>5</strong> out of 25 problems</p></div>","0","tol_trial_num","","","","","","","","","","","","","","","","","","","","","","","","",""
"","","","","","single-stim-button","277","1597560","0.0-3.0-22.0-0.0","5d6f332829c25100188a4a27","C3","batch3","","3270","","","tol_tohand","","","","","","","","","tol_peg_1","3270","3270","0","[[0,0,0],[2,0],[3]]","1","[[0,0,0],[1,2],[3]]","4","0","","","","","","7","",""
"","","","","","single-stim-button","278","1598487","0.0-3.0-22.0-1.0","5d6f332829c25100188a4a27","C3","batch3","","927","","","tol_toboard","","","","","","","","","tol_peg_2","927","927","0","[[0,0,0],[2,1],[3]]","1","[[0,0,0],[1,2],[3]]","4","0","","","","","","7","",""
"","","","","","single-stim-button","279","1602254","0.0-3.0-22.1-0.1","5d6f332829c25100188a4a27","C3","batch3","","3767","","","tol_tohand","","","","","","","","","tol_peg_2","3767","3767","0","[[0,0,0],[2,0],[3]]","2","[[0,0,0],[1,2],[3]]","4","0","","","","","","7","",""
"","","","","","single-stim-button","280","1604142","0.0-3.0-22.1-1.1","5d6f332829c25100188a4a27","C3","batch3","","1887","","","tol_toboard","","","","","","","","","tol_peg_1","1887","1887","0","[[1,0,0],[2,0],[3]]","2","[[0,0,0],[1,2],[3]]","4","0","","","","","","7","",""
"","","","","","single-stim-button","281","1609994","0.0-3.0-22.2-0.2","5d6f332829c25100188a4a27","C3","batch3","","5851","","","tol_tohand","","","","","","","","","tol_peg_3","5851","5851","0","[[1,0,0],[2,0],[0]]","3","[[0,0,0],[1,2],[3]]","4","0","","","","","","7","",""
"","","","","","single-stim-button","282","1611077","0.0-3.0-22.2-1.2","5d6f332829c25100188a4a27","C3","batch3","","1083","","","tol_toboard","","","","","","","","","tol_peg_1","1083","1083","0","[[1,3,0],[2,0],[0]]","3","[[0,0,0],[1,2],[3]]","4","0","","","","","","7","",""
"","","","","","single-stim-button","283","1612133","0.0-3.0-22.3-0.3","5d6f332829c25100188a4a27","C3","batch3","","1055","","","tol_tohand","","","","","","","","","tol_peg_2","1055","1055","0","[[1,3,0],[0,0],[0]]","4","[[0,0,0],[1,2],[3]]","4","0","","","","","","7","",""
"","","","","","single-stim-button","284","1613170","0.0-3.0-22.3-1.3","5d6f332829c25100188a4a27","C3","batch3","","1036","","","tol_toboard","","","","","","","","","tol_peg_3","1036","1036","0","[[1,3,0],[0,0],[2]]","4","[[0,0,0],[1,2],[3]]","4","0","","","","","","7","",""
"","","","","","single-stim-button","285","1614727","0.0-3.0-22.4-0.4","5d6f332829c25100188a4a27","C3","batch3","","1556","","","tol_tohand","","","","","","","","","tol_peg_1","1556","1556","0","[[1,0,0],[0,0],[2]]","5","[[0,0,0],[1,2],[3]]","4","0","","","","","","7","",""
"","","","","","single-stim-button","286","1615642","0.0-3.0-22.4-1.4","5d6f332829c25100188a4a27","C3","batch3","","915","","","tol_toboard","","","","","","","","","tol_peg_2","915","915","0","[[1,0,0],[3,0],[2]]","5","[[0,0,0],[1,2],[3]]","4","0","","","","","","7","",""
"","","","","","single-stim-button","287","1618148","0.0-3.0-22.5-0.5","5d6f332829c25100188a4a27","C3","batch3","","2504","","","tol_tohand","","","","","","","","","tol_peg_1","2504","2504","0","[[0,0,0],[3,0],[2]]","6","[[0,0,0],[1,2],[3]]","4","0","","","","","","7","",""
"","","","","","single-stim-button","288","1624596","0.0-3.0-22.5-1.5","5d6f332829c25100188a4a27","C3","batch3","","6448","","","tol_toboard","","","","","","","","","tol_peg_2","6448","6448","0","[[0,0,0],[3,1],[2]]","6","[[0,0,0],[1,2],[3]]","4","0","","","","","","7","",""
"","","","","","single-stim-button","289","1628805","0.0-3.0-22.6-0.6","5d6f332829c25100188a4a27","C3","batch3","","4207","","","tol_tohand","","","","","","","","","tol_peg_3","4207","4207","0","[[0,0,0],[3,1],[0]]","7","[[0,0,0],[1,2],[3]]","4","0","","","","","","7","",""
"","","","","","single-stim-button","290","1630232","0.0-3.0-22.6-1.6","5d6f332829c25100188a4a27","C3","batch3","","1427","","","tol_toboard","","","","","","","","","tol_peg_1","1427","1427","0","[[2,0,0],[3,1],[0]]","7","[[0,0,0],[1,2],[3]]","4","0","","","","","","7","",""
"","","","","","single-stim-button","291","1632138","0.0-3.0-22.7-0.7","5d6f332829c25100188a4a27","C3","batch3","","1906","","","tol_tohand","","","","","","","","","tol_peg_2","1906","1906","0","[[2,0,0],[3,0],[0]]","8","[[0,0,0],[1,2],[3]]","4","0","","","","","","7","",""
"","","","","","single-stim-button","292","1633304","0.0-3.0-22.7-1.7","5d6f332829c25100188a4a27","C3","batch3","","1165","","","tol_toboard","","","","","","","","","tol_peg_3","1165","1165","0","[[2,0,0],[3,0],[1]]","8","[[0,0,0],[1,2],[3]]","4","0","","","","","","7","",""
"","","","","","single-stim-button","293","1635267","0.0-3.0-22.8-0.8","5d6f332829c25100188a4a27","C3","batch3","","1962","","","tol_tohand","","","","","","","","","tol_peg_2","1962","1962","0","[[2,0,0],[0,0],[1]]","9","[[0,0,0],[1,2],[3]]","4","0","","","","","","7","",""
"","","","","","single-stim-button","294","1637049","0.0-3.0-22.8-1.8","5d6f332829c25100188a4a27","C3","batch3","","1781","","","tol_toboard","","","","","","","","","tol_peg_1","1781","1781","0","[[2,3,0],[0,0],[1]]","9","[[0,0,0],[1,2],[3]]","4","0","","","","","","7","",""
"","","","","","single-stim-button","295","1638146","0.0-3.0-22.9-0.9","5d6f332829c25100188a4a27","C3","batch3","","1097","","","tol_tohand","","","","","","","","","tol_peg_3","1097","1097","0","[[2,3,0],[0,0],[0]]","10","[[0,0,0],[1,2],[3]]","4","0","","","","","","7","",""
"","","","","","single-stim-button","296","1638938","0.0-3.0-22.9-1.9","5d6f332829c25100188a4a27","C3","batch3","","792","","","tol_toboard","","","","","","","","","tol_peg_2","792","792","0","[[2,3,0],[1,0],[0]]","10","[[0,0,0],[1,2],[3]]","4","0","","","","","","7","",""
"","","","","","single-stim-button","297","1639555","0.0-3.0-22.10-0.10","5d6f332829c25100188a4a27","C3","batch3","","616","","","tol_tohand","","","","","","","","","tol_peg_1","616","616","0","[[2,0,0],[1,0],[0]]","11","[[0,0,0],[1,2],[3]]","4","0","","","","","","7","",""
"","","","","","single-stim-button","298","1640653","0.0-3.0-22.10-1.10","5d6f332829c25100188a4a27","C3","batch3","","1097","","","tol_toboard","","","","","","","","","tol_peg_3","1097","1097","0","[[2,0,0],[1,0],[3]]","11","[[0,0,0],[1,2],[3]]","4","0","","","","","","7","",""
"","","","","","single-stim-button","299","1641750","0.0-3.0-22.11-0.11","5d6f332829c25100188a4a27","C3","batch3","","1097","","","tol_tohand","","","","","","","","","tol_peg_1","1097","1097","0","[[0,0,0],[1,0],[3]]","12","[[0,0,0],[1,2],[3]]","4","0","","","","","","7","",""
"","","","","","single-stim-button","300","1642731","0.0-3.0-22.11-1.11","5d6f332829c25100188a4a27","C3","batch3","","980","","","tol_toboard","","","","","","","","","tol_peg_2","980","980","0","[[0,0,0],[1,2],[3]]","12","[[0,0,0],[1,2],[3]]","4","0","","","","","","7","",""
"","","","","","poldrack-single-stim","301","1643738","0.0-3.0-23.0","5d6f332829c25100188a4a27","C3","batch3","","-1","","","tol_feedback","true","","","","","","","","","1000","1000","500","","","","","","-1","none","true","3270","28888","","",""
"","","","","","html-button-response","302","1645280","0.0-3.0-24.0","5d6f332829c25100188a4a27","C3","batch3","","1540.3999999985099","<div class = centerbox><p class = center-block-text>problem <strong>6</strong> out of 25 problems</p></div>","0","tol_trial_num","","","","","","","","","","","","","","","","","","","","","","","","",""
"","","","","","single-stim-button","303","1654302","0.0-3.0-25.0-0.0","5d6f332829c25100188a4a27","C3","batch3","","9022","","","tol_tohand","","","","","","","","","tol_peg_3","9022","9022","0","[[0,0,0],[1,2],[0]]","1","[[1,0,0],[2,3],[0]]","5","0","","","","","","6","",""
"","","","","","single-stim-button","304","1655209","0.0-3.0-25.0-1.0","5d6f332829c25100188a4a27","C3","batch3","","906","","","tol_toboard","","","","","","","","","tol_peg_1","906","906","0","[[3,0,0],[1,2],[0]]","1","[[1,0,0],[2,3],[0]]","5","0","","","","","","6","",""
"","","","","","single-stim-button","305","1660264","0.0-3.0-25.1-0.1","5d6f332829c25100188a4a27","C3","batch3","","5053","","","tol_tohand","","","","","","","","","tol_peg_2","5053","5053","0","[[3,0,0],[1,0],[0]]","2","[[1,0,0],[2,3],[0]]","5","0","","","","","","6","",""
"","","","","","single-stim-button","306","1661460","0.0-3.0-25.1-1.1","5d6f332829c25100188a4a27","C3","batch3","","1195","","","tol_toboard","","","","","","","","","tol_peg_3","1195","1195","0","[[3,0,0],[1,0],[2]]","2","[[1,0,0],[2,3],[0]]","5","0","","","","","","6","",""
"","","","","","single-stim-button","307","1662540","0.0-3.0-25.2-0.2","5d6f332829c25100188a4a27","C3","batch3","","1080","","","tol_tohand","","","","","","","","","tol_peg_2","1080","1080","0","[[3,0,0],[0,0],[2]]","3","[[1,0,0],[2,3],[0]]","5","0","","","","","","6","",""
"","","","","","single-stim-button","308","1663387","0.0-3.0-25.2-1.2","5d6f332829c25100188a4a27","C3","batch3","","846","","","tol_toboard","","","","","","","","","tol_peg_1","846","846","0","[[3,1,0],[0,0],[2]]","3","[[1,0,0],[2,3],[0]]","5","0","","","","","","6","",""
"","","","","","single-stim-button","309","1664285","0.0-3.0-25.3-0.3","5d6f332829c25100188a4a27","C3","batch3","","898","","","tol_tohand","","","","","","","","","tol_peg_3","898","898","0","[[3,1,0],[0,0],[0]]","4","[[1,0,0],[2,3],[0]]","5","0","","","","","","6","",""
"","","","","","single-stim-button","310","1665032","0.0-3.0-25.3-1.3","5d6f332829c25100188a4a27","C3","batch3","","747","","","tol_toboard","","","","","","","","","tol_peg_2","747","747","0","[[3,1,0],[2,0],[0]]","4","[[1,0,0],[2,3],[0]]","5","0","","","","","","6","",""
"","","","","","single-stim-button","311","1667575","0.0-3.0-25.4-0.4","5d6f332829c25100188a4a27","C3","batch3","","2542","","","tol_tohand","","","","","","","","","tol_peg_1","2542","2542","0","[[3,0,0],[2,0],[0]]","5","[[1,0,0],[2,3],[0]]","5","0","","","","","","6","",""
"","","","","","single-stim-button","312","1670126","0.0-3.0-25.4-1.4","5d6f332829c25100188a4a27","C3","batch3","","2551","","","tol_toboard","","","","","","","","","tol_peg_3","2551","2551","0","[[3,0,0],[2,0],[1]]","5","[[1,0,0],[2,3],[0]]","5","0","","","","","","6","",""
"","","","","","single-stim-button","313","1671741","0.0-3.0-25.5-0.5","5d6f332829c25100188a4a27","C3","batch3","","1614","","","tol_tohand","","","","","","","","","tol_peg_1","1614","1614","0","[[0,0,0],[2,0],[1]]","6","[[1,0,0],[2,3],[0]]","5","0","","","","","","6","",""
"","","","","","single-stim-button","314","1672524","0.0-3.0-25.5-1.5","5d6f332829c25100188a4a27","C3","batch3","","782","","","tol_toboard","","","","","","","","","tol_peg_2","782","782","0","[[0,0,0],[2,3],[1]]","6","[[1,0,0],[2,3],[0]]","5","0","","","","","","6","",""
"","","","","","single-stim-button","315","1673457","0.0-3.0-25.6-0.6","5d6f332829c25100188a4a27","C3","batch3","","932","","","tol_tohand","","","","","","","","","tol_peg_3","932","932","0","[[0,0,0],[2,3],[0]]","7","[[1,0,0],[2,3],[0]]","5","0","","","","","","6","",""
"","","","","","single-stim-button","316","1674708","0.0-3.0-25.6-1.6","5d6f332829c25100188a4a27","C3","batch3","","1251","","","tol_toboard","","","","","","","","","tol_peg_1","1251","1251","0","[[1,0,0],[2,3],[0]]","7","[[1,0,0],[2,3],[0]]","5","0","","","","","","6","",""
"","","","","","poldrack-single-stim","317","1675709","0.0-3.0-26.0","5d6f332829c25100188a4a27","C3","batch3","","-1","","","tol_feedback","true","","","","","","","","","1000","1000","500","","","","","","-1","none","true","9022","21141","","",""
"","","","","","html-button-response","318","1677339","0.0-3.0-27.0","5d6f332829c25100188a4a27","C3","batch3","","1629.1000000014901","<div class = centerbox><p class = center-block-text>problem <strong>7</strong> out of 25 problems</p></div>","0","tol_trial_num","","","","","","","","","","","","","","","","","","","","","","","","",""
"","","","","","single-stim-button","319","1681709","0.0-3.0-28.0-0.0","5d6f332829c25100188a4a27","C3","batch3","","4369","","","tol_tohand","","","","","","","","","tol_peg_1","4369","4369","0","[[2,0,0],[0,0],[3]]","1","[[1,2,0],[3,0],[0]]","6","0","","","","","","5","",""
"","","","","","single-stim-button","320","1682638","0.0-3.0-28.0-1.0","5d6f332829c25100188a4a27","C3","batch3","","929","","","tol_toboard","","","","","","","","","tol_peg_1","929","929","0","[[2,1,0],[0,0],[3]]","1","[[1,2,0],[3,0],[0]]","6","0","","","","","","5","",""
"","","","","","single-stim-button","321","1685473","0.0-3.0-28.1-0.1","5d6f332829c25100188a4a27","C3","batch3","","2835","","","tol_tohand","","","","","","","","","tol_peg_3","2835","2835","0","[[2,1,0],[0,0],[0]]","2","[[1,2,0],[3,0],[0]]","6","0","","","","","","5","",""
"","","","","","single-stim-button","322","1687211","0.0-3.0-28.1-1.1","5d6f332829c25100188a4a27","C3","batch3","","1738","","","tol_toboard","","","","","","","","","tol_peg_2","1738","1738","0","[[2,1,0],[3,0],[0]]","2","[[1,2,0],[3,0],[0]]","6","0","","","","","","5","",""
"","","","","","single-stim-button","323","1689637","0.0-3.0-28.2-0.2","5d6f332829c25100188a4a27","C3","batch3","","2425","","","tol_tohand","","","","","","","","","tol_peg_1","2425","2425","0","[[2,0,0],[3,0],[0]]","3","[[1,2,0],[3,0],[0]]","6","0","","","","","","5","",""
"","","","","","single-stim-button","324","1691267","0.0-3.0-28.2-1.2","5d6f332829c25100188a4a27","C3","batch3","","1630","","","tol_toboard","","","","","","","","","tol_peg_2","1630","1630","0","[[2,0,0],[3,1],[0]]","3","[[1,2,0],[3,0],[0]]","6","0","","","","","","5","",""
"","","","","","single-stim-button","325","1693754","0.0-3.0-28.3-0.3","5d6f332829c25100188a4a27","C3","batch3","","2486","","","tol_tohand","","","","","","","","","tol_peg_1","2486","2486","0","[[0,0,0],[3,1],[0]]","4","[[1,2,0],[3,0],[0]]","6","0","","","","","","5","",""
"","","","","","single-stim-button","326","1694897","0.0-3.0-28.3-1.3","5d6f332829c25100188a4a27","C3","batch3","","1142","","","tol_toboard","","","","","","","","","tol_peg_3","1142","1142","0","[[0,0,0],[3,1],[2]]","4","[[1,2,0],[3,0],[0]]","6","0","","","","","","5","",""
"","","","","","single-stim-button","327","1695767","0.0-3.0-28.4-0.4","5d6f332829c25100188a4a27","C3","batch3","","868","","","tol_tohand","","","","","","","","","tol_peg_2","868","868","0","[[0,0,0],[3,0],[2]]","5","[[1,2,0],[3,0],[0]]","6","0","","","","","","5","",""
"","","","","","single-stim-button","328","1697197","0.0-3.0-28.4-1.4","5d6f332829c25100188a4a27","C3","batch3","","1430","","","tol_toboard","","","","","","","","","tol_peg_1","1430","1430","0","[[1,0,0],[3,0],[2]]","5","[[1,2,0],[3,0],[0]]","6","0","","","","","","5","",""
"","","","","","single-stim-button","329","1699286","0.0-3.0-28.5-0.5","5d6f332829c25100188a4a27","C3","batch3","","2089","","","tol_tohand","","","","","","","","","tol_peg_3","2089","2089","0","[[1,0,0],[3,0],[0]]","6","[[1,2,0],[3,0],[0]]","6","0","","","","","","5","",""
"","","","","","single-stim-button","330","1700473","0.0-3.0-28.5-1.5","5d6f332829c25100188a4a27","C3","batch3","","1185","","","tol_toboard","","","","","","","","","tol_peg_1","1185","1185","0","[[1,2,0],[3,0],[0]]","6","[[1,2,0],[3,0],[0]]","6","0","","","","","","5","",""
"","","","","","poldrack-single-stim","331","1701474","0.0-3.0-29.0","5d6f332829c25100188a4a27","C3","batch3","","-1","","","tol_feedback","true","","","","","","","","","1000","1000","500","","","","","","-1","none","true","4369","15072","","",""
"","","","","","html-button-response","332","1703042","0.0-3.0-30.0","5d6f332829c25100188a4a27","C3","batch3","","1566.9000000022352","<div class = centerbox><p class = center-block-text>problem <strong>8</strong> out of 25 problems</p></div>","0","tol_trial_num","","","","","","","","","","","","","","","","","","","","","","","","",""
"","","","","","single-stim-button","333","1707754","0.0-3.0-31.0-0.0","5d6f332829c25100188a4a27","C3","batch3","","4712","","","tol_tohand","","","","","","","","","tol_peg_2","4712","4712","0","[[0,0,0],[2,0],[1]]","1","[[1,2,0],[3,0],[0]]","7","0","","","","","","4","",""
"","","","","","single-stim-button","334","1709726","0.0-3.0-31.0-1.0","5d6f332829c25100188a4a27","C3","batch3","","1971","","","tol_toboard","","","","","","","","","tol_peg_1","1971","1971","0","[[3,0,0],[2,0],[1]]","1","[[1,2,0],[3,0],[0]]","7","0","","","","","","4","",""
"","","","","","single-stim-button","335","1712606","0.0-3.0-31.1-0.1","5d6f332829c25100188a4a27","C3","batch3","","2879","","","tol_tohand","","","","","","","","","tol_peg_3","2879","2879","0","[[3,0,0],[2,0],[0]]","2","[[1,2,0],[3,0],[0]]","7","0","","","","","","4","",""
"","","","","","single-stim-button","336","1715972","0.0-3.0-31.1-1.1","5d6f332829c25100188a4a27","C3","batch3","","3364","","","tol_toboard","","","","","","","","","tol_peg_2","3364","3364","0","[[3,0,0],[2,1],[0]]","2","[[1,2,0],[3,0],[0]]","7","0","","","","","","4","",""
"","","","","","single-stim-button","337","1716996","0.0-3.0-31.2-0.2","5d6f332829c25100188a4a27","C3","batch3","","1023","","","tol_tohand","","","","","","","","","tol_peg_1","1023","1023","0","[[0,0,0],[2,1],[0]]","3","[[1,2,0],[3,0],[0]]","7","0","","","","","","4","",""
"","","","","","single-stim-button","338","1718090","0.0-3.0-31.2-1.2","5d6f332829c25100188a4a27","C3","batch3","","1094","","","tol_toboard","","","","","","","","","tol_peg_3","1094","1094","0","[[0,0,0],[2,1],[3]]","3","[[1,2,0],[3,0],[0]]","7","0","","","","","","4","",""
"","","","","","single-stim-button","339","1720642","0.0-3.0-31.3-0.3","5d6f332829c25100188a4a27","C3","batch3","","2552","","","tol_tohand","","","","","","","","","tol_peg_2","2552","2552","0","[[0,0,0],[2,0],[3]]","4","[[1,2,0],[3,0],[0]]","7","0","","","","","","4","",""
"","","","","","single-stim-button","340","1721735","0.0-3.0-31.3-1.3","5d6f332829c25100188a4a27","C3","batch3","","1092","","","tol_toboard","","","","","","","","","tol_peg_1","1092","1092","0","[[1,0,0],[2,0],[3]]","4","[[1,2,0],[3,0],[0]]","7","0","","","","","","4","",""
"","","","","","single-stim-button","341","1722562","0.0-3.0-31.4-0.4","5d6f332829c25100188a4a27","C3","batch3","","827","","","tol_tohand","","","","","","","","","tol_peg_2","827","827","0","[[1,0,0],[0,0],[3]]","5","[[1,2,0],[3,0],[0]]","7","0","","","","","","4","",""
"","","","","","single-stim-button","342","1723233","0.0-3.0-31.4-1.4","5d6f332829c25100188a4a27","C3","batch3","","671","","","tol_toboard","","","","","","","","","tol_peg_1","671","671","0","[[1,2,0],[0,0],[3]]","5","[[1,2,0],[3,0],[0]]","7","0","","","","","","4","",""
"","","","","","single-stim-button","343","1725594","0.0-3.0-31.5-0.5","5d6f332829c25100188a4a27","C3","batch3","","2361","","","tol_tohand","","","","","","","","","tol_peg_3","2361","2361","0","[[1,2,0],[0,0],[0]]","6","[[1,2,0],[3,0],[0]]","7","0","","","","","","4","",""
