"success","timeout","failed_images","failed_audio","failed_video","trial_type","trial_index","time_elapsed","internal_node_id","subject_id","study_id","session_id","task","rt","stimulus","response","item","answer","correct","spm_correct","spm_rt","view_history","mouse_click","stim_duration","block_duration","timing_post_trial","current_position","tol_num_moves_made","tol_target","tol_problem_id","tol_rt","key_press","possible_responses","tol_correct","preplanning","tol_rt_per_trial","tol_min_moves","fiar_detect_rt","fiar_detect_correct","total_correct_fiar_detect","post_trial_gap","choices"
"true","false","[]","[]","[]","preload","0","1810","0.0-0.0","5d7dfc0ab5150b001ac86314","B2","batch2","","","","","","","","","","","","","","","","","","","","","","","","","","","","","",""
"true","","","","","fullscreen","1","35873","0.0-1.0-0.0","5d7dfc0ab5150b001ac86314","B2","batch2","","","","","","","","","","","","","","","","","","","","","","","","","","","","","",""
"true","","","","","fullscreen","2","39104","0.0-2.0-0.0","5d7dfc0ab5150b001ac86314","B2","batch2","spm_fullscreen","","","","","","","","","","","","","","","","","","","","","","","","","","","","",""
"","","","","","html-button-response","3","105724","0.0-2.0-1.0","5d7dfc0ab5150b001ac86314","B2","batch2","","66614.90000003576","<p class = block-text><b>Instructions</b> <br>This is a widely used intelligence test in research. <br>In this test, a figure with a missing piece will be presented.<br>Below the figure are alternative pieces to complete the figure, only one of which is correct.<br> Different figures might involve different principles for obtaining the missing piece<br>Your job is to select the most logical piece to complete the figure.</p>","0","","","","","","","","","","","","","","","","","","","","","","","","","",""
"","","","","","html-keyboard-response","4","106544","0.0-2.0-2.0-0.0","5d7dfc0ab5150b001ac86314","B2","batch2","spm_show_trial_num","null","<p class=block-text>Trial 1 out of 60</p>","null","","","","","","","","","","","","","","","","","","","","","","","","","",""
"","","","","","image-button-response","5","132822","0.0-2.0-2.0-1.0","5d7dfc0ab5150b001ac86314","B2","batch2","spm_respsonse","26261","img/question_1_1.jpeg","5","mat_01","4","0","0","26261","","","","","","","","","","","","","","","","","","","","",""
"","","","","","html-keyboard-response","6","133898","0.0-2.0-2.0-0.1","5d7dfc0ab5150b001ac86314","B2","batch2","spm_show_trial_num","null","<p class=block-text>Trial 2 out of 60</p>","null","","","","","","","","","","","","","","","","","","","","","","","","","",""
"","","","","","image-button-response","7","138697","0.0-2.0-2.0-1.1","5d7dfc0ab5150b001ac86314","B2","batch2","spm_respsonse","4781.599999964237","img/question_1_2.jpeg","4","mat_02","5","1","1","4781.599999964237","","","","","","","","","","","","","","","","","","","","",""
"","","","","","html-keyboard-response","8","139761","0.0-2.0-2.0-0.2","5d7dfc0ab5150b001ac86314","B2","batch2","spm_show_trial_num","null","<p class=block-text>Trial 3 out of 60</p>","null","","","","","","","","","","","","","","","","","","","","","","","","","",""
"","","","","","image-button-response","9","144815","0.0-2.0-2.0-1.2","5d7dfc0ab5150b001ac86314","B2","batch2","spm_respsonse","5035.300000011921","img/question_1_3.jpeg","0","mat_03","1","1","1","5035.300000011921","","","","","","","","","","","","","","","","","","","","",""
"","","","","","html-keyboard-response","10","145876","0.0-2.0-2.0-0.3","5d7dfc0ab5150b001ac86314","B2","batch2","spm_show_trial_num","null","<p class=block-text>Trial 4 out of 60</p>","null","","","","","","","","","","","","","","","","","","","","","","","","","",""
"","","","","","image-button-response","11","152835","0.0-2.0-2.0-1.3","5d7dfc0ab5150b001ac86314","B2","batch2","spm_respsonse","6949.800000011921","img/question_1_4.jpeg","1","mat_04","2","1","1","6949.800000011921","","","","","","","","","","","","","","","","","","","","",""
"","","","","","html-keyboard-response","12","153915","0.0-2.0-2.0-0.4","5d7dfc0ab5150b001ac86314","B2","batch2","spm_show_trial_num","null","<p class=block-text>Trial 5 out of 60</p>","null","","","","","","","","","","","","","","","","","","","","","","","","","",""
"","","","","","image-button-response","13","166642","0.0-2.0-2.0-1.4","5d7dfc0ab5150b001ac86314","B2","batch2","spm_respsonse","12718.100000023842","img/question_1_5.jpeg","5","mat_05","6","1","1","12718.100000023842","","","","","","","","","","","","","","","","","","","","",""
"","","","","","html-keyboard-response","14","167705","0.0-2.0-2.0-0.5","5d7dfc0ab5150b001ac86314","B2","batch2","spm_show_trial_num","null","<p class=block-text>Trial 6 out of 60</p>","null","","","","","","","","","","","","","","","","","","","","","","","","","",""
"","","","","","image-button-response","15","174270","0.0-2.0-2.0-1.5","5d7dfc0ab5150b001ac86314","B2","batch2","spm_respsonse","6556.199999988079","img/question_1_6.jpeg","2","mat_06","3","1","1","6556.199999988079","","","","","","","","","","","","","","","","","","","","",""
"","","","","","html-keyboard-response","16","175350","0.0-2.0-2.0-0.6","5d7dfc0ab5150b001ac86314","B2","batch2","spm_show_trial_num","null","<p class=block-text>Trial 7 out of 60</p>","null","","","","","","","","","","","","","","","","","","","","","","","","","",""
"","","","","","image-button-response","17","179019","0.0-2.0-2.0-1.6","5d7dfc0ab5150b001ac86314","B2","batch2","spm_respsonse","3659.199999988079","img/question_1_7.jpeg","5","mat_07","6","1","1","3659.199999988079","","","","","","","","","","","","","","","","","","","","",""
"","","","","","html-keyboard-response","18","180083","0.0-2.0-2.0-0.7","5d7dfc0ab5150b001ac86314","B2","batch2","spm_show_trial_num","null","<p class=block-text>Trial 8 out of 60</p>","null","","","","","","","","","","","","","","","","","","","","","","","","","",""
"","","","","","image-button-response","19","190189","0.0-2.0-2.0-1.7","5d7dfc0ab5150b001ac86314","B2","batch2","spm_respsonse","10100.400000035763","img/question_1_8.jpeg","1","mat_08","2","1","1","10100.400000035763","","","","","","","","","","","","","","","","","","","","",""
"","","","","","html-keyboard-response","20","191258","0.0-2.0-2.0-0.8","5d7dfc0ab5150b001ac86314","B2","batch2","spm_show_trial_num","null","<p class=block-text>Trial 9 out of 60</p>","null","","","","","","","","","","","","","","","","","","","","","","","","","",""
"","","","","","image-button-response","21","199007","0.0-2.0-2.0-1.8","5d7dfc0ab5150b001ac86314","B2","batch2","spm_respsonse","7744.399999976158","img/question_1_9.jpeg","0","mat_09","1","1","1","7744.399999976158","","","","","","","","","","","","","","","","","","","","",""
"","","","","","html-keyboard-response","22","200076","0.0-2.0-2.0-0.9","5d7dfc0ab5150b001ac86314","B2","batch2","spm_show_trial_num","null","<p class=block-text>Trial 10 out of 60</p>","null","","","","","","","","","","","","","","","","","","","","","","","","","",""
"","","","","","image-button-response","23","223034","0.0-2.0-2.0-1.9","5d7dfc0ab5150b001ac86314","B2","batch2","spm_respsonse","22948.5","img/question_1_10.jpeg","2","mat_10","3","1","1","22948.5","","","","","","","","","","","","","","","","","","","","",""
"","","","","","html-keyboard-response","24","224104","0.0-2.0-2.0-0.10","5d7dfc0ab5150b001ac86314","B2","batch2","spm_show_trial_num","null","<p class=block-text>Trial 11 out of 60</p>","null","","","","","","","","","","","","","","","","","","","","","","","","","",""
"","","","","","image-button-response","25","241248","0.0-2.0-2.0-1.10","5d7dfc0ab5150b001ac86314","B2","batch2","spm_respsonse","17138.099999964237","img/question_1_11.jpeg","0","mat_11","4","0","0","17138.099999964237","","","","","","","","","","","","","","","","","","","","",""
"","","","","","html-keyboard-response","26","242311","0.0-2.0-2.0-0.11","5d7dfc0ab5150b001ac86314","B2","batch2","spm_show_trial_num","null","<p class=block-text>Trial 12 out of 60</p>","null","","","","","","","","","","","","","","","","","","","","","","","","","",""
"","","","","","image-button-response","27","259206","0.0-2.0-2.0-1.11","5d7dfc0ab5150b001ac86314","B2","batch2","spm_respsonse","16889.69999998808","img/question_1_12.jpeg","0","mat_12","5","0","0","16889.69999998808","","","","","","","","","","","","","","","","","","","","",""
"","","","","","html-keyboard-response","28","260265","0.0-2.0-2.0-0.12","5d7dfc0ab5150b001ac86314","B2","batch2","spm_show_trial_num","null","<p class=block-text>Trial 13 out of 60</p>","null","","","","","","","","","","","","","","","","","","","","","","","","","",""
"","","","","","image-button-response","29","265380","0.0-2.0-2.0-1.12","5d7dfc0ab5150b001ac86314","B2","batch2","spm_respsonse","5101.700000047684","img/question_2_1.jpeg","1","mat_13","2","1","1","5101.700000047684","","","","","","","","","","","","","","","","","","","","",""
"","","","","","html-keyboard-response","30","266440","0.0-2.0-2.0-0.13","5d7dfc0ab5150b001ac86314","B2","batch2","spm_show_trial_num","null","<p class=block-text>Trial 14 out of 60</p>","null","","","","","","","","","","","","","","","","","","","","","","","","","",""
"","","","","","image-button-response","31","282061","0.0-2.0-2.0-1.13","5d7dfc0ab5150b001ac86314","B2","batch2","spm_respsonse","15614.300000011921","img/question_2_2.jpeg","5","mat_14","6","1","1","15614.300000011921","","","","","","","","","","","","","","","","","","","","",""
"","","","","","html-keyboard-response","32","283125","0.0-2.0-2.0-0.14","5d7dfc0ab5150b001ac86314","B2","batch2","spm_show_trial_num","null","<p class=block-text>Trial 15 out of 60</p>","null","","","","","","","","","","","","","","","","","","","","","","","","","",""
"","","","","","image-button-response","33","287331","0.0-2.0-2.0-1.14","5d7dfc0ab5150b001ac86314","B2","batch2","spm_respsonse","4196.300000011921","img/question_2_3.jpeg","0","mat_15","1","1","1","4196.300000011921","","","","","","","","","","","","","","","","","","","","",""
"","","","","","html-keyboard-response","34","288410","0.0-2.0-2.0-0.15","5d7dfc0ab5150b001ac86314","B2","batch2","spm_show_trial_num","null","<p class=block-text>Trial 16 out of 60</p>","null","","","","","","","","","","","","","","","","","","","","","","","","","",""
"","","","","","image-button-response","35","292827","0.0-2.0-2.0-1.15","5d7dfc0ab5150b001ac86314","B2","batch2","spm_respsonse","4406.100000023842","img/question_2_4.jpeg","1","mat_16","2","1","1","4406.100000023842","","","","","","","","","","","","","","","","","","","","",""
"","","","","","html-keyboard-response","36","293886","0.0-2.0-2.0-0.16","5d7dfc0ab5150b001ac86314","B2","batch2","spm_show_trial_num","null","<p class=block-text>Trial 17 out of 60</p>","null","","","","","","","","","","","","","","","","","","","","","","","","","",""
"","","","","","image-button-response","37","300754","0.0-2.0-2.0-1.16","5d7dfc0ab5150b001ac86314","B2","batch2","spm_respsonse","6864.100000023842","img/question_2_5.jpeg","0","mat_17","1","1","1","6864.100000023842","","","","","","","","","","","","","","","","","","","","",""
"","","","","","html-keyboard-response","38","301827","0.0-2.0-2.0-0.17","5d7dfc0ab5150b001ac86314","B2","batch2","spm_show_trial_num","null","<p class=block-text>Trial 18 out of 60</p>","null","","","","","","","","","","","","","","","","","","","","","","","","","",""
"","","","","","image-button-response","39","305998","0.0-2.0-2.0-1.17","5d7dfc0ab5150b001ac86314","B2","batch2","spm_respsonse","4165.300000011921","img/question_2_6.jpeg","3","mat_18","3","0","0","4165.300000011921","","","","","","","","","","","","","","","","","","","","",""
"","","","","","html-keyboard-response","40","307073","0.0-2.0-2.0-0.18","5d7dfc0ab5150b001ac86314","B2","batch2","spm_show_trial_num","null","<p class=block-text>Trial 19 out of 60</p>","null","","","","","","","","","","","","","","","","","","","","","","","","","",""
"","","","","","image-button-response","41","311951","0.0-2.0-2.0-1.18","5d7dfc0ab5150b001ac86314","B2","batch2","spm_respsonse","4870","img/question_2_7.jpeg","4","mat_19","5","1","1","4870","","","","","","","","","","","","","","","","","","","","",""
"","","","","","html-keyboard-response","42","313031","0.0-2.0-2.0-0.19","5d7dfc0ab5150b001ac86314","B2","batch2","spm_show_trial_num","null","<p class=block-text>Trial 20 out of 60</p>","null","","","","","","","","","","","","","","","","","","","","","","","","","",""
"","","","","","image-button-response","43","342412","0.0-2.0-2.0-1.19","5d7dfc0ab5150b001ac86314","B2","batch2","spm_respsonse","29367.600000023842","img/question_2_8.jpeg","5","mat_20","6","1","1","29367.600000023842","","","","","","","","","","","","","","","","","","","","",""
"","","","","","html-keyboard-response","44","343473","0.0-2.0-2.0-0.20","5d7dfc0ab5150b001ac86314","B2","batch2","spm_show_trial_num","null","<p class=block-text>Trial 21 out of 60</p>","null","","","","","","","","","","","","","","","","","","","","","","","","","",""
"","","","","","image-button-response","45","355431","0.0-2.0-2.0-1.20","5d7dfc0ab5150b001ac86314","B2","batch2","spm_respsonse","11951.800000011921","img/question_2_9.jpeg","4","mat_21","4","0","0","11951.800000011921","","","","","","","","","","","","","","","","","","","","",""
"","","","","","html-keyboard-response","46","356500","0.0-2.0-2.0-0.21","5d7dfc0ab5150b001ac86314","B2","batch2","spm_show_trial_num","null","<p class=block-text>Trial 22 out of 60</p>","null","","","","","","","","","","","","","","","","","","","","","","","","","",""
"","","","","","image-button-response","47","381275","0.0-2.0-2.0-1.21","5d7dfc0ab5150b001ac86314","B2","batch2","spm_respsonse","24766.399999976158","img/question_2_10.jpeg","2","mat_22","3","1","1","24766.399999976158","","","","","","","","","","","","","","","","","","","","",""
"","","","","","html-keyboard-response","48","382336","0.0-2.0-2.0-0.22","5d7dfc0ab5150b001ac86314","B2","batch2","spm_show_trial_num","null","<p class=block-text>Trial 23 out of 60</p>","null","","","","","","","","","","","","","","","","","","","","","","","","","",""
"","","","","","image-button-response","49","392578","0.0-2.0-2.0-1.22","5d7dfc0ab5150b001ac86314","B2","batch2","spm_respsonse","10230.699999988079","img/question_2_11.jpeg","5","mat_23","4","0","0","10230.699999988079","","","","","","","","","","","","","","","","","","","","",""
"","","","","","html-keyboard-response","50","393640","0.0-2.0-2.0-0.23","5d7dfc0ab5150b001ac86314","B2","batch2","spm_show_trial_num","null","<p class=block-text>Trial 24 out of 60</p>","null","","","","","","","","","","","","","","","","","","","","","","","","","",""
"","","","","","image-button-response","51","423011","0.0-2.0-2.0-1.23","5d7dfc0ab5150b001ac86314","B2","batch2","spm_respsonse","29364.100000023842","img/question_2_12.jpeg","4","mat_24","5","1","1","29364.100000023842","","","","","","","","","","","","","","","","","","","","",""
"","","","","","html-button-response","52","426250","0.0-2.0-3.0","5d7dfc0ab5150b001ac86314","B2","batch2","attention_check","2966.900000035763","<p class = block-text>Attention check: Please choose 1<br></p>","0","","","true","","","","","","","","","","","","","","","","","","","","","","",""
"","","","","","html-keyboard-response","53","427059","0.0-2.0-4.0-0.0","5d7dfc0ab5150b001ac86314","B2","batch2","spm_show_trial_num","null","<p class=block-text>Trial 25 out of 60</p>","null","","","","","","","","","","","","","","","","","","","","","","","","","",""
"","","","","","image-button-response","54","442439","0.0-2.0-4.0-1.0","5d7dfc0ab5150b001ac86314","B2","batch2","spm_respsonse","15372.100000023842","img/question_3_1.jpeg","7","mat_25","8","1","1","15372.100000023842","","","","","","","","","","","","","","","","","","","","",""
"","","","","","html-keyboard-response","55","443504","0.0-2.0-4.0-0.1","5d7dfc0ab5150b001ac86314","B2","batch2","spm_show_trial_num","null","<p class=block-text>Trial 26 out of 60</p>","null","","","","","","","","","","","","","","","","","","","","","","","","","",""
"","","","","","image-button-response","56","451007","0.0-2.0-4.0-1.1","5d7dfc0ab5150b001ac86314","B2","batch2","spm_respsonse","7489.400000035763","img/question_3_2.jpeg","1","mat_26","2","1","1","7489.400000035763","","","","","","","","","","","","","","","","","","","","",""
"","","","","","html-keyboard-response","57","452066","0.0-2.0-4.0-0.2","5d7dfc0ab5150b001ac86314","B2","batch2","spm_show_trial_num","null","<p class=block-text>Trial 27 out of 60</p>","null","","","","","","","","","","","","","","","","","","","","","","","","","",""
"","","","","","image-button-response","58","463458","0.0-2.0-4.0-1.2","5d7dfc0ab5150b001ac86314","B2","batch2","spm_respsonse","11380.700000047684","img/question_3_3.jpeg","2","mat_27","3","1","1","11380.700000047684","","","","","","","","","","","","","","","","","","","","",""
"","","","","","html-keyboard-response","59","464522","0.0-2.0-4.0-0.3","5d7dfc0ab5150b001ac86314","B2","batch2","spm_show_trial_num","null","<p class=block-text>Trial 28 out of 60</p>","null","","","","","","","","","","","","","","","","","","","","","","","","","",""
"","","","","","image-button-response","60","497044","0.0-2.0-4.0-1.3","5d7dfc0ab5150b001ac86314","B2","batch2","spm_respsonse","32515.599999964237","img/question_3_4.jpeg","3","mat_28","8","0","0","32515.599999964237","","","","","","","","","","","","","","","","","","","","",""
"","","","","","html-keyboard-response","61","498099","0.0-2.0-4.0-0.4","5d7dfc0ab5150b001ac86314","B2","batch2","spm_show_trial_num","null","<p class=block-text>Trial 29 out of 60</p>","null","","","","","","","","","","","","","","","","","","","","","","","","","",""
"","","","","","image-button-response","62","506815","0.0-2.0-4.0-1.4","5d7dfc0ab5150b001ac86314","B2","batch2","spm_respsonse","8709.5","img/question_3_5.jpeg","6","mat_29","7","1","1","8709.5","","","","","","","","","","","","","","","","","","","","",""
"","","","","","html-keyboard-response","63","507887","0.0-2.0-4.0-0.5","5d7dfc0ab5150b001ac86314","B2","batch2","spm_show_trial_num","null","<p class=block-text>Trial 30 out of 60</p>","null","","","","","","","","","","","","","","","","","","","","","","","","","",""
"","","","","","image-button-response","64","535814","0.0-2.0-4.0-1.5","5d7dfc0ab5150b001ac86314","B2","batch2","spm_respsonse","27921","img/question_3_6.jpeg","2","mat_30","4","0","0","27921","","","","","","","","","","","","","","","","","","","","",""
"","","","","","html-keyboard-response","65","536881","0.0-2.0-4.0-0.6","5d7dfc0ab5150b001ac86314","B2","batch2","spm_show_trial_num","null","<p class=block-text>Trial 31 out of 60</p>","null","","","","","","","","","","","","","","","","","","","","","","","","","",""
"","","","","","image-button-response","66","549636","0.0-2.0-4.0-1.6","5d7dfc0ab5150b001ac86314","B2","batch2","spm_respsonse","12746.400000035763","img/question_3_7.jpeg","4","mat_31","5","1","1","12746.400000035763","","","","","","","","","","","","","","","","","","","","",""
"","","","","","html-keyboard-response","67","550709","0.0-2.0-4.0-0.7","5d7dfc0ab5150b001ac86314","B2","batch2","spm_show_trial_num","null","<p class=block-text>Trial 32 out of 60</p>","null","","","","","","","","","","","","","","","","","","","","","","","","","",""
"","","","","","image-button-response","68","597055","0.0-2.0-4.0-1.7","5d7dfc0ab5150b001ac86314","B2","batch2","spm_respsonse","46335.19999998808","img/question_3_8.jpeg","3","mat_32","1","0","0","46335.19999998808","","","","","","","","","","","","","","","","","","","","",""
"","","","","","html-keyboard-response","69","598120","0.0-2.0-4.0-0.8","5d7dfc0ab5150b001ac86314","B2","batch2","spm_show_trial_num","null","<p class=block-text>Trial 33 out of 60</p>","null","","","","","","","","","","","","","","","","","","","","","","","","","",""
"","","","","","image-button-response","70","617088","0.0-2.0-4.0-1.8","5d7dfc0ab5150b001ac86314","B2","batch2","spm_respsonse","18962.80000001192","img/question_3_9.jpeg","6","mat_33","7","1","1","18962.80000001192","","","","","","","","","","","","","","","","","","","","",""
"","","","","","html-keyboard-response","71","618143","0.0-2.0-4.0-0.9","5d7dfc0ab5150b001ac86314","B2","batch2","spm_show_trial_num","null","<p class=block-text>Trial 34 out of 60</p>","null","","","","","","","","","","","","","","","","","","","","","","","","","",""
"","","","","","image-button-response","72","645523","0.0-2.0-4.0-1.9","5d7dfc0ab5150b001ac86314","B2","batch2","spm_respsonse","27371","img/question_3_10.jpeg","0","mat_34","6","0","0","27371","","","","","","","","","","","","","","","","","","","","",""
"","","","","","html-keyboard-response","73","646585","0.0-2.0-4.0-0.10","5d7dfc0ab5150b001ac86314","B2","batch2","spm_show_trial_num","null","<p class=block-text>Trial 35 out of 60</p>","null","","","","","","","","","","","","","","","","","","","","","","","","","",""
"","","","","","image-button-response","74","759483","0.0-2.0-4.0-1.10","5d7dfc0ab5150b001ac86314","B2","batch2","spm_respsonse","112893.30000001192","img/question_3_11.jpeg","0","mat_35","1","1","1","112893.30000001192","","","","","","","","","","","","","","","","","","","","",""
"","","","","","html-keyboard-response","75","760544","0.0-2.0-4.0-0.11","5d7dfc0ab5150b001ac86314","B2","batch2","spm_show_trial_num","null","<p class=block-text>Trial 36 out of 60</p>","null","","","","","","","","","","","","","","","","","","","","","","","","","",""
"","","","","","image-button-response","76","795352","0.0-2.0-4.0-1.11","5d7dfc0ab5150b001ac86314","B2","batch2","spm_respsonse","34800.19999998808","img/question_3_12.jpeg","1","mat_36","2","1","1","34800.19999998808","","","","","","","","","","","","","","","","","","","","",""
"","","","","","html-keyboard-response","77","796419","0.0-2.0-4.0-0.12","5d7dfc0ab5150b001ac86314","B2","batch2","spm_show_trial_num","null","<p class=block-text>Trial 37 out of 60</p>","null","","","","","","","","","","","","","","","","","","","","","","","","","",""
"","","","","","image-button-response","78","801218","0.0-2.0-4.0-1.12","5d7dfc0ab5150b001ac86314","B2","batch2","spm_respsonse","4790.599999964237","img/question_4_1.jpeg","2","mat_37","3","1","1","4790.599999964237","","","","","","","","","","","","","","","","","","","","",""
"","","","","","html-keyboard-response","79","802296","0.0-2.0-4.0-0.13","5d7dfc0ab5150b001ac86314","B2","batch2","spm_show_trial_num","null","<p class=block-text>Trial 38 out of 60</p>","null","","","","","","","","","","","","","","","","","","","","","","","","","",""
"","","","","","image-button-response","80","842519","0.0-2.0-4.0-1.13","5d7dfc0ab5150b001ac86314","B2","batch2","spm_respsonse","40212.299999952316","img/question_4_2.jpeg","3","mat_38","4","1","1","40212.299999952316","","","","","","","","","","","","","","","","","","","","",""
"","","","","","html-keyboard-response","81","843581","0.0-2.0-4.0-0.14","5d7dfc0ab5150b001ac86314","B2","batch2","spm_show_trial_num","null","<p class=block-text>Trial 39 out of 60</p>","null","","","","","","","","","","","","","","","","","","","","","","","","","",""
"","","","","","image-button-response","82","889047","0.0-2.0-4.0-1.14","5d7dfc0ab5150b001ac86314","B2","batch2","spm_respsonse","45457.30000001192","img/question_4_3.jpeg","2","mat_39","3","1","1","45457.30000001192","","","","","","","","","","","","","","","","","","","","",""
"","","","","","html-keyboard-response","83","890108","0.0-2.0-4.0-0.15","5d7dfc0ab5150b001ac86314","B2","batch2","spm_show_trial_num","null","<p class=block-text>Trial 40 out of 60</p>","null","","","","","","","","","","","","","","","","","","","","","","","","","",""
"","","","","","image-button-response","84","920212","0.0-2.0-4.0-1.15","5d7dfc0ab5150b001ac86314","B2","batch2","spm_respsonse","30091.900000035763","img/question_4_4.jpeg","6","mat_40","7","1","1","30091.900000035763","","","","","","","","","","","","","","","","","","","","",""
"","","","","","html-keyboard-response","85","921276","0.0-2.0-4.0-0.16","5d7dfc0ab5150b001ac86314","B2","batch2","spm_show_trial_num","null","<p class=block-text>Trial 41 out of 60</p>","null","","","","","","","","","","","","","","","","","","","","","","","","","",""
"","","","","","image-button-response","86","961676","0.0-2.0-4.0-1.16","5d7dfc0ab5150b001ac86314","B2","batch2","spm_respsonse","40386.90000003576","img/question_4_5.jpeg","7","mat_41","8","1","1","40386.90000003576","","","","","","","","","","","","","","","","","","","","",""
"","","","","","html-keyboard-response","87","962752","0.0-2.0-4.0-0.17","5d7dfc0ab5150b001ac86314","B2","batch2","spm_show_trial_num","null","<p class=block-text>Trial 42 out of 60</p>","null","","","","","","","","","","","","","","","","","","","","","","","","","",""
"","","","","","image-button-response","88","1020282","0.0-2.0-4.0-1.17","5d7dfc0ab5150b001ac86314","B2","batch2","spm_respsonse","57519.5","img/question_4_6.jpeg","5","mat_42","6","1","1","57519.5","","","","","","","","","","","","","","","","","","","","",""
"","","","","","html-keyboard-response","89","1021342","0.0-2.0-4.0-0.18","5d7dfc0ab5150b001ac86314","B2","batch2","spm_show_trial_num","null","<p class=block-text>Trial 43 out of 60</p>","null","","","","","","","","","","","","","","","","","","","","","","","","","",""
"","","","","","image-button-response","90","1085726","0.0-2.0-4.0-1.18","5d7dfc0ab5150b001ac86314","B2","batch2","spm_respsonse","64373.10000002384","img/question_4_7.jpeg","6","mat_43","5","0","0","64373.10000002384","","","","","","","","","","","","","","","","","","","","",""
"","","","","","html-keyboard-response","91","1086793","0.0-2.0-4.0-0.19","5d7dfc0ab5150b001ac86314","B2","batch2","spm_show_trial_num","null","<p class=block-text>Trial 44 out of 60</p>","null","","","","","","","","","","","","","","","","","","","","","","","","","",""
"","","","","","image-button-response","92","1095399","0.0-2.0-4.0-1.19","5d7dfc0ab5150b001ac86314","B2","batch2","spm_respsonse","8600.300000011921","img/question_4_8.jpeg","0","mat_44","4","0","0","8600.300000011921","","","","","","","","","","","","","","","","","","","","",""
"","","","","","html-keyboard-response","93","1096468","0.0-2.0-4.0-0.20","5d7dfc0ab5150b001ac86314","B2","batch2","spm_show_trial_num","null","<p class=block-text>Trial 45 out of 60</p>","null","","","","","","","","","","","","","","","","","","","","","","","","","",""
"","","","","","image-button-response","94","1155056","0.0-2.0-4.0-1.20","5d7dfc0ab5150b001ac86314","B2","batch2","spm_respsonse","58584","img/question_4_9.jpeg","2","mat_45","1","0","0","58584","","","","","","","","","","","","","","","","","","","","",""
"","","","","","html-keyboard-response","95","1156178","0.0-2.0-4.0-0.21","5d7dfc0ab5150b001ac86314","B2","batch2","spm_show_trial_num","null","<p class=block-text>Trial 46 out of 60</p>","null","","","","","","","","","","","","","","","","","","","","","","","","","",""
"","","","","","image-button-response","96","1207988","0.0-2.0-4.0-1.21","5d7dfc0ab5150b001ac86314","B2","batch2","spm_respsonse","51802","img/question_4_10.jpeg","1","mat_46","2","1","1","51802","","","","","","","","","","","","","","","","","","","","",""
"","","","","","html-keyboard-response","97","1209051","0.0-2.0-4.0-0.22","5d7dfc0ab5150b001ac86314","B2","batch2","spm_show_trial_num","null","<p class=block-text>Trial 47 out of 60</p>","null","","","","","","","","","","","","","","","","","","","","","","","","","",""
"","","","","","image-button-response","98","1248492","0.0-2.0-4.0-1.22","5d7dfc0ab5150b001ac86314","B2","batch2","spm_respsonse","39431.69999998808","img/question_4_11.jpeg","5","mat_47","5","0","0","39431.69999998808","","","","","","","","","","","","","","","","","","","","",""
"","","","","","html-keyboard-response","99","1249554","0.0-2.0-4.0-0.23","5d7dfc0ab5150b001ac86314","B2","batch2","spm_show_trial_num","null","<p class=block-text>Trial 48 out of 60</p>","null","","","","","","","","","","","","","","","","","","","","","","","","","",""
"","","","","","image-button-response","100","1374288","0.0-2.0-4.0-1.23","5d7dfc0ab5150b001ac86314","B2","batch2","spm_respsonse","124728.5","img/question_4_12.jpeg","0","mat_48","6","0","0","124728.5","","","","","","","","","","","","","","","","","","","","",""
"","","","","","html-keyboard-response","101","1375350","0.0-2.0-4.0-0.24","5d7dfc0ab5150b001ac86314","B2","batch2","spm_show_trial_num","null","<p class=block-text>Trial 49 out of 60</p>","null","","","","","","","","","","","","","","","","","","","","","","","","","",""
"","","","","","image-button-response","102","1451915","0.0-2.0-4.0-1.24","5d7dfc0ab5150b001ac86314","B2","batch2","spm_respsonse","76553.90000003576","img/question_5_1.jpeg","0","mat_49","7","0","0","76553.90000003576","","","","","","","","","","","","","","","","","","","","",""
"","","","","","html-keyboard-response","103","1452991","0.0-2.0-4.0-0.25","5d7dfc0ab5150b001ac86314","B2","batch2","spm_show_trial_num","null","<p class=block-text>Trial 50 out of 60</p>","null","","","","","","","","","","","","","","","","","","","","","","","","","",""
"","","","","","image-button-response","104","1475514","0.0-2.0-4.0-1.25","5d7dfc0ab5150b001ac86314","B2","batch2","spm_respsonse","22515.099999964237","img/question_5_2.jpeg","5","mat_50","6","1","1","22515.099999964237","","","","","","","","","","","","","","","","","","","","",""
"","","","","","html-keyboard-response","105","1476577","0.0-2.0-4.0-0.26","5d7dfc0ab5150b001ac86314","B2","batch2","spm_show_trial_num","null","<p class=block-text>Trial 51 out of 60</p>","null","","","","","","","","","","","","","","","","","","","","","","","","","",""
"","","","","","image-button-response","106","1556702","0.0-2.0-4.0-1.26","5d7dfc0ab5150b001ac86314","B2","batch2","spm_respsonse","80119.39999997616","img/question_5_3.jpeg","5","mat_51","8","0","0","80119.39999997616","","","","","","","","","","","","","","","","","","","","",""
"","","","","","html-keyboard-response","107","1557770","0.0-2.0-4.0-0.27","5d7dfc0ab5150b001ac86314","B2","batch2","spm_show_trial_num","null","<p class=block-text>Trial 52 out of 60</p>","null","","","","","","","","","","","","","","","","","","","","","","","","","",""
"","","","","","image-button-response","108","1594016","0.0-2.0-4.0-1.27","5d7dfc0ab5150b001ac86314","B2","batch2","spm_respsonse","36234.299999952316","img/question_5_4.jpeg","1","mat_52","2","1","1","36234.299999952316","","","","","","","","","","","","","","","","","","","","",""
"","","","","","html-keyboard-response","109","1595075","0.0-2.0-4.0-0.28","5d7dfc0ab5150b001ac86314","B2","batch2","spm_show_trial_num","null","<p class=block-text>Trial 53 out of 60</p>","null","","","","","","","","","","","","","","","","","","","","","","","","","",""
"","","","","","image-button-response","110","1615179","0.0-2.0-4.0-1.28","5d7dfc0ab5150b001ac86314","B2","batch2","spm_respsonse","20094.599999964237","img/question_5_5.jpeg","0","mat_53","1","1","1","20094.599999964237","","","","","","","","","","","","","","","","","","","","",""
"","","","","","html-keyboard-response","111","1616237","0.0-2.0-4.0-0.29","5d7dfc0ab5150b001ac86314","B2","batch2","spm_show_trial_num","null","<p class=block-text>Trial 54 out of 60</p>","null","","","","","","","","","","","","","","","","","","","","","","","","","",""
"","","","","","image-button-response","112","1723576","0.0-2.0-4.0-1.29","5d7dfc0ab5150b001ac86314","B2","batch2","spm_respsonse","107326.10000002384","img/question_5_6.jpeg","7","mat_54","5","0","0","107326.10000002384","","","","","","","","","","","","","","","","","","","","",""
"","","","","","html-keyboard-response","113","1724642","0.0-2.0-4.0-0.30","5d7dfc0ab5150b001ac86314","B2","batch2","spm_show_trial_num","null","<p class=block-text>Trial 55 out of 60</p>","null","","","","","","","","","","","","","","","","","","","","","","","","","",""
"","","","","","image-button-response","114","1771499","0.0-2.0-4.0-1.30","5d7dfc0ab5150b001ac86314","B2","batch2","spm_respsonse","46847.10000002384","img/question_5_7.jpeg","2","mat_55","1","0","0","46847.10000002384","","","","","","","","","","","","","","","","","","","","",""
"","","","","","html-keyboard-response","115","1772575","0.0-2.0-4.0-0.31","5d7dfc0ab5150b001ac86314","B2","batch2","spm_show_trial_num","null","<p class=block-text>Trial 56 out of 60</p>","null","","","","","","","","","","","","","","","","","","","","","","","","","",""
"","","","","","image-button-response","116","1813993","0.0-2.0-4.0-1.31","5d7dfc0ab5150b001ac86314","B2","batch2","spm_respsonse","41413","img/question_5_8.jpeg","5","mat_56","6","1","1","41413","","","","","","","","","","","","","","","","","","","","",""
"","","","","","html-keyboard-response","117","1815054","0.0-2.0-4.0-0.32","5d7dfc0ab5150b001ac86314","B2","batch2","spm_show_trial_num","null","<p class=block-text>Trial 57 out of 60</p>","null","","","","","","","","","","","","","","","","","","","","","","","","","",""
"","","","","","image-button-response","118","1849941","0.0-2.0-4.0-1.32","5d7dfc0ab5150b001ac86314","B2","batch2","spm_respsonse","34873.30000001192","img/question_5_9.jpeg","2","mat_57","3","1","1","34873.30000001192","","","","","","","","","","","","","","","","","","","","",""
"","","","","","html-keyboard-response","119","1850999","0.0-2.0-4.0-0.33","5d7dfc0ab5150b001ac86314","B2","batch2","spm_show_trial_num","null","<p class=block-text>Trial 58 out of 60</p>","null","","","","","","","","","","","","","","","","","","","","","","","","","",""
"","","","","","image-button-response","120","1885007","0.0-2.0-4.0-1.33","5d7dfc0ab5150b001ac86314","B2","batch2","spm_respsonse","33994.30000001192","img/question_5_10.jpeg","6","mat_58","2","0","0","33994.30000001192","","","","","","","","","","","","","","","","","","","","",""
"","","","","","html-keyboard-response","121","1886069","0.0-2.0-4.0-0.34","5d7dfc0ab5150b001ac86314","B2","batch2","spm_show_trial_num","null","<p class=block-text>Trial 59 out of 60</p>","null","","","","","","","","","","","","","","","","","","","","","","","","","",""
"","","","","","image-button-response","122","1954694","0.0-2.0-4.0-1.34","5d7dfc0ab5150b001ac86314","B2","batch2","spm_respsonse","68613.60000002384","img/question_5_11.jpeg","4","mat_59","4","0","0","68613.60000002384","","","","","","","","","","","","","","","","","","","","",""
"","","","","","html-keyboard-response","123","1955776","0.0-2.0-4.0-0.35","5d7dfc0ab5150b001ac86314","B2","batch2","spm_show_trial_num","null","<p class=block-text>Trial 60 out of 60</p>","null","","","","","","","","","","","","","","","","","","","","","","","","","",""
"","","","","","image-button-response","124","2001794","0.0-2.0-4.0-1.35","5d7dfc0ab5150b001ac86314","B2","batch2","spm_respsonse","46007.60000002384","img/question_5_12.jpeg","1","mat_60","5","0","0","46007.60000002384","","","","","","","","","","","","","","","","","","","","",""
"","","","","","html-button-response","125","2004736","0.0-2.0-5.0","5d7dfc0ab5150b001ac86314","B2","batch2","spm_goodbye","2673.900000035763","<p class= block-text>This concludes the Standard Progressive Matrix game. Thank you for your responses!<br> When you are ready, click the button continue</p>","0","","","","","","","","","","","","","","","","","","","","","","","","","",""
"true","","","","","fullscreen","126","2007660","0.0-3.0-0.0","5d7dfc0ab5150b001ac86314","B2","batch2","","","","","","","","","","","","","","","","","","","","","","","","","","","","","",""
"","","","","","instructions","127","2076721","0.0-3.0-1.0-0.0-0.0","5d7dfc0ab5150b001ac86314","B2","batch2","tol-instructions","69058","","","","","","","","[{""page_index"":0,""viewing_time"":9101.900000035763},{""page_index"":1,""viewing_time"":2824.599999964237},{""page_index"":2,""viewing_time"":4136},{""page_index"":3,""viewing_time"":33446.80000001192},{""page_index"":4,""viewing_time"":6791.800000011921},{""page_index"":5,""viewing_time"":7823.800000011921},{""page_index"":6,""viewing_time"":4931.5}]","","","","","","","","","","","","","","","","","","","",""
"","","","","","html-button-response","128","2078252","0.0-3.0-1.0-1.0-0.0","5d7dfc0ab5150b001ac86314","B2","batch2","tol_enter_quiz","1525.5","<p class=block-text> Let's answer a few questions <br>","0","","","","","","","","","","","","","","","","","","","","","","","","","",""
"","","","","","html-button-response","129","2085928","0.0-3.0-1.0-1.0-1.0","5d7dfc0ab5150b001ac86314","B2","batch2","tol_quiz","7670.099999964237","<p class = block-text>True or False: You can only move the ball on top of a peg. <br></p>","0","","","true","","","","","","","","","","","","","","","","","","","","","","",""
"","","","","","html-button-response","130","2087266","0.0-3.0-1.0-1.0-2.0","5d7dfc0ab5150b001ac86314","B2","batch2","tol_quiz_feedback","1331.2000000476837","<p class = block-text>Correct! You can only move the ball on top of a peg.</p>","0","","","","","","","","","","","","","","","","","","","","","","","","","",""
"","","","","","html-button-response","131","2091524","0.0-3.0-1.0-1.0-3.0","5d7dfc0ab5150b001ac86314","B2","batch2","tol_quiz","4252.400000035763","<p class = block-text>True or False: You should try to match your board with the target board with fewest moves possible. <br></p>","0","","","true","","","","","","","","","","","","","","","","","","","","","","",""
"","","","","","html-button-response","132","2092347","0.0-3.0-1.0-1.0-4.0","5d7dfc0ab5150b001ac86314","B2","batch2","tol_quiz_feedback","811.4000000357628","<p class = block-text>Correct! </p>","0","","","","","","","","","","","","","","","","","","","","","","","","","",""
"","","","","","html-button-response","133","2094770","0.0-3.0-2.0","5d7dfc0ab5150b001ac86314","B2","batch2","","2413.699999988079","<p class=block-text> Now that you've understood the game, let's practice a few easier examples before we start!<br> <br>","0","","","","","","","","","","","","","","","","","","","","","","","","","",""
"","","","","","single-stim-button","134","2109305","0.0-3.0-3.0-0.0","5d7dfc0ab5150b001ac86314","B2","batch2","tol_practice","14516","","","","","","","","","tol_peg_2","14516","14516","0","[[1,2,0],[0,0],[0]]","1","[[1,2,0],[0,0],[3]]","practice","14516","","","","","","","","","","",""
"","","","","","single-stim-button","135","2112488","0.0-3.0-3.0-1.0","5d7dfc0ab5150b001ac86314","B2","batch2","tol_practice","3171","","","","","","","","","tol_peg_3","3171","3171","0","[[1,2,0],[0,0],[3]]","1","[[1,2,0],[0,0],[3]]","practice","3171","","","","","","","","","","",""
"","","","","","poldrack-single-stim","136","2113497","0.0-3.0-4.0","5d7dfc0ab5150b001ac86314","B2","batch2","tol_feedback","-1","","","","","true","","","","","1000","1000","500","","","","","","-1","none","true","","0","","","","","",""
"","","","","","single-stim-button","137","2118450","0.0-3.0-5.0-0.0","5d7dfc0ab5150b001ac86314","B2","batch2","tol_practice","4951","","","","","","","","","tol_peg_1","4951","4951","0","[[1,0,0],[3,0],[0]]","2","[[0,0,0],[3,1],[2]]","practice","4951","","","","","","","","","","",""
"","","","","","single-stim-button","138","2120389","0.0-3.0-5.0-1.0","5d7dfc0ab5150b001ac86314","B2","batch2","tol_practice","1933","","","","","","","","","tol_peg_3","1933","1933","0","[[1,0,0],[3,0],[2]]","2","[[0,0,0],[3,1],[2]]","practice","1933","","","","","","","","","","",""
"","","","","","single-stim-button","139","2121549","0.0-3.0-5.1-0.1","5d7dfc0ab5150b001ac86314","B2","batch2","tol_practice","1155","","","","","","","","","tol_peg_1","1155","1155","0","[[0,0,0],[3,0],[2]]","3","[[0,0,0],[3,1],[2]]","practice","1155","","","","","","","","","","",""
"","","","","","single-stim-button","140","2123373","0.0-3.0-5.1-1.1","5d7dfc0ab5150b001ac86314","B2","batch2","tol_practice","1816","","","","","","","","","tol_peg_2","1816","1816","0","[[0,0,0],[3,1],[2]]","3","[[0,0,0],[3,1],[2]]","practice","1816","","","","","","","","","","",""
"","","","","","poldrack-single-stim","141","2124393","0.0-3.0-6.0","5d7dfc0ab5150b001ac86314","B2","batch2","tol_feedback","-1","","","","","true","","","","","1000","1000","500","","","","","","-1","none","true","","0","","","","","",""
"","","","","","single-stim-button","142","2129723","0.0-3.0-7.0-0.0","5d7dfc0ab5150b001ac86314","B2","batch2","tol_practice","5325","","","","","","","","","tol_peg_1","5325","5325","0","[[1,0,0],[3,0],[0]]","4","[[1,0,0],[2,0],[3]]","practice","5325","","","","","","","","","","",""
"","","","","","single-stim-button","143","2131624","0.0-3.0-7.0-1.0","5d7dfc0ab5150b001ac86314","B2","batch2","tol_practice","1890","","","","","","","","","tol_peg_3","1890","1890","0","[[1,0,0],[3,0],[2]]","4","[[1,0,0],[2,0],[3]]","practice","1890","","","","","","","","","","",""
"","","","","","single-stim-button","144","2136438","0.0-3.0-7.1-0.1","5d7dfc0ab5150b001ac86314","B2","batch2","tol_practice","4807","","","","","","","","","tol_peg_2","4807","4807","0","[[1,0,0],[0,0],[2]]","5","[[1,0,0],[2,0],[3]]","practice","4807","","","","","","","","","","",""
"","","","","","single-stim-button","145","2137509","0.0-3.0-7.1-1.1","5d7dfc0ab5150b001ac86314","B2","batch2","tol_practice","1057","","","","","","","","","tol_peg_1","1057","1057","0","[[1,3,0],[0,0],[2]]","5","[[1,0,0],[2,0],[3]]","practice","1057","","","","","","","","","","",""
"","","","","","single-stim-button","146","2138501","0.0-3.0-7.2-0.2","5d7dfc0ab5150b001ac86314","B2","batch2","tol_practice","989","","","","","","","","","tol_peg_3","989","989","0","[[1,3,0],[0,0],[0]]","6","[[1,0,0],[2,0],[3]]","practice","989","","","","","","","","","","",""
"","","","","","single-stim-button","147","2139633","0.0-3.0-7.2-1.2","5d7dfc0ab5150b001ac86314","B2","batch2","tol_practice","1127","","","","","","","","","tol_peg_2","1127","1127","0","[[1,3,0],[2,0],[0]]","6","[[1,0,0],[2,0],[3]]","practice","1127","","","","","","","","","","",""
"","","","","","single-stim-button","148","2140352","0.0-3.0-7.3-0.3","5d7dfc0ab5150b001ac86314","B2","batch2","tol_practice","715","","","","","","","","","tol_peg_1","715","715","0","[[1,0,0],[2,0],[0]]","7","[[1,0,0],[2,0],[3]]","practice","715","","","","","","","","","","",""
"","","","","","single-stim-button","149","2141949","0.0-3.0-7.3-1.3","5d7dfc0ab5150b001ac86314","B2","batch2","tol_practice","1592","","","","","","","","","tol_peg_3","1592","1592","0","[[1,0,0],[2,0],[3]]","7","[[1,0,0],[2,0],[3]]","practice","1592","","","","","","","","","","",""
"","","","","","poldrack-single-stim","150","2142958","0.0-3.0-8.0","5d7dfc0ab5150b001ac86314","B2","batch2","tol_feedback","-1","","","","","true","","","","","1000","1000","500","","","","","","-1","none","true","","0","","","","","",""
"","","","","","html-button-response","151","2148315","0.0-3.0-9.0","5d7dfc0ab5150b001ac86314","B2","batch2","tol_instruction","5352","<div class = centerbox><p class = center-block-text>Great job! You are done with practice trials<br>You are about to start official trials.<br> <br> Problem <strong>1</strong> out of 25 problems</p></div>","0","","","","","","","","","","","","","","","","","","","","","","","","","",""
"","","","","","single-stim-button","152","2154945","0.0-3.0-10.0-0.0","5d7dfc0ab5150b001ac86314","B2","batch2","tol_tohand","5612","","","","","","","","","tol_peg_2","5612","5612","0","[[1,2,0],[0,0],[0]]","1","[[1,3,0],[2,0],[0]]","0","0","","","","","","3","","","","",""
"","","","","","single-stim-button","153","2156775","0.0-3.0-10.0-1.0","5d7dfc0ab5150b001ac86314","B2","batch2","tol_toboard","1820","","","","","","","","","tol_peg_1","1820","1820","0","[[1,2,3],[0,0],[0]]","1","[[1,3,0],[2,0],[0]]","0","0","","","","","","3","","","","",""
"","","","","","single-stim-button","154","2157649","0.0-3.0-10.1-0.1","5d7dfc0ab5150b001ac86314","B2","batch2","tol_tohand","865","","","","","","","","","tol_peg_1","865","865","0","[[1,2,0],[0,0],[0]]","2","[[1,3,0],[2,0],[0]]","0","0","","","","","","3","","","","",""
"","","","","","single-stim-button","155","2161526","0.0-3.0-10.1-1.1","5d7dfc0ab5150b001ac86314","B2","batch2","tol_toboard","3871","","","","","","","","","tol_peg_1","3871","3871","0","[[1,2,3],[0,0],[0]]","2","[[1,3,0],[2,0],[0]]","0","0","","","","","","3","","","","",""
"","","","","","single-stim-button","156","2162248","0.0-3.0-10.2-0.2","5d7dfc0ab5150b001ac86314","B2","batch2","tol_tohand","717","","","","","","","","","tol_peg_1","717","717","0","[[1,2,0],[0,0],[0]]","3","[[1,3,0],[2,0],[0]]","0","0","","","","","","3","","","","",""
"","","","","","single-stim-button","157","2163348","0.0-3.0-10.2-1.2","5d7dfc0ab5150b001ac86314","B2","batch2","tol_toboard","1094","","","","","","","","","tol_peg_1","1094","1094","0","[[1,2,3],[0,0],[0]]","3","[[1,3,0],[2,0],[0]]","0","0","","","","","","3","","","","",""
"","","","","","single-stim-button","158","2164748","0.0-3.0-10.3-0.3","5d7dfc0ab5150b001ac86314","B2","batch2","tol_tohand","1393","","","","","","","","","tol_peg_1","1393","1393","0","[[1,2,0],[0,0],[0]]","4","[[1,3,0],[2,0],[0]]","0","0","","","","","","3","","","","",""
"","","","","","single-stim-button","159","2173417","0.0-3.0-10.3-1.3","5d7dfc0ab5150b001ac86314","B2","batch2","tol_toboard","8662","","","","","","","","","tol_peg_3","8662","8662","0","[[1,2,0],[0,0],[3]]","4","[[1,3,0],[2,0],[0]]","0","0","","","","","","3","","","","",""
"","","","","","single-stim-button","160","2174496","0.0-3.0-10.4-0.4","5d7dfc0ab5150b001ac86314","B2","batch2","tol_tohand","1074","","","","","","","","","tol_peg_1","1074","1074","0","[[1,0,0],[0,0],[3]]","5","[[1,3,0],[2,0],[0]]","0","0","","","","","","3","","","","",""
"","","","","","single-stim-button","161","2175799","0.0-3.0-10.4-1.4","5d7dfc0ab5150b001ac86314","B2","batch2","tol_toboard","1299","","","","","","","","","tol_peg_2","1299","1299","0","[[1,0,0],[2,0],[3]]","5","[[1,3,0],[2,0],[0]]","0","0","","","","","","3","","","","",""
"","","","","","single-stim-button","162","2176913","0.0-3.0-10.5-0.5","5d7dfc0ab5150b001ac86314","B2","batch2","tol_tohand","1110","","","","","","","","","tol_peg_3","1110","1110","0","[[1,0,0],[2,0],[0]]","6","[[1,3,0],[2,0],[0]]","0","0","","","","","","3","","","","",""
"","","","","","single-stim-button","163","2178195","0.0-3.0-10.5-1.5","5d7dfc0ab5150b001ac86314","B2","batch2","tol_toboard","1272","","","","","","","","","tol_peg_1","1272","1272","0","[[1,3,0],[2,0],[0]]","6","[[1,3,0],[2,0],[0]]","0","0","","","","","","3","","","","",""
"","","","","","poldrack-single-stim","164","2179201","0.0-3.0-11.0","5d7dfc0ab5150b001ac86314","B2","batch2","tol_feedback","-1","","","","","true","","","","","1000","1000","500","","","","","","-1","none","true","5612","10771","","","","","",""
"","","","","","html-button-response","165","2180376","0.0-3.0-12.0","5d7dfc0ab5150b001ac86314","B2","batch2","tol_trial_num","1171.9000000357628","<div class = centerbox><p class = center-block-text>problem <strong>2</strong> out of 25 problems</p></div>","0","","","","","","","","","","","","","","","","","","","","","","","","","",""
"","","","","","single-stim-button","166","2198301","0.0-3.0-13.0-0.0","5d7dfc0ab5150b001ac86314","B2","batch2","tol_tohand","17920","","","","","","","","","tol_peg_2","17920","17920","0","[[1,2,0],[0,0],[0]]","1","[[2,1,3],[0,0],[0]]","1","0","","","","","","5","","","","",""
"","","","","","single-stim-button","167","2204218","0.0-3.0-13.0-1.0","5d7dfc0ab5150b001ac86314","B2","batch2","tol_toboard","5906","","","","","","","","","tol_peg_3","5906","5906","0","[[1,2,0],[0,0],[3]]","1","[[2,1,3],[0,0],[0]]","1","0","","","","","","5","","","","",""
"","","","","","single-stim-button","168","2206471","0.0-3.0-13.1-0.1","5d7dfc0ab5150b001ac86314","B2","batch2","tol_tohand","2246","","","","","","","","","tol_peg_1","2246","2246","0","[[1,0,0],[0,0],[3]]","2","[[2,1,3],[0,0],[0]]","1","0","","","","","","5","","","","",""
"","","","","","single-stim-button","169","2223159","0.0-3.0-13.1-1.1","5d7dfc0ab5150b001ac86314","B2","batch2","tol_toboard","16673","","","","","","","","","tol_peg_2","16673","16673","0","[[1,0,0],[2,0],[3]]","2","[[2,1,3],[0,0],[0]]","1","0","","","","","","5","","","","",""
"","","","","","single-stim-button","170","2224571","0.0-3.0-13.2-0.2","5d7dfc0ab5150b001ac86314","B2","batch2","tol_tohand","1408","","","","","","","","","tol_peg_1","1408","1408","0","[[0,0,0],[2,0],[3]]","3","[[2,1,3],[0,0],[0]]","1","0","","","","","","5","","","","",""
"","","","","","single-stim-button","171","2233395","0.0-3.0-13.2-1.2","5d7dfc0ab5150b001ac86314","B2","batch2","tol_toboard","8814","","","","","","","","","tol_peg_1","8814","8814","0","[[1,0,0],[2,0],[3]]","3","[[2,1,3],[0,0],[0]]","1","0","","","","","","5","","","","",""
"","","","","","single-stim-button","172","2234679","0.0-3.0-13.3-0.3","5d7dfc0ab5150b001ac86314","B2","batch2","tol_tohand","1278","","","","","","","","","tol_peg_3","1278","1278","0","[[1,0,0],[2,0],[0]]","4","[[2,1,3],[0,0],[0]]","1","0","","","","","","5","","","","",""
"","","","","","single-stim-button","173","2237497","0.0-3.0-13.3-1.3","5d7dfc0ab5150b001ac86314","B2","batch2","tol_toboard","2810","","","","","","","","","tol_peg_1","2810","2810","0","[[1,3,0],[2,0],[0]]","4","[[2,1,3],[0,0],[0]]","1","0","","","","","","5","","","","",""
"","","","","","single-stim-button","174","2238395","0.0-3.0-13.4-0.4","5d7dfc0ab5150b001ac86314","B2","batch2","tol_tohand","892","","","","","","","","","tol_peg_2","892","892","0","[[1,3,0],[0,0],[0]]","5","[[2,1,3],[0,0],[0]]","1","0","","","","","","5","","","","",""
"","","","","","single-stim-button","175","2242304","0.0-3.0-13.4-1.4","5d7dfc0ab5150b001ac86314","B2","batch2","tol_toboard","3902","","","","","","","","","tol_peg_3","3902","3902","0","[[1,3,0],[0,0],[2]]","5","[[2,1,3],[0,0],[0]]","1","0","","","","","","5","","","","",""
"","","","","","single-stim-button","176","2243847","0.0-3.0-13.5-0.5","5d7dfc0ab5150b001ac86314","B2","batch2","tol_tohand","1531","","","","","","","","","tol_peg_1","1531","1531","0","[[1,0,0],[0,0],[2]]","6","[[2,1,3],[0,0],[0]]","1","0","","","","","","5","","","","",""
"","","","","","single-stim-button","177","2247747","0.0-3.0-13.5-1.5","5d7dfc0ab5150b001ac86314","B2","batch2","tol_toboard","3893","","","","","","","","","tol_peg_2","3893","3893","0","[[1,0,0],[3,0],[2]]","6","[[2,1,3],[0,0],[0]]","1","0","","","","","","5","","","","",""
"","","","","","single-stim-button","178","2248520","0.0-3.0-13.6-0.6","5d7dfc0ab5150b001ac86314","B2","batch2","tol_tohand","767","","","","","","","","","tol_peg_1","767","767","0","[[0,0,0],[3,0],[2]]","7","[[2,1,3],[0,0],[0]]","1","0","","","","","","5","","","","",""
"","","","","","single-stim-button","179","2249818","0.0-3.0-13.6-1.6","5d7dfc0ab5150b001ac86314","B2","batch2","tol_toboard","1280","","","","","","","","","tol_peg_2","1280","1280","0","[[0,0,0],[3,1],[2]]","7","[[2,1,3],[0,0],[0]]","1","0","","","","","","5","","","","",""
"","","","","","single-stim-button","180","2251097","0.0-3.0-13.7-0.7","5d7dfc0ab5150b001ac86314","B2","batch2","tol_tohand","1267","","","","","","","","","tol_peg_3","1267","1267","0","[[0,0,0],[3,1],[0]]","8","[[2,1,3],[0,0],[0]]","1","0","","","","","","5","","","","",""
"","","","","","single-stim-button","181","2252592","0.0-3.0-13.7-1.7","5d7dfc0ab5150b001ac86314","B2","batch2","tol_toboard","1488","","","","","","","","","tol_peg_1","1488","1488","0","[[2,0,0],[3,1],[0]]","8","[[2,1,3],[0,0],[0]]","1","0","","","","","","5","","","","",""
"","","","","","single-stim-button","182","2253430","0.0-3.0-13.8-0.8","5d7dfc0ab5150b001ac86314","B2","batch2","tol_tohand","834","","","","","","","","","tol_peg_2","834","834","0","[[2,0,0],[3,0],[0]]","9","[[2,1,3],[0,0],[0]]","1","0","","","","","","5","","","","",""
"","","","","","single-stim-button","183","2254551","0.0-3.0-13.8-1.8","5d7dfc0ab5150b001ac86314","B2","batch2","tol_toboard","1117","","","","","","","","","tol_peg_1","1117","1117","0","[[2,1,0],[3,0],[0]]","9","[[2,1,3],[0,0],[0]]","1","0","","","","","","5","","","","",""
"","","","","","single-stim-button","184","2255301","0.0-3.0-13.9-0.9","5d7dfc0ab5150b001ac86314","B2","batch2","tol_tohand","747","","","","","","","","","tol_peg_2","747","747","0","[[2,1,0],[0,0],[0]]","10","[[2,1,3],[0,0],[0]]","1","0","","","","","","5","","","","",""
"","","","","","single-stim-button","185","2256362","0.0-3.0-13.9-1.9","5d7dfc0ab5150b001ac86314","B2","batch2","tol_toboard","1056","","","","","","","","","tol_peg_1","1056","1056","0","[[2,1,3],[0,0],[0]]","10","[[2,1,3],[0,0],[0]]","1","0","","","","","","5","","","","",""
"","","","","","poldrack-single-stim","186","2257367","0.0-3.0-14.0","5d7dfc0ab5150b001ac86314","B2","batch2","tol_feedback","-1","","","","","true","","","","","1000","1000","500","","","","","","-1","none","true","17920","28890","","","","","",""
"","","","","","html-button-response","187","2258560","0.0-3.0-15.0","5d7dfc0ab5150b001ac86314","B2","batch2","tol_trial_num","1191.0999999642372","<div class = centerbox><p class = center-block-text>problem <strong>3</strong> out of 25 problems</p></div>","0","","","","","","","","","","","","","","","","","","","","","","","","","",""
"","","","","","single-stim-button","188","2268146","0.0-3.0-16.0-0.0","5d7dfc0ab5150b001ac86314","B2","batch2","tol_tohand","9580","","","","","","","","","tol_peg_1","9580","9580","0","[[2,0,0],[0,0],[1]]","1","[[1,2,0],[3,0],[0]]","2","0","","","","","","4","","","","",""
"","","","","","single-stim-button","189","2269543","0.0-3.0-16.0-1.0","5d7dfc0ab5150b001ac86314","B2","batch2","tol_toboard","1387","","","","","","","","","tol_peg_2","1387","1387","0","[[2,0,0],[3,0],[1]]","1","[[1,2,0],[3,0],[0]]","2","0","","","","","","4","","","","",""
"","","","","","single-stim-button","190","2270275","0.0-3.0-16.1-0.1","5d7dfc0ab5150b001ac86314","B2","batch2","tol_tohand","727","","","","","","","","","tol_peg_1","727","727","0","[[0,0,0],[3,0],[1]]","2","[[1,2,0],[3,0],[0]]","2","0","","","","","","4","","","","",""
"","","","","","single-stim-button","191","2271513","0.0-3.0-16.1-1.1","5d7dfc0ab5150b001ac86314","B2","batch2","tol_toboard","1235","","","","","","","","","tol_peg_2","1235","1235","0","[[0,0,0],[3,2],[1]]","2","[[1,2,0],[3,0],[0]]","2","0","","","","","","4","","","","",""
"","","","","","single-stim-button","192","2272884","0.0-3.0-16.2-0.2","5d7dfc0ab5150b001ac86314","B2","batch2","tol_tohand","1367","","","","","","","","","tol_peg_3","1367","1367","0","[[0,0,0],[3,2],[0]]","3","[[1,2,0],[3,0],[0]]","2","0","","","","","","4","","","","",""
"","","","","","single-stim-button","193","2274512","0.0-3.0-16.2-1.2","5d7dfc0ab5150b001ac86314","B2","batch2","tol_toboard","1620","","","","","","","","","tol_peg_1","1620","1620","0","[[1,0,0],[3,2],[0]]","3","[[1,2,0],[3,0],[0]]","2","0","","","","","","4","","","","",""
"","","","","","single-stim-button","194","2275294","0.0-3.0-16.3-0.3","5d7dfc0ab5150b001ac86314","B2","batch2","tol_tohand","778","","","","","","","","","tol_peg_2","778","778","0","[[1,0,0],[3,0],[0]]","4","[[1,2,0],[3,0],[0]]","2","0","","","","","","4","","","","",""
"","","","","","single-stim-button","195","2276377","0.0-3.0-16.3-1.3","5d7dfc0ab5150b001ac86314","B2","batch2","tol_toboard","1077","","","","","","","","","tol_peg_1","1077","1077","0","[[1,2,0],[3,0],[0]]","4","[[1,2,0],[3,0],[0]]","2","0","","","","","","4","","","","",""
"","","","","","poldrack-single-stim","196","2277384","0.0-3.0-17.0","5d7dfc0ab5150b001ac86314","B2","batch2","tol_feedback","-1","","","","","true","","","","","1000","1000","500","","","","","","-1","none","true","9580","12452","","","","","",""
"","","","","","html-button-response","197","2278476","0.0-3.0-18.0","5d7dfc0ab5150b001ac86314","B2","batch2","tol_trial_num","1090","<div class = centerbox><p class = center-block-text>problem <strong>4</strong> out of 25 problems</p></div>","0","","","","","","","","","","","","","","","","","","","","","","","","","",""
"","","","","","single-stim-button","198","2283828","0.0-3.0-19.0-0.0","5d7dfc0ab5150b001ac86314","B2","batch2","tol_tohand","5346","","","","","","","","","tol_peg_2","5346","5346","0","[[3,0,0],[2,0],[0]]","1","[[3,0,0],[1,0],[2]]","3","0","","","","","","3","","","","",""
"","","","","","single-stim-button","199","2284615","0.0-3.0-19.0-1.0","5d7dfc0ab5150b001ac86314","B2","batch2","tol_toboard","781","","","","","","","","","tol_peg_3","781","781","0","[[3,0,0],[2,0],[1]]","1","[[3,0,0],[1,0],[2]]","3","0","","","","","","3","","","","",""
"","","","","","single-stim-button","200","2285452","0.0-3.0-19.1-0.1","5d7dfc0ab5150b001ac86314","B2","batch2","tol_tohand","830","","","","","","","","","tol_peg_2","830","830","0","[[3,0,0],[0,0],[1]]","2","[[3,0,0],[1,0],[2]]","3","0","","","","","","3","","","","",""
"","","","","","single-stim-button","201","2288115","0.0-3.0-19.1-1.1","5d7dfc0ab5150b001ac86314","B2","batch2","tol_toboard","2644","","","","","","","","","tol_peg_1","2644","2644","0","[[3,2,0],[0,0],[1]]","2","[[3,0,0],[1,0],[2]]","3","0","","","","","","3","","","","",""
"","","","","","single-stim-button","202","2289708","0.0-3.0-19.2-0.2","5d7dfc0ab5150b001ac86314","B2","batch2","tol_tohand","1583","","","","","","","","","tol_peg_3","1583","1583","0","[[3,2,0],[0,0],[0]]","3","[[3,0,0],[1,0],[2]]","3","0","","","","","","3","","","","",""
"","","","","","single-stim-button","203","2291269","0.0-3.0-19.2-1.2","5d7dfc0ab5150b001ac86314","B2","batch2","tol_toboard","1556","","","","","","","","","tol_peg_2","1556","1556","0","[[3,2,0],[1,0],[0]]","3","[[3,0,0],[1,0],[2]]","3","0","","","","","","3","","","","",""
"","","","","","single-stim-button","204","2291945","0.0-3.0-19.3-0.3","5d7dfc0ab5150b001ac86314","B2","batch2","tol_tohand","666","","","","","","","","","tol_peg_1","666","666","0","[[3,0,0],[1,0],[0]]","4","[[3,0,0],[1,0],[2]]","3","0","","","","","","3","","","","",""
"","","","","","single-stim-button","205","2293016","0.0-3.0-19.3-1.3","5d7dfc0ab5150b001ac86314","B2","batch2","tol_toboard","1062","","","","","","","","","tol_peg_3","1062","1062","0","[[3,0,0],[1,0],[2]]","4","[[3,0,0],[1,0],[2]]","3","0","","","","","","3","","","","",""
"","","","","","poldrack-single-stim","206","2294022","0.0-3.0-20.0","5d7dfc0ab5150b001ac86314","B2","batch2","tol_feedback","-1","","","","","true","","","","","1000","1000","500","","","","","","-1","none","true","5346","8425","","","","","",""
"","","","","","html-button-response","207","2295017","0.0-3.0-21.0","5d7dfc0ab5150b001ac86314","B2","batch2","tol_trial_num","993.3999999761581","<div class = centerbox><p class = center-block-text>problem <strong>5</strong> out of 25 problems</p></div>","0","","","","","","","","","","","","","","","","","","","","","","","","","",""
"","","","","","single-stim-button","208","2302091","0.0-3.0-22.0-0.0","5d7dfc0ab5150b001ac86314","B2","batch2","tol_tohand","7070","","","","","","","","","tol_peg_3","7070","7070","0","[[1,0,0],[2,0],[0]]","1","[[0,0,0],[1,2],[3]]","4","0","","","","","","7","","","","",""
"","","","","","single-stim-button","209","2304345","0.0-3.0-22.0-1.0","5d7dfc0ab5150b001ac86314","B2","batch2","tol_toboard","2252","","","","","","","","","tol_peg_2","2252","2252","0","[[1,0,0],[2,3],[0]]","1","[[0,0,0],[1,2],[3]]","4","0","","","","","","7","","","","",""
"","","","","","single-stim-button","210","2304997","0.0-3.0-22.1-0.1","5d7dfc0ab5150b001ac86314","B2","batch2","tol_tohand","649","","","","","","","","","tol_peg_1","649","649","0","[[0,0,0],[2,3],[0]]","2","[[0,0,0],[1,2],[3]]","4","0","","","","","","7","","","","",""
"","","","","","single-stim-button","211","2308441","0.0-3.0-22.1-1.1","5d7dfc0ab5150b001ac86314","B2","batch2","tol_toboard","3436","","","","","","","","","tol_peg_3","3436","3436","0","[[0,0,0],[2,3],[1]]","2","[[0,0,0],[1,2],[3]]","4","0","","","","","","7","","","","",""
"","","","","","single-stim-button","212","2309144","0.0-3.0-22.2-0.2","5d7dfc0ab5150b001ac86314","B2","batch2","tol_tohand","696","","","","","","","","","tol_peg_2","696","696","0","[[0,0,0],[2,0],[1]]","3","[[0,0,0],[1,2],[3]]","4","0","","","","","","7","","","","",""
"","","","","","single-stim-button","213","2310108","0.0-3.0-22.2-1.2","5d7dfc0ab5150b001ac86314","B2","batch2","tol_toboard","953","","","","","","","","","tol_peg_1","953","953","0","[[3,0,0],[2,0],[1]]","3","[[0,0,0],[1,2],[3]]","4","0","","","","","","7","","","","",""
"","","","","","single-stim-button","214","2310862","0.0-3.0-22.3-0.3","5d7dfc0ab5150b001ac86314","B2","batch2","tol_tohand","748","","","","","","","","","tol_peg_2","748","748","0","[[3,0,0],[0,0],[1]]","4","[[0,0,0],[1,2],[3]]","4","0","","","","","","7","","","","",""
"","","","","","single-stim-button","215","2313229","0.0-3.0-22.3-1.3","5d7dfc0ab5150b001ac86314","B2","batch2","tol_toboard","2361","","","","","","","","","tol_peg_1","2361","2361","0","[[3,2,0],[0,0],[1]]","4","[[0,0,0],[1,2],[3]]","4","0","","","","","","7","","","","",""
"","","","","","single-stim-button","216","2315395","0.0-3.0-22.4-0.4","5d7dfc0ab5150b001ac86314","B2","batch2","tol_tohand","2159","","","","","","","","","tol_peg_3","2159","2159","0","[[3,2,0],[0,0],[0]]","5","[[0,0,0],[1,2],[3]]","4","0","","","","","","7","","","","",""
"","","","","","single-stim-button","217","2316697","0.0-3.0-22.4-1.4","5d7dfc0ab5150b001ac86314","B2","batch2","tol_toboard","1295","","","","","","","","","tol_peg_2","1295","1295","0","[[3,2,0],[1,0],[0]]","5","[[0,0,0],[1,2],[3]]","4","0","","","","","","7","","","","",""
"","","","","","single-stim-button","218","2317426","0.0-3.0-22.5-0.5","5d7dfc0ab5150b001ac86314","B2","batch2","tol_tohand","720","","","","","","","","","tol_peg_1","720","720","0","[[3,0,0],[1,0],[0]]","6","[[0,0,0],[1,2],[3]]","4","0","","","","","","7","","","","",""
"","","","","","single-stim-button","219","2318628","0.0-3.0-22.5-1.5","5d7dfc0ab5150b001ac86314","B2","batch2","tol_toboard","1199","","","","","","","","","tol_peg_2","1199","1199","0","[[3,0,0],[1,2],[0]]","6","[[0,0,0],[1,2],[3]]","4","0","","","","","","7","","","","",""
"","","","","","single-stim-button","220","2319634","0.0-3.0-22.6-0.6","5d7dfc0ab5150b001ac86314","B2","batch2","tol_tohand","1001","","","","","","","","","tol_peg_1","1001","1001","0","[[0,0,0],[1,2],[0]]","7","[[0,0,0],[1,2],[3]]","4","0","","","","","","7","","","","",""
"","","","","","single-stim-button","221","2320897","0.0-3.0-22.6-1.6","5d7dfc0ab5150b001ac86314","B2","batch2","tol_toboard","1252","","","","","","","","","tol_peg_3","1252","1252","0","[[0,0,0],[1,2],[3]]","7","[[0,0,0],[1,2],[3]]","4","0","","","","","","7","","","","",""
"","","","","","poldrack-single-stim","222","2321918","0.0-3.0-23.0","5d7dfc0ab5150b001ac86314","B2","batch2","tol_feedback","-1","","","","","true","","","","","1000","1000","500","","","","","","-1","none","true","7070","13043","","","","","",""
"","","","","","html-button-response","223","2322926","0.0-3.0-24.0","5d7dfc0ab5150b001ac86314","B2","batch2","tol_trial_num","1006.0999999642372","<div class = centerbox><p class = center-block-text>problem <strong>6</strong> out of 25 problems</p></div>","0","","","","","","","","","","","","","","","","","","","","","","","","","",""
"","","","","","single-stim-button","224","2327917","0.0-3.0-25.0-0.0","5d7dfc0ab5150b001ac86314","B2","batch2","tol_tohand","4985","","","","","","","","","tol_peg_3","4985","4985","0","[[0,0,0],[1,2],[0]]","1","[[1,0,0],[2,3],[0]]","5","0","","","","","","6","","","","",""
"","","","","","single-stim-button","225","2330357","0.0-3.0-25.0-1.0","5d7dfc0ab5150b001ac86314","B2","batch2","tol_toboard","2438","","","","","","","","","tol_peg_3","2438","2438","0","[[0,0,0],[1,2],[3]]","1","[[1,0,0],[2,3],[0]]","5","0","","","","","","6","","","","",""
"","","","","","single-stim-button","226","2340741","0.0-3.0-25.1-0.1","5d7dfc0ab5150b001ac86314","B2","batch2","tol_tohand","10375","","","","","","","","","tol_peg_2","10375","10375","0","[[0,0,0],[1,0],[3]]","2","[[1,0,0],[2,3],[0]]","5","0","","","","","","6","","","","",""
"","","","","","single-stim-button","227","2341959","0.0-3.0-25.1-1.1","5d7dfc0ab5150b001ac86314","B2","batch2","tol_toboard","1208","","","","","","","","","tol_peg_1","1208","1208","0","[[2,0,0],[1,0],[3]]","2","[[1,0,0],[2,3],[0]]","5","0","","","","","","6","","","","",""
"","","","","","single-stim-button","228","2343080","0.0-3.0-25.2-0.2","5d7dfc0ab5150b001ac86314","B2","batch2","tol_tohand","1116","","","","","","","","","tol_peg_2","1116","1116","0","[[2,0,0],[0,0],[3]]","3","[[1,0,0],[2,3],[0]]","5","0","","","","","","6","","","","",""
"","","","","","single-stim-button","229","2346611","0.0-3.0-25.2-1.2","5d7dfc0ab5150b001ac86314","B2","batch2","tol_toboard","3525","","","","","","","","","tol_peg_2","3525","3525","0","[[2,0,0],[1,0],[3]]","3","[[1,0,0],[2,3],[0]]","5","0","","","","","","6","","","","",""
"","","","","","single-stim-button","230","2352318","0.0-3.0-25.3-0.3","5d7dfc0ab5150b001ac86314","B2","batch2","tol_tohand","5701","","","","","","","","","tol_peg_3","5701","5701","0","[[2,0,0],[1,0],[0]]","4","[[1,0,0],[2,3],[0]]","5","0","","","","","","6","","","","",""
"","","","","","single-stim-button","231","2353310","0.0-3.0-25.3-1.3","5d7dfc0ab5150b001ac86314","B2","batch2","tol_toboard","984","","","","","","","","","tol_peg_2","984","984","0","[[2,0,0],[1,3],[0]]","4","[[1,0,0],[2,3],[0]]","5","0","","","","","","6","","","","",""
"","","","","","single-stim-button","232","2354091","0.0-3.0-25.4-0.4","5d7dfc0ab5150b001ac86314","B2","batch2","tol_tohand","778","","","","","","","","","tol_peg_1","778","778","0","[[0,0,0],[1,3],[0]]","5","[[1,0,0],[2,3],[0]]","5","0","","","","","","6","","","","",""
"","","","","","single-stim-button","233","2372209","0.0-3.0-25.4-1.4","5d7dfc0ab5150b001ac86314","B2","batch2","tol_toboard","18113","","","","","","","","","tol_peg_1","18113","18113","0","[[2,0,0],[1,3],[0]]","5","[[1,0,0],[2,3],[0]]","5","0","","","","","","6","","","","",""
"","","","","","single-stim-button","234","2373549","0.0-3.0-25.5-0.5","5d7dfc0ab5150b001ac86314","B2","batch2","tol_tohand","1333","","","","","","","","","tol_peg_2","1333","1333","0","[[2,0,0],[1,0],[0]]","6","[[1,0,0],[2,3],[0]]","5","0","","","","","","6","","","","",""
"","","","","","single-stim-button","235","2376525","0.0-3.0-25.5-1.5","5d7dfc0ab5150b001ac86314","B2","batch2","tol_toboard","2967","","","","","","","","","tol_peg_3","2967","2967","0","[[2,0,0],[1,0],[3]]","6","[[1,0,0],[2,3],[0]]","5","0","","","","","","6","","","","",""
"","","","","","single-stim-button","236","2377774","0.0-3.0-25.6-0.6","5d7dfc0ab5150b001ac86314","B2","batch2","tol_tohand","1245","","","","","","","","","tol_peg_1","1245","1245","0","[[0,0,0],[1,0],[3]]","7","[[1,0,0],[2,3],[0]]","5","0","","","","","","6","","","","",""
"","","","","","single-stim-button","237","2378120","0.0-3.0-25.6-1.6","5d7dfc0ab5150b001ac86314","B2","batch2","tol_toboard","345","","","","","","","","","tol_peg_1","345","345","0","[[2,0,0],[1,0],[3]]","7","[[1,0,0],[2,3],[0]]","5","0","","","","","","6","","","","",""
"","","","","","single-stim-button","238","2379838","0.0-3.0-25.7-0.7","5d7dfc0ab5150b001ac86314","B2","batch2","tol_tohand","1716","","","","","","","","","tol_peg_2","1716","1716","0","[[2,0,0],[0,0],[3]]","8","[[1,0,0],[2,3],[0]]","5","0","","","","","","6","","","","",""
"","","","","","single-stim-button","239","2383362","0.0-3.0-25.7-1.7","5d7dfc0ab5150b001ac86314","B2","batch2","tol_toboard","3519","","","","","","","","","tol_peg_2","3519","3519","0","[[2,0,0],[1,0],[3]]","8","[[1,0,0],[2,3],[0]]","5","0","","","","","","6","","","","",""
"","","","","","single-stim-button","240","2386925","0.0-3.0-25.8-0.8","5d7dfc0ab5150b001ac86314","B2","batch2","tol_tohand","3559","","","","","","","","","tol_peg_1","3559","3559","0","[[0,0,0],[1,0],[3]]","9","[[1,0,0],[2,3],[0]]","5","0","","","","","","6","","","","",""
"","","","","","single-stim-button","241","2392254","0.0-3.0-25.8-1.8","5d7dfc0ab5150b001ac86314","B2","batch2","tol_toboard","5323","","","","","","","","","tol_peg_1","5323","5323","0","[[2,0,0],[1,0],[3]]","9","[[1,0,0],[2,3],[0]]","5","0","","","","","","6","","","","",""
"","","","","","single-stim-button","242","2395077","0.0-3.0-25.9-0.9","5d7dfc0ab5150b001ac86314","B2","batch2","tol_tohand","2818","","","","","","","","","tol_peg_2","2818","2818","0","[[2,0,0],[0,0],[3]]","10","[[1,0,0],[2,3],[0]]","5","0","","","","","","6","","","","",""
"","","","","","single-stim-button","243","2400631","0.0-3.0-25.9-1.9","5d7dfc0ab5150b001ac86314","B2","batch2","tol_toboard","5550","","","","","","","","","tol_peg_1","5550","5550","0","[[2,1,0],[0,0],[3]]","10","[[1,0,0],[2,3],[0]]","5","0","","","","","","6","","","","",""
"","","","","","single-stim-button","244","2401048","0.0-3.0-25.10-0.10","5d7dfc0ab5150b001ac86314","B2","batch2","tol_tohand","412","","","","","","","","","tol_peg_1","412","412","0","[[2,0,0],[0,0],[3]]","11","[[1,0,0],[2,3],[0]]","5","0","","","","","","6","","","","",""
"","","","","","single-stim-button","245","2414338","0.0-3.0-25.10-1.10","5d7dfc0ab5150b001ac86314","B2","batch2","tol_toboard","13286","","","","","","","","","tol_peg_2","13286","13286","0","[[2,0,0],[1,0],[3]]","11","[[1,0,0],[2,3],[0]]","5","0","","","","","","6","","","","",""
"","","","","","single-stim-button","246","2422267","0.0-3.0-25.11-0.11","5d7dfc0ab5150b001ac86314","B2","batch2","tol_tohand","7925","","","","","","","","","tol_peg_3","7925","7925","0","[[2,0,0],[1,0],[0]]","12","[[1,0,0],[2,3],[0]]","5","0","","","","","","6","","","","",""
"","","","","","single-stim-button","247","2423659","0.0-3.0-25.11-1.11","5d7dfc0ab5150b001ac86314","B2","batch2","tol_toboard","1382","","","","","","","","","tol_peg_2","1382","1382","0","[[2,0,0],[1,3],[0]]","12","[[1,0,0],[2,3],[0]]","5","0","","","","","","6","","","","",""
"","","","","","single-stim-button","248","2426343","0.0-3.0-25.12-0.12","5d7dfc0ab5150b001ac86314","B2","batch2","tol_tohand","2677","","","","","","","","","tol_peg_1","2677","2677","0","[[0,0,0],[1,3],[0]]","13","[[1,0,0],[2,3],[0]]","5","0","","","","","","6","","","","",""
"","","","","","single-stim-button","249","2428825","0.0-3.0-25.12-1.12","5d7dfc0ab5150b001ac86314","B2","batch2","tol_toboard","2476","","","","","","","","","tol_peg_3","2476","2476","0","[[0,0,0],[1,3],[2]]","13","[[1,0,0],[2,3],[0]]","5","0","","","","","","6","","","","",""
"","","","","","single-stim-button","250","2429856","0.0-3.0-25.13-0.13","5d7dfc0ab5150b001ac86314","B2","batch2","tol_tohand","1021","","","","","","","","","tol_peg_2","1021","1021","0","[[0,0,0],[1,0],[2]]","14","[[1,0,0],[2,3],[0]]","5","0","","","","","","6","","","","",""
"","","","","","single-stim-button","251","2432044","0.0-3.0-25.13-1.13","5d7dfc0ab5150b001ac86314","B2","batch2","tol_toboard","2183","","","","","","","","","tol_peg_1","2183","2183","0","[[3,0,0],[1,0],[2]]","14","[[1,0,0],[2,3],[0]]","5","0","","","","","","6","","","","",""
"","","","","","single-stim-button","252","2433336","0.0-3.0-25.14-0.14","5d7dfc0ab5150b001ac86314","B2","batch2","tol_tohand","1285","","","","","","","","","tol_peg_2","1285","1285","0","[[3,0,0],[0,0],[2]]","15","[[1,0,0],[2,3],[0]]","5","0","","","","","","6","","","","",""
"","","","","","single-stim-button","253","2434363","0.0-3.0-25.14-1.14","5d7dfc0ab5150b001ac86314","B2","batch2","tol_toboard","1023","","","","","","","","","tol_peg_1","1023","1023","0","[[3,1,0],[0,0],[2]]","15","[[1,0,0],[2,3],[0]]","5","0","","","","","","6","","","","",""
"","","","","","single-stim-button","254","2435844","0.0-3.0-25.15-0.15","5d7dfc0ab5150b001ac86314","B2","batch2","tol_tohand","1473","","","","","","","","","tol_peg_3","1473","1473","0","[[3,1,0],[0,0],[0]]","16","[[1,0,0],[2,3],[0]]","5","0","","","","","","6","","","","",""
"","","","","","single-stim-button","255","2436645","0.0-3.0-25.15-1.15","5d7dfc0ab5150b001ac86314","B2","batch2","tol_toboard","796","","","","","","","","","tol_peg_2","796","796","0","[[3,1,0],[2,0],[0]]","16","[[1,0,0],[2,3],[0]]","5","0","","","","","","6","","","","",""
"","","","","","single-stim-button","256","2437440","0.0-3.0-25.16-0.16","5d7dfc0ab5150b001ac86314","B2","batch2","tol_tohand","775","","","","","","","","","tol_peg_1","775","775","0","[[3,0,0],[2,0],[0]]","17","[[1,0,0],[2,3],[0]]","5","0","","","","","","6","","","","",""
"","","","","","single-stim-button","257","2438310","0.0-3.0-25.16-1.16","5d7dfc0ab5150b001ac86314","B2","batch2","tol_toboard","868","","","","","","","","","tol_peg_3","868","868","0","[[3,0,0],[2,0],[1]]","17","[[1,0,0],[2,3],[0]]","5","0","","","","","","6","","","","",""
"","","","","","single-stim-button","258","2440043","0.0-3.0-25.17-0.17","5d7dfc0ab5150b001ac86314","B2","batch2","tol_tohand","1728","","","","","","","","","tol_peg_1","1728","1728","0","[[0,0,0],[2,0],[1]]","18","[[1,0,0],[2,3],[0]]","5","0","","","","","","6","","","","",""
"","","","","","single-stim-button","259","2441610","0.0-3.0-25.17-1.17","5d7dfc0ab5150b001ac86314","B2","batch2","tol_toboard","1560","","","","","","","","","tol_peg_2","1560","1560","0","[[0,0,0],[2,3],[1]]","18","[[1,0,0],[2,3],[0]]","5","0","","","","","","6","","","","",""
"","","","","","single-stim-button","260","2442224","0.0-3.0-25.18-0.18","5d7dfc0ab5150b001ac86314","B2","batch2","tol_tohand","589","","","","","","","","","tol_peg_3","589","589","0","[[0,0,0],[2,3],[0]]","19","[[1,0,0],[2,3],[0]]","5","0","","","","","","6","","","","",""
"","","","","","single-stim-button","261","2443408","0.0-3.0-25.18-1.18","5d7dfc0ab5150b001ac86314","B2","batch2","tol_toboard","1173","","","","","","","","","tol_peg_1","1173","1173","0","[[1,0,0],[2,3],[0]]","19","[[1,0,0],[2,3],[0]]","5","0","","","","","","6","","","","",""
"","","","","","poldrack-single-stim","262","2444412","0.0-3.0-26.0","5d7dfc0ab5150b001ac86314","B2","batch2","tol_feedback","-1","","","","","true","","","","","1000","1000","500","","","","","","-1","none","true","4985","51511","","","","","",""
"","","","","","html-button-response","263","2445524","0.0-3.0-27.0","5d7dfc0ab5150b001ac86314","B2","batch2","tol_trial_num","1108.9000000357628","<div class = centerbox><p class = center-block-text>problem <strong>7</strong> out of 25 problems</p></div>","0","","","","","","","","","","","","","","","","","","","","","","","","","",""
"","","","","","single-stim-button","264","2450346","0.0-3.0-28.0-0.0","5d7dfc0ab5150b001ac86314","B2","batch2","tol_tohand","4814","","","","","","","","","tol_peg_1","4814","4814","0","[[2,0,0],[0,0],[3]]","1","[[1,2,0],[3,0],[0]]","6","0","","","","","","5","","","","",""
"","","","","","single-stim-button","265","2453004","0.0-3.0-28.0-1.0","5d7dfc0ab5150b001ac86314","B2","batch2","tol_toboard","2651","","","","","","","","","tol_peg_2","2651","2651","0","[[2,0,0],[1,0],[3]]","1","[[1,2,0],[3,0],[0]]","6","0","","","","","","5","","","","",""
"","","","","","single-stim-button","266","2453698","0.0-3.0-28.1-0.1","5d7dfc0ab5150b001ac86314","B2","batch2","tol_tohand","692","","","","","","","","","tol_peg_3","692","692","0","[[2,0,0],[1,0],[0]]","2","[[1,2,0],[3,0],[0]]","6","0","","","","","","5","","","","",""
"","","","","","single-stim-button","267","2454558","0.0-3.0-28.1-1.1","5d7dfc0ab5150b001ac86314","B2","batch2","tol_toboard","855","","","","","","","","","tol_peg_2","855","855","0","[[2,0,0],[1,3],[0]]","2","[[1,2,0],[3,0],[0]]","6","0","","","","","","5","","","","",""
"","","","","","single-stim-button","268","2455421","0.0-3.0-28.2-0.2","5d7dfc0ab5150b001ac86314","B2","batch2","tol_tohand","859","","","","","","","","","tol_peg_1","859","859","0","[[0,0,0],[1,3],[0]]","3","[[1,2,0],[3,0],[0]]","6","0","","","","","","5","","","","",""
"","","","","","single-stim-button","269","2456610","0.0-3.0-28.2-1.2","5d7dfc0ab5150b001ac86314","B2","batch2","tol_toboard","1186","","","","","","","","","tol_peg_3","1186","1186","0","[[0,0,0],[1,3],[2]]","3","[[1,2,0],[3,0],[0]]","6","0","","","","","","5","","","","",""
"","","","","","single-stim-button","270","2458809","0.0-3.0-28.3-0.3","5d7dfc0ab5150b001ac86314","B2","batch2","tol_tohand","2192","","","","","","","","","tol_peg_2","2192","2192","0","[[0,0,0],[1,0],[2]]","4","[[1,2,0],[3,0],[0]]","6","0","","","","","","5","","","","",""
"","","","","","single-stim-button","271","2460570","0.0-3.0-28.3-1.3","5d7dfc0ab5150b001ac86314","B2","batch2","tol_toboard","1751","","","","","","","","","tol_peg_1","1751","1751","0","[[3,0,0],[1,0],[2]]","4","[[1,2,0],[3,0],[0]]","6","0","","","","","","5","","","","",""
"","","","","","single-stim-button","272","2467191","0.0-3.0-28.4-0.4","5d7dfc0ab5150b001ac86314","B2","batch2","tol_tohand","6616","","","","","","","","","tol_peg_2","6616","6616","0","[[3,0,0],[0,0],[2]]","5","[[1,2,0],[3,0],[0]]","6","0","","","","","","5","","","","",""
"","","","","","single-stim-button","273","2469458","0.0-3.0-28.4-1.4","5d7dfc0ab5150b001ac86314","B2","batch2","tol_toboard","2255","","","","","","","","","tol_peg_2","2255","2255","0","[[3,0,0],[1,0],[2]]","5","[[1,2,0],[3,0],[0]]","6","0","","","","","","5","","","","",""
"","","","","","single-stim-button","274","2469855","0.0-3.0-28.5-0.5","5d7dfc0ab5150b001ac86314","B2","batch2","tol_tohand","393","","","","","","","","","tol_peg_2","393","393","0","[[3,0,0],[0,0],[2]]","6","[[1,2,0],[3,0],[0]]","6","0","","","","","","5","","","","",""
"","","","","","single-stim-button","275","2470382","0.0-3.0-28.5-1.5","5d7dfc0ab5150b001ac86314","B2","batch2","tol_toboard","521","","","","","","","","","tol_peg_2","521","521","0","[[3,0,0],[1,0],[2]]","6","[[1,2,0],[3,0],[0]]","6","0","","","","","","5","","","","",""
"","","","","","single-stim-button","276","2472811","0.0-3.0-28.6-0.6","5d7dfc0ab5150b001ac86314","B2","batch2","tol_tohand","2419","","","","","","","","","tol_peg_3","2419","2419","0","[[3,0,0],[1,0],[0]]","7","[[1,2,0],[3,0],[0]]","6","0","","","","","","5","","","","",""
"","","","","","single-stim-button","277","2473496","0.0-3.0-28.6-1.6","5d7dfc0ab5150b001ac86314","B2","batch2","tol_toboard","681","","","","","","","","","tol_peg_2","681","681","0","[[3,0,0],[1,2],[0]]","7","[[1,2,0],[3,0],[0]]","6","0","","","","","","5","","","","",""
"","","","","","single-stim-button","278","2474091","0.0-3.0-28.7-0.7","5d7dfc0ab5150b001ac86314","B2","batch2","tol_tohand","589","","","","","","","","","tol_peg_1","589","589","0","[[0,0,0],[1,2],[0]]","8","[[1,2,0],[3,0],[0]]","6","0","","","","","","5","","","","",""
"","","","","","single-stim-button","279","2475356","0.0-3.0-28.7-1.7","5d7dfc0ab5150b001ac86314","B2","batch2","tol_toboard","1262","","","","","","","","","tol_peg_3","1262","1262","0","[[0,0,0],[1,2],[3]]","8","[[1,2,0],[3,0],[0]]","6","0","","","","","","5","","","","",""
"","","","","","single-stim-button","280","2478624","0.0-3.0-28.8-0.8","5d7dfc0ab5150b001ac86314","B2","batch2","tol_tohand","3263","","","","","","","","","tol_peg_2","3263","3263","0","[[0,0,0],[1,0],[3]]","9","[[1,2,0],[3,0],[0]]","6","0","","","","","","5","","","","",""
"","","","","","single-stim-button","281","2481652","0.0-3.0-28.8-1.8","5d7dfc0ab5150b001ac86314","B2","batch2","tol_toboard","3024","","","","","","","","","tol_peg_2","3024","3024","0","[[0,0,0],[1,2],[3]]","9","[[1,2,0],[3,0],[0]]","6","0","","","","","","5","","","","",""
"","","","","","single-stim-button","282","2482383","0.0-3.0-28.9-0.9","5d7dfc0ab5150b001ac86314","B2","batch2","tol_tohand","727","","","","","","","","","tol_peg_3","727","727","0","[[0,0,0],[1,2],[0]]","10","[[1,2,0],[3,0],[0]]","6","0","","","","","","5","","","","",""
"","","","","","single-stim-button","283","2515007","0.0-3.0-28.9-1.9","5d7dfc0ab5150b001ac86314","B2","batch2","tol_toboard","32617","","","","","","","","","tol_peg_3","32617","32617","0","[[0,0,0],[1,2],[3]]","10","[[1,2,0],[3,0],[0]]","6","0","","","","","","5","","","","",""
"","","","","","single-stim-button","284","2517275","0.0-3.0-28.10-0.10","5d7dfc0ab5150b001ac86314","B2","batch2","tol_tohand","2262","","","","","","","","","tol_peg_2","2262","2262","0","[[0,0,0],[1,0],[3]]","11","[[1,2,0],[3,0],[0]]","6","0","","","","","","5","","","","",""
"","","","","","single-stim-button","285","2532186","0.0-3.0-28.10-1.10","5d7dfc0ab5150b001ac86314","B2","batch2","tol_toboard","14906","","","","","","","","","tol_peg_1","14906","14906","0","[[2,0,0],[1,0],[3]]","11","[[1,2,0],[3,0],[0]]","6","0","","","","","","5","","","","",""
"","","","","","single-stim-button","286","2533741","0.0-3.0-28.11-0.11","5d7dfc0ab5150b001ac86314","B2","batch2","tol_tohand","1550","","","","","","","","","tol_peg_3","1550","1550","0","[[2,0,0],[1,0],[0]]","12","[[1,2,0],[3,0],[0]]","6","0","","","","","","5","","","","",""
"","","","","","single-stim-button","287","2536934","0.0-3.0-28.11-1.11","5d7dfc0ab5150b001ac86314","B2","batch2","tol_toboard","3188","","","","","","","","","tol_peg_2","3188","3188","0","[[2,0,0],[1,3],[0]]","12","[[1,2,0],[3,0],[0]]","6","0","","","","","","5","","","","",""
"","","","","","single-stim-button","288","2537870","0.0-3.0-28.12-0.12","5d7dfc0ab5150b001ac86314","B2","batch2","tol_tohand","934","","","","","","","","","tol_peg_1","934","934","0","[[0,0,0],[1,3],[0]]","13","[[1,2,0],[3,0],[0]]","6","0","","","","","","5","","","","",""
"","","","","","single-stim-button","289","2541106","0.0-3.0-28.12-1.12","5d7dfc0ab5150b001ac86314","B2","batch2","tol_toboard","3224","","","","","","","","","tol_peg_1","3224","3224","0","[[2,0,0],[1,3],[0]]","13","[[1,2,0],[3,0],[0]]","6","0","","","","","","5","","","","",""
"","","","","","single-stim-button","290","2543535","0.0-3.0-28.13-0.13","5d7dfc0ab5150b001ac86314","B2","batch2","tol_tohand","2418","","","","","","","","","tol_peg_2","2418","2418","0","[[2,0,0],[1,0],[0]]","14","[[1,2,0],[3,0],[0]]","6","0","","","","","","5","","","","",""
"","","","","","single-stim-button","291","2544687","0.0-3.0-28.13-1.13","5d7dfc0ab5150b001ac86314","B2","batch2","tol_toboard","1150","","","","","","","","","tol_peg_3","1150","1150","0","[[2,0,0],[1,0],[3]]","14","[[1,2,0],[3,0],[0]]","6","0","","","","","","5","","","","",""
"","","","","","single-stim-button","292","2553443","0.0-3.0-28.14-0.14","5d7dfc0ab5150b001ac86314","B2","batch2","tol_tohand","8751","","","","","","","","","tol_peg_3","8751","8751","0","[[2,0,0],[1,0],[0]]","15","[[1,2,0],[3,0],[0]]","6","0","","","","","","5","","","","",""
"","","","","","single-stim-button","293","2554228","0.0-3.0-28.14-1.14","5d7dfc0ab5150b001ac86314","B2","batch2","tol_toboard","781","","","","","","","","","tol_peg_1","781","781","0","[[2,3,0],[1,0],[0]]","15","[[1,2,0],[3,0],[0]]","6","0","","","","","","5","","","","",""
"","","","","","single-stim-button","294","2555012","0.0-3.0-28.15-0.15","5d7dfc0ab5150b001ac86314","B2","batch2","tol_tohand","777","","","","","","","","","tol_peg_2","777","777","0","[[2,3,0],[0,0],[0]]","16","[[1,2,0],[3,0],[0]]","6","0","","","","","","5","","","","",""
"","","","","","single-stim-button","295","2555885","0.0-3.0-28.15-1.15","5d7dfc0ab5150b001ac86314","B2","batch2","tol_toboard","866","","","","","","","","","tol_peg_3","866","866","0","[[2,3,0],[0,0],[1]]","16","[[1,2,0],[3,0],[0]]","6","0","","","","","","5","","","","",""
"","","","","","single-stim-button","296","2569940","0.0-3.0-28.16-0.16","5d7dfc0ab5150b001ac86314","B2","batch2","tol_tohand","14051","","","","","","","","","tol_peg_1","14051","14051","0","[[2,0,0],[0,0],[1]]","17","[[1,2,0],[3,0],[0]]","6","0","","","","","","5","","","","",""
"","","","","","single-stim-button","297","2571121","0.0-3.0-28.16-1.16","5d7dfc0ab5150b001ac86314","B2","batch2","tol_toboard","1177","","","","","","","","","tol_peg_2","1177","1177","0","[[2,0,0],[3,0],[1]]","17","[[1,2,0],[3,0],[0]]","6","0","","","","","","5","","","","",""
"","","","","","single-stim-button","298","2576012","0.0-3.0-28.17-0.17","5d7dfc0ab5150b001ac86314","B2","batch2","tol_tohand","4887","","","","","","","","","tol_peg_1","4887","4887","0","[[0,0,0],[3,0],[1]]","18","[[1,2,0],[3,0],[0]]","6","0","","","","","","5","","","","",""
"","","","","","single-stim-button","299","2576961","0.0-3.0-28.17-1.17","5d7dfc0ab5150b001ac86314","B2","batch2","tol_toboard","939","","","","","","","","","tol_peg_2","939","939","0","[[0,0,0],[3,2],[1]]","18","[[1,2,0],[3,0],[0]]","6","0","","","","","","5","","","","",""
"","","","","","single-stim-button","300","2577806","0.0-3.0-28.18-0.18","5d7dfc0ab5150b001ac86314","B2","batch2","tol_tohand","837","","","","","","","","","tol_peg_3","837","837","0","[[0,0,0],[3,2],[0]]","19","[[1,2,0],[3,0],[0]]","6","0","","","","","","5","","","","",""
"","","","","","single-stim-button","301","2579371","0.0-3.0-28.18-1.18","5d7dfc0ab5150b001ac86314","B2","batch2","tol_toboard","1560","","","","","","","","","tol_peg_1","1560","1560","0","[[1,0,0],[3,2],[0]]","19","[[1,2,0],[3,0],[0]]","6","0","","","","","","5","","","","",""
"","","","","","single-stim-button","302","2580426","0.0-3.0-28.19-0.19","5d7dfc0ab5150b001ac86314","B2","batch2","tol_tohand","1051","","","","","","","","","tol_peg_2","1051","1051","0","[[1,0,0],[3,0],[0]]","20","[[1,2,0],[3,0],[0]]","6","0","","","","","","5","","","","",""
"","","","","","single-stim-button","303","2581053","0.0-3.0-28.19-1.19","5d7dfc0ab5150b001ac86314","B2","batch2","tol_toboard","622","","","","","","","","","tol_peg_1","622","622","0","[[1,2,0],[3,0],[0]]","20","[[1,2,0],[3,0],[0]]","6","0","","","","","","5","","","","",""
"","","","","","poldrack-single-stim","304","2582058","0.0-3.0-29.0","5d7dfc0ab5150b001ac86314","B2","batch2","tol_feedback","-1","","","","","true","","","","","1000","1000","500","","","","","","-1","none","true","4814","60082","","","","","",""
"","","","","","html-button-response","305","2583040","0.0-3.0-30.0","5d7dfc0ab5150b001ac86314","B2","batch2","tol_trial_num","980.6999999880791","<div class = centerbox><p class = center-block-text>problem <strong>8</strong> out of 25 problems</p></div>","0","","","","","","","","","","","","","","","","","","","","","","","","","",""
"","","","","","single-stim-button","306","2588547","0.0-3.0-31.0-0.0","5d7dfc0ab5150b001ac86314","B2","batch2","tol_tohand","5499","","","","","","","","","tol_peg_3","5499","5499","0","[[0,0,0],[2,3],[0]]","1","[[1,2,0],[3,0],[0]]","7","0","","","","","","4","","","","",""
"","","","","","single-stim-button","307","2590006","0.0-3.0-31.0-1.0","5d7dfc0ab5150b001ac86314","B2","batch2","tol_toboard","1452","","","","","","","","","tol_peg_1","1452","1452","0","[[1,0,0],[2,3],[0]]","1","[[1,2,0],[3,0],[0]]","7","0","","","","","","4","","","","",""
"","","","","","single-stim-button","308","2591432","0.0-3.0-31.1-0.1","5d7dfc0ab5150b001ac86314","B2","batch2","tol_tohand","1422","","","","","","","","","tol_peg_2","1422","1422","0","[[1,0,0],[2,0],[0]]","2","[[1,2,0],[3,0],[0]]","7","0","","","","","","4","","","","",""
"","","","","","single-stim-button","309","2592208","0.0-3.0-31.1-1.1","5d7dfc0ab5150b001ac86314","B2","batch2","tol_toboard","774","","","","","","","","","tol_peg_3","774","774","0","[[1,0,0],[2,0],[3]]","2","[[1,2,0],[3,0],[0]]","7","0","","","","","","4","","","","",""
"","","","","","single-stim-button","310","2592794","0.0-3.0-31.2-0.2","5d7dfc0ab5150b001ac86314","B2","batch2","tol_tohand","583","","","","","","","","","tol_peg_2","583","583","0","[[1,0,0],[0,0],[3]]","3","[[1,2,0],[3,0],[0]]","7","0","","","","","","4","","","","",""
"","","","","","single-stim-button","311","2593422","0.0-3.0-31.2-1.2","5d7dfc0ab5150b001ac86314","B2","batch2","tol_toboard","625","","","","","","","","","tol_peg_1","625","625","0","[[1,2,0],[0,0],[3]]","3","[[1,2,0],[3,0],[0]]","7","0","","","","","","4","","","","",""
"","","","","","single-stim-button","312","2594653","0.0-3.0-31.3-0.3","5d7dfc0ab5150b001ac86314","B2","batch2","tol_tohand","1227","","","","","","","","","tol_peg_3","1227","1227","0","[[1,2,0],[0,0],[0]]","4","[[1,2,0],[3,0],[0]]","7","0","","","","","","4","","","","",""
"","","","","","single-stim-button","313","2595355","0.0-3.0-31.3-1.3","5d7dfc0ab5150b001ac86314","B2","batch2","tol_toboard","699","","","","","","","","","tol_peg_2","699","699","0","[[1,2,0],[3,0],[0]]","4","[[1,2,0],[3,0],[0]]","7","0","","","","","","4","","","","",""
"","","","","","poldrack-single-stim","314","2596359","0.0-3.0-32.0","5d7dfc0ab5150b001ac86314","B2","batch2","tol_feedback","-1","","","","","true","","","","","1000","1000","500","","","","","","-1","none","true","5499","8731","","","","","",""
"","","","","","html-button-response","315","2597354","0.0-3.0-33.0","5d7dfc0ab5150b001ac86314","B2","batch2","tol_trial_num","989.5","<div class = centerbox><p class = center-block-text>problem <strong>9</strong> out of 25 problems</p></div>","0","","","","","","","","","","","","","","","","","","","","","","","","","",""
"","","","","","single-stim-button","316","2605903","0.0-3.0-34.0-0.0","5d7dfc0ab5150b001ac86314","B2","batch2","tol_tohand","8545","","","","","","","","","tol_peg_1","8545","8545","0","[[3,0,0],[0,0],[1]]","1","[[2,1,0],[3,0],[0]]","8","0","","","","","","6","","","","",""
"","","","","","single-stim-button","317","2607203","0.0-3.0-34.0-1.0","5d7dfc0ab5150b001ac86314","B2","batch2","tol_toboard","1292","","","","","","","","","tol_peg_1","1292","1292","0","[[3,2,0],[0,0],[1]]","1","[[2,1,0],[3,0],[0]]","8","0","","","","","","6","","","","",""
"","","","","","single-stim-button","318","2609944","0.0-3.0-34.1-0.1","5d7dfc0ab5150b001ac86314","B2","batch2","tol_tohand","2735","","","","","","","","","tol_peg_1","2735","2735","0","[[3,0,0],[0,0],[1]]","2","[[2,1,0],[3,0],[0]]","8","0","","","","","","6","","","","",""
"","","","","","single-stim-button","319","2610756","0.0-3.0-34.1-1.1","5d7dfc0ab5150b001ac86314","B2","batch2","tol_toboard","800","","","","","","","","","tol_peg_2","800","800","0","[[3,0,0],[2,0],[1]]","2","[[2,1,0],[3,0],[0]]","8","0","","","","","","6","","","","",""
"","","","","","single-stim-button","320","2611326","0.0-3.0-34.2-0.2","5d7dfc0ab5150b001ac86314","B2","batch2","tol_tohand","564","","","","","","","","","tol_peg_1","564","564","0","[[0,0,0],[2,0],[1]]","3","[[2,1,0],[3,0],[0]]","8","0","","","","","","6","","","","",""
"","","","","","single-stim-button","321","2612819","0.0-3.0-34.2-1.2","5d7dfc0ab5150b001ac86314","B2","batch2","tol_toboard","1491","","","","","","","","","tol_peg_2","1491","1491","0","[[0,0,0],[2,3],[1]]","3","[[2,1,0],[3,0],[0]]","8","0","","","","","","6","","","","",""
"","","","","","single-stim-button","322","2613910","0.0-3.0-34.3-0.3","5d7dfc0ab5150b001ac86314","B2","batch2","tol_tohand","1086","","","","","","","","","tol_peg_2","1086","1086","0","[[0,0,0],[2,0],[1]]","4","[[2,1,0],[3,0],[0]]","8","0","","","","","","6","","","","",""
"","","","","","single-stim-button","323","2614803","0.0-3.0-34.3-1.3","5d7dfc0ab5150b001ac86314","B2","batch2","tol_toboard","877","","","","","","","","","tol_peg_2","877","877","0","[[0,0,0],[2,3],[1]]","4","[[2,1,0],[3,0],[0]]","8","0","","","","","","6","","","","",""
"","","","","","single-stim-button","324","2615526","0.0-3.0-34.4-0.4","5d7dfc0ab5150b001ac86314","B2","batch2","tol_tohand","717","","","","","","","","","tol_peg_2","717","717","0","[[0,0,0],[2,0],[1]]","5","[[2,1,0],[3,0],[0]]","8","0","","","","","","6","","","","",""
"","","","","","single-stim-button","325","2616370","0.0-3.0-34.4-1.4","5d7dfc0ab5150b001ac86314","B2","batch2","tol_toboard","835","","","","","","","","","tol_peg_1","835","835","0","[[3,0,0],[2,0],[1]]","5","[[2,1,0],[3,0],[0]]","8","0","","","","","","6","","","","",""
"","","","","","single-stim-button","326","2617640","0.0-3.0-34.5-0.5","5d7dfc0ab5150b001ac86314","B2","batch2","tol_tohand","1262","","","","","","","","","tol_peg_2","1262","1262","0","[[3,0,0],[0,0],[1]]","6","[[2,1,0],[3,0],[0]]","8","0","","","","","","6","","","","",""
"","","","","","single-stim-button","327","2672554","0.0-3.0-34.5-1.5","5d7dfc0ab5150b001ac86314","B2","batch2","tol_toboard","54904","","","","","","","","","tol_peg_2","54904","54904","0","[[3,0,0],[2,0],[1]]","6","[[2,1,0],[3,0],[0]]","8","0","","","","","","6","","","","",""
"","","","","","single-stim-button","328","2675675","0.0-3.0-34.6-0.6","5d7dfc0ab5150b001ac86314","B2","batch2","tol_tohand","3113","","","","","","","","","tol_peg_1","3113","3113","0","[[0,0,0],[2,0],[1]]","7","[[2,1,0],[3,0],[0]]","8","0","","","","","","6","","","","",""
"","","","","","single-stim-button","329","2676593","0.0-3.0-34.6-1.6","5d7dfc0ab5150b001ac86314","B2","batch2","tol_toboard","908","","","","","","","","","tol_peg_2","908","908","0","[[0,0,0],[2,3],[1]]","7","[[2,1,0],[3,0],[0]]","8","0","","","","","","6","","","","",""
"","","","","","single-stim-button","330","2679025","0.0-3.0-34.7-0.7","5d7dfc0ab5150b001ac86314","B2","batch2","tol_tohand","2424","","","","","","","","","tol_peg_3","2424","2424","0","[[0,0,0],[2,3],[0]]","8","[[2,1,0],[3,0],[0]]","8","0","","","","","","6","","","","",""
"","","","","","single-stim-button","331","2684966","0.0-3.0-34.7-1.7","5d7dfc0ab5150b001ac86314","B2","batch2","tol_toboard","5926","","","","","","","","","tol_peg_3","5926","5926","0","[[0,0,0],[2,3],[1]]","8","[[2,1,0],[3,0],[0]]","8","0","","","","","","6","","","","",""
"","","","","","single-stim-button","332","2699052","0.0-3.0-34.8-0.8","5d7dfc0ab5150b001ac86314","B2","batch2","tol_tohand","14081","","","","","","","","","tol_peg_3","14081","14081","0","[[0,0,0],[2,3],[0]]","9","[[2,1,0],[3,0],[0]]","8","0","","","","","","6","","","","",""
"","","","","","single-stim-button","333","2700898","0.0-3.0-34.8-1.8","5d7dfc0ab5150b001ac86314","B2","batch2","tol_toboard","1842","","","","","","","","","tol_peg_1","1842","1842","0","[[1,0,0],[2,3],[0]]","9","[[2,1,0],[3,0],[0]]","8","0","","","","","","6","","","","",""
"","","","","","single-stim-button","334","2701740","0.0-3.0-34.9-0.9","5d7dfc0ab5150b001ac86314","B2","batch2","tol_tohand","839","","","","","","","","","tol_peg_2","839","839","0","[[1,0,0],[2,0],[0]]","10","[[2,1,0],[3,0],[0]]","8","0","","","","","","6","","","","",""
"","","","","","single-stim-button","335","2702575","0.0-3.0-34.9-1.9","5d7dfc0ab5150b001ac86314","B2","batch2","tol_toboard","829","","","","","","","","","tol_peg_3","829","829","0","[[1,0,0],[2,0],[3]]","10","[[2,1,0],[3,0],[0]]","8","0","","","","","","6","","","","",""
"","","","","","single-stim-button","336","2703132","0.0-3.0-34.10-0.10","5d7dfc0ab5150b001ac86314","B2","batch2","tol_tohand","551","","","","","","","","","tol_peg_2","551","551","0","[[1,0,0],[0,0],[3]]","11","[[2,1,0],[3,0],[0]]","8","0","","","","","","6","","","","",""
"","","","","","single-stim-button","337","2706102","0.0-3.0-34.10-1.10","5d7dfc0ab5150b001ac86314","B2","batch2","tol_toboard","2957","","","","","","","","","tol_peg_1","2957","2957","0","[[1,2,0],[0,0],[3]]","11","[[2,1,0],[3,0],[0]]","8","0","","","","","","6","","","","",""
"","","","","","single-stim-button","338","2708083","0.0-3.0-34.11-0.11","5d7dfc0ab5150b001ac86314","B2","batch2","tol_tohand","1976","","","","","","","","","tol_peg_3","1976","1976","0","[[1,2,0],[0,0],[0]]","12","[[2,1,0],[3,0],[0]]","8","0","","","","","","6","","","","",""
"","","","","","single-stim-button","339","2709382","0.0-3.0-34.11-1.11","5d7dfc0ab5150b001ac86314","B2","batch2","tol_toboard","1296","","","","","","","","","tol_peg_2","1296","1296","0","[[1,2,0],[3,0],[0]]","12","[[2,1,0],[3,0],[0]]","8","0","","","","","","6","","","","",""
"","","","","","single-stim-button","340","2710684","0.0-3.0-34.12-0.12","5d7dfc0ab5150b001ac86314","B2","batch2","tol_tohand","1298","","","","","","","","","tol_peg_1","1298","1298","0","[[1,0,0],[3,0],[0]]","13","[[2,1,0],[3,0],[0]]","8","0","","","","","","6","","","","",""
"","","","","","single-stim-button","341","2712973","0.0-3.0-34.12-1.12","5d7dfc0ab5150b001ac86314","B2","batch2","tol_toboard","2285","","","","","","","","","tol_peg_2","2285","2285","0","[[1,0,0],[3,2],[0]]","13","[[2,1,0],[3,0],[0]]","8","0","","","","","","6","","","","",""
"","","","","","single-stim-button","342","2714099","0.0-3.0-34.13-0.13","5d7dfc0ab5150b001ac86314","B2","batch2","tol_tohand","1115","","","","","","","","","tol_peg_1","1115","1115","0","[[0,0,0],[3,2],[0]]","14","[[2,1,0],[3,0],[0]]","8","0","","","","","","6","","","","",""
"","","","","","single-stim-button","343","2715148","0.0-3.0-34.13-1.13","5d7dfc0ab5150b001ac86314","B2","batch2","tol_toboard","1045","","","","","","","","","tol_peg_3","1045","1045","0","[[0,0,0],[3,2],[1]]","14","[[2,1,0],[3,0],[0]]","8","0","","","","","","6","","","","",""
"","","","","","single-stim-button","344","2716079","0.0-3.0-34.14-0.14","5d7dfc0ab5150b001ac86314","B2","batch2","tol_tohand","928","","","","","","","","","tol_peg_2","928","928","0","[[0,0,0],[3,0],[1]]","15","[[2,1,0],[3,0],[0]]","8","0","","","","","","6","","","","",""
"","","","","","single-stim-button","345","2717488","0.0-3.0-34.14-1.14","5d7dfc0ab5150b001ac86314","B2","batch2","tol_toboard","1405","","","","","","","","","tol_peg_1","1405","1405","0","[[2,0,0],[3,0],[1]]","15","[[2,1,0],[3,0],[0]]","8","0","","","","","","6","","","","",""
"","","","","","single-stim-button","346","2718354","0.0-3.0-34.15-0.15","5d7dfc0ab5150b001ac86314","B2","batch2","tol_tohand","854","","","","","","","","","tol_peg_3","854","854","0","[[2,0,0],[3,0],[0]]","16","[[2,1,0],[3,0],[0]]","8","0","","","","","","6","","","","",""
"","","","","","single-stim-button","347","2719252","0.0-3.0-34.15-1.15","5d7dfc0ab5150b001ac86314","B2","batch2","tol_toboard","893","","","","","","","","","tol_peg_1","893","893","0","[[2,1,0],[3,0],[0]]","16","[[2,1,0],[3,0],[0]]","8","0","","","","","","6","","","","",""
"","","","","","poldrack-single-stim","348","2720264","0.0-3.0-35.0","5d7dfc0ab5150b001ac86314","B2","batch2","tol_feedback","-1","","","","","true","","","","","1000","1000","500","","","","","","-1","none","true","8545","42088","","","","","",""
"","","","","","html-button-response","349","2721350","0.0-3.0-36.0","5d7dfc0ab5150b001ac86314","B2","batch2","tol_trial_num","1083.5","<div class = centerbox><p class = center-block-text>problem <strong>10</strong> out of 25 problems</p></div>","0","","","","","","","","","","","","","","","","","","","","","","","","","",""
"","","","","","single-stim-button","350","2727962","0.0-3.0-37.0-0.0","5d7dfc0ab5150b001ac86314","B2","batch2","tol_tohand","6601","","","","","","","","","tol_peg_2","6601","6601","0","[[3,0,0],[0,0],[2]]","1","[[3,0,0],[2,1],[0]]","9","0","","","","","","3","","","","",""
"","","","","","single-stim-button","351","2729599","0.0-3.0-37.0-1.0","5d7dfc0ab5150b001ac86314","B2","batch2","tol_toboard","1632","","","","","","","","","tol_peg_1","1632","1632","0","[[3,1,0],[0,0],[2]]","1","[[3,0,0],[2,1],[0]]","9","0","","","","","","3","","","","",""
"","","","","","single-stim-button","352","2730719","0.0-3.0-37.1-0.1","5d7dfc0ab5150b001ac86314","B2","batch2","tol_tohand","1116","","","","","","","","","tol_peg_3","1116","1116","0","[[3,1,0],[0,0],[0]]","2","[[3,0,0],[2,1],[0]]","9","0","","","","","","3","","","","",""
"","","","","","single-stim-button","353","2731455","0.0-3.0-37.1-1.1","5d7dfc0ab5150b001ac86314","B2","batch2","tol_toboard","732","","","","","","","","","tol_peg_2","732","732","0","[[3,1,0],[2,0],[0]]","2","[[3,0,0],[2,1],[0]]","9","0","","","","","","3","","","","",""
