"success","timeout","failed_images","failed_audio","failed_video","trial_type","trial_index","time_elapsed","internal_node_id","subject_id","study_id","session_id","view_history","rt","task","stimulus","response","correct","mouse_click","stim_duration","block_duration","timing_post_trial","current_position","tol_num_moves_made","tol_target","tol_problem_id","tol_rt","key_press","possible_responses","tol_correct","preplanning","tol_rt_per_trial","tol_min_moves","answer","item","fiar_detect_rt","fiar_detect_correct","total_correct_fiar_detect","post_trial_gap","choices","spm_correct","spm_rt"
"true","false","[]","[]","[]","preload","0","4286","0.0-0.0","5d8108c0a6d2bf001afdb2d9","A3","batch1","","","","","","","","","","","","","","","","","","","","","","","","","","","","","",""
"true","","","","","fullscreen","1","34573","0.0-1.0-0.0","5d8108c0a6d2bf001afdb2d9","A3","batch1","","","","","","","","","","","","","","","","","","","","","","","","","","","","","",""
"true","","","","","fullscreen","2","37409","0.0-2.0-0.0","5d8108c0a6d2bf001afdb2d9","A3","batch1","","","","","","","","","","","","","","","","","","","","","","","","","","","","","",""
"","","","","","instructions","3","87153","0.0-2.0-1.0-0.0-0.0","5d8108c0a6d2bf001afdb2d9","A3","batch1","[{""page_index"":0,""viewing_time"":13813.699999988079},{""page_index"":1,""viewing_time"":5159.800000011921},{""page_index"":2,""viewing_time"":3268.100000023842},{""page_index"":3,""viewing_time"":16433.899999976158},{""page_index"":4,""viewing_time"":3522.199999988079},{""page_index"":5,""viewing_time"":5753.900000035763},{""page_index"":6,""viewing_time"":1791.199999988079}]","49742.89999997616","tol-instructions","","","","","","","","","","","","","","","","","","","","","","","","","","",""
"","","","","","html-button-response","4","87949","0.0-2.0-1.0-1.0-0.0","5d8108c0a6d2bf001afdb2d9","A3","batch1","","795.1000000238419","tol_enter_quiz","<p class=block-text> Let's answer a few questions <br>","0","","","","","","","","","","","","","","","","","","","","","","","","",""
"","","","","","html-button-response","5","92585","0.0-2.0-1.0-1.0-1.0","5d8108c0a6d2bf001afdb2d9","A3","batch1","","4635","tol_quiz","<p class = block-text>True or False: You can only move the ball on top of a peg. <br></p>","1","false","","","","","","","","","","","","","","","","","","","","","","","",""
"","","","","","html-button-response","6","94792","0.0-2.0-1.0-1.0-2.0","5d8108c0a6d2bf001afdb2d9","A3","batch1","","2205.899999976158","tol_quiz_feedback","<p class = block-text>Incorrect. Remember, you can only move the ball on top of a peg.</p>","0","","","","","","","","","","","","","","","","","","","","","","","","",""
"","","","","","html-button-response","7","98839","0.0-2.0-1.0-1.0-3.0","5d8108c0a6d2bf001afdb2d9","A3","batch1","","4046.2999999523163","tol_quiz","<p class = block-text>True or False: You should try to match your board with the target board with fewest moves possible. <br></p>","0","true","","","","","","","","","","","","","","","","","","","","","","","",""
"","","","","","html-button-response","8","99540","0.0-2.0-1.0-1.0-4.0","5d8108c0a6d2bf001afdb2d9","A3","batch1","","700.5","tol_quiz_feedback","<p class = block-text>Correct! </p>","0","","","","","","","","","","","","","","","","","","","","","","","","",""
"","","","","","html-button-response","9","101690","0.0-2.0-1.0-2.0-0.0","5d8108c0a6d2bf001afdb2d9","A3","batch1","","2149.099999964237","","<p class = block-text>You made too many incorrect choices.</p><p class = block-text>You will now repeat the instructions and quiz</p>","0","","","","","","","","","","","","","","","","","","","","","","","","",""
"","","","","","instructions","10","106545","0.0-2.0-1.1-0.1-0.1","5d8108c0a6d2bf001afdb2d9","A3","batch1","[{""page_index"":0,""viewing_time"":1087.6000000238419},{""page_index"":1,""viewing_time"":721},{""page_index"":2,""viewing_time"":340.69999998807907},{""page_index"":3,""viewing_time"":504.19999998807907},{""page_index"":4,""viewing_time"":398.89999997615814},{""page_index"":5,""viewing_time"":580.2000000476837},{""page_index"":6,""viewing_time"":1222}]","4854.800000011921","tol-instructions","","","","","","","","","","","","","","","","","","","","","","","","","","",""
"","","","","","html-button-response","11","107341","0.0-2.0-1.1-1.1-0.1","5d8108c0a6d2bf001afdb2d9","A3","batch1","","795.3999999761581","tol_enter_quiz","<p class=block-text> Let's answer a few questions <br>","0","","","","","","","","","","","","","","","","","","","","","","","","",""
"","","","","","html-button-response","12","109024","0.0-2.0-1.1-1.1-1.1","5d8108c0a6d2bf001afdb2d9","A3","batch1","","1682.5","tol_quiz","<p class = block-text>True or False: You can only move the ball on top of a peg. <br></p>","0","true","","","","","","","","","","","","","","","","","","","","","","","",""
"","","","","","html-button-response","13","109558","0.0-2.0-1.1-1.1-2.1","5d8108c0a6d2bf001afdb2d9","A3","batch1","","533.3000000119209","tol_quiz_feedback","<p class = block-text>Correct! You can only move the ball on top of a peg.</p>","0","","","","","","","","","","","","","","","","","","","","","","","","",""
"","","","","","html-button-response","14","111165","0.0-2.0-1.1-1.1-3.1","5d8108c0a6d2bf001afdb2d9","A3","batch1","","1606.5","tol_quiz","<p class = block-text>True or False: You should try to match your board with the target board with fewest moves possible. <br></p>","0","true","","","","","","","","","","","","","","","","","","","","","","","",""
"","","","","","html-button-response","15","111652","0.0-2.0-1.1-1.1-4.1","5d8108c0a6d2bf001afdb2d9","A3","batch1","","487.39999997615814","tol_quiz_feedback","<p class = block-text>Correct! </p>","0","","","","","","","","","","","","","","","","","","","","","","","","",""
"","","","","","html-button-response","16","114184","0.0-2.0-2.0","5d8108c0a6d2bf001afdb2d9","A3","batch1","","2530.600000023842","","<p class=block-text> Now that you've understood the game, let's practice a few easier examples before we start!<br> <br>","0","","","","","","","","","","","","","","","","","","","","","","","","",""
"","","","","","single-stim-button","17","121587","0.0-2.0-3.0-0.0","5d8108c0a6d2bf001afdb2d9","A3","batch1","","7402","tol_practice","","","","tol_peg_1","7402","7402","0","[[1,0,0],[3,0],[0]]","1","[[1,2,0],[0,0],[3]]","practice","7402","","","","","","","","","","","","","","",""
"","","","","","single-stim-button","18","121919","0.0-2.0-3.0-1.0","5d8108c0a6d2bf001afdb2d9","A3","batch1","","331","tol_practice","","","","tol_peg_1","331","331","0","[[1,2,0],[3,0],[0]]","1","[[1,2,0],[0,0],[3]]","practice","331","","","","","","","","","","","","","","",""
"","","","","","single-stim-button","19","127578","0.0-2.0-3.1-0.1","5d8108c0a6d2bf001afdb2d9","A3","batch1","","5658","tol_practice","","","","tol_peg_1","5658","5658","0","[[1,0,0],[3,0],[0]]","2","[[1,2,0],[0,0],[3]]","practice","5658","","","","","","","","","","","","","","",""
"","","","","","single-stim-button","20","132978","0.0-2.0-3.1-1.1","5d8108c0a6d2bf001afdb2d9","A3","batch1","","5399","tol_practice","","","","tol_peg_1","5399","5399","0","[[1,2,0],[3,0],[0]]","2","[[1,2,0],[0,0],[3]]","practice","5399","","","","","","","","","","","","","","",""
"","","","","","single-stim-button","21","135088","0.0-2.0-3.2-0.2","5d8108c0a6d2bf001afdb2d9","A3","batch1","","2109","tol_practice","","","","tol_peg_2","2109","2109","0","[[1,2,0],[0,0],[0]]","3","[[1,2,0],[0,0],[3]]","practice","2109","","","","","","","","","","","","","","",""
"","","","","","single-stim-button","22","135799","0.0-2.0-3.2-1.2","5d8108c0a6d2bf001afdb2d9","A3","batch1","","710","tol_practice","","","","tol_peg_3","710","710","0","[[1,2,0],[0,0],[3]]","3","[[1,2,0],[0,0],[3]]","practice","710","","","","","","","","","","","","","","",""
"","","","","","poldrack-single-stim","23","136800","0.0-2.0-4.0","5d8108c0a6d2bf001afdb2d9","A3","batch1","","-1","tol_feedback","","","true","","1000","1000","500","","","","","","-1","none","true","","0","","","","","","","","","",""
"","","","","","single-stim-button","24","140136","0.0-2.0-5.0-0.0","5d8108c0a6d2bf001afdb2d9","A3","batch1","","3335","tol_practice","","","","tol_peg_1","3335","3335","0","[[1,0,0],[3,0],[0]]","4","[[0,0,0],[3,1],[2]]","practice","3335","","","","","","","","","","","","","","",""
"","","","","","single-stim-button","25","140899","0.0-2.0-5.0-1.0","5d8108c0a6d2bf001afdb2d9","A3","batch1","","761","tol_practice","","","","tol_peg_3","761","761","0","[[1,0,0],[3,0],[2]]","4","[[0,0,0],[3,1],[2]]","practice","761","","","","","","","","","","","","","","",""
"","","","","","single-stim-button","26","141532","0.0-2.0-5.1-0.1","5d8108c0a6d2bf001afdb2d9","A3","batch1","","632","tol_practice","","","","tol_peg_1","632","632","0","[[0,0,0],[3,0],[2]]","5","[[0,0,0],[3,1],[2]]","practice","632","","","","","","","","","","","","","","",""
"","","","","","single-stim-button","27","142064","0.0-2.0-5.1-1.1","5d8108c0a6d2bf001afdb2d9","A3","batch1","","531","tol_practice","","","","tol_peg_2","531","531","0","[[0,0,0],[3,1],[2]]","5","[[0,0,0],[3,1],[2]]","practice","531","","","","","","","","","","","","","","",""
"","","","","","poldrack-single-stim","28","143065","0.0-2.0-6.0","5d8108c0a6d2bf001afdb2d9","A3","batch1","","-1","tol_feedback","","","true","","1000","1000","500","","","","","","-1","none","true","","0","","","","","","","","","",""
"","","","","","single-stim-button","29","146452","0.0-2.0-7.0-0.0","5d8108c0a6d2bf001afdb2d9","A3","batch1","","3386","tol_practice","","","","tol_peg_2","3386","3386","0","[[1,2,0],[0,0],[0]]","6","[[1,0,0],[2,0],[3]]","practice","3386","","","","","","","","","","","","","","",""
"","","","","","single-stim-button","30","146936","0.0-2.0-7.0-1.0","5d8108c0a6d2bf001afdb2d9","A3","batch1","","483","tol_practice","","","","tol_peg_3","483","483","0","[[1,2,0],[0,0],[3]]","6","[[1,0,0],[2,0],[3]]","practice","483","","","","","","","","","","","","","","",""
"","","","","","single-stim-button","31","147958","0.0-2.0-7.1-0.1","5d8108c0a6d2bf001afdb2d9","A3","batch1","","1022","tol_practice","","","","tol_peg_1","1022","1022","0","[[1,0,0],[0,0],[3]]","7","[[1,0,0],[2,0],[3]]","practice","1022","","","","","","","","","","","","","","",""
"","","","","","single-stim-button","32","148638","0.0-2.0-7.1-1.1","5d8108c0a6d2bf001afdb2d9","A3","batch1","","679","tol_practice","","","","tol_peg_2","679","679","0","[[1,0,0],[2,0],[3]]","7","[[1,0,0],[2,0],[3]]","practice","679","","","","","","","","","","","","","","",""
"","","","","","poldrack-single-stim","33","149641","0.0-2.0-8.0","5d8108c0a6d2bf001afdb2d9","A3","batch1","","-1","tol_feedback","","","true","","1000","1000","500","","","","","","-1","none","true","","0","","","","","","","","","",""
"","","","","","html-button-response","34","153633","0.0-2.0-9.0","5d8108c0a6d2bf001afdb2d9","A3","batch1","","3992.199999988079","tol_instruction","<div class = centerbox><p class = center-block-text>Great job! You are done with practice trials<br>You are about to start official trials.<br> <br> Problem <strong>1</strong> out of 25 problems</p></div>","0","","","","","","","","","","","","","","","","","","","","","","","","",""
"","","","","","single-stim-button","35","159254","0.0-2.0-10.0-0.0","5d8108c0a6d2bf001afdb2d9","A3","batch1","","4617","tol_tohand","","","","tol_peg_2","4617","4617","0","[[1,2,0],[0,0],[0]]","1","[[1,3,0],[2,0],[0]]","0","0","","","","","","3","","","","","","","","",""
"","","","","","single-stim-button","36","160988","0.0-2.0-10.0-1.0","5d8108c0a6d2bf001afdb2d9","A3","batch1","","1732","tol_toboard","","","","tol_peg_3","1732","1732","0","[[1,2,0],[0,0],[3]]","1","[[1,3,0],[2,0],[0]]","0","0","","","","","","3","","","","","","","","",""
"","","","","","single-stim-button","37","161917","0.0-2.0-10.1-0.1","5d8108c0a6d2bf001afdb2d9","A3","batch1","","929","tol_tohand","","","","tol_peg_1","929","929","0","[[1,0,0],[0,0],[3]]","2","[[1,3,0],[2,0],[0]]","0","0","","","","","","3","","","","","","","","",""
"","","","","","single-stim-button","38","162922","0.0-2.0-10.1-1.1","5d8108c0a6d2bf001afdb2d9","A3","batch1","","1003","tol_toboard","","","","tol_peg_2","1003","1003","0","[[1,0,0],[2,0],[3]]","2","[[1,3,0],[2,0],[0]]","0","0","","","","","","3","","","","","","","","",""
"","","","","","single-stim-button","39","163715","0.0-2.0-10.2-0.2","5d8108c0a6d2bf001afdb2d9","A3","batch1","","792","tol_tohand","","","","tol_peg_3","792","792","0","[[1,0,0],[2,0],[0]]","3","[[1,3,0],[2,0],[0]]","0","0","","","","","","3","","","","","","","","",""
"","","","","","single-stim-button","40","164120","0.0-2.0-10.2-1.2","5d8108c0a6d2bf001afdb2d9","A3","batch1","","404","tol_toboard","","","","tol_peg_1","404","404","0","[[1,3,0],[2,0],[0]]","3","[[1,3,0],[2,0],[0]]","0","0","","","","","","3","","","","","","","","",""
"","","","","","poldrack-single-stim","41","165120","0.0-2.0-11.0","5d8108c0a6d2bf001afdb2d9","A3","batch1","","-1","tol_feedback","","","true","","1000","1000","500","","","","","","-1","none","true","4617","6338","","","","","","","","","",""
"","","","","","html-button-response","42","165929","0.0-2.0-12.0","5d8108c0a6d2bf001afdb2d9","A3","batch1","","807.6999999880791","tol_trial_num","<div class = centerbox><p class = center-block-text>problem <strong>2</strong> out of 25 problems</p></div>","0","","","","","","","","","","","","","","","","","","","","","","","","",""
"","","","","","single-stim-button","43","169822","0.0-2.0-13.0-0.0","5d8108c0a6d2bf001afdb2d9","A3","batch1","","3893","tol_tohand","","","","tol_peg_1","3893","3893","0","[[1,0,0],[3,0],[0]]","1","[[2,1,3],[0,0],[0]]","1","0","","","","","","5","","","","","","","","",""
"","","","","","single-stim-button","44","170802","0.0-2.0-13.0-1.0","5d8108c0a6d2bf001afdb2d9","A3","batch1","","980","tol_toboard","","","","tol_peg_2","980","980","0","[[1,0,0],[3,2],[0]]","1","[[2,1,3],[0,0],[0]]","1","0","","","","","","5","","","","","","","","",""
"","","","","","single-stim-button","45","172503","0.0-2.0-13.1-0.1","5d8108c0a6d2bf001afdb2d9","A3","batch1","","1701","tol_tohand","","","","tol_peg_1","1701","1701","0","[[0,0,0],[3,2],[0]]","2","[[2,1,3],[0,0],[0]]","1","0","","","","","","5","","","","","","","","",""
"","","","","","single-stim-button","46","172999","0.0-2.0-13.1-1.1","5d8108c0a6d2bf001afdb2d9","A3","batch1","","496","tol_toboard","","","","tol_peg_3","496","496","0","[[0,0,0],[3,2],[1]]","2","[[2,1,3],[0,0],[0]]","1","0","","","","","","5","","","","","","","","",""
"","","","","","single-stim-button","47","173825","0.0-2.0-13.2-0.2","5d8108c0a6d2bf001afdb2d9","A3","batch1","","826","tol_tohand","","","","tol_peg_2","826","826","0","[[0,0,0],[3,0],[1]]","3","[[2,1,3],[0,0],[0]]","1","0","","","","","","5","","","","","","","","",""
"","","","","","single-stim-button","48","174286","0.0-2.0-13.2-1.2","5d8108c0a6d2bf001afdb2d9","A3","batch1","","461","tol_toboard","","","","tol_peg_1","461","461","0","[[2,0,0],[3,0],[1]]","3","[[2,1,3],[0,0],[0]]","1","0","","","","","","5","","","","","","","","",""
"","","","","","single-stim-button","49","174841","0.0-2.0-13.3-0.3","5d8108c0a6d2bf001afdb2d9","A3","batch1","","555","tol_tohand","","","","tol_peg_3","555","555","0","[[2,0,0],[3,0],[0]]","4","[[2,1,3],[0,0],[0]]","1","0","","","","","","5","","","","","","","","",""
"","","","","","single-stim-button","50","175872","0.0-2.0-13.3-1.3","5d8108c0a6d2bf001afdb2d9","A3","batch1","","1031","tol_toboard","","","","tol_peg_1","1031","1031","0","[[2,1,0],[3,0],[0]]","4","[[2,1,3],[0,0],[0]]","1","0","","","","","","5","","","","","","","","",""
"","","","","","single-stim-button","51","176217","0.0-2.0-13.4-0.4","5d8108c0a6d2bf001afdb2d9","A3","batch1","","344","tol_tohand","","","","tol_peg_2","344","344","0","[[2,1,0],[0,0],[0]]","5","[[2,1,3],[0,0],[0]]","1","0","","","","","","5","","","","","","","","",""
"","","","","","single-stim-button","52","176578","0.0-2.0-13.4-1.4","5d8108c0a6d2bf001afdb2d9","A3","batch1","","361","tol_toboard","","","","tol_peg_1","361","361","0","[[2,1,3],[0,0],[0]]","5","[[2,1,3],[0,0],[0]]","1","0","","","","","","5","","","","","","","","",""
"","","","","","poldrack-single-stim","53","177582","0.0-2.0-14.0","5d8108c0a6d2bf001afdb2d9","A3","batch1","","-1","tol_feedback","","","true","","1000","1000","500","","","","","","-1","none","true","3893","7319","","","","","","","","","",""
"","","","","","html-button-response","54","178259","0.0-2.0-15.0","5d8108c0a6d2bf001afdb2d9","A3","batch1","","676","tol_trial_num","<div class = centerbox><p class = center-block-text>problem <strong>3</strong> out of 25 problems</p></div>","0","","","","","","","","","","","","","","","","","","","","","","","","",""
"","","","","","single-stim-button","55","180916","0.0-2.0-16.0-0.0","5d8108c0a6d2bf001afdb2d9","A3","batch1","","2657","tol_tohand","","","","tol_peg_1","2657","2657","0","[[2,0,0],[0,0],[1]]","1","[[1,2,0],[3,0],[0]]","2","0","","","","","","4","","","","","","","","",""
"","","","","","single-stim-button","56","183020","0.0-2.0-16.0-1.0","5d8108c0a6d2bf001afdb2d9","A3","batch1","","2104","tol_toboard","","","","tol_peg_2","2104","2104","0","[[2,0,0],[3,0],[1]]","1","[[1,2,0],[3,0],[0]]","2","0","","","","","","4","","","","","","","","",""
"","","","","","single-stim-button","57","184278","0.0-2.0-16.1-0.1","5d8108c0a6d2bf001afdb2d9","A3","batch1","","1258","tol_tohand","","","","tol_peg_1","1258","1258","0","[[0,0,0],[3,0],[1]]","2","[[1,2,0],[3,0],[0]]","2","0","","","","","","4","","","","","","","","",""
"","","","","","single-stim-button","58","184706","0.0-2.0-16.1-1.1","5d8108c0a6d2bf001afdb2d9","A3","batch1","","428","tol_toboard","","","","tol_peg_2","428","428","0","[[0,0,0],[3,2],[1]]","2","[[1,2,0],[3,0],[0]]","2","0","","","","","","4","","","","","","","","",""
"","","","","","single-stim-button","59","185138","0.0-2.0-16.2-0.2","5d8108c0a6d2bf001afdb2d9","A3","batch1","","431","tol_tohand","","","","tol_peg_3","431","431","0","[[0,0,0],[3,2],[0]]","3","[[1,2,0],[3,0],[0]]","2","0","","","","","","4","","","","","","","","",""
"","","","","","single-stim-button","60","185649","0.0-2.0-16.2-1.2","5d8108c0a6d2bf001afdb2d9","A3","batch1","","511","tol_toboard","","","","tol_peg_1","511","511","0","[[1,0,0],[3,2],[0]]","3","[[1,2,0],[3,0],[0]]","2","0","","","","","","4","","","","","","","","",""
"","","","","","single-stim-button","61","186048","0.0-2.0-16.3-0.3","5d8108c0a6d2bf001afdb2d9","A3","batch1","","399","tol_tohand","","","","tol_peg_2","399","399","0","[[1,0,0],[3,0],[0]]","4","[[1,2,0],[3,0],[0]]","2","0","","","","","","4","","","","","","","","",""
"","","","","","single-stim-button","62","186407","0.0-2.0-16.3-1.3","5d8108c0a6d2bf001afdb2d9","A3","batch1","","359","tol_toboard","","","","tol_peg_1","359","359","0","[[1,2,0],[3,0],[0]]","4","[[1,2,0],[3,0],[0]]","2","0","","","","","","4","","","","","","","","",""
"","","","","","poldrack-single-stim","63","187410","0.0-2.0-17.0","5d8108c0a6d2bf001afdb2d9","A3","batch1","","-1","tol_feedback","","","true","","1000","1000","500","","","","","","-1","none","true","2657","4745","","","","","","","","","",""
"","","","","","html-button-response","64","187998","0.0-2.0-18.0","5d8108c0a6d2bf001afdb2d9","A3","batch1","","587.0999999642372","tol_trial_num","<div class = centerbox><p class = center-block-text>problem <strong>4</strong> out of 25 problems</p></div>","0","","","","","","","","","","","","","","","","","","","","","","","","",""
"","","","","","single-stim-button","65","193842","0.0-2.0-19.0-0.0","5d8108c0a6d2bf001afdb2d9","A3","batch1","","5844","tol_tohand","","","","tol_peg_2","5844","5844","0","[[3,0,0],[2,0],[0]]","1","[[3,0,0],[1,0],[2]]","3","0","","","","","","3","","","","","","","","",""
"","","","","","single-stim-button","66","196504","0.0-2.0-19.0-1.0","5d8108c0a6d2bf001afdb2d9","A3","batch1","","2662","tol_toboard","","","","tol_peg_1","2662","2662","0","[[3,1,0],[2,0],[0]]","1","[[3,0,0],[1,0],[2]]","3","0","","","","","","3","","","","","","","","",""
"","","","","","single-stim-button","67","196934","0.0-2.0-19.1-0.1","5d8108c0a6d2bf001afdb2d9","A3","batch1","","430","tol_tohand","","","","tol_peg_2","430","430","0","[[3,1,0],[0,0],[0]]","2","[[3,0,0],[1,0],[2]]","3","0","","","","","","3","","","","","","","","",""
"","","","","","single-stim-button","68","197284","0.0-2.0-19.1-1.1","5d8108c0a6d2bf001afdb2d9","A3","batch1","","350","tol_toboard","","","","tol_peg_3","350","350","0","[[3,1,0],[0,0],[2]]","2","[[3,0,0],[1,0],[2]]","3","0","","","","","","3","","","","","","","","",""
"","","","","","single-stim-button","69","197872","0.0-2.0-19.2-0.2","5d8108c0a6d2bf001afdb2d9","A3","batch1","","588","tol_tohand","","","","tol_peg_1","588","588","0","[[3,0,0],[0,0],[2]]","3","[[3,0,0],[1,0],[2]]","3","0","","","","","","3","","","","","","","","",""
"","","","","","single-stim-button","70","198269","0.0-2.0-19.2-1.2","5d8108c0a6d2bf001afdb2d9","A3","batch1","","397","tol_toboard","","","","tol_peg_2","397","397","0","[[3,0,0],[1,0],[2]]","3","[[3,0,0],[1,0],[2]]","3","0","","","","","","3","","","","","","","","",""
"","","","","","poldrack-single-stim","71","199273","0.0-2.0-20.0","5d8108c0a6d2bf001afdb2d9","A3","batch1","","-1","tol_feedback","","","true","","1000","1000","500","","","","","","-1","none","true","5844","6862","","","","","","","","","",""
"","","","","","html-button-response","72","199840","0.0-2.0-21.0","5d8108c0a6d2bf001afdb2d9","A3","batch1","","566.2000000476837","tol_trial_num","<div class = centerbox><p class = center-block-text>problem <strong>5</strong> out of 25 problems</p></div>","0","","","","","","","","","","","","","","","","","","","","","","","","",""
"","","","","","single-stim-button","73","208094","0.0-2.0-22.0-0.0","5d8108c0a6d2bf001afdb2d9","A3","batch1","","8253","tol_tohand","","","","tol_peg_2","8253","8253","0","[[1,0,0],[0,0],[3]]","1","[[0,0,0],[1,2],[3]]","4","0","","","","","","7","","","","","","","","",""
"","","","","","single-stim-button","74","208511","0.0-2.0-22.0-1.0","5d8108c0a6d2bf001afdb2d9","A3","batch1","","417","tol_toboard","","","","tol_peg_1","417","417","0","[[1,2,0],[0,0],[3]]","1","[[0,0,0],[1,2],[3]]","4","0","","","","","","7","","","","","","","","",""
"","","","","","single-stim-button","75","211295","0.0-2.0-22.1-0.1","5d8108c0a6d2bf001afdb2d9","A3","batch1","","2784","tol_tohand","","","","tol_peg_1","2784","2784","0","[[1,0,0],[0,0],[3]]","2","[[0,0,0],[1,2],[3]]","4","0","","","","","","7","","","","","","","","",""
"","","","","","single-stim-button","76","214122","0.0-2.0-22.1-1.1","5d8108c0a6d2bf001afdb2d9","A3","batch1","","2827","tol_toboard","","","","tol_peg_1","2827","2827","0","[[1,2,0],[0,0],[3]]","2","[[0,0,0],[1,2],[3]]","4","0","","","","","","7","","","","","","","","",""
"","","","","","single-stim-button","77","215220","0.0-2.0-22.2-0.2","5d8108c0a6d2bf001afdb2d9","A3","batch1","","1098","tol_tohand","","","","tol_peg_1","1098","1098","0","[[1,0,0],[0,0],[3]]","3","[[0,0,0],[1,2],[3]]","4","0","","","","","","7","","","","","","","","",""
"","","","","","single-stim-button","78","220450","0.0-2.0-22.2-1.2","5d8108c0a6d2bf001afdb2d9","A3","batch1","","5230","tol_toboard","","","","tol_peg_2","5230","5230","0","[[1,0,0],[2,0],[3]]","3","[[0,0,0],[1,2],[3]]","4","0","","","","","","7","","","","","","","","",""
"","","","","","single-stim-button","79","220805","0.0-2.0-22.3-0.3","5d8108c0a6d2bf001afdb2d9","A3","batch1","","354","tol_tohand","","","","tol_peg_1","354","354","0","[[0,0,0],[2,0],[3]]","4","[[0,0,0],[1,2],[3]]","4","0","","","","","","7","","","","","","","","",""
"","","","","","single-stim-button","80","222036","0.0-2.0-22.3-1.3","5d8108c0a6d2bf001afdb2d9","A3","batch1","","1231","tol_toboard","","","","tol_peg_1","1231","1231","0","[[1,0,0],[2,0],[3]]","4","[[0,0,0],[1,2],[3]]","4","0","","","","","","7","","","","","","","","",""
"","","","","","single-stim-button","81","225605","0.0-2.0-22.4-0.4","5d8108c0a6d2bf001afdb2d9","A3","batch1","","3569","tol_tohand","","","","tol_peg_1","3569","3569","0","[[0,0,0],[2,0],[3]]","5","[[0,0,0],[1,2],[3]]","4","0","","","","","","7","","","","","","","","",""
"","","","","","single-stim-button","82","226023","0.0-2.0-22.4-1.4","5d8108c0a6d2bf001afdb2d9","A3","batch1","","418","tol_toboard","","","","tol_peg_2","418","418","0","[[0,0,0],[2,1],[3]]","5","[[0,0,0],[1,2],[3]]","4","0","","","","","","7","","","","","","","","",""
"","","","","","single-stim-button","83","227025","0.0-2.0-22.5-0.5","5d8108c0a6d2bf001afdb2d9","A3","batch1","","1002","tol_tohand","","","","tol_peg_2","1002","1002","0","[[0,0,0],[2,0],[3]]","6","[[0,0,0],[1,2],[3]]","4","0","","","","","","7","","","","","","","","",""
"","","","","","single-stim-button","84","228601","0.0-2.0-22.5-1.5","5d8108c0a6d2bf001afdb2d9","A3","batch1","","1576","tol_toboard","","","","tol_peg_1","1576","1576","0","[[1,0,0],[2,0],[3]]","6","[[0,0,0],[1,2],[3]]","4","0","","","","","","7","","","","","","","","",""
"","","","","","single-stim-button","85","229323","0.0-2.0-22.6-0.6","5d8108c0a6d2bf001afdb2d9","A3","batch1","","721","tol_tohand","","","","tol_peg_2","721","721","0","[[1,0,0],[0,0],[3]]","7","[[0,0,0],[1,2],[3]]","4","0","","","","","","7","","","","","","","","",""
"","","","","","single-stim-button","86","229734","0.0-2.0-22.6-1.6","5d8108c0a6d2bf001afdb2d9","A3","batch1","","411","tol_toboard","","","","tol_peg_1","411","411","0","[[1,2,0],[0,0],[3]]","7","[[0,0,0],[1,2],[3]]","4","0","","","","","","7","","","","","","","","",""
"","","","","","single-stim-button","87","230169","0.0-2.0-22.7-0.7","5d8108c0a6d2bf001afdb2d9","A3","batch1","","435","tol_tohand","","","","tol_peg_1","435","435","0","[[1,0,0],[0,0],[3]]","8","[[0,0,0],[1,2],[3]]","4","0","","","","","","7","","","","","","","","",""
"","","","","","single-stim-button","88","230476","0.0-2.0-22.7-1.7","5d8108c0a6d2bf001afdb2d9","A3","batch1","","307","tol_toboard","","","","tol_peg_2","307","307","0","[[1,0,0],[2,0],[3]]","8","[[0,0,0],[1,2],[3]]","4","0","","","","","","7","","","","","","","","",""
"","","","","","single-stim-button","89","230726","0.0-2.0-22.8-0.8","5d8108c0a6d2bf001afdb2d9","A3","batch1","","249","tol_tohand","","","","tol_peg_2","249","249","0","[[1,0,0],[0,0],[3]]","9","[[0,0,0],[1,2],[3]]","4","0","","","","","","7","","","","","","","","",""
"","","","","","single-stim-button","90","233639","0.0-2.0-22.8-1.8","5d8108c0a6d2bf001afdb2d9","A3","batch1","","2913","tol_toboard","","","","tol_peg_2","2913","2913","0","[[1,0,0],[2,0],[3]]","9","[[0,0,0],[1,2],[3]]","4","0","","","","","","7","","","","","","","","",""
"","","","","","single-stim-button","91","234114","0.0-2.0-22.9-0.9","5d8108c0a6d2bf001afdb2d9","A3","batch1","","475","tol_tohand","","","","tol_peg_3","475","475","0","[[1,0,0],[2,0],[0]]","10","[[0,0,0],[1,2],[3]]","4","0","","","","","","7","","","","","","","","",""
"","","","","","single-stim-button","92","234505","0.0-2.0-22.9-1.9","5d8108c0a6d2bf001afdb2d9","A3","batch1","","391","tol_toboard","","","","tol_peg_1","391","391","0","[[1,3,0],[2,0],[0]]","10","[[0,0,0],[1,2],[3]]","4","0","","","","","","7","","","","","","","","",""
"","","","","","single-stim-button","93","235365","0.0-2.0-22.10-0.10","5d8108c0a6d2bf001afdb2d9","A3","batch1","","860","tol_tohand","","","","tol_peg_2","860","860","0","[[1,3,0],[0,0],[0]]","11","[[0,0,0],[1,2],[3]]","4","0","","","","","","7","","","","","","","","",""
"","","","","","single-stim-button","94","235801","0.0-2.0-22.10-1.10","5d8108c0a6d2bf001afdb2d9","A3","batch1","","435","tol_toboard","","","","tol_peg_3","435","435","0","[[1,3,0],[0,0],[2]]","11","[[0,0,0],[1,2],[3]]","4","0","","","","","","7","","","","","","","","",""
"","","","","","single-stim-button","95","236407","0.0-2.0-22.11-0.11","5d8108c0a6d2bf001afdb2d9","A3","batch1","","606","tol_tohand","","","","tol_peg_1","606","606","0","[[1,0,0],[0,0],[2]]","12","[[0,0,0],[1,2],[3]]","4","0","","","","","","7","","","","","","","","",""
"","","","","","single-stim-button","96","236831","0.0-2.0-22.11-1.11","5d8108c0a6d2bf001afdb2d9","A3","batch1","","423","tol_toboard","","","","tol_peg_2","423","423","0","[[1,0,0],[3,0],[2]]","12","[[0,0,0],[1,2],[3]]","4","0","","","","","","7","","","","","","","","",""
"","","","","","single-stim-button","97","246446","0.0-2.0-22.12-0.12","5d8108c0a6d2bf001afdb2d9","A3","batch1","","9615","tol_tohand","","","","tol_peg_3","9615","9615","0","[[1,0,0],[3,0],[0]]","13","[[0,0,0],[1,2],[3]]","4","0","","","","","","7","","","","","","","","",""
"","","","","","single-stim-button","98","246880","0.0-2.0-22.12-1.12","5d8108c0a6d2bf001afdb2d9","A3","batch1","","434","tol_toboard","","","","tol_peg_1","434","434","0","[[1,2,0],[3,0],[0]]","13","[[0,0,0],[1,2],[3]]","4","0","","","","","","7","","","","","","","","",""
"","","","","","single-stim-button","99","248079","0.0-2.0-22.13-0.13","5d8108c0a6d2bf001afdb2d9","A3","batch1","","1197","tol_tohand","","","","tol_peg_2","1197","1197","0","[[1,2,0],[0,0],[0]]","14","[[0,0,0],[1,2],[3]]","4","0","","","","","","7","","","","","","","","",""
"","","","","","single-stim-button","100","248502","0.0-2.0-22.13-1.13","5d8108c0a6d2bf001afdb2d9","A3","batch1","","422","tol_toboard","","","","tol_peg_3","422","422","0","[[1,2,0],[0,0],[3]]","14","[[0,0,0],[1,2],[3]]","4","0","","","","","","7","","","","","","","","",""
"","","","","","single-stim-button","101","249225","0.0-2.0-22.14-0.14","5d8108c0a6d2bf001afdb2d9","A3","batch1","","723","tol_tohand","","","","tol_peg_1","723","723","0","[[1,0,0],[0,0],[3]]","15","[[0,0,0],[1,2],[3]]","4","0","","","","","","7","","","","","","","","",""
"","","","","","single-stim-button","102","250953","0.0-2.0-22.14-1.14","5d8108c0a6d2bf001afdb2d9","A3","batch1","","1728","tol_toboard","","","","tol_peg_1","1728","1728","0","[[1,2,0],[0,0],[3]]","15","[[0,0,0],[1,2],[3]]","4","0","","","","","","7","","","","","","","","",""
"","","","","","single-stim-button","103","252955","0.0-2.0-22.15-0.15","5d8108c0a6d2bf001afdb2d9","A3","batch1","","2002","tol_tohand","","","","tol_peg_1","2002","2002","0","[[1,0,0],[0,0],[3]]","16","[[0,0,0],[1,2],[3]]","4","0","","","","","","7","","","","","","","","",""
"","","","","","single-stim-button","104","253413","0.0-2.0-22.15-1.15","5d8108c0a6d2bf001afdb2d9","A3","batch1","","458","tol_toboard","","","","tol_peg_2","458","458","0","[[1,0,0],[2,0],[3]]","16","[[0,0,0],[1,2],[3]]","4","0","","","","","","7","","","","","","","","",""
"","","","","","single-stim-button","105","253842","0.0-2.0-22.16-0.16","5d8108c0a6d2bf001afdb2d9","A3","batch1","","428","tol_tohand","","","","tol_peg_3","428","428","0","[[1,0,0],[2,0],[0]]","17","[[0,0,0],[1,2],[3]]","4","0","","","","","","7","","","","","","","","",""
"","","","","","single-stim-button","106","255416","0.0-2.0-22.16-1.16","5d8108c0a6d2bf001afdb2d9","A3","batch1","","1574","tol_toboard","","","","tol_peg_3","1574","1574","0","[[1,0,0],[2,0],[3]]","17","[[0,0,0],[1,2],[3]]","4","0","","","","","","7","","","","","","","","",""
"","","","","","single-stim-button","107","256018","0.0-2.0-22.17-0.17","5d8108c0a6d2bf001afdb2d9","A3","batch1","","601","tol_tohand","","","","tol_peg_1","601","601","0","[[0,0,0],[2,0],[3]]","18","[[0,0,0],[1,2],[3]]","4","0","","","","","","7","","","","","","","","",""
"","","","","","single-stim-button","108","256608","0.0-2.0-22.17-1.17","5d8108c0a6d2bf001afdb2d9","A3","batch1","","590","tol_toboard","","","","tol_peg_2","590","590","0","[[0,0,0],[2,1],[3]]","18","[[0,0,0],[1,2],[3]]","4","0","","","","","","7","","","","","","","","",""
"","","","","","single-stim-button","109","257151","0.0-2.0-22.18-0.18","5d8108c0a6d2bf001afdb2d9","A3","batch1","","543","tol_tohand","","","","tol_peg_2","543","543","0","[[0,0,0],[2,0],[3]]","19","[[0,0,0],[1,2],[3]]","4","0","","","","","","7","","","","","","","","",""
"","","","","","single-stim-button","110","257729","0.0-2.0-22.18-1.18","5d8108c0a6d2bf001afdb2d9","A3","batch1","","577","tol_toboard","","","","tol_peg_2","577","577","0","[[0,0,0],[2,1],[3]]","19","[[0,0,0],[1,2],[3]]","4","0","","","","","","7","","","","","","","","",""
"","","","","","single-stim-button","111","258695","0.0-2.0-22.19-0.19","5d8108c0a6d2bf001afdb2d9","A3","batch1","","966","tol_tohand","","","","tol_peg_3","966","966","0","[[0,0,0],[2,1],[0]]","20","[[0,0,0],[1,2],[3]]","4","0","","","","","","7","","","","","","","","",""
"","","","","","single-stim-button","112","259985","0.0-2.0-22.19-1.19","5d8108c0a6d2bf001afdb2d9","A3","batch1","","1290","tol_toboard","","","","tol_peg_1","1290","1290","0","[[3,0,0],[2,1],[0]]","20","[[0,0,0],[1,2],[3]]","4","0","","","","","","7","","","","","","","","",""
"","","","","","single-stim-button","113","260626","0.0-2.0-22.20-0.20","5d8108c0a6d2bf001afdb2d9","A3","batch1","","641","tol_tohand","","","","tol_peg_2","641","641","0","[[3,0,0],[2,0],[0]]","21","[[0,0,0],[1,2],[3]]","4","0","","","","","","7","","","","","","","","",""
"","","","","","single-stim-button","114","260961","0.0-2.0-22.20-1.20","5d8108c0a6d2bf001afdb2d9","A3","batch1","","335","tol_toboard","","","","tol_peg_1","335","335","0","[[3,1,0],[2,0],[0]]","21","[[0,0,0],[1,2],[3]]","4","0","","","","","","7","","","","","","","","",""
"","","","","","single-stim-button","115","262441","0.0-2.0-22.21-0.21","5d8108c0a6d2bf001afdb2d9","A3","batch1","","1480","tol_tohand","","","","tol_peg_2","1480","1480","0","[[3,1,0],[0,0],[0]]","22","[[0,0,0],[1,2],[3]]","4","0","","","","","","7","","","","","","","","",""
"","","","","","single-stim-button","116","263207","0.0-2.0-22.21-1.21","5d8108c0a6d2bf001afdb2d9","A3","batch1","","765","tol_toboard","","","","tol_peg_3","765","765","0","[[3,1,0],[0,0],[2]]","22","[[0,0,0],[1,2],[3]]","4","0","","","","","","7","","","","","","","","",""
"","","","","","single-stim-button","117","263667","0.0-2.0-22.22-0.22","5d8108c0a6d2bf001afdb2d9","A3","batch1","","460","tol_tohand","","","","tol_peg_1","460","460","0","[[3,0,0],[0,0],[2]]","23","[[0,0,0],[1,2],[3]]","4","0","","","","","","7","","","","","","","","",""
"","","","","","single-stim-button","118","264021","0.0-2.0-22.22-1.22","5d8108c0a6d2bf001afdb2d9","A3","batch1","","353","tol_toboard","","","","tol_peg_2","353","353","0","[[3,0,0],[1,0],[2]]","23","[[0,0,0],[1,2],[3]]","4","0","","","","","","7","","","","","","","","",""
"","","","","","single-stim-button","119","265308","0.0-2.0-22.23-0.23","5d8108c0a6d2bf001afdb2d9","A3","batch1","","1285","tol_tohand","","","","tol_peg_3","1285","1285","0","[[3,0,0],[1,0],[0]]","24","[[0,0,0],[1,2],[3]]","4","0","","","","","","7","","","","","","","","",""
"","","","","","single-stim-button","120","265572","0.0-2.0-22.23-1.23","5d8108c0a6d2bf001afdb2d9","A3","batch1","","264","tol_toboard","","","","tol_peg_2","264","264","0","[[3,0,0],[1,2],[0]]","24","[[0,0,0],[1,2],[3]]","4","0","","","","","","7","","","","","","","","",""
"","","","","","single-stim-button","121","265897","0.0-2.0-22.24-0.24","5d8108c0a6d2bf001afdb2d9","A3","batch1","","325","tol_tohand","","","","tol_peg_1","325","325","0","[[0,0,0],[1,2],[0]]","25","[[0,0,0],[1,2],[3]]","4","0","","","","","","7","","","","","","","","",""
"","","","","","single-stim-button","122","266231","0.0-2.0-22.24-1.24","5d8108c0a6d2bf001afdb2d9","A3","batch1","","334","tol_toboard","","","","tol_peg_3","334","334","0","[[0,0,0],[1,2],[3]]","25","[[0,0,0],[1,2],[3]]","4","0","","","","","","7","","","","","","","","",""
"","","","","","poldrack-single-stim","123","267233","0.0-2.0-23.0","5d8108c0a6d2bf001afdb2d9","A3","batch1","","-1","tol_feedback","","","true","","1000","1000","500","","","","","","-1","none","true","8253","40672","","","","","","","","","",""
"","","","","","html-button-response","124","267822","0.0-2.0-24.0","5d8108c0a6d2bf001afdb2d9","A3","batch1","","588","tol_trial_num","<div class = centerbox><p class = center-block-text>problem <strong>6</strong> out of 25 problems</p></div>","0","","","","","","","","","","","","","","","","","","","","","","","","",""
"","","","","","single-stim-button","125","274298","0.0-2.0-25.0-0.0","5d8108c0a6d2bf001afdb2d9","A3","batch1","","6474","tol_tohand","","","","tol_peg_3","6474","6474","0","[[0,0,0],[1,2],[0]]","1","[[1,0,0],[2,3],[0]]","5","0","","","","","","6","","","","","","","","",""
"","","","","","single-stim-button","126","274710","0.0-2.0-25.0-1.0","5d8108c0a6d2bf001afdb2d9","A3","batch1","","412","tol_toboard","","","","tol_peg_1","412","412","0","[[3,0,0],[1,2],[0]]","1","[[1,0,0],[2,3],[0]]","5","0","","","","","","6","","","","","","","","",""
"","","","","","single-stim-button","127","275382","0.0-2.0-25.1-0.1","5d8108c0a6d2bf001afdb2d9","A3","batch1","","672","tol_tohand","","","","tol_peg_2","672","672","0","[[3,0,0],[1,0],[0]]","2","[[1,0,0],[2,3],[0]]","5","0","","","","","","6","","","","","","","","",""
"","","","","","single-stim-button","128","275934","0.0-2.0-25.1-1.1","5d8108c0a6d2bf001afdb2d9","A3","batch1","","552","tol_toboard","","","","tol_peg_3","552","552","0","[[3,0,0],[1,0],[2]]","2","[[1,0,0],[2,3],[0]]","5","0","","","","","","6","","","","","","","","",""
"","","","","","single-stim-button","129","279450","0.0-2.0-25.2-0.2","5d8108c0a6d2bf001afdb2d9","A3","batch1","","3516","tol_tohand","","","","tol_peg_2","3516","3516","0","[[3,0,0],[0,0],[2]]","3","[[1,0,0],[2,3],[0]]","5","0","","","","","","6","","","","","","","","",""
"","","","","","single-stim-button","130","279847","0.0-2.0-25.2-1.2","5d8108c0a6d2bf001afdb2d9","A3","batch1","","396","tol_toboard","","","","tol_peg_1","396","396","0","[[3,1,0],[0,0],[2]]","3","[[1,0,0],[2,3],[0]]","5","0","","","","","","6","","","","","","","","",""
"","","","","","single-stim-button","131","281384","0.0-2.0-25.3-0.3","5d8108c0a6d2bf001afdb2d9","A3","batch1","","1536","tol_tohand","","","","tol_peg_3","1536","1536","0","[[3,1,0],[0,0],[0]]","4","[[1,0,0],[2,3],[0]]","5","0","","","","","","6","","","","","","","","",""
"","","","","","single-stim-button","132","281792","0.0-2.0-25.3-1.3","5d8108c0a6d2bf001afdb2d9","A3","batch1","","408","tol_toboard","","","","tol_peg_2","408","408","0","[[3,1,0],[2,0],[0]]","4","[[1,0,0],[2,3],[0]]","5","0","","","","","","6","","","","","","","","",""
"","","","","","single-stim-button","133","285808","0.0-2.0-25.4-0.4","5d8108c0a6d2bf001afdb2d9","A3","batch1","","4016","tol_tohand","","","","tol_peg_1","4016","4016","0","[[3,0,0],[2,0],[0]]","5","[[1,0,0],[2,3],[0]]","5","0","","","","","","6","","","","","","","","",""
"","","","","","single-stim-button","134","286292","0.0-2.0-25.4-1.4","5d8108c0a6d2bf001afdb2d9","A3","batch1","","484","tol_toboard","","","","tol_peg_3","484","484","0","[[3,0,0],[2,0],[1]]","5","[[1,0,0],[2,3],[0]]","5","0","","","","","","6","","","","","","","","",""
"","","","","","single-stim-button","135","286750","0.0-2.0-25.5-0.5","5d8108c0a6d2bf001afdb2d9","A3","batch1","","458","tol_tohand","","","","tol_peg_1","458","458","0","[[0,0,0],[2,0],[1]]","6","[[1,0,0],[2,3],[0]]","5","0","","","","","","6","","","","","","","","",""
"","","","","","single-stim-button","136","287187","0.0-2.0-25.5-1.5","5d8108c0a6d2bf001afdb2d9","A3","batch1","","435","tol_toboard","","","","tol_peg_2","435","435","0","[[0,0,0],[2,3],[1]]","6","[[1,0,0],[2,3],[0]]","5","0","","","","","","6","","","","","","","","",""
"","","","","","single-stim-button","137","287596","0.0-2.0-25.6-0.6","5d8108c0a6d2bf001afdb2d9","A3","batch1","","409","tol_tohand","","","","tol_peg_3","409","409","0","[[0,0,0],[2,3],[0]]","7","[[1,0,0],[2,3],[0]]","5","0","","","","","","6","","","","","","","","",""
"","","","","","single-stim-button","138","288010","0.0-2.0-25.6-1.6","5d8108c0a6d2bf001afdb2d9","A3","batch1","","414","tol_toboard","","","","tol_peg_1","414","414","0","[[1,0,0],[2,3],[0]]","7","[[1,0,0],[2,3],[0]]","5","0","","","","","","6","","","","","","","","",""
"","","","","","poldrack-single-stim","139","289012","0.0-2.0-26.0","5d8108c0a6d2bf001afdb2d9","A3","batch1","","-1","tol_feedback","","","true","","1000","1000","500","","","","","","-1","none","true","6474","17081","","","","","","","","","",""
"","","","","","html-button-response","140","289523","0.0-2.0-27.0","5d8108c0a6d2bf001afdb2d9","A3","batch1","","510.2000000476837","tol_trial_num","<div class = centerbox><p class = center-block-text>problem <strong>7</strong> out of 25 problems</p></div>","0","","","","","","","","","","","","","","","","","","","","","","","","",""
"","","","","","single-stim-button","141","291155","0.0-2.0-28.0-0.0","5d8108c0a6d2bf001afdb2d9","A3","batch1","","1632","tol_tohand","","","","tol_peg_3","1632","1632","0","[[2,1,0],[0,0],[0]]","1","[[1,2,0],[3,0],[0]]","6","0","","","","","","5","","","","","","","","",""
"","","","","","single-stim-button","142","291665","0.0-2.0-28.0-1.0","5d8108c0a6d2bf001afdb2d9","A3","batch1","","509","tol_toboard","","","","tol_peg_2","509","509","0","[[2,1,0],[3,0],[0]]","1","[[1,2,0],[3,0],[0]]","6","0","","","","","","5","","","","","","","","",""
"","","","","","single-stim-button","143","292580","0.0-2.0-28.1-0.1","5d8108c0a6d2bf001afdb2d9","A3","batch1","","915","tol_tohand","","","","tol_peg_1","915","915","0","[[2,0,0],[3,0],[0]]","2","[[1,2,0],[3,0],[0]]","6","0","","","","","","5","","","","","","","","",""
"","","","","","single-stim-button","144","293217","0.0-2.0-28.1-1.1","5d8108c0a6d2bf001afdb2d9","A3","batch1","","637","tol_toboard","","","","tol_peg_2","637","637","0","[[2,0,0],[3,1],[0]]","2","[[1,2,0],[3,0],[0]]","6","0","","","","","","5","","","","","","","","",""
"","","","","","single-stim-button","145","295941","0.0-2.0-28.2-0.2","5d8108c0a6d2bf001afdb2d9","A3","batch1","","2724","tol_tohand","","","","tol_peg_1","2724","2724","0","[[0,0,0],[3,1],[0]]","3","[[1,2,0],[3,0],[0]]","6","0","","","","","","5","","","","","","","","",""
"","","","","","single-stim-button","146","296362","0.0-2.0-28.2-1.2","5d8108c0a6d2bf001afdb2d9","A3","batch1","","421","tol_toboard","","","","tol_peg_3","421","421","0","[[0,0,0],[3,1],[2]]","3","[[1,2,0],[3,0],[0]]","6","0","","","","","","5","","","","","","","","",""
"","","","","","single-stim-button","147","297010","0.0-2.0-28.3-0.3","5d8108c0a6d2bf001afdb2d9","A3","batch1","","648","tol_tohand","","","","tol_peg_2","648","648","0","[[0,0,0],[3,0],[2]]","4","[[1,2,0],[3,0],[0]]","6","0","","","","","","5","","","","","","","","",""
"","","","","","single-stim-button","148","297355","0.0-2.0-28.3-1.3","5d8108c0a6d2bf001afdb2d9","A3","batch1","","345","tol_toboard","","","","tol_peg_1","345","345","0","[[1,0,0],[3,0],[2]]","4","[[1,2,0],[3,0],[0]]","6","0","","","","","","5","","","","","","","","",""
"","","","","","single-stim-button","149","297721","0.0-2.0-28.4-0.4","5d8108c0a6d2bf001afdb2d9","A3","batch1","","366","tol_tohand","","","","tol_peg_3","366","366","0","[[1,0,0],[3,0],[0]]","5","[[1,2,0],[3,0],[0]]","6","0","","","","","","5","","","","","","","","",""
"","","","","","single-stim-button","150","298423","0.0-2.0-28.4-1.4","5d8108c0a6d2bf001afdb2d9","A3","batch1","","701","tol_toboard","","","","tol_peg_1","701","701","0","[[1,2,0],[3,0],[0]]","5","[[1,2,0],[3,0],[0]]","6","0","","","","","","5","","","","","","","","",""
"","","","","","poldrack-single-stim","151","299425","0.0-2.0-29.0","5d8108c0a6d2bf001afdb2d9","A3","batch1","","-1","tol_feedback","","","true","","1000","1000","500","","","","","","-1","none","true","1632","6285","","","","","","","","","",""
"","","","","","html-button-response","152","300321","0.0-2.0-30.0","5d8108c0a6d2bf001afdb2d9","A3","batch1","","894.8000000119209","tol_trial_num","<div class = centerbox><p class = center-block-text>problem <strong>8</strong> out of 25 problems</p></div>","0","","","","","","","","","","","","","","","","","","","","","","","","",""
"","","","","","single-stim-button","153","302883","0.0-2.0-31.0-0.0","5d8108c0a6d2bf001afdb2d9","A3","batch1","","2562","tol_tohand","","","","tol_peg_3","2562","2562","0","[[0,0,0],[2,3],[0]]","1","[[1,2,0],[3,0],[0]]","7","0","","","","","","4","","","","","","","","",""
"","","","","","single-stim-button","154","303244","0.0-2.0-31.0-1.0","5d8108c0a6d2bf001afdb2d9","A3","batch1","","360","tol_toboard","","","","tol_peg_1","360","360","0","[[1,0,0],[2,3],[0]]","1","[[1,2,0],[3,0],[0]]","7","0","","","","","","4","","","","","","","","",""
"","","","","","single-stim-button","155","304406","0.0-2.0-31.1-0.1","5d8108c0a6d2bf001afdb2d9","A3","batch1","","1161","tol_tohand","","","","tol_peg_2","1161","1161","0","[[1,0,0],[2,0],[0]]","2","[[1,2,0],[3,0],[0]]","7","0","","","","","","4","","","","","","","","",""
"","","","","","single-stim-button","156","304864","0.0-2.0-31.1-1.1","5d8108c0a6d2bf001afdb2d9","A3","batch1","","458","tol_toboard","","","","tol_peg_3","458","458","0","[[1,0,0],[2,0],[3]]","2","[[1,2,0],[3,0],[0]]","7","0","","","","","","4","","","","","","","","",""
"","","","","","single-stim-button","157","305497","0.0-2.0-31.2-0.2","5d8108c0a6d2bf001afdb2d9","A3","batch1","","632","tol_tohand","","","","tol_peg_2","632","632","0","[[1,0,0],[0,0],[3]]","3","[[1,2,0],[3,0],[0]]","7","0","","","","","","4","","","","","","","","",""
"","","","","","single-stim-button","158","305827","0.0-2.0-31.2-1.2","5d8108c0a6d2bf001afdb2d9","A3","batch1","","330","tol_toboard","","","","tol_peg_1","330","330","0","[[1,2,0],[0,0],[3]]","3","[[1,2,0],[3,0],[0]]","7","0","","","","","","4","","","","","","","","",""
"","","","","","single-stim-button","159","306223","0.0-2.0-31.3-0.3","5d8108c0a6d2bf001afdb2d9","A3","batch1","","395","tol_tohand","","","","tol_peg_3","395","395","0","[[1,2,0],[0,0],[0]]","4","[[1,2,0],[3,0],[0]]","7","0","","","","","","4","","","","","","","","",""
"","","","","","single-stim-button","160","306510","0.0-2.0-31.3-1.3","5d8108c0a6d2bf001afdb2d9","A3","batch1","","287","tol_toboard","","","","tol_peg_2","287","287","0","[[1,2,0],[3,0],[0]]","4","[[1,2,0],[3,0],[0]]","7","0","","","","","","4","","","","","","","","",""
"","","","","","poldrack-single-stim","161","307513","0.0-2.0-32.0","5d8108c0a6d2bf001afdb2d9","A3","batch1","","-1","tol_feedback","","","true","","1000","1000","500","","","","","","-1","none","true","2562","4750","","","","","","","","","",""
"","","","","","html-button-response","162","308032","0.0-2.0-33.0","5d8108c0a6d2bf001afdb2d9","A3","batch1","","518.7000000476837","tol_trial_num","<div class = centerbox><p class = center-block-text>problem <strong>9</strong> out of 25 problems</p></div>","0","","","","","","","","","","","","","","","","","","","","","","","","",""
"","","","","","single-stim-button","163","309880","0.0-2.0-34.0-0.0","5d8108c0a6d2bf001afdb2d9","A3","batch1","","1848","tol_tohand","","","","tol_peg_1","1848","1848","0","[[3,0,0],[0,0],[1]]","1","[[2,1,0],[3,0],[0]]","8","0","","","","","","6","","","","","","","","",""
"","","","","","single-stim-button","164","312776","0.0-2.0-34.0-1.0","5d8108c0a6d2bf001afdb2d9","A3","batch1","","2896","tol_toboard","","","","tol_peg_1","2896","2896","0","[[3,2,0],[0,0],[1]]","1","[[2,1,0],[3,0],[0]]","8","0","","","","","","6","","","","","","","","",""
"","","","","","single-stim-button","165","313069","0.0-2.0-34.1-0.1","5d8108c0a6d2bf001afdb2d9","A3","batch1","","293","tol_tohand","","","","tol_peg_1","293","293","0","[[3,0,0],[0,0],[1]]","2","[[2,1,0],[3,0],[0]]","8","0","","","","","","6","","","","","","","","",""
"","","","","","single-stim-button","166","313846","0.0-2.0-34.1-1.1","5d8108c0a6d2bf001afdb2d9","A3","batch1","","777","tol_toboard","","","","tol_peg_1","777","777","0","[[3,2,0],[0,0],[1]]","2","[[2,1,0],[3,0],[0]]","8","0","","","","","","6","","","","","","","","",""
"","","","","","single-stim-button","167","321868","0.0-2.0-34.2-0.2","5d8108c0a6d2bf001afdb2d9","A3","batch1","","8022","tol_tohand","","","","tol_peg_3","8022","8022","0","[[3,2,0],[0,0],[0]]","3","[[2,1,0],[3,0],[0]]","8","0","","","","","","6","","","","","","","","",""
"","","","","","single-stim-button","168","322223","0.0-2.0-34.2-1.2","5d8108c0a6d2bf001afdb2d9","A3","batch1","","355","tol_toboard","","","","tol_peg_2","355","355","0","[[3,2,0],[1,0],[0]]","3","[[2,1,0],[3,0],[0]]","8","0","","","","","","6","","","","","","","","",""
"","","","","","single-stim-button","169","323077","0.0-2.0-34.3-0.3","5d8108c0a6d2bf001afdb2d9","A3","batch1","","854","tol_tohand","","","","tol_peg_1","854","854","0","[[3,0,0],[1,0],[0]]","4","[[2,1,0],[3,0],[0]]","8","0","","","","","","6","","","","","","","","",""
"","","","","","single-stim-button","170","325411","0.0-2.0-34.3-1.3","5d8108c0a6d2bf001afdb2d9","A3","batch1","","2333","tol_toboard","","","","tol_peg_3","2333","2333","0","[[3,0,0],[1,0],[2]]","4","[[2,1,0],[3,0],[0]]","8","0","","","","","","6","","","","","","","","",""
"","","","","","single-stim-button","171","327375","0.0-2.0-34.4-0.4","5d8108c0a6d2bf001afdb2d9","A3","batch1","","1964","tol_tohand","","","","tol_peg_3","1964","1964","0","[[3,0,0],[1,0],[0]]","5","[[2,1,0],[3,0],[0]]","8","0","","","","","","6","","","","","","","","",""
"","","","","","single-stim-button","172","327817","0.0-2.0-34.4-1.4","5d8108c0a6d2bf001afdb2d9","A3","batch1","","442","tol_toboard","","","","tol_peg_3","442","442","0","[[3,0,0],[1,0],[2]]","5","[[2,1,0],[3,0],[0]]","8","0","","","","","","6","","","","","","","","",""
"","","","","","single-stim-button","173","328272","0.0-2.0-34.5-0.5","5d8108c0a6d2bf001afdb2d9","A3","batch1","","455","tol_tohand","","","","tol_peg_2","455","455","0","[[3,0,0],[0,0],[2]]","6","[[2,1,0],[3,0],[0]]","8","0","","","","","","6","","","","","","","","",""
"","","","","","single-stim-button","174","328531","0.0-2.0-34.5-1.5","5d8108c0a6d2bf001afdb2d9","A3","batch1","","259","tol_toboard","","","","tol_peg_1","259","259","0","[[3,1,0],[0,0],[2]]","6","[[2,1,0],[3,0],[0]]","8","0","","","","","","6","","","","","","","","",""
"","","","","","single-stim-button","175","328844","0.0-2.0-34.6-0.6","5d8108c0a6d2bf001afdb2d9","A3","batch1","","313","tol_tohand","","","","tol_peg_1","313","313","0","[[3,0,0],[0,0],[2]]","7","[[2,1,0],[3,0],[0]]","8","0","","","","","","6","","","","","","","","",""
"","","","","","single-stim-button","176","330416","0.0-2.0-34.6-1.6","5d8108c0a6d2bf001afdb2d9","A3","batch1","","1571","tol_toboard","","","","tol_peg_2","1571","1571","0","[[3,0,0],[1,0],[2]]","7","[[2,1,0],[3,0],[0]]","8","0","","","","","","6","","","","","","","","",""
"","","","","","single-stim-button","177","330772","0.0-2.0-34.7-0.7","5d8108c0a6d2bf001afdb2d9","A3","batch1","","356","tol_tohand","","","","tol_peg_3","356","356","0","[[3,0,0],[1,0],[0]]","8","[[2,1,0],[3,0],[0]]","8","0","","","","","","6","","","","","","","","",""
"","","","","","single-stim-button","178","331126","0.0-2.0-34.7-1.7","5d8108c0a6d2bf001afdb2d9","A3","batch1","","353","tol_toboard","","","","tol_peg_2","353","353","0","[[3,0,0],[1,2],[0]]","8","[[2,1,0],[3,0],[0]]","8","0","","","","","","6","","","","","","","","",""
"","","","","","single-stim-button","179","332171","0.0-2.0-34.8-0.8","5d8108c0a6d2bf001afdb2d9","A3","batch1","","1045","tol_tohand","","","","tol_peg_1","1045","1045","0","[[0,0,0],[1,2],[0]]","9","[[2,1,0],[3,0],[0]]","8","0","","","","","","6","","","","","","","","",""
"","","","","","single-stim-button","180","332678","0.0-2.0-34.8-1.8","5d8108c0a6d2bf001afdb2d9","A3","batch1","","507","tol_toboard","","","","tol_peg_3","507","507","0","[[0,0,0],[1,2],[3]]","9","[[2,1,0],[3,0],[0]]","8","0","","","","","","6","","","","","","","","",""
"","","","","","single-stim-button","181","336258","0.0-2.0-34.9-0.9","5d8108c0a6d2bf001afdb2d9","A3","batch1","","3580","tol_tohand","","","","tol_peg_2","3580","3580","0","[[0,0,0],[1,0],[3]]","10","[[2,1,0],[3,0],[0]]","8","0","","","","","","6","","","","","","","","",""
"","","","","","single-stim-button","182","336516","0.0-2.0-34.9-1.9","5d8108c0a6d2bf001afdb2d9","A3","batch1","","258","tol_toboard","","","","tol_peg_1","258","258","0","[[2,0,0],[1,0],[3]]","10","[[2,1,0],[3,0],[0]]","8","0","","","","","","6","","","","","","","","",""
"","","","","","single-stim-button","183","336892","0.0-2.0-34.10-0.10","5d8108c0a6d2bf001afdb2d9","A3","batch1","","376","tol_tohand","","","","tol_peg_2","376","376","0","[[2,0,0],[0,0],[3]]","11","[[2,1,0],[3,0],[0]]","8","0","","","","","","6","","","","","","","","",""
"","","","","","single-stim-button","184","337179","0.0-2.0-34.10-1.10","5d8108c0a6d2bf001afdb2d9","A3","batch1","","287","tol_toboard","","","","tol_peg_1","287","287","0","[[2,1,0],[0,0],[3]]","11","[[2,1,0],[3,0],[0]]","8","0","","","","","","6","","","","","","","","",""
"","","","","","single-stim-button","185","338144","0.0-2.0-34.11-0.11","5d8108c0a6d2bf001afdb2d9","A3","batch1","","965","tol_tohand","","","","tol_peg_3","965","965","0","[[2,1,0],[0,0],[0]]","12","[[2,1,0],[3,0],[0]]","8","0","","","","","","6","","","","","","","","",""
"","","","","","single-stim-button","186","338440","0.0-2.0-34.11-1.11","5d8108c0a6d2bf001afdb2d9","A3","batch1","","296","tol_toboard","","","","tol_peg_2","296","296","0","[[2,1,0],[3,0],[0]]","12","[[2,1,0],[3,0],[0]]","8","0","","","","","","6","","","","","","","","",""
"","","","","","poldrack-single-stim","187","339441","0.0-2.0-35.0","5d8108c0a6d2bf001afdb2d9","A3","batch1","","-1","tol_feedback","","","true","","1000","1000","500","","","","","","-1","none","true","1848","20071","","","","","","","","","",""
"","","","","","html-button-response","188","340532","0.0-2.0-36.0","5d8108c0a6d2bf001afdb2d9","A3","batch1","","1090.8999999761581","tol_trial_num","<div class = centerbox><p class = center-block-text>problem <strong>10</strong> out of 25 problems</p></div>","0","","","","","","","","","","","","","","","","","","","","","","","","",""
"","","","","","single-stim-button","189","343474","0.0-2.0-37.0-0.0","5d8108c0a6d2bf001afdb2d9","A3","batch1","","2942","tol_tohand","","","","tol_peg_2","2942","2942","0","[[3,0,0],[0,0],[2]]","1","[[3,0,0],[2,1],[0]]","9","0","","","","","","3","","","","","","","","",""
"","","","","","single-stim-button","190","343800","0.0-2.0-37.0-1.0","5d8108c0a6d2bf001afdb2d9","A3","batch1","","325","tol_toboard","","","","tol_peg_1","325","325","0","[[3,1,0],[0,0],[2]]","1","[[3,0,0],[2,1],[0]]","9","0","","","","","","3","","","","","","","","",""
"","","","","","single-stim-button","191","344304","0.0-2.0-37.1-0.1","5d8108c0a6d2bf001afdb2d9","A3","batch1","","504","tol_tohand","","","","tol_peg_3","504","504","0","[[3,1,0],[0,0],[0]]","2","[[3,0,0],[2,1],[0]]","9","0","","","","","","3","","","","","","","","",""
"","","","","","single-stim-button","192","344771","0.0-2.0-37.1-1.1","5d8108c0a6d2bf001afdb2d9","A3","batch1","","467","tol_toboard","","","","tol_peg_2","467","467","0","[[3,1,0],[2,0],[0]]","2","[[3,0,0],[2,1],[0]]","9","0","","","","","","3","","","","","","","","",""
"","","","","","single-stim-button","193","345606","0.0-2.0-37.2-0.2","5d8108c0a6d2bf001afdb2d9","A3","batch1","","834","tol_tohand","","","","tol_peg_1","834","834","0","[[3,0,0],[2,0],[0]]","3","[[3,0,0],[2,1],[0]]","9","0","","","","","","3","","","","","","","","",""
"","","","","","single-stim-button","194","345894","0.0-2.0-37.2-1.2","5d8108c0a6d2bf001afdb2d9","A3","batch1","","288","tol_toboard","","","","tol_peg_2","288","288","0","[[3,0,0],[2,1],[0]]","3","[[3,0,0],[2,1],[0]]","9","0","","","","","","3","","","","","","","","",""
"","","","","","poldrack-single-stim","195","346897","0.0-2.0-38.0","5d8108c0a6d2bf001afdb2d9","A3","batch1","","-1","tol_feedback","","","true","","1000","1000","500","","","","","","-1","none","true","2942","4280","","","","","","","","","",""
"","","","","","html-button-response","196","347392","0.0-2.0-39.0","5d8108c0a6d2bf001afdb2d9","A3","batch1","","494.30000001192093","tol_trial_num","<div class = centerbox><p class = center-block-text>problem <strong>11</strong> out of 25 problems</p></div>","0","","","","","","","","","","","","","","","","","","","","","","","","",""
"","","","","","single-stim-button","197","350232","0.0-2.0-40.0-0.0","5d8108c0a6d2bf001afdb2d9","A3","batch1","","2840","tol_tohand","","","","tol_peg_2","2840","2840","0","[[1,2,0],[0,0],[0]]","1","[[2,0,0],[1,3],[0]]","10","0","","","","","","6","","","","","","","","",""
"","","","","","single-stim-button","198","350560","0.0-2.0-40.0-1.0","5d8108c0a6d2bf001afdb2d9","A3","batch1","","327","tol_toboard","","","","tol_peg_3","327","327","0","[[1,2,0],[0,0],[3]]","1","[[2,0,0],[1,3],[0]]","10","0","","","","","","6","","","","","","","","",""
"","","","","","single-stim-button","199","351565","0.0-2.0-40.1-0.1","5d8108c0a6d2bf001afdb2d9","A3","batch1","","1005","tol_tohand","","","","tol_peg_1","1005","1005","0","[[1,0,0],[0,0],[3]]","2","[[2,0,0],[1,3],[0]]","10","0","","","","","","6","","","","","","","","",""
"","","","","","single-stim-button","200","352696","0.0-2.0-40.1-1.1","5d8108c0a6d2bf001afdb2d9","A3","batch1","","1131","tol_toboard","","","","tol_peg_1","1131","1131","0","[[1,2,0],[0,0],[3]]","2","[[2,0,0],[1,3],[0]]","10","0","","","","","","6","","","","","","","","",""
"","","","","","single-stim-button","201","353079","0.0-2.0-40.2-0.2","5d8108c0a6d2bf001afdb2d9","A3","batch1","","383","tol_tohand","","","","tol_peg_3","383","383","0","[[1,2,0],[0,0],[0]]","3","[[2,0,0],[1,3],[0]]","10","0","","","","","","6","","","","","","","","",""
"","","","","","single-stim-button","202","353417","0.0-2.0-40.2-1.2","5d8108c0a6d2bf001afdb2d9","A3","batch1","","338","tol_toboard","","","","tol_peg_2","338","338","0","[[1,2,0],[3,0],[0]]","3","[[2,0,0],[1,3],[0]]","10","0","","","","","","6","","","","","","","","",""
"","","","","","single-stim-button","203","354785","0.0-2.0-40.3-0.3","5d8108c0a6d2bf001afdb2d9","A3","batch1","","1368","tol_tohand","","","","tol_peg_1","1368","1368","0","[[1,0,0],[3,0],[0]]","4","[[2,0,0],[1,3],[0]]","10","0","","","","","","6","","","","","","","","",""
"","","","","","single-stim-button","204","355750","0.0-2.0-40.3-1.3","5d8108c0a6d2bf001afdb2d9","A3","batch1","","964","tol_toboard","","","","tol_peg_3","964","964","0","[[1,0,0],[3,0],[2]]","4","[[2,0,0],[1,3],[0]]","10","0","","","","","","6","","","","","","","","",""
"","","","","","single-stim-button","205","358699","0.0-2.0-40.4-0.4","5d8108c0a6d2bf001afdb2d9","A3","batch1","","2949","tol_tohand","","","","tol_peg_2","2949","2949","0","[[1,0,0],[0,0],[2]]","5","[[2,0,0],[1,3],[0]]","10","0","","","","","","6","","","","","","","","",""
"","","","","","single-stim-button","206","360182","0.0-2.0-40.4-1.4","5d8108c0a6d2bf001afdb2d9","A3","batch1","","1481","tol_toboard","","","","tol_peg_2","1481","1481","0","[[1,0,0],[3,0],[2]]","5","[[2,0,0],[1,3],[0]]","10","0","","","","","","6","","","","","","","","",""
"","","","","","single-stim-button","207","360689","0.0-2.0-40.5-0.5","5d8108c0a6d2bf001afdb2d9","A3","batch1","","507","tol_tohand","","","","tol_peg_3","507","507","0","[[1,0,0],[3,0],[0]]","6","[[2,0,0],[1,3],[0]]","10","0","","","","","","6","","","","","","","","",""
"","","","","","single-stim-button","208","360986","0.0-2.0-40.5-1.5","5d8108c0a6d2bf001afdb2d9","A3","batch1","","296","tol_toboard","","","","tol_peg_1","296","296","0","[[1,2,0],[3,0],[0]]","6","[[2,0,0],[1,3],[0]]","10","0","","","","","","6","","","","","","","","",""
"","","","","","single-stim-button","209","364881","0.0-2.0-40.6-0.6","5d8108c0a6d2bf001afdb2d9","A3","batch1","","3895","tol_tohand","","","","tol_peg_2","3895","3895","0","[[1,2,0],[0,0],[0]]","7","[[2,0,0],[1,3],[0]]","10","0","","","","","","6","","","","","","","","",""
"","","","","","single-stim-button","210","365202","0.0-2.0-40.6-1.6","5d8108c0a6d2bf001afdb2d9","A3","batch1","","320","tol_toboard","","","","tol_peg_1","320","320","0","[[1,2,3],[0,0],[0]]","7","[[2,0,0],[1,3],[0]]","10","0","","","","","","6","","","","","","","","",""
"","","","","","single-stim-button","211","365846","0.0-2.0-40.7-0.7","5d8108c0a6d2bf001afdb2d9","A3","batch1","","644","tol_tohand","","","","tol_peg_1","644","644","0","[[1,2,0],[0,0],[0]]","8","[[2,0,0],[1,3],[0]]","10","0","","","","","","6","","","","","","","","",""
"","","","","","single-stim-button","212","367386","0.0-2.0-40.7-1.7","5d8108c0a6d2bf001afdb2d9","A3","batch1","","1539","tol_toboard","","","","tol_peg_3","1539","1539","0","[[1,2,0],[0,0],[3]]","8","[[2,0,0],[1,3],[0]]","10","0","","","","","","6","","","","","","","","",""
"","","","","","single-stim-button","213","370567","0.0-2.0-40.8-0.8","5d8108c0a6d2bf001afdb2d9","A3","batch1","","3180","tol_tohand","","","","tol_peg_1","3180","3180","0","[[1,0,0],[0,0],[3]]","9","[[2,0,0],[1,3],[0]]","10","0","","","","","","6","","","","","","","","",""
"","","","","","single-stim-button","214","370972","0.0-2.0-40.8-1.8","5d8108c0a6d2bf001afdb2d9","A3","batch1","","404","tol_toboard","","","","tol_peg_2","404","404","0","[[1,0,0],[2,0],[3]]","9","[[2,0,0],[1,3],[0]]","10","0","","","","","","6","","","","","","","","",""
"","","","","","single-stim-button","215","371281","0.0-2.0-40.9-0.9","5d8108c0a6d2bf001afdb2d9","A3","batch1","","309","tol_tohand","","","","tol_peg_1","309","309","0","[[0,0,0],[2,0],[3]]","10","[[2,0,0],[1,3],[0]]","10","0","","","","","","6","","","","","","","","",""
"","","","","","single-stim-button","216","371563","0.0-2.0-40.9-1.9","5d8108c0a6d2bf001afdb2d9","A3","batch1","","281","tol_toboard","","","","tol_peg_2","281","281","0","[[0,0,0],[2,1],[3]]","10","[[2,0,0],[1,3],[0]]","10","0","","","","","","6","","","","","","","","",""
"","","","","","single-stim-button","217","372375","0.0-2.0-40.10-0.10","5d8108c0a6d2bf001afdb2d9","A3","batch1","","812","tol_tohand","","","","tol_peg_3","812","812","0","[[0,0,0],[2,1],[0]]","11","[[2,0,0],[1,3],[0]]","10","0","","","","","","6","","","","","","","","",""
"","","","","","single-stim-button","218","372932","0.0-2.0-40.10-1.10","5d8108c0a6d2bf001afdb2d9","A3","batch1","","556","tol_toboard","","","","tol_peg_1","556","556","0","[[3,0,0],[2,1],[0]]","11","[[2,0,0],[1,3],[0]]","10","0","","","","","","6","","","","","","","","",""
"","","","","","single-stim-button","219","376513","0.0-2.0-40.11-0.11","5d8108c0a6d2bf001afdb2d9","A3","batch1","","3580","tol_tohand","","","","tol_peg_2","3580","3580","0","[[3,0,0],[2,0],[0]]","12","[[2,0,0],[1,3],[0]]","10","0","","","","","","6","","","","","","","","",""
"","","","","","single-stim-button","220","376746","0.0-2.0-40.11-1.11","5d8108c0a6d2bf001afdb2d9","A3","batch1","","233","tol_toboard","","","","tol_peg_1","233","233","0","[[3,1,0],[2,0],[0]]","12","[[2,0,0],[1,3],[0]]","10","0","","","","","","6","","","","","","","","",""
"","","","","","single-stim-button","221","377071","0.0-2.0-40.12-0.12","5d8108c0a6d2bf001afdb2d9","A3","batch1","","325","tol_tohand","","","","tol_peg_2","325","325","0","[[3,1,0],[0,0],[0]]","13","[[2,0,0],[1,3],[0]]","10","0","","","","","","6","","","","","","","","",""
"","","","","","single-stim-button","222","377330","0.0-2.0-40.12-1.12","5d8108c0a6d2bf001afdb2d9","A3","batch1","","258","tol_toboard","","","","tol_peg_3","258","258","0","[[3,1,0],[0,0],[2]]","13","[[2,0,0],[1,3],[0]]","10","0","","","","","","6","","","","","","","","",""
"","","","","","single-stim-button","223","377834","0.0-2.0-40.13-0.13","5d8108c0a6d2bf001afdb2d9","A3","batch1","","503","tol_tohand","","","","tol_peg_1","503","503","0","[[3,0,0],[0,0],[2]]","14","[[2,0,0],[1,3],[0]]","10","0","","","","","","6","","","","","","","","",""
"","","","","","single-stim-button","224","378338","0.0-2.0-40.13-1.13","5d8108c0a6d2bf001afdb2d9","A3","batch1","","504","tol_toboard","","","","tol_peg_2","504","504","0","[[3,0,0],[1,0],[2]]","14","[[2,0,0],[1,3],[0]]","10","0","","","","","","6","","","","","","","","",""
"","","","","","single-stim-button","225","379570","0.0-2.0-40.14-0.14","5d8108c0a6d2bf001afdb2d9","A3","batch1","","1231","tol_tohand","","","","tol_peg_1","1231","1231","0","[[0,0,0],[1,0],[2]]","15","[[2,0,0],[1,3],[0]]","10","0","","","","","","6","","","","","","","","",""
"","","","","","single-stim-button","226","379868","0.0-2.0-40.14-1.14","5d8108c0a6d2bf001afdb2d9","A3","batch1","","297","tol_toboard","","","","tol_peg_2","297","297","0","[[0,0,0],[1,3],[2]]","15","[[2,0,0],[1,3],[0]]","10","0","","","","","","6","","","","","","","","",""
"","","","","","single-stim-button","227","380210","0.0-2.0-40.15-0.15","5d8108c0a6d2bf001afdb2d9","A3","batch1","","342","tol_tohand","","","","tol_peg_3","342","342","0","[[0,0,0],[1,3],[0]]","16","[[2,0,0],[1,3],[0]]","10","0","","","","","","6","","","","","","","","",""
"","","","","","single-stim-button","228","380513","0.0-2.0-40.15-1.15","5d8108c0a6d2bf001afdb2d9","A3","batch1","","301","tol_toboard","","","","tol_peg_1","301","301","0","[[2,0,0],[1,3],[0]]","16","[[2,0,0],[1,3],[0]]","10","0","","","","","","6","","","","","","","","",""
"","","","","","poldrack-single-stim","229","381516","0.0-2.0-41.0","5d8108c0a6d2bf001afdb2d9","A3","batch1","","-1","tol_feedback","","","true","","1000","1000","500","","","","","","-1","none","true","2840","23873","","","","","","","","","",""
"","","","","","html-button-response","230","382048","0.0-2.0-42.0","5d8108c0a6d2bf001afdb2d9","A3","batch1","","531.3000000119209","tol_trial_num","<div class = centerbox><p class = center-block-text>problem <strong>12</strong> out of 25 problems</p></div>","0","","","","","","","","","","","","","","","","","","","","","","","","",""
"","","","","","single-stim-button","231","384061","0.0-2.0-43.0-0.0","5d8108c0a6d2bf001afdb2d9","A3","batch1","","2013","tol_tohand","","","","tol_peg_1","2013","2013","0","[[1,0,0],[3,0],[0]]","1","[[2,3,0],[0,0],[1]]","11","0","","","","","","4","","","","","","","","",""
"","","","","","single-stim-button","232","384383","0.0-2.0-43.0-1.0","5d8108c0a6d2bf001afdb2d9","A3","batch1","","322","tol_toboard","","","","tol_peg_2","322","322","0","[[1,0,0],[3,2],[0]]","1","[[2,3,0],[0,0],[1]]","11","0","","","","","","4","","","","","","","","",""
"","","","","","single-stim-button","233","384802","0.0-2.0-43.1-0.1","5d8108c0a6d2bf001afdb2d9","A3","batch1","","419","tol_tohand","","","","tol_peg_1","419","419","0","[[0,0,0],[3,2],[0]]","2","[[2,3,0],[0,0],[1]]","11","0","","","","","","4","","","","","","","","",""
"","","","","","single-stim-button","234","385227","0.0-2.0-43.1-1.1","5d8108c0a6d2bf001afdb2d9","A3","batch1","","423","tol_toboard","","","","tol_peg_3","423","423","0","[[0,0,0],[3,2],[1]]","2","[[2,3,0],[0,0],[1]]","11","0","","","","","","4","","","","","","","","",""
"","","","","","single-stim-button","235","387308","0.0-2.0-43.2-0.2","5d8108c0a6d2bf001afdb2d9","A3","batch1","","2081","tol_tohand","","","","tol_peg_2","2081","2081","0","[[0,0,0],[3,0],[1]]","3","[[2,3,0],[0,0],[1]]","11","0","","","","","","4","","","","","","","","",""
"","","","","","single-stim-button","236","388739","0.0-2.0-43.2-1.2","5d8108c0a6d2bf001afdb2d9","A3","batch1","","1431","tol_toboard","","","","tol_peg_1","1431","1431","0","[[2,0,0],[3,0],[1]]","3","[[2,3,0],[0,0],[1]]","11","0","","","","","","4","","","","","","","","",""
"","","","","","single-stim-button","237","389092","0.0-2.0-43.3-0.3","5d8108c0a6d2bf001afdb2d9","A3","batch1","","352","tol_tohand","","","","tol_peg_2","352","352","0","[[2,0,0],[0,0],[1]]","4","[[2,3,0],[0,0],[1]]","11","0","","","","","","4","","","","","","","","",""
"","","","","","single-stim-button","238","389387","0.0-2.0-43.3-1.3","5d8108c0a6d2bf001afdb2d9","A3","batch1","","293","tol_toboard","","","","tol_peg_1","293","293","0","[[2,3,0],[0,0],[1]]","4","[[2,3,0],[0,0],[1]]","11","0","","","","","","4","","","","","","","","",""
"","","","","","poldrack-single-stim","239","390389","0.0-2.0-44.0","5d8108c0a6d2bf001afdb2d9","A3","batch1","","-1","tol_feedback","","","true","","1000","1000","500","","","","","","-1","none","true","2013","4865","","","","","","","","","",""
"","","","","","html-button-response","240","390926","0.0-2.0-45.0","5d8108c0a6d2bf001afdb2d9","A3","batch1","","536.1000000238419","tol_trial_num","<div class = centerbox><p class = center-block-text>problem <strong>13</strong> out of 25 problems</p></div>","0","","","","","","","","","","","","","","","","","","","","","","","","",""
"","","","","","single-stim-button","241","393537","0.0-2.0-46.0-0.0","5d8108c0a6d2bf001afdb2d9","A3","batch1","","2610","tol_tohand","","","","tol_peg_1","2610","2610","0","[[1,0,0],[3,0],[0]]","1","[[0,0,0],[2,3],[1]]","12","0","","","","","","4","","","","","","","","",""
"","","","","","single-stim-button","242","393813","0.0-2.0-46.0-1.0","5d8108c0a6d2bf001afdb2d9","A3","batch1","","275","tol_toboard","","","","tol_peg_2","275","275","0","[[1,0,0],[3,2],[0]]","1","[[0,0,0],[2,3],[1]]","12","0","","","","","","4","","","","","","","","",""
"","","","","","single-stim-button","243","394158","0.0-2.0-46.1-0.1","5d8108c0a6d2bf001afdb2d9","A3","batch1","","345","tol_tohand","","","","tol_peg_1","345","345","0","[[0,0,0],[3,2],[0]]","2","[[0,0,0],[2,3],[1]]","12","0","","","","","","4","","","","","","","","",""
"","","","","","single-stim-button","244","394511","0.0-2.0-46.1-1.1","5d8108c0a6d2bf001afdb2d9","A3","batch1","","351","tol_toboard","","","","tol_peg_3","351","351","0","[[0,0,0],[3,2],[1]]","2","[[0,0,0],[2,3],[1]]","12","0","","","","","","4","","","","","","","","",""
"","","","","","single-stim-button","245","396118","0.0-2.0-46.2-0.2","5d8108c0a6d2bf001afdb2d9","A3","batch1","","1607","tol_tohand","","","","tol_peg_2","1607","1607","0","[[0,0,0],[3,0],[1]]","3","[[0,0,0],[2,3],[1]]","12","0","","","","","","4","","","","","","","","",""
"","","","","","single-stim-button","246","396482","0.0-2.0-46.2-1.2","5d8108c0a6d2bf001afdb2d9","A3","batch1","","364","tol_toboard","","","","tol_peg_1","364","364","0","[[2,0,0],[3,0],[1]]","3","[[0,0,0],[2,3],[1]]","12","0","","","","","","4","","","","","","","","",""
"","","","","","single-stim-button","247","397068","0.0-2.0-46.3-0.3","5d8108c0a6d2bf001afdb2d9","A3","batch1","","585","tol_tohand","","","","tol_peg_2","585","585","0","[[2,0,0],[0,0],[1]]","4","[[0,0,0],[2,3],[1]]","12","0","","","","","","4","","","","","","","","",""
"","","","","","single-stim-button","248","401112","0.0-2.0-46.3-1.3","5d8108c0a6d2bf001afdb2d9","A3","batch1","","4044","tol_toboard","","","","tol_peg_1","4044","4044","0","[[2,3,0],[0,0],[1]]","4","[[0,0,0],[2,3],[1]]","12","0","","","","","","4","","","","","","","","",""
"","","","","","single-stim-button","249","401606","0.0-2.0-46.4-0.4","5d8108c0a6d2bf001afdb2d9","A3","batch1","","494","tol_tohand","","","","tol_peg_1","494","494","0","[[2,0,0],[0,0],[1]]","5","[[0,0,0],[2,3],[1]]","12","0","","","","","","4","","","","","","","","",""
"","","","","","single-stim-button","250","402186","0.0-2.0-46.4-1.4","5d8108c0a6d2bf001afdb2d9","A3","batch1","","579","tol_toboard","","","","tol_peg_2","579","579","0","[[2,0,0],[3,0],[1]]","5","[[0,0,0],[2,3],[1]]","12","0","","","","","","4","","","","","","","","",""
"","","","","","single-stim-button","251","402604","0.0-2.0-46.5-0.5","5d8108c0a6d2bf001afdb2d9","A3","batch1","","418","tol_tohand","","","","tol_peg_3","418","418","0","[[2,0,0],[3,0],[0]]","6","[[0,0,0],[2,3],[1]]","12","0","","","","","","4","","","","","","","","",""
"","","","","","single-stim-button","252","404468","0.0-2.0-46.5-1.5","5d8108c0a6d2bf001afdb2d9","A3","batch1","","1864","tol_toboard","","","","tol_peg_1","1864","1864","0","[[2,1,0],[3,0],[0]]","6","[[0,0,0],[2,3],[1]]","12","0","","","","","","4","","","","","","","","",""
"","","","","","single-stim-button","253","405073","0.0-2.0-46.6-0.6","5d8108c0a6d2bf001afdb2d9","A3","batch1","","605","tol_tohand","","","","tol_peg_2","605","605","0","[[2,1,0],[0,0],[0]]","7","[[0,0,0],[2,3],[1]]","12","0","","","","","","4","","","","","","","","",""
"","","","","","single-stim-button","254","405471","0.0-2.0-46.6-1.6","5d8108c0a6d2bf001afdb2d9","A3","batch1","","398","tol_toboard","","","","tol_peg_1","398","398","0","[[2,1,3],[0,0],[0]]","7","[[0,0,0],[2,3],[1]]","12","0","","","","","","4","","","","","","","","",""
"","","","","","single-stim-button","255","408957","0.0-2.0-46.7-0.7","5d8108c0a6d2bf001afdb2d9","A3","batch1","","3485","tol_tohand","","","","tol_peg_1","3485","3485","0","[[2,1,0],[0,0],[0]]","8","[[0,0,0],[2,3],[1]]","12","0","","","","","","4","","","","","","","","",""
"","","","","","single-stim-button","256","409821","0.0-2.0-46.7-1.7","5d8108c0a6d2bf001afdb2d9","A3","batch1","","864","tol_toboard","","","","tol_peg_2","864","864","0","[[2,1,0],[3,0],[0]]","8","[[0,0,0],[2,3],[1]]","12","0","","","","","","4","","","","","","","","",""
"","","","","","single-stim-button","257","410302","0.0-2.0-46.8-0.8","5d8108c0a6d2bf001afdb2d9","A3","batch1","","481","tol_tohand","","","","tol_peg_1","481","481","0","[[2,0,0],[3,0],[0]]","9","[[0,0,0],[2,3],[1]]","12","0","","","","","","4","","","","","","","","",""
"","","","","","single-stim-button","258","410681","0.0-2.0-46.8-1.8","5d8108c0a6d2bf001afdb2d9","A3","batch1","","378","tol_toboard","","","","tol_peg_3","378","378","0","[[2,0,0],[3,0],[1]]","9","[[0,0,0],[2,3],[1]]","12","0","","","","","","4","","","","","","","","",""
"","","","","","single-stim-button","259","411584","0.0-2.0-46.9-0.9","5d8108c0a6d2bf001afdb2d9","A3","batch1","","902","tol_tohand","","","","tol_peg_1","902","902","0","[[0,0,0],[3,0],[1]]","10","[[0,0,0],[2,3],[1]]","12","0","","","","","","4","","","","","","","","",""
"","","","","","single-stim-button","260","411902","0.0-2.0-46.9-1.9","5d8108c0a6d2bf001afdb2d9","A3","batch1","","318","tol_toboard","","","","tol_peg_2","318","318","0","[[0,0,0],[3,2],[1]]","10","[[0,0,0],[2,3],[1]]","12","0","","","","","","4","","","","","","","","",""
"","","","","","single-stim-button","261","413704","0.0-2.0-46.10-0.10","5d8108c0a6d2bf001afdb2d9","A3","batch1","","1800","tol_tohand","","","","tol_peg_2","1800","1800","0","[[0,0,0],[3,0],[1]]","11","[[0,0,0],[2,3],[1]]","12","0","","","","","","4","","","","","","","","",""
"","","","","","single-stim-button","262","414012","0.0-2.0-46.10-1.10","5d8108c0a6d2bf001afdb2d9","A3","batch1","","308","tol_toboard","","","","tol_peg_1","308","308","0","[[2,0,0],[3,0],[1]]","11","[[0,0,0],[2,3],[1]]","12","0","","","","","","4","","","","","","","","",""
"","","","","","single-stim-button","263","415237","0.0-2.0-46.11-0.11","5d8108c0a6d2bf001afdb2d9","A3","batch1","","1224","tol_tohand","","","","tol_peg_2","1224","1224","0","[[2,0,0],[0,0],[1]]","12","[[0,0,0],[2,3],[1]]","12","0","","","","","","4","","","","","","","","",""
"","","","","","single-stim-button","264","418248","0.0-2.0-46.11-1.11","5d8108c0a6d2bf001afdb2d9","A3","batch1","","3011","tol_toboard","","","","tol_peg_1","3011","3011","0","[[2,3,0],[0,0],[1]]","12","[[0,0,0],[2,3],[1]]","12","0","","","","","","4","","","","","","","","",""
"","","","","","single-stim-button","265","420424","0.0-2.0-46.12-0.12","5d8108c0a6d2bf001afdb2d9","A3","batch1","","2176","tol_tohand","","","","tol_peg_1","2176","2176","0","[[2,0,0],[0,0],[1]]","13","[[0,0,0],[2,3],[1]]","12","0","","","","","","4","","","","","","","","",""
"","","","","","single-stim-button","266","420739","0.0-2.0-46.12-1.12","5d8108c0a6d2bf001afdb2d9","A3","batch1","","314","tol_toboard","","","","tol_peg_2","314","314","0","[[2,0,0],[3,0],[1]]","13","[[0,0,0],[2,3],[1]]","12","0","","","","","","4","","","","","","","","",""
"","","","","","single-stim-button","267","421369","0.0-2.0-46.13-0.13","5d8108c0a6d2bf001afdb2d9","A3","batch1","","629","tol_tohand","","","","tol_peg_3","629","629","0","[[2,0,0],[3,0],[0]]","14","[[0,0,0],[2,3],[1]]","12","0","","","","","","4","","","","","","","","",""
"","","","","","single-stim-button","268","421908","0.0-2.0-46.13-1.13","5d8108c0a6d2bf001afdb2d9","A3","batch1","","539","tol_toboard","","","","tol_peg_1","539","539","0","[[2,1,0],[3,0],[0]]","14","[[0,0,0],[2,3],[1]]","12","0","","","","","","4","","","","","","","","",""
"","","","","","single-stim-button","269","422505","0.0-2.0-46.14-0.14","5d8108c0a6d2bf001afdb2d9","A3","batch1","","596","tol_tohand","","","","tol_peg_2","596","596","0","[[2,1,0],[0,0],[0]]","15","[[0,0,0],[2,3],[1]]","12","0","","","","","","4","","","","","","","","",""
"","","","","","single-stim-button","270","422921","0.0-2.0-46.14-1.14","5d8108c0a6d2bf001afdb2d9","A3","batch1","","416","tol_toboard","","","","tol_peg_3","416","416","0","[[2,1,0],[0,0],[3]]","15","[[0,0,0],[2,3],[1]]","12","0","","","","","","4","","","","","","","","",""
"","","","","","single-stim-button","271","424904","0.0-2.0-46.15-0.15","5d8108c0a6d2bf001afdb2d9","A3","batch1","","1983","tol_tohand","","","","tol_peg_1","1983","1983","0","[[2,0,0],[0,0],[3]]","16","[[0,0,0],[2,3],[1]]","12","0","","","","","","4","","","","","","","","",""
"","","","","","single-stim-button","272","425254","0.0-2.0-46.15-1.15","5d8108c0a6d2bf001afdb2d9","A3","batch1","","349","tol_toboard","","","","tol_peg_2","349","349","0","[[2,0,0],[1,0],[3]]","16","[[0,0,0],[2,3],[1]]","12","0","","","","","","4","","","","","","","","",""
"","","","","","single-stim-button","273","427408","0.0-2.0-46.16-0.16","5d8108c0a6d2bf001afdb2d9","A3","batch1","","2154","tol_tohand","","","","tol_peg_1","2154","2154","0","[[0,0,0],[1,0],[3]]","17","[[0,0,0],[2,3],[1]]","12","0","","","","","","4","","","","","","","","",""
"","","","","","single-stim-button","274","428905","0.0-2.0-46.16-1.16","5d8108c0a6d2bf001afdb2d9","A3","batch1","","1495","tol_toboard","","","","tol_peg_2","1495","1495","0","[[0,0,0],[1,2],[3]]","17","[[0,0,0],[2,3],[1]]","12","0","","","","","","4","","","","","","","","",""
"","","","","","single-stim-button","275","429499","0.0-2.0-46.17-0.17","5d8108c0a6d2bf001afdb2d9","A3","batch1","","594","tol_tohand","","","","tol_peg_2","594","594","0","[[0,0,0],[1,0],[3]]","18","[[0,0,0],[2,3],[1]]","12","0","","","","","","4","","","","","","","","",""
"","","","","","single-stim-button","276","430176","0.0-2.0-46.17-1.17","5d8108c0a6d2bf001afdb2d9","A3","batch1","","677","tol_toboard","","","","tol_peg_2","677","677","0","[[0,0,0],[1,2],[3]]","18","[[0,0,0],[2,3],[1]]","12","0","","","","","","4","","","","","","","","",""
"","","","","","single-stim-button","277","430597","0.0-2.0-46.18-0.18","5d8108c0a6d2bf001afdb2d9","A3","batch1","","420","tol_tohand","","","","tol_peg_3","420","420","0","[[0,0,0],[1,2],[0]]","19","[[0,0,0],[2,3],[1]]","12","0","","","","","","4","","","","","","","","",""
"","","","","","single-stim-button","278","430997","0.0-2.0-46.18-1.18","5d8108c0a6d2bf001afdb2d9","A3","batch1","","400","tol_toboard","","","","tol_peg_1","400","400","0","[[3,0,0],[1,2],[0]]","19","[[0,0,0],[2,3],[1]]","12","0","","","","","","4","","","","","","","","",""
"","","","","","single-stim-button","279","431614","0.0-2.0-46.19-0.19","5d8108c0a6d2bf001afdb2d9","A3","batch1","","617","tol_tohand","","","","tol_peg_2","617","617","0","[[3,0,0],[1,0],[0]]","20","[[0,0,0],[2,3],[1]]","12","0","","","","","","4","","","","","","","","",""
"","","","","","single-stim-button","280","431927","0.0-2.0-46.19-1.19","5d8108c0a6d2bf001afdb2d9","A3","batch1","","312","tol_toboard","","","","tol_peg_3","312","312","0","[[3,0,0],[1,0],[2]]","20","[[0,0,0],[2,3],[1]]","12","0","","","","","","4","","","","","","","","",""
"","","","","","single-stim-button","281","433963","0.0-2.0-46.20-0.20","5d8108c0a6d2bf001afdb2d9","A3","batch1","","2035","tol_tohand","","","","tol_peg_2","2035","2035","0","[[3,0,0],[0,0],[2]]","21","[[0,0,0],[2,3],[1]]","12","0","","","","","","4","","","","","","","","",""
"","","","","","single-stim-button","282","434250","0.0-2.0-46.20-1.20","5d8108c0a6d2bf001afdb2d9","A3","batch1","","287","tol_toboard","","","","tol_peg_1","287","287","0","[[3,1,0],[0,0],[2]]","21","[[0,0,0],[2,3],[1]]","12","0","","","","","","4","","","","","","","","",""
"","","","","","single-stim-button","283","434680","0.0-2.0-46.21-0.21","5d8108c0a6d2bf001afdb2d9","A3","batch1","","430","tol_tohand","","","","tol_peg_3","430","430","0","[[3,1,0],[0,0],[0]]","22","[[0,0,0],[2,3],[1]]","12","0","","","","","","4","","","","","","","","",""
"","","","","","single-stim-button","284","434960","0.0-2.0-46.21-1.21","5d8108c0a6d2bf001afdb2d9","A3","batch1","","278","tol_toboard","","","","tol_peg_2","278","278","0","[[3,1,0],[2,0],[0]]","22","[[0,0,0],[2,3],[1]]","12","0","","","","","","4","","","","","","","","",""
"","","","","","single-stim-button","285","435389","0.0-2.0-46.22-0.22","5d8108c0a6d2bf001afdb2d9","A3","batch1","","429","tol_tohand","","","","tol_peg_1","429","429","0","[[3,0,0],[2,0],[0]]","23","[[0,0,0],[2,3],[1]]","12","0","","","","","","4","","","","","","","","",""
"","","","","","single-stim-button","286","435691","0.0-2.0-46.22-1.22","5d8108c0a6d2bf001afdb2d9","A3","batch1","","301","tol_toboard","","","","tol_peg_2","301","301","0","[[3,0,0],[2,1],[0]]","23","[[0,0,0],[2,3],[1]]","12","0","","","","","","4","","","","","","","","",""
"","","","","","single-stim-button","287","437011","0.0-2.0-46.23-0.23","5d8108c0a6d2bf001afdb2d9","A3","batch1","","1320","tol_tohand","","","","tol_peg_2","1320","1320","0","[[3,0,0],[2,0],[0]]","24","[[0,0,0],[2,3],[1]]","12","0","","","","","","4","","","","","","","","",""
"","","","","","single-stim-button","288","437286","0.0-2.0-46.23-1.23","5d8108c0a6d2bf001afdb2d9","A3","batch1","","275","tol_toboard","","","","tol_peg_3","275","275","0","[[3,0,0],[2,0],[1]]","24","[[0,0,0],[2,3],[1]]","12","0","","","","","","4","","","","","","","","",""
"","","","","","single-stim-button","289","437775","0.0-2.0-46.24-0.24","5d8108c0a6d2bf001afdb2d9","A3","batch1","","488","tol_tohand","","","","tol_peg_1","488","488","0","[[0,0,0],[2,0],[1]]","25","[[0,0,0],[2,3],[1]]","12","0","","","","","","4","","","","","","","","",""
"","","","","","single-stim-button","290","438176","0.0-2.0-46.24-1.24","5d8108c0a6d2bf001afdb2d9","A3","batch1","","401","tol_toboard","","","","tol_peg_2","401","401","0","[[0,0,0],[2,3],[1]]","25","[[0,0,0],[2,3],[1]]","12","0","","","","","","4","","","","","","","","",""
"","","","","","poldrack-single-stim","291","439177","0.0-2.0-47.0","5d8108c0a6d2bf001afdb2d9","A3","batch1","","-1","tol_feedback","","","true","","1000","1000","500","","","","","","-1","none","true","2610","28427","","","","","","","","","",""
"","","","","","html-button-response","292","445989","0.0-2.0-48.0","5d8108c0a6d2bf001afdb2d9","A3","batch1","","6810.300000011921","attention_check","<p class = block-text>How many balls are in your board<br></p>","1","true","","","","","","","","","","","","","","","","","","","","","","","",""
"","","","","","html-button-response","293","448773","0.0-2.0-49.0","5d8108c0a6d2bf001afdb2d9","A3","batch1","","2783.100000023842","tol_trial_num","<div class = centerbox><p class = center-block-text>problem <strong>14</strong> out of 25 problems</p></div>","0","","","","","","","","","","","","","","","","","","","","","","","","",""
"","","","","","single-stim-button","294","453115","0.0-2.0-50.0-0.0","5d8108c0a6d2bf001afdb2d9","A3","batch1","","4342","tol_tohand","","","","tol_peg_1","4342","4342","0","[[2,0,0],[3,0],[0]]","1","[[1,2,0],[3,0],[0]]","13","0","","","","","","4","","","","","","","","",""
"","","","","","single-stim-button","295","453376","0.0-2.0-50.0-1.0","5d8108c0a6d2bf001afdb2d9","A3","batch1","","260","tol_toboard","","","","tol_peg_2","260","260","0","[[2,0,0],[3,1],[0]]","1","[[1,2,0],[3,0],[0]]","13","0","","","","","","4","","","","","","","","",""
"","","","","","single-stim-button","296","454522","0.0-2.0-50.1-0.1","5d8108c0a6d2bf001afdb2d9","A3","batch1","","1145","tol_tohand","","","","tol_peg_1","1145","1145","0","[[0,0,0],[3,1],[0]]","2","[[1,2,0],[3,0],[0]]","13","0","","","","","","4","","","","","","","","",""
"","","","","","single-stim-button","297","454877","0.0-2.0-50.1-1.1","5d8108c0a6d2bf001afdb2d9","A3","batch1","","355","tol_toboard","","","","tol_peg_3","355","355","0","[[0,0,0],[3,1],[2]]","2","[[1,2,0],[3,0],[0]]","13","0","","","","","","4","","","","","","","","",""
"","","","","","single-stim-button","298","455209","0.0-2.0-50.2-0.2","5d8108c0a6d2bf001afdb2d9","A3","batch1","","332","tol_tohand","","","","tol_peg_2","332","332","0","[[0,0,0],[3,0],[2]]","3","[[1,2,0],[3,0],[0]]","13","0","","","","","","4","","","","","","","","",""
"","","","","","single-stim-button","299","455487","0.0-2.0-50.2-1.2","5d8108c0a6d2bf001afdb2d9","A3","batch1","","278","tol_toboard","","","","tol_peg_1","278","278","0","[[1,0,0],[3,0],[2]]","3","[[1,2,0],[3,0],[0]]","13","0","","","","","","4","","","","","","","","",""
"","","","","","single-stim-button","300","455833","0.0-2.0-50.3-0.3","5d8108c0a6d2bf001afdb2d9","A3","batch1","","346","tol_tohand","","","","tol_peg_3","346","346","0","[[1,0,0],[3,0],[0]]","4","[[1,2,0],[3,0],[0]]","13","0","","","","","","4","","","","","","","","",""
"","","","","","single-stim-button","301","456156","0.0-2.0-50.3-1.3","5d8108c0a6d2bf001afdb2d9","A3","batch1","","322","tol_toboard","","","","tol_peg_1","322","322","0","[[1,2,0],[3,0],[0]]","4","[[1,2,0],[3,0],[0]]","13","0","","","","","","4","","","","","","","","",""
"","","","","","poldrack-single-stim","302","457156","0.0-2.0-51.0","5d8108c0a6d2bf001afdb2d9","A3","batch1","","-1","tol_feedback","","","true","","1000","1000","500","","","","","","-1","none","true","4342","6165","","","","","","","","","",""
"","","","","","html-button-response","303","457634","0.0-2.0-52.0","5d8108c0a6d2bf001afdb2d9","A3","batch1","","477","tol_trial_num","<div class = centerbox><p class = center-block-text>problem <strong>15</strong> out of 25 problems</p></div>","0","","","","","","","","","","","","","","","","","","","","","","","","",""
"","","","","","single-stim-button","304","460684","0.0-2.0-53.0-0.0","5d8108c0a6d2bf001afdb2d9","A3","batch1","","3049","tol_tohand","","","","tol_peg_1","3049","3049","0","[[1,0,0],[3,0],[0]]","1","[[2,0,0],[3,0],[1]]","14","0","","","","","","3","","","","","","","","",""
"","","","","","single-stim-button","305","460944","0.0-2.0-53.0-1.0","5d8108c0a6d2bf001afdb2d9","A3","batch1","","260","tol_toboard","","","","tol_peg_2","260","260","0","[[1,0,0],[3,2],[0]]","1","[[2,0,0],[3,0],[1]]","14","0","","","","","","3","","","","","","","","",""
"","","","","","single-stim-button","306","461231","0.0-2.0-53.1-0.1","5d8108c0a6d2bf001afdb2d9","A3","batch1","","286","tol_tohand","","","","tol_peg_1","286","286","0","[[0,0,0],[3,2],[0]]","2","[[2,0,0],[3,0],[1]]","14","0","","","","","","3","","","","","","","","",""
"","","","","","single-stim-button","307","461538","0.0-2.0-53.1-1.1","5d8108c0a6d2bf001afdb2d9","A3","batch1","","306","tol_toboard","","","","tol_peg_3","306","306","0","[[0,0,0],[3,2],[1]]","2","[[2,0,0],[3,0],[1]]","14","0","","","","","","3","","","","","","","","",""
"","","","","","single-stim-button","308","461865","0.0-2.0-53.2-0.2","5d8108c0a6d2bf001afdb2d9","A3","batch1","","327","tol_tohand","","","","tol_peg_2","327","327","0","[[0,0,0],[3,0],[1]]","3","[[2,0,0],[3,0],[1]]","14","0","","","","","","3","","","","","","","","",""
"","","","","","single-stim-button","309","462155","0.0-2.0-53.2-1.2","5d8108c0a6d2bf001afdb2d9","A3","batch1","","289","tol_toboard","","","","tol_peg_1","289","289","0","[[2,0,0],[3,0],[1]]","3","[[2,0,0],[3,0],[1]]","14","0","","","","","","3","","","","","","","","",""
"","","","","","poldrack-single-stim","310","463157","0.0-2.0-54.0","5d8108c0a6d2bf001afdb2d9","A3","batch1","","-1","tol_feedback","","","true","","1000","1000","500","","","","","","-1","none","true","3049","3662","","","","","","","","","",""
"","","","","","html-button-response","311","463642","0.0-2.0-55.0","5d8108c0a6d2bf001afdb2d9","A3","batch1","","484.5","tol_trial_num","<div class = centerbox><p class = center-block-text>problem <strong>16</strong> out of 25 problems</p></div>","0","","","","","","","","","","","","","","","","","","","","","","","","",""
"","","","","","single-stim-button","312","467756","0.0-2.0-56.0-0.0","5d8108c0a6d2bf001afdb2d9","A3","batch1","","4114","tol_tohand","","","","tol_peg_2","4114","4114","0","[[0,0,0],[2,0],[1]]","1","[[2,3,0],[1,0],[0]]","15","0","","","","","","7","","","","","","","","",""
"","","","","","single-stim-button","313","468419","0.0-2.0-56.0-1.0","5d8108c0a6d2bf001afdb2d9","A3","batch1","","663","tol_toboard","","","","tol_peg_2","663","663","0","[[0,0,0],[2,3],[1]]","1","[[2,3,0],[1,0],[0]]","15","0","","","","","","7","","","","","","","","",""
"","","","","","single-stim-button","314","470050","0.0-2.0-56.1-0.1","5d8108c0a6d2bf001afdb2d9","A3","batch1","","1631","tol_tohand","","","","tol_peg_3","1631","1631","0","[[0,0,0],[2,3],[0]]","2","[[2,3,0],[1,0],[0]]","15","0","","","","","","7","","","","","","","","",""
"","","","","","single-stim-button","315","470355","0.0-2.0-56.1-1.1","5d8108c0a6d2bf001afdb2d9","A3","batch1","","304","tol_toboard","","","","tol_peg_1","304","304","0","[[1,0,0],[2,3],[0]]","2","[[2,3,0],[1,0],[0]]","15","0","","","","","","7","","","","","","","","",""
"","","","","","single-stim-button","316","470722","0.0-2.0-56.2-0.2","5d8108c0a6d2bf001afdb2d9","A3","batch1","","367","tol_tohand","","","","tol_peg_2","367","367","0","[[1,0,0],[2,0],[0]]","3","[[2,3,0],[1,0],[0]]","15","0","","","","","","7","","","","","","","","",""
"","","","","","single-stim-button","317","471183","0.0-2.0-56.2-1.2","5d8108c0a6d2bf001afdb2d9","A3","batch1","","460","tol_toboard","","","","tol_peg_3","460","460","0","[[1,0,0],[2,0],[3]]","3","[[2,3,0],[1,0],[0]]","15","0","","","","","","7","","","","","","","","",""
"","","","","","single-stim-button","318","471982","0.0-2.0-56.3-0.3","5d8108c0a6d2bf001afdb2d9","A3","batch1","","799","tol_tohand","","","","tol_peg_2","799","799","0","[[1,0,0],[0,0],[3]]","4","[[2,3,0],[1,0],[0]]","15","0","","","","","","7","","","","","","","","",""
"","","","","","single-stim-button","319","472992","0.0-2.0-56.3-1.3","5d8108c0a6d2bf001afdb2d9","A3","batch1","","1010","tol_toboard","","","","tol_peg_2","1010","1010","0","[[1,0,0],[2,0],[3]]","4","[[2,3,0],[1,0],[0]]","15","0","","","","","","7","","","","","","","","",""
"","","","","","single-stim-button","320","475947","0.0-2.0-56.4-0.4","5d8108c0a6d2bf001afdb2d9","A3","batch1","","2954","tol_tohand","","","","tol_peg_3","2954","2954","0","[[1,0,0],[2,0],[0]]","5","[[2,3,0],[1,0],[0]]","15","0","","","","","","7","","","","","","","","",""
"","","","","","single-stim-button","321","477613","0.0-2.0-56.4-1.4","5d8108c0a6d2bf001afdb2d9","A3","batch1","","1666","tol_toboard","","","","tol_peg_2","1666","1666","0","[[1,0,0],[2,3],[0]]","5","[[2,3,0],[1,0],[0]]","15","0","","","","","","7","","","","","","","","",""
"","","","","","single-stim-button","322","478252","0.0-2.0-56.5-0.5","5d8108c0a6d2bf001afdb2d9","A3","batch1","","639","tol_tohand","","","","tol_peg_1","639","639","0","[[0,0,0],[2,3],[0]]","6","[[2,3,0],[1,0],[0]]","15","0","","","","","","7","","","","","","","","",""
"","","","","","single-stim-button","323","479354","0.0-2.0-56.5-1.5","5d8108c0a6d2bf001afdb2d9","A3","batch1","","1102","tol_toboard","","","","tol_peg_3","1102","1102","0","[[0,0,0],[2,3],[1]]","6","[[2,3,0],[1,0],[0]]","15","0","","","","","","7","","","","","","","","",""
"","","","","","single-stim-button","324","481131","0.0-2.0-56.6-0.6","5d8108c0a6d2bf001afdb2d9","A3","batch1","","1776","tol_tohand","","","","tol_peg_2","1776","1776","0","[[0,0,0],[2,0],[1]]","7","[[2,3,0],[1,0],[0]]","15","0","","","","","","7","","","","","","","","",""
"","","","","","single-stim-button","325","481629","0.0-2.0-56.6-1.6","5d8108c0a6d2bf001afdb2d9","A3","batch1","","498","tol_toboard","","","","tol_peg_1","498","498","0","[[3,0,0],[2,0],[1]]","7","[[2,3,0],[1,0],[0]]","15","0","","","","","","7","","","","","","","","",""
"","","","","","single-stim-button","326","481974","0.0-2.0-56.7-0.7","5d8108c0a6d2bf001afdb2d9","A3","batch1","","345","tol_tohand","","","","tol_peg_2","345","345","0","[[3,0,0],[0,0],[1]]","8","[[2,3,0],[1,0],[0]]","15","0","","","","","","7","","","","","","","","",""
"","","","","","single-stim-button","327","482306","0.0-2.0-56.7-1.7","5d8108c0a6d2bf001afdb2d9","A3","batch1","","332","tol_toboard","","","","tol_peg_1","332","332","0","[[3,2,0],[0,0],[1]]","8","[[2,3,0],[1,0],[0]]","15","0","","","","","","7","","","","","","","","",""
"","","","","","single-stim-button","328","482872","0.0-2.0-56.8-0.8","5d8108c0a6d2bf001afdb2d9","A3","batch1","","564","tol_tohand","","","","tol_peg_1","564","564","0","[[3,0,0],[0,0],[1]]","9","[[2,3,0],[1,0],[0]]","15","0","","","","","","7","","","","","","","","",""
"","","","","","single-stim-button","329","483227","0.0-2.0-56.8-1.8","5d8108c0a6d2bf001afdb2d9","A3","batch1","","355","tol_toboard","","","","tol_peg_2","355","355","0","[[3,0,0],[2,0],[1]]","9","[[2,3,0],[1,0],[0]]","15","0","","","","","","7","","","","","","","","",""
"","","","","","single-stim-button","330","483613","0.0-2.0-56.9-0.9","5d8108c0a6d2bf001afdb2d9","A3","batch1","","384","tol_tohand","","","","tol_peg_1","384","384","0","[[0,0,0],[2,0],[1]]","10","[[2,3,0],[1,0],[0]]","15","0","","","","","","7","","","","","","","","",""
"","","","","","single-stim-button","331","486363","0.0-2.0-56.9-1.9","5d8108c0a6d2bf001afdb2d9","A3","batch1","","2750","tol_toboard","","","","tol_peg_2","2750","2750","0","[[0,0,0],[2,3],[1]]","10","[[2,3,0],[1,0],[0]]","15","0","","","","","","7","","","","","","","","",""
"","","","","","single-stim-button","332","488580","0.0-2.0-56.10-0.10","5d8108c0a6d2bf001afdb2d9","A3","batch1","","2217","tol_tohand","","","","tol_peg_3","2217","2217","0","[[0,0,0],[2,3],[0]]","11","[[2,3,0],[1,0],[0]]","15","0","","","","","","7","","","","","","","","",""
"","","","","","single-stim-button","333","488931","0.0-2.0-56.10-1.10","5d8108c0a6d2bf001afdb2d9","A3","batch1","","351","tol_toboard","","","","tol_peg_1","351","351","0","[[1,0,0],[2,3],[0]]","11","[[2,3,0],[1,0],[0]]","15","0","","","","","","7","","","","","","","","",""
"","","","","","single-stim-button","334","489658","0.0-2.0-56.11-0.11","5d8108c0a6d2bf001afdb2d9","A3","batch1","","726","tol_tohand","","","","tol_peg_2","726","726","0","[[1,0,0],[2,0],[0]]","12","[[2,3,0],[1,0],[0]]","15","0","","","","","","7","","","","","","","","",""
"","","","","","single-stim-button","335","489890","0.0-2.0-56.11-1.11","5d8108c0a6d2bf001afdb2d9","A3","batch1","","231","tol_toboard","","","","tol_peg_1","231","231","0","[[1,3,0],[2,0],[0]]","12","[[2,3,0],[1,0],[0]]","15","0","","","","","","7","","","","","","","","",""
"","","","","","single-stim-button","336","490253","0.0-2.0-56.12-0.12","5d8108c0a6d2bf001afdb2d9","A3","batch1","","363","tol_tohand","","","","tol_peg_2","363","363","0","[[1,3,0],[0,0],[0]]","13","[[2,3,0],[1,0],[0]]","15","0","","","","","","7","","","","","","","","",""
"","","","","","single-stim-button","337","490566","0.0-2.0-56.12-1.12","5d8108c0a6d2bf001afdb2d9","A3","batch1","","313","tol_toboard","","","","tol_peg_1","313","313","0","[[1,3,2],[0,0],[0]]","13","[[2,3,0],[1,0],[0]]","15","0","","","","","","7","","","","","","","","",""
"","","","","","single-stim-button","338","494006","0.0-2.0-56.13-0.13","5d8108c0a6d2bf001afdb2d9","A3","batch1","","3440","tol_tohand","","","","tol_peg_1","3440","3440","0","[[1,3,0],[0,0],[0]]","14","[[2,3,0],[1,0],[0]]","15","0","","","","","","7","","","","","","","","",""
"","","","","","single-stim-button","339","494454","0.0-2.0-56.13-1.13","5d8108c0a6d2bf001afdb2d9","A3","batch1","","447","tol_toboard","","","","tol_peg_3","447","447","0","[[1,3,0],[0,0],[2]]","14","[[2,3,0],[1,0],[0]]","15","0","","","","","","7","","","","","","","","",""
"","","","","","single-stim-button","340","495033","0.0-2.0-56.14-0.14","5d8108c0a6d2bf001afdb2d9","A3","batch1","","578","tol_tohand","","","","tol_peg_1","578","578","0","[[1,0,0],[0,0],[2]]","15","[[2,3,0],[1,0],[0]]","15","0","","","","","","7","","","","","","","","",""
"","","","","","single-stim-button","341","495296","0.0-2.0-56.14-1.14","5d8108c0a6d2bf001afdb2d9","A3","batch1","","263","tol_toboard","","","","tol_peg_2","263","263","0","[[1,0,0],[3,0],[2]]","15","[[2,3,0],[1,0],[0]]","15","0","","","","","","7","","","","","","","","",""
"","","","","","single-stim-button","342","495707","0.0-2.0-56.15-0.15","5d8108c0a6d2bf001afdb2d9","A3","batch1","","411","tol_tohand","","","","tol_peg_1","411","411","0","[[0,0,0],[3,0],[2]]","16","[[2,3,0],[1,0],[0]]","15","0","","","","","","7","","","","","","","","",""
"","","","","","single-stim-button","343","496006","0.0-2.0-56.15-1.15","5d8108c0a6d2bf001afdb2d9","A3","batch1","","299","tol_toboard","","","","tol_peg_2","299","299","0","[[0,0,0],[3,1],[2]]","16","[[2,3,0],[1,0],[0]]","15","0","","","","","","7","","","","","","","","",""
"","","","","","single-stim-button","344","496355","0.0-2.0-56.16-0.16","5d8108c0a6d2bf001afdb2d9","A3","batch1","","349","tol_tohand","","","","tol_peg_3","349","349","0","[[0,0,0],[3,1],[0]]","17","[[2,3,0],[1,0],[0]]","15","0","","","","","","7","","","","","","","","",""
"","","","","","single-stim-button","345","496680","0.0-2.0-56.16-1.16","5d8108c0a6d2bf001afdb2d9","A3","batch1","","325","tol_toboard","","","","tol_peg_1","325","325","0","[[2,0,0],[3,1],[0]]","17","[[2,3,0],[1,0],[0]]","15","0","","","","","","7","","","","","","","","",""
"","","","","","single-stim-button","346","498174","0.0-2.0-56.17-0.17","5d8108c0a6d2bf001afdb2d9","A3","batch1","","1493","tol_tohand","","","","tol_peg_2","1493","1493","0","[[2,0,0],[3,0],[0]]","18","[[2,3,0],[1,0],[0]]","15","0","","","","","","7","","","","","","","","",""
"","","","","","single-stim-button","347","498607","0.0-2.0-56.17-1.17","5d8108c0a6d2bf001afdb2d9","A3","batch1","","432","tol_toboard","","","","tol_peg_3","432","432","0","[[2,0,0],[3,0],[1]]","18","[[2,3,0],[1,0],[0]]","15","0","","","","","","7","","","","","","","","",""
"","","","","","single-stim-button","348","499167","0.0-2.0-56.18-0.18","5d8108c0a6d2bf001afdb2d9","A3","batch1","","560","tol_tohand","","","","tol_peg_2","560","560","0","[[2,0,0],[0,0],[1]]","19","[[2,3,0],[1,0],[0]]","15","0","","","","","","7","","","","","","","","",""
"","","","","","single-stim-button","349","499439","0.0-2.0-56.18-1.18","5d8108c0a6d2bf001afdb2d9","A3","batch1","","272","tol_toboard","","","","tol_peg_1","272","272","0","[[2,3,0],[0,0],[1]]","19","[[2,3,0],[1,0],[0]]","15","0","","","","","","7","","","","","","","","",""
"","","","","","single-stim-button","350","499799","0.0-2.0-56.19-0.19","5d8108c0a6d2bf001afdb2d9","A3","batch1","","360","tol_tohand","","","","tol_peg_3","360","360","0","[[2,3,0],[0,0],[0]]","20","[[2,3,0],[1,0],[0]]","15","0","","","","","","7","","","","","","","","",""
"","","","","","single-stim-button","351","500073","0.0-2.0-56.19-1.19","5d8108c0a6d2bf001afdb2d9","A3","batch1","","274","tol_toboard","","","","tol_peg_2","274","274","0","[[2,3,0],[1,0],[0]]","20","[[2,3,0],[1,0],[0]]","15","0","","","","","","7","","","","","","","","",""
"","","","","","poldrack-single-stim","352","501076","0.0-2.0-57.0","5d8108c0a6d2bf001afdb2d9","A3","batch1","","-1","tol_feedback","","","true","","1000","1000","500","","","","","","-1","none","true","4114","24070","","","","","","","","","",""
"","","","","","html-button-response","353","501615","0.0-2.0-58.0","5d8108c0a6d2bf001afdb2d9","A3","batch1","","538","tol_trial_num","<div class = centerbox><p class = center-block-text>problem <strong>17</strong> out of 25 problems</p></div>","0","","","","","","","","","","","","","","","","","","","","","","","","",""
