"success","timeout","failed_images","failed_audio","failed_video","trial_type","trial_index","time_elapsed","internal_node_id","subject_id","study_id","session_id","task","rt","stimulus","response","item","answer","correct","spm_correct","spm_rt","view_history","fiar_detect_rt","fiar_detect_correct","total_correct_fiar_detect","post_trial_gap","choices","mouse_click","stim_duration","block_duration","timing_post_trial","current_position","tol_num_moves_made","tol_target","tol_problem_id","tol_rt","key_press","possible_responses","tol_correct","preplanning","tol_rt_per_trial","tol_min_moves"
"true","false","[]","[]","[]","preload","0","1317","0.0-0.0","5d9eb6d611b7c400172aa975","A3","batch1","","","","","","","","","","","","","","","","","","","","","","","","","","","","","",""
"true","","","","","fullscreen","1","43587","0.0-1.0-0.0","5d9eb6d611b7c400172aa975","A3","batch1","","","","","","","","","","","","","","","","","","","","","","","","","","","","","",""
"true","","","","","fullscreen","2","47227","0.0-2.0-0.0","5d9eb6d611b7c400172aa975","A3","batch1","spm_fullscreen","","","","","","","","","","","","","","","","","","","","","","","","","","","","",""
"","","","","","html-button-response","3","56795","0.0-2.0-1.0","5d9eb6d611b7c400172aa975","A3","batch1","","9567","<p class = block-text><b>Instructions</b> <br>This is a widely used intelligence test in research. <br>In this test, a figure with a missing piece will be presented.<br>Below the figure are alternative pieces to complete the figure, only one of which is correct.<br> Different figures might involve different principles for obtaining the missing piece<br>Your job is to select the most logical piece to complete the figure.</p>","0","","","","","","","","","","","","","","","","","","","","","","","","","",""
"","","","","","html-keyboard-response","4","57598","0.0-2.0-2.0-0.0","5d9eb6d611b7c400172aa975","A3","batch1","spm_show_trial_num","null","<p class=block-text>Trial 1 out of 60</p>","null","","","","","","","","","","","","","","","","","","","","","","","","","",""
"","","","","","image-button-response","5","70575","0.0-2.0-2.0-1.0","5d9eb6d611b7c400172aa975","A3","batch1","spm_respsonse","12970.60000000149","img/question_1_1.jpeg","5","mat_01","4","0","0","12970.60000000149","","","","","","","","","","","","","","","","","","","","",""
"","","","","","html-keyboard-response","6","71628","0.0-2.0-2.0-0.1","5d9eb6d611b7c400172aa975","A3","batch1","spm_show_trial_num","null","<p class=block-text>Trial 2 out of 60</p>","null","","","","","","","","","","","","","","","","","","","","","","","","","",""
"","","","","","image-button-response","7","75386","0.0-2.0-2.0-1.1","5d9eb6d611b7c400172aa975","A3","batch1","spm_respsonse","3756.599999997765","img/question_1_2.jpeg","4","mat_02","5","1","1","3756.599999997765","","","","","","","","","","","","","","","","","","","","",""
"","","","","","html-keyboard-response","8","76448","0.0-2.0-2.0-0.2","5d9eb6d611b7c400172aa975","A3","batch1","spm_show_trial_num","null","<p class=block-text>Trial 3 out of 60</p>","null","","","","","","","","","","","","","","","","","","","","","","","","","",""
"","","","","","image-button-response","9","80140","0.0-2.0-2.0-1.2","5d9eb6d611b7c400172aa975","A3","batch1","spm_respsonse","3690.099999997765","img/question_1_3.jpeg","0","mat_03","1","1","1","3690.099999997765","","","","","","","","","","","","","","","","","","","","",""
"","","","","","html-keyboard-response","10","81195","0.0-2.0-2.0-0.3","5d9eb6d611b7c400172aa975","A3","batch1","spm_show_trial_num","null","<p class=block-text>Trial 4 out of 60</p>","null","","","","","","","","","","","","","","","","","","","","","","","","","",""
"","","","","","image-button-response","11","84804","0.0-2.0-2.0-1.3","5d9eb6d611b7c400172aa975","A3","batch1","spm_respsonse","3607.2000000029802","img/question_1_4.jpeg","1","mat_04","2","1","1","3607.2000000029802","","","","","","","","","","","","","","","","","","","","",""
"","","","","","html-keyboard-response","12","85864","0.0-2.0-2.0-0.4","5d9eb6d611b7c400172aa975","A3","batch1","spm_show_trial_num","null","<p class=block-text>Trial 5 out of 60</p>","null","","","","","","","","","","","","","","","","","","","","","","","","","",""
"","","","","","image-button-response","13","91565","0.0-2.0-2.0-1.4","5d9eb6d611b7c400172aa975","A3","batch1","spm_respsonse","5698.300000000745","img/question_1_5.jpeg","5","mat_05","6","1","1","5698.300000000745","","","","","","","","","","","","","","","","","","","","",""
"","","","","","html-keyboard-response","14","92631","0.0-2.0-2.0-0.5","5d9eb6d611b7c400172aa975","A3","batch1","spm_show_trial_num","null","<p class=block-text>Trial 6 out of 60</p>","null","","","","","","","","","","","","","","","","","","","","","","","","","",""
"","","","","","image-button-response","15","96916","0.0-2.0-2.0-1.5","5d9eb6d611b7c400172aa975","A3","batch1","spm_respsonse","4283.300000000745","img/question_1_6.jpeg","2","mat_06","3","1","1","4283.300000000745","","","","","","","","","","","","","","","","","","","","",""
"","","","","","html-keyboard-response","16","97980","0.0-2.0-2.0-0.6","5d9eb6d611b7c400172aa975","A3","batch1","spm_show_trial_num","null","<p class=block-text>Trial 7 out of 60</p>","null","","","","","","","","","","","","","","","","","","","","","","","","","",""
"","","","","","image-button-response","17","103705","0.0-2.0-2.0-1.6","5d9eb6d611b7c400172aa975","A3","batch1","spm_respsonse","5722.70000000298","img/question_1_7.jpeg","5","mat_07","6","1","1","5722.70000000298","","","","","","","","","","","","","","","","","","","","",""
"","","","","","html-keyboard-response","18","104767","0.0-2.0-2.0-0.7","5d9eb6d611b7c400172aa975","A3","batch1","spm_show_trial_num","null","<p class=block-text>Trial 8 out of 60</p>","null","","","","","","","","","","","","","","","","","","","","","","","","","",""
"","","","","","image-button-response","19","111070","0.0-2.0-2.0-1.7","5d9eb6d611b7c400172aa975","A3","batch1","spm_respsonse","6301.10000000149","img/question_1_8.jpeg","1","mat_08","2","1","1","6301.10000000149","","","","","","","","","","","","","","","","","","","","",""
"","","","","","html-keyboard-response","20","112130","0.0-2.0-2.0-0.8","5d9eb6d611b7c400172aa975","A3","batch1","spm_show_trial_num","null","<p class=block-text>Trial 9 out of 60</p>","null","","","","","","","","","","","","","","","","","","","","","","","","","",""
"","","","","","image-button-response","21","117361","0.0-2.0-2.0-1.8","5d9eb6d611b7c400172aa975","A3","batch1","spm_respsonse","5228.699999999255","img/question_1_9.jpeg","0","mat_09","1","1","1","5228.699999999255","","","","","","","","","","","","","","","","","","","","",""
"","","","","","html-keyboard-response","22","118413","0.0-2.0-2.0-0.9","5d9eb6d611b7c400172aa975","A3","batch1","spm_show_trial_num","null","<p class=block-text>Trial 10 out of 60</p>","null","","","","","","","","","","","","","","","","","","","","","","","","","",""
"","","","","","image-button-response","23","123799","0.0-2.0-2.0-1.9","5d9eb6d611b7c400172aa975","A3","batch1","spm_respsonse","5384.099999997765","img/question_1_10.jpeg","2","mat_10","3","1","1","5384.099999997765","","","","","","","","","","","","","","","","","","","","",""
"","","","","","html-keyboard-response","24","124864","0.0-2.0-2.0-0.10","5d9eb6d611b7c400172aa975","A3","batch1","spm_show_trial_num","null","<p class=block-text>Trial 11 out of 60</p>","null","","","","","","","","","","","","","","","","","","","","","","","","","",""
"","","","","","image-button-response","25","133853","0.0-2.0-2.0-1.10","5d9eb6d611b7c400172aa975","A3","batch1","spm_respsonse","8987.099999997765","img/question_1_11.jpeg","3","mat_11","4","1","1","8987.099999997765","","","","","","","","","","","","","","","","","","","","",""
"","","","","","html-keyboard-response","26","134915","0.0-2.0-2.0-0.11","5d9eb6d611b7c400172aa975","A3","batch1","spm_show_trial_num","null","<p class=block-text>Trial 12 out of 60</p>","null","","","","","","","","","","","","","","","","","","","","","","","","","",""
"","","","","","image-button-response","27","155302","0.0-2.0-2.0-1.11","5d9eb6d611b7c400172aa975","A3","batch1","spm_respsonse","20385.60000000149","img/question_1_12.jpeg","4","mat_12","5","1","1","20385.60000000149","","","","","","","","","","","","","","","","","","","","",""
"","","","","","html-keyboard-response","28","156364","0.0-2.0-2.0-0.12","5d9eb6d611b7c400172aa975","A3","batch1","spm_show_trial_num","null","<p class=block-text>Trial 13 out of 60</p>","null","","","","","","","","","","","","","","","","","","","","","","","","","",""
"","","","","","image-button-response","29","159778","0.0-2.0-2.0-1.12","5d9eb6d611b7c400172aa975","A3","batch1","spm_respsonse","3411.5","img/question_2_1.jpeg","1","mat_13","2","1","1","3411.5","","","","","","","","","","","","","","","","","","","","",""
"","","","","","html-keyboard-response","30","160847","0.0-2.0-2.0-0.13","5d9eb6d611b7c400172aa975","A3","batch1","spm_show_trial_num","null","<p class=block-text>Trial 14 out of 60</p>","null","","","","","","","","","","","","","","","","","","","","","","","","","",""
"","","","","","image-button-response","31","170627","0.0-2.0-2.0-1.13","5d9eb6d611b7c400172aa975","A3","batch1","spm_respsonse","9778.199999999255","img/question_2_2.jpeg","5","mat_14","6","1","1","9778.199999999255","","","","","","","","","","","","","","","","","","","","",""
"","","","","","html-keyboard-response","32","171699","0.0-2.0-2.0-0.14","5d9eb6d611b7c400172aa975","A3","batch1","spm_show_trial_num","null","<p class=block-text>Trial 15 out of 60</p>","null","","","","","","","","","","","","","","","","","","","","","","","","","",""
"","","","","","image-button-response","33","175150","0.0-2.0-2.0-1.14","5d9eb6d611b7c400172aa975","A3","batch1","spm_respsonse","3448.5","img/question_2_3.jpeg","0","mat_15","1","1","1","3448.5","","","","","","","","","","","","","","","","","","","","",""
"","","","","","html-keyboard-response","34","176211","0.0-2.0-2.0-0.15","5d9eb6d611b7c400172aa975","A3","batch1","spm_show_trial_num","null","<p class=block-text>Trial 16 out of 60</p>","null","","","","","","","","","","","","","","","","","","","","","","","","","",""
"","","","","","image-button-response","35","179688","0.0-2.0-2.0-1.15","5d9eb6d611b7c400172aa975","A3","batch1","spm_respsonse","3475.199999999255","img/question_2_4.jpeg","1","mat_16","2","1","1","3475.199999999255","","","","","","","","","","","","","","","","","","","","",""
"","","","","","html-keyboard-response","36","180748","0.0-2.0-2.0-0.16","5d9eb6d611b7c400172aa975","A3","batch1","spm_show_trial_num","null","<p class=block-text>Trial 17 out of 60</p>","null","","","","","","","","","","","","","","","","","","","","","","","","","",""
"","","","","","image-button-response","37","185302","0.0-2.0-2.0-1.16","5d9eb6d611b7c400172aa975","A3","batch1","spm_respsonse","4552.10000000149","img/question_2_5.jpeg","0","mat_17","1","1","1","4552.10000000149","","","","","","","","","","","","","","","","","","","","",""
"","","","","","html-keyboard-response","38","186364","0.0-2.0-2.0-0.17","5d9eb6d611b7c400172aa975","A3","batch1","spm_show_trial_num","null","<p class=block-text>Trial 18 out of 60</p>","null","","","","","","","","","","","","","","","","","","","","","","","","","",""
"","","","","","image-button-response","39","193056","0.0-2.0-2.0-1.17","5d9eb6d611b7c400172aa975","A3","batch1","spm_respsonse","6690","img/question_2_6.jpeg","2","mat_18","3","1","1","6690","","","","","","","","","","","","","","","","","","","","",""
"","","","","","html-keyboard-response","40","194113","0.0-2.0-2.0-0.18","5d9eb6d611b7c400172aa975","A3","batch1","spm_show_trial_num","null","<p class=block-text>Trial 19 out of 60</p>","null","","","","","","","","","","","","","","","","","","","","","","","","","",""
"","","","","","image-button-response","41","200148","0.0-2.0-2.0-1.18","5d9eb6d611b7c400172aa975","A3","batch1","spm_respsonse","6032.300000000745","img/question_2_7.jpeg","4","mat_19","5","1","1","6032.300000000745","","","","","","","","","","","","","","","","","","","","",""
"","","","","","html-keyboard-response","42","201216","0.0-2.0-2.0-0.19","5d9eb6d611b7c400172aa975","A3","batch1","spm_show_trial_num","null","<p class=block-text>Trial 20 out of 60</p>","null","","","","","","","","","","","","","","","","","","","","","","","","","",""
"","","","","","image-button-response","43","210443","0.0-2.0-2.0-1.19","5d9eb6d611b7c400172aa975","A3","batch1","spm_respsonse","9224.60000000149","img/question_2_8.jpeg","5","mat_20","6","1","1","9224.60000000149","","","","","","","","","","","","","","","","","","","","",""
"","","","","","html-keyboard-response","44","211516","0.0-2.0-2.0-0.20","5d9eb6d611b7c400172aa975","A3","batch1","spm_show_trial_num","null","<p class=block-text>Trial 21 out of 60</p>","null","","","","","","","","","","","","","","","","","","","","","","","","","",""
"","","","","","image-button-response","45","217163","0.0-2.0-2.0-1.20","5d9eb6d611b7c400172aa975","A3","batch1","spm_respsonse","5644.300000000745","img/question_2_9.jpeg","3","mat_21","4","1","1","5644.300000000745","","","","","","","","","","","","","","","","","","","","",""
"","","","","","html-keyboard-response","46","218232","0.0-2.0-2.0-0.21","5d9eb6d611b7c400172aa975","A3","batch1","spm_show_trial_num","null","<p class=block-text>Trial 22 out of 60</p>","null","","","","","","","","","","","","","","","","","","","","","","","","","",""
"","","","","","image-button-response","47","229112","0.0-2.0-2.0-1.21","5d9eb6d611b7c400172aa975","A3","batch1","spm_respsonse","10878.300000000745","img/question_2_10.jpeg","2","mat_22","3","1","1","10878.300000000745","","","","","","","","","","","","","","","","","","","","",""
"","","","","","html-keyboard-response","48","230180","0.0-2.0-2.0-0.22","5d9eb6d611b7c400172aa975","A3","batch1","spm_show_trial_num","null","<p class=block-text>Trial 23 out of 60</p>","null","","","","","","","","","","","","","","","","","","","","","","","","","",""
"","","","","","image-button-response","49","239338","0.0-2.0-2.0-1.22","5d9eb6d611b7c400172aa975","A3","batch1","spm_respsonse","9156.699999999255","img/question_2_11.jpeg","3","mat_23","4","1","1","9156.699999999255","","","","","","","","","","","","","","","","","","","","",""
"","","","","","html-keyboard-response","50","240397","0.0-2.0-2.0-0.23","5d9eb6d611b7c400172aa975","A3","batch1","spm_show_trial_num","null","<p class=block-text>Trial 24 out of 60</p>","null","","","","","","","","","","","","","","","","","","","","","","","","","",""
"","","","","","image-button-response","51","254899","0.0-2.0-2.0-1.23","5d9eb6d611b7c400172aa975","A3","batch1","spm_respsonse","14500.60000000149","img/question_2_12.jpeg","4","mat_24","5","1","1","14500.60000000149","","","","","","","","","","","","","","","","","","","","",""
"","","","","","html-button-response","52","257447","0.0-2.0-3.0","5d9eb6d611b7c400172aa975","A3","batch1","attention_check","2288.10000000149","<p class = block-text>Attention check: Please choose 1<br></p>","0","","","true","","","","","","","","","","","","","","","","","","","","","","",""
"","","","","","html-keyboard-response","53","258261","0.0-2.0-4.0-0.0","5d9eb6d611b7c400172aa975","A3","batch1","spm_show_trial_num","null","<p class=block-text>Trial 25 out of 60</p>","null","","","","","","","","","","","","","","","","","","","","","","","","","",""
"","","","","","image-button-response","54","266152","0.0-2.0-4.0-1.0","5d9eb6d611b7c400172aa975","A3","batch1","spm_respsonse","7888.10000000149","img/question_3_1.jpeg","7","mat_25","8","1","1","7888.10000000149","","","","","","","","","","","","","","","","","","","","",""
"","","","","","html-keyboard-response","55","267213","0.0-2.0-4.0-0.1","5d9eb6d611b7c400172aa975","A3","batch1","spm_show_trial_num","null","<p class=block-text>Trial 26 out of 60</p>","null","","","","","","","","","","","","","","","","","","","","","","","","","",""
"","","","","","image-button-response","56","275335","0.0-2.0-4.0-1.1","5d9eb6d611b7c400172aa975","A3","batch1","spm_respsonse","8119.699999999255","img/question_3_2.jpeg","1","mat_26","2","1","1","8119.699999999255","","","","","","","","","","","","","","","","","","","","",""
"","","","","","html-keyboard-response","57","276396","0.0-2.0-4.0-0.2","5d9eb6d611b7c400172aa975","A3","batch1","spm_show_trial_num","null","<p class=block-text>Trial 27 out of 60</p>","null","","","","","","","","","","","","","","","","","","","","","","","","","",""
"","","","","","image-button-response","58","305332","0.0-2.0-4.0-1.2","5d9eb6d611b7c400172aa975","A3","batch1","spm_respsonse","28934.5","img/question_3_3.jpeg","2","mat_27","3","1","1","28934.5","","","","","","","","","","","","","","","","","","","","",""
"","","","","","html-keyboard-response","59","306397","0.0-2.0-4.0-0.3","5d9eb6d611b7c400172aa975","A3","batch1","spm_show_trial_num","null","<p class=block-text>Trial 28 out of 60</p>","null","","","","","","","","","","","","","","","","","","","","","","","","","",""
"","","","","","image-button-response","60","332816","0.0-2.0-4.0-1.3","5d9eb6d611b7c400172aa975","A3","batch1","spm_respsonse","26416.699999999255","img/question_3_4.jpeg","7","mat_28","8","1","1","26416.699999999255","","","","","","","","","","","","","","","","","","","","",""
"","","","","","html-keyboard-response","61","333878","0.0-2.0-4.0-0.4","5d9eb6d611b7c400172aa975","A3","batch1","spm_show_trial_num","null","<p class=block-text>Trial 29 out of 60</p>","null","","","","","","","","","","","","","","","","","","","","","","","","","",""
"","","","","","image-button-response","62","350744","0.0-2.0-4.0-1.4","5d9eb6d611b7c400172aa975","A3","batch1","spm_respsonse","16863","img/question_3_5.jpeg","6","mat_29","7","1","1","16863","","","","","","","","","","","","","","","","","","","","",""
"","","","","","html-keyboard-response","63","351812","0.0-2.0-4.0-0.5","5d9eb6d611b7c400172aa975","A3","batch1","spm_show_trial_num","null","<p class=block-text>Trial 30 out of 60</p>","null","","","","","","","","","","","","","","","","","","","","","","","","","",""
"","","","","","image-button-response","64","362005","0.0-2.0-4.0-1.5","5d9eb6d611b7c400172aa975","A3","batch1","spm_respsonse","10190.70000000298","img/question_3_6.jpeg","3","mat_30","4","1","1","10190.70000000298","","","","","","","","","","","","","","","","","","","","",""
"","","","","","html-keyboard-response","65","363059","0.0-2.0-4.0-0.6","5d9eb6d611b7c400172aa975","A3","batch1","spm_show_trial_num","null","<p class=block-text>Trial 31 out of 60</p>","null","","","","","","","","","","","","","","","","","","","","","","","","","",""
"","","","","","image-button-response","66","372055","0.0-2.0-4.0-1.6","5d9eb6d611b7c400172aa975","A3","batch1","spm_respsonse","8994.099999997765","img/question_3_7.jpeg","4","mat_31","5","1","1","8994.099999997765","","","","","","","","","","","","","","","","","","","","",""
"","","","","","html-keyboard-response","67","373112","0.0-2.0-4.0-0.7","5d9eb6d611b7c400172aa975","A3","batch1","spm_show_trial_num","null","<p class=block-text>Trial 32 out of 60</p>","null","","","","","","","","","","","","","","","","","","","","","","","","","",""
"","","","","","image-button-response","68","394126","0.0-2.0-4.0-1.7","5d9eb6d611b7c400172aa975","A3","batch1","spm_respsonse","21012.10000000149","img/question_3_8.jpeg","0","mat_32","1","1","1","21012.10000000149","","","","","","","","","","","","","","","","","","","","",""
"","","","","","html-keyboard-response","69","395196","0.0-2.0-4.0-0.8","5d9eb6d611b7c400172aa975","A3","batch1","spm_show_trial_num","null","<p class=block-text>Trial 33 out of 60</p>","null","","","","","","","","","","","","","","","","","","","","","","","","","",""
"","","","","","image-button-response","70","407921","0.0-2.0-4.0-1.8","5d9eb6d611b7c400172aa975","A3","batch1","spm_respsonse","12723.400000002235","img/question_3_9.jpeg","0","mat_33","7","0","0","12723.400000002235","","","","","","","","","","","","","","","","","","","","",""
"","","","","","html-keyboard-response","71","408975","0.0-2.0-4.0-0.9","5d9eb6d611b7c400172aa975","A3","batch1","spm_show_trial_num","null","<p class=block-text>Trial 34 out of 60</p>","null","","","","","","","","","","","","","","","","","","","","","","","","","",""
"","","","","","image-button-response","72","426278","0.0-2.0-4.0-1.9","5d9eb6d611b7c400172aa975","A3","batch1","spm_respsonse","17301.60000000149","img/question_3_10.jpeg","5","mat_34","6","1","1","17301.60000000149","","","","","","","","","","","","","","","","","","","","",""
"","","","","","html-keyboard-response","73","427353","0.0-2.0-4.0-0.10","5d9eb6d611b7c400172aa975","A3","batch1","spm_show_trial_num","null","<p class=block-text>Trial 35 out of 60</p>","null","","","","","","","","","","","","","","","","","","","","","","","","","",""
"","","","","","image-button-response","74","454147","0.0-2.0-4.0-1.10","5d9eb6d611b7c400172aa975","A3","batch1","spm_respsonse","26791.099999997765","img/question_3_11.jpeg","4","mat_35","1","0","0","26791.099999997765","","","","","","","","","","","","","","","","","","","","",""
"","","","","","html-keyboard-response","75","455212","0.0-2.0-4.0-0.11","5d9eb6d611b7c400172aa975","A3","batch1","spm_show_trial_num","null","<p class=block-text>Trial 36 out of 60</p>","null","","","","","","","","","","","","","","","","","","","","","","","","","",""
"","","","","","image-button-response","76","542961","0.0-2.0-4.0-1.11","5d9eb6d611b7c400172aa975","A3","batch1","spm_respsonse","87746.69999999925","img/question_3_12.jpeg","2","mat_36","2","0","0","87746.69999999925","","","","","","","","","","","","","","","","","","","","",""
"","","","","","html-keyboard-response","77","544029","0.0-2.0-4.0-0.12","5d9eb6d611b7c400172aa975","A3","batch1","spm_show_trial_num","null","<p class=block-text>Trial 37 out of 60</p>","null","","","","","","","","","","","","","","","","","","","","","","","","","",""
"","","","","","image-button-response","78","552584","0.0-2.0-4.0-1.12","5d9eb6d611b7c400172aa975","A3","batch1","spm_respsonse","8552.699999999255","img/question_4_1.jpeg","2","mat_37","3","1","1","8552.699999999255","","","","","","","","","","","","","","","","","","","","",""
"","","","","","html-keyboard-response","79","553643","0.0-2.0-4.0-0.13","5d9eb6d611b7c400172aa975","A3","batch1","spm_show_trial_num","null","<p class=block-text>Trial 38 out of 60</p>","null","","","","","","","","","","","","","","","","","","","","","","","","","",""
"","","","","","image-button-response","80","560820","0.0-2.0-4.0-1.13","5d9eb6d611b7c400172aa975","A3","batch1","spm_respsonse","7175.199999999255","img/question_4_2.jpeg","3","mat_38","4","1","1","7175.199999999255","","","","","","","","","","","","","","","","","","","","",""
"","","","","","html-keyboard-response","81","561875","0.0-2.0-4.0-0.14","5d9eb6d611b7c400172aa975","A3","batch1","spm_show_trial_num","null","<p class=block-text>Trial 39 out of 60</p>","null","","","","","","","","","","","","","","","","","","","","","","","","","",""
"","","","","","image-button-response","82","579620","0.0-2.0-4.0-1.14","5d9eb6d611b7c400172aa975","A3","batch1","spm_respsonse","17743.89999999851","img/question_4_3.jpeg","2","mat_39","3","1","1","17743.89999999851","","","","","","","","","","","","","","","","","","","","",""
"","","","","","html-keyboard-response","83","580677","0.0-2.0-4.0-0.15","5d9eb6d611b7c400172aa975","A3","batch1","spm_show_trial_num","null","<p class=block-text>Trial 40 out of 60</p>","null","","","","","","","","","","","","","","","","","","","","","","","","","",""
"","","","","","image-button-response","84","596640","0.0-2.0-4.0-1.15","5d9eb6d611b7c400172aa975","A3","batch1","spm_respsonse","15960.60000000149","img/question_4_4.jpeg","6","mat_40","7","1","1","15960.60000000149","","","","","","","","","","","","","","","","","","","","",""
"","","","","","html-keyboard-response","85","597710","0.0-2.0-4.0-0.16","5d9eb6d611b7c400172aa975","A3","batch1","spm_show_trial_num","null","<p class=block-text>Trial 41 out of 60</p>","null","","","","","","","","","","","","","","","","","","","","","","","","","",""
"","","","","","image-button-response","86","608617","0.0-2.0-4.0-1.16","5d9eb6d611b7c400172aa975","A3","batch1","spm_respsonse","10904.699999999255","img/question_4_5.jpeg","7","mat_41","8","1","1","10904.699999999255","","","","","","","","","","","","","","","","","","","","",""
"","","","","","html-keyboard-response","87","609675","0.0-2.0-4.0-0.17","5d9eb6d611b7c400172aa975","A3","batch1","spm_show_trial_num","null","<p class=block-text>Trial 42 out of 60</p>","null","","","","","","","","","","","","","","","","","","","","","","","","","",""
"","","","","","image-button-response","88","625544","0.0-2.0-4.0-1.17","5d9eb6d611b7c400172aa975","A3","batch1","spm_respsonse","15866.10000000149","img/question_4_6.jpeg","5","mat_42","6","1","1","15866.10000000149","","","","","","","","","","","","","","","","","","","","",""
"","","","","","html-keyboard-response","89","626609","0.0-2.0-4.0-0.18","5d9eb6d611b7c400172aa975","A3","batch1","spm_show_trial_num","null","<p class=block-text>Trial 43 out of 60</p>","null","","","","","","","","","","","","","","","","","","","","","","","","","",""
"","","","","","image-button-response","90","651822","0.0-2.0-4.0-1.18","5d9eb6d611b7c400172aa975","A3","batch1","spm_respsonse","25211.5","img/question_4_7.jpeg","4","mat_43","5","1","1","25211.5","","","","","","","","","","","","","","","","","","","","",""
"","","","","","html-keyboard-response","91","652895","0.0-2.0-4.0-0.19","5d9eb6d611b7c400172aa975","A3","batch1","spm_show_trial_num","null","<p class=block-text>Trial 44 out of 60</p>","null","","","","","","","","","","","","","","","","","","","","","","","","","",""
"","","","","","image-button-response","92","668082","0.0-2.0-4.0-1.19","5d9eb6d611b7c400172aa975","A3","batch1","spm_respsonse","15184.5","img/question_4_8.jpeg","3","mat_44","4","1","1","15184.5","","","","","","","","","","","","","","","","","","","","",""
"","","","","","html-keyboard-response","93","669143","0.0-2.0-4.0-0.20","5d9eb6d611b7c400172aa975","A3","batch1","spm_show_trial_num","null","<p class=block-text>Trial 45 out of 60</p>","null","","","","","","","","","","","","","","","","","","","","","","","","","",""
"","","","","","image-button-response","94","694325","0.0-2.0-4.0-1.20","5d9eb6d611b7c400172aa975","A3","batch1","spm_respsonse","25179.300000000745","img/question_4_9.jpeg","3","mat_45","1","0","0","25179.300000000745","","","","","","","","","","","","","","","","","","","","",""
"","","","","","html-keyboard-response","95","695391","0.0-2.0-4.0-0.21","5d9eb6d611b7c400172aa975","A3","batch1","spm_show_trial_num","null","<p class=block-text>Trial 46 out of 60</p>","null","","","","","","","","","","","","","","","","","","","","","","","","","",""
"","","","","","image-button-response","96","700623","0.0-2.0-4.0-1.21","5d9eb6d611b7c400172aa975","A3","batch1","spm_respsonse","5230.39999999851","img/question_4_10.jpeg","3","mat_46","2","0","0","5230.39999999851","","","","","","","","","","","","","","","","","","","","",""
"","","","","","html-keyboard-response","97","701702","0.0-2.0-4.0-0.22","5d9eb6d611b7c400172aa975","A3","batch1","spm_show_trial_num","null","<p class=block-text>Trial 47 out of 60</p>","null","","","","","","","","","","","","","","","","","","","","","","","","","",""
"","","","","","image-button-response","98","740557","0.0-2.0-4.0-1.22","5d9eb6d611b7c400172aa975","A3","batch1","spm_respsonse","38853","img/question_4_11.jpeg","1","mat_47","5","0","0","38853","","","","","","","","","","","","","","","","","","","","",""
"","","","","","html-keyboard-response","99","741633","0.0-2.0-4.0-0.23","5d9eb6d611b7c400172aa975","A3","batch1","spm_show_trial_num","null","<p class=block-text>Trial 48 out of 60</p>","null","","","","","","","","","","","","","","","","","","","","","","","","","",""
"","","","","","image-button-response","100","791671","0.0-2.0-4.0-1.23","5d9eb6d611b7c400172aa975","A3","batch1","spm_respsonse","50035.5","img/question_4_12.jpeg","5","mat_48","6","1","1","50035.5","","","","","","","","","","","","","","","","","","","","",""
"","","","","","html-keyboard-response","101","792739","0.0-2.0-4.0-0.24","5d9eb6d611b7c400172aa975","A3","batch1","spm_show_trial_num","null","<p class=block-text>Trial 49 out of 60</p>","null","","","","","","","","","","","","","","","","","","","","","","","","","",""
"","","","","","image-button-response","102","802715","0.0-2.0-4.0-1.24","5d9eb6d611b7c400172aa975","A3","batch1","spm_respsonse","9974.20000000298","img/question_5_1.jpeg","6","mat_49","7","1","1","9974.20000000298","","","","","","","","","","","","","","","","","","","","",""
"","","","","","html-keyboard-response","103","803774","0.0-2.0-4.0-0.25","5d9eb6d611b7c400172aa975","A3","batch1","spm_show_trial_num","null","<p class=block-text>Trial 50 out of 60</p>","null","","","","","","","","","","","","","","","","","","","","","","","","","",""
"","","","","","image-button-response","104","832793","0.0-2.0-4.0-1.25","5d9eb6d611b7c400172aa975","A3","batch1","spm_respsonse","29016.699999999255","img/question_5_2.jpeg","5","mat_50","6","1","1","29016.699999999255","","","","","","","","","","","","","","","","","","","","",""
"","","","","","html-keyboard-response","105","833856","0.0-2.0-4.0-0.26","5d9eb6d611b7c400172aa975","A3","batch1","spm_show_trial_num","null","<p class=block-text>Trial 51 out of 60</p>","null","","","","","","","","","","","","","","","","","","","","","","","","","",""
"","","","","","image-button-response","106","864452","0.0-2.0-4.0-1.26","5d9eb6d611b7c400172aa975","A3","batch1","spm_respsonse","30593.800000000745","img/question_5_3.jpeg","7","mat_51","8","1","1","30593.800000000745","","","","","","","","","","","","","","","","","","","","",""
"","","","","","html-keyboard-response","107","865520","0.0-2.0-4.0-0.27","5d9eb6d611b7c400172aa975","A3","batch1","spm_show_trial_num","null","<p class=block-text>Trial 52 out of 60</p>","null","","","","","","","","","","","","","","","","","","","","","","","","","",""
"","","","","","image-button-response","108","922162","0.0-2.0-4.0-1.27","5d9eb6d611b7c400172aa975","A3","batch1","spm_respsonse","56639.199999999255","img/question_5_4.jpeg","0","mat_52","2","0","0","56639.199999999255","","","","","","","","","","","","","","","","","","","","",""
"","","","","","html-keyboard-response","109","923224","0.0-2.0-4.0-0.28","5d9eb6d611b7c400172aa975","A3","batch1","spm_show_trial_num","null","<p class=block-text>Trial 53 out of 60</p>","null","","","","","","","","","","","","","","","","","","","","","","","","","",""
"","","","","","image-button-response","110","935827","0.0-2.0-4.0-1.28","5d9eb6d611b7c400172aa975","A3","batch1","spm_respsonse","12600.400000002235","img/question_5_5.jpeg","0","mat_53","1","1","1","12600.400000002235","","","","","","","","","","","","","","","","","","","","",""
"","","","","","html-keyboard-response","111","936901","0.0-2.0-4.0-0.29","5d9eb6d611b7c400172aa975","A3","batch1","spm_show_trial_num","null","<p class=block-text>Trial 54 out of 60</p>","null","","","","","","","","","","","","","","","","","","","","","","","","","",""
"","","","","","image-button-response","112","970144","0.0-2.0-4.0-1.29","5d9eb6d611b7c400172aa975","A3","batch1","spm_respsonse","33240.699999999255","img/question_5_6.jpeg","5","mat_54","5","0","0","33240.699999999255","","","","","","","","","","","","","","","","","","","","",""
"","","","","","html-keyboard-response","113","971206","0.0-2.0-4.0-0.30","5d9eb6d611b7c400172aa975","A3","batch1","spm_show_trial_num","null","<p class=block-text>Trial 55 out of 60</p>","null","","","","","","","","","","","","","","","","","","","","","","","","","",""
"","","","","","image-button-response","114","1019025","0.0-2.0-4.0-1.30","5d9eb6d611b7c400172aa975","A3","batch1","spm_respsonse","47817","img/question_5_7.jpeg","0","mat_55","1","1","1","47817","","","","","","","","","","","","","","","","","","","","",""
"","","","","","html-keyboard-response","115","1020088","0.0-2.0-4.0-0.31","5d9eb6d611b7c400172aa975","A3","batch1","spm_show_trial_num","null","<p class=block-text>Trial 56 out of 60</p>","null","","","","","","","","","","","","","","","","","","","","","","","","","",""
"","","","","","image-button-response","116","1050050","0.0-2.0-4.0-1.31","5d9eb6d611b7c400172aa975","A3","batch1","spm_respsonse","29959.79999999702","img/question_5_8.jpeg","6","mat_56","6","0","0","29959.79999999702","","","","","","","","","","","","","","","","","","","","",""
"","","","","","html-keyboard-response","117","1051132","0.0-2.0-4.0-0.32","5d9eb6d611b7c400172aa975","A3","batch1","spm_show_trial_num","null","<p class=block-text>Trial 57 out of 60</p>","null","","","","","","","","","","","","","","","","","","","","","","","","","",""
"","","","","","image-button-response","118","1097196","0.0-2.0-4.0-1.32","5d9eb6d611b7c400172aa975","A3","batch1","spm_respsonse","46061.39999999851","img/question_5_9.jpeg","1","mat_57","3","0","0","46061.39999999851","","","","","","","","","","","","","","","","","","","","",""
"","","","","","html-keyboard-response","119","1098251","0.0-2.0-4.0-0.33","5d9eb6d611b7c400172aa975","A3","batch1","spm_show_trial_num","null","<p class=block-text>Trial 58 out of 60</p>","null","","","","","","","","","","","","","","","","","","","","","","","","","",""
"","","","","","image-button-response","120","1131107","0.0-2.0-4.0-1.33","5d9eb6d611b7c400172aa975","A3","batch1","spm_respsonse","32852.900000002235","img/question_5_10.jpeg","1","mat_58","2","1","1","32852.900000002235","","","","","","","","","","","","","","","","","","","","",""
"","","","","","html-keyboard-response","121","1132177","0.0-2.0-4.0-0.34","5d9eb6d611b7c400172aa975","A3","batch1","spm_show_trial_num","null","<p class=block-text>Trial 59 out of 60</p>","null","","","","","","","","","","","","","","","","","","","","","","","","","",""
"","","","","","image-button-response","122","1148419","0.0-2.0-4.0-1.34","5d9eb6d611b7c400172aa975","A3","batch1","spm_respsonse","16239.5","img/question_5_11.jpeg","2","mat_59","4","0","0","16239.5","","","","","","","","","","","","","","","","","","","","",""
"","","","","","html-keyboard-response","123","1149486","0.0-2.0-4.0-0.35","5d9eb6d611b7c400172aa975","A3","batch1","spm_show_trial_num","null","<p class=block-text>Trial 60 out of 60</p>","null","","","","","","","","","","","","","","","","","","","","","","","","","",""
"","","","","","image-button-response","124","1195148","0.0-2.0-4.0-1.35","5d9eb6d611b7c400172aa975","A3","batch1","spm_respsonse","45659.29999999702","img/question_5_12.jpeg","5","mat_60","5","0","0","45659.29999999702","","","","","","","","","","","","","","","","","","","","",""
"","","","","","html-button-response","125","1198845","0.0-2.0-5.0","5d9eb6d611b7c400172aa975","A3","batch1","spm_goodbye","3431","<p class= block-text>This concludes the Standard Progressive Matrix game. Thank you for your responses!<br> When you are ready, click the button continue</p>","0","","","","","","","","","","","","","","","","","","","","","","","","","",""
"true","","","","","fullscreen","126","1202657","0.0-3.0-0.0","5d9eb6d611b7c400172aa975","A3","batch1","","","","","","","","","","","","","","","","","","","","","","","","","","","","","",""
"","","","","","instructions","127","1238657","0.0-3.0-1.0-0.0","5d9eb6d611b7c400172aa975","A3","batch1","","35998.5","","","","","","","","[{""page_index"":0,""viewing_time"":29285.60000000149},{""page_index"":1,""viewing_time"":6712.599999997765}]","","","","","","","","","","","","","","","","","","","",""
"","","","","","html-button-response","128","1240023","0.0-3.0-1.0-1.0-0.0","5d9eb6d611b7c400172aa975","A3","batch1","pattern_enter_quiz","1365.4000000022352","<p class=block-text> Let's answer a few questions <br>","0","","","","","","","","","","","","","","","","","","","","","","","","","",""
"","","","","","html-button-response","129","1242136","0.0-3.0-1.0-1.0-1.0","5d9eb6d611b7c400172aa975","A3","batch1","pattern_quiz","2111.5","<p class = block-text>True or False: You will have as much time as you want to make each choice. <br></p>","1","","","true","","","","","","","","","","","","","","","","","","","","","","",""
"","","","","","html-button-response","130","1243573","0.0-3.0-1.0-1.0-2.0","5d9eb6d611b7c400172aa975","A3","batch1","pattern_quiz_feedback","1436.1000000014901","<p class = block-text>Correct! You should make your choice <strong> as fast as you can</strong>.</p>","0","","","","","","","","","","","","","","","","","","","","","","","","","",""
"","","","","","html-button-response","131","1246059","0.0-3.0-1.0-1.0-3.0","5d9eb6d611b7c400172aa975","A3","batch1","pattern_quiz","2485.099999997765","<p class = block-text>True or False: You will look for 4 pieces in black or white color connected in a row either horizontally, vertically or diagonally. <br></p>","0","","","true","","","","","","","","","","","","","","","","","","","","","","",""
"","","","","","html-button-response","132","1247135","0.0-3.0-1.0-1.0-4.0","5d9eb6d611b7c400172aa975","A3","batch1","pattern_quiz_feedback","1074.8999999985099","<p class = block-text>Correct! </p>","0","","","","","","","","","","","","","","","","","","","","","","","","","",""
"","","","","","html-button-response","133","1247446","0.0-3.0-2.0","5d9eb6d611b7c400172aa975","A3","batch1","pattern_enter_practice","309.69999999925494","<p class=block-text> Now that you've understood the game, let's do a few practice trials before we start!<br> <br>","0","","","","","","","","","","","","","","","","","","","","","","","","","",""
"","","","","","image-keyboard-response","134","1251425","0.0-3.0-3.0-0.0","5d9eb6d611b7c400172aa975","A3","batch1","pattern_practice","3978.099999997765","stim/prac_no_16_1.png","j","","j","true","","","","","","","","","","","","","","","","","","","","","","",""
"","","","","","html-keyboard-response","135","1252448","0.0-3.0-3.0-1.0","5d9eb6d611b7c400172aa975","A3","batch1","pattern_feedback","null","<p style=""font-size:30px;color:green;"">Correct!</p>","null","","","","","","","","","","","","","","","","","","","","","","","","","",""
"","","","","","image-keyboard-response","136","1256167","0.0-3.0-3.0-0.1","5d9eb6d611b7c400172aa975","A3","batch1","pattern_practice","3718.300000000745","stim/prac_no_18_1.png","j","","j","true","","","","","","","","","","","","","","","","","","","","","","",""
"","","","","","html-keyboard-response","137","1257185","0.0-3.0-3.0-1.1","5d9eb6d611b7c400172aa975","A3","batch1","pattern_feedback","null","<p style=""font-size:30px;color:green;"">Correct!</p>","null","","","","","","","","","","","","","","","","","","","","","","","","","",""
"","","","","","image-keyboard-response","138","1258842","0.0-3.0-3.0-0.2","5d9eb6d611b7c400172aa975","A3","batch1","pattern_practice","1655.800000000745","stim/prac_yes_16_ver_w1.png","f","","f","true","","","","","","","","","","","","","","","","","","","","","","",""
"","","","","","html-keyboard-response","139","1259849","0.0-3.0-3.0-1.2","5d9eb6d611b7c400172aa975","A3","batch1","pattern_feedback","null","<p style=""font-size:30px;color:green;"">Correct!</p>","null","","","","","","","","","","","","","","","","","","","","","","","","","",""
"","","","","","image-keyboard-response","140","1261296","0.0-3.0-3.0-0.3","5d9eb6d611b7c400172aa975","A3","batch1","pattern_practice","1445.5","stim/prac_yes_20_dia_b1.png","f","","f","true","","","","","","","","","","","","","","","","","","","","","","",""
"","","","","","html-keyboard-response","141","1262316","0.0-3.0-3.0-1.3","5d9eb6d611b7c400172aa975","A3","batch1","pattern_feedback","null","<p style=""font-size:30px;color:green;"">Correct!</p>","null","","","","","","","","","","","","","","","","","","","","","","","","","",""
"","","","","","image-keyboard-response","142","1265965","0.0-3.0-3.0-0.4","5d9eb6d611b7c400172aa975","A3","batch1","pattern_practice","3647.699999999255","stim/prac_yes_18_hor_w1.png","f","","f","true","","","","","","","","","","","","","","","","","","","","","","",""
"","","","","","html-keyboard-response","143","1266997","0.0-3.0-3.0-1.4","5d9eb6d611b7c400172aa975","A3","batch1","pattern_feedback","null","<p style=""font-size:30px;color:green;"">Correct!</p>","null","","","","","","","","","","","","","","","","","","","","","","","","","",""
"","","","","","html-button-response","144","1283189","0.0-3.0-4.0","5d9eb6d611b7c400172aa975","A3","batch1","pattern_enter_official_trials","16190.5","<p class=block-text> Good job! You are done with practice trials!<br>
        You responded correctly on 100% of the trials.<br>
        Press the button below to start official trials. Now you won't see any feedback about your response</p>","0","","","","","","","","","","","","","","","","","","","","","","","","","",""
"","","","","","html-keyboard-response","145","1284004","0.0-3.0-5.0-0.0","5d9eb6d611b7c400172aa975","A3","batch1","pattern_show_trial_num","null","<p class=block-text>Trial 1 out of 78</p>","null","","","","","","","","","","","","","","","","","","","","","","","","","",""
"","","","","","image-keyboard-response","146","1285615","0.0-3.0-5.0-1.0","5d9eb6d611b7c400172aa975","A3","batch1","pattern_response","1609.5","stim/no_15_1_w.png","j","pattern_03","j","true","","","","1609.5","true","1","","","","","","","","","","","","","","","","",""
"","","","","","html-keyboard-response","147","1286944","0.0-3.0-5.0-0.1","5d9eb6d611b7c400172aa975","A3","batch1","pattern_show_trial_num","null","<p class=block-text>Trial 2 out of 78</p>","null","","","","","","","","","","","","","","","","","","","","","","","","","",""
"","","","","","image-keyboard-response","148","1287915","0.0-3.0-5.0-1.1","5d9eb6d611b7c400172aa975","A3","batch1","pattern_response","970","stim/yes_70_ver_b1.png","f","pattern_80","f","true","","","","970","true","2","","","","","","","","","","","","","","","","",""
"","","","","","html-keyboard-response","149","1289246","0.0-3.0-5.0-0.2","5d9eb6d611b7c400172aa975","A3","batch1","pattern_show_trial_num","null","<p class=block-text>Trial 3 out of 78</p>","null","","","","","","","","","","","","","","","","","","","","","","","","","",""
"","","","","","image-keyboard-response","150","1291818","0.0-3.0-5.0-1.2","5d9eb6d611b7c400172aa975","A3","batch1","pattern_response","2570.800000000745","stim/yes_53_ver_b1_b.png","f","pattern_74","f","true","","","","2570.800000000745","true","3","","","","","","","","","","","","","","","","",""
"","","","","","html-keyboard-response","151","1293130","0.0-3.0-5.0-0.3","5d9eb6d611b7c400172aa975","A3","batch1","pattern_show_trial_num","null","<p class=block-text>Trial 4 out of 78</p>","null","","","","","","","","","","","","","","","","","","","","","","","","","",""
"","","","","","image-keyboard-response","152","1296108","0.0-3.0-5.0-1.3","5d9eb6d611b7c400172aa975","A3","batch1","pattern_response","2976.60000000149","stim/no_33_1_b.png","j","pattern_15","j","true","","","","2976.60000000149","true","4","","","","","","","","","","","","","","","","",""
"","","","","","html-keyboard-response","153","1297433","0.0-3.0-5.0-0.4","5d9eb6d611b7c400172aa975","A3","batch1","pattern_show_trial_num","null","<p class=block-text>Trial 5 out of 78</p>","null","","","","","","","","","","","","","","","","","","","","","","","","","",""
"","","","","","image-keyboard-response","154","1301787","0.0-3.0-5.0-1.4","5d9eb6d611b7c400172aa975","A3","batch1","pattern_response","4353.400000002235","stim/yes_58_dia_w1_w.png","j","pattern_76","f","false","","","","4353.400000002235","false","4","","","","","","","","","","","","","","","","",""
"","","","","","html-keyboard-response","155","1303100","0.0-3.0-5.0-0.5","5d9eb6d611b7c400172aa975","A3","batch1","pattern_show_trial_num","null","<p class=block-text>Trial 6 out of 78</p>","null","","","","","","","","","","","","","","","","","","","","","","","","","",""
"","","","","","image-keyboard-response","156","1304056","0.0-3.0-5.0-1.5","5d9eb6d611b7c400172aa975","A3","batch1","pattern_response","953.9000000022352","stim/yes_37_hor_w1_w.png","f","pattern_60","f","true","","","","953.9000000022352","true","5","","","","","","","","","","","","","","","","",""
"","","","","","html-keyboard-response","157","1305363","0.0-3.0-5.0-0.6","5d9eb6d611b7c400172aa975","A3","batch1","pattern_show_trial_num","null","<p class=block-text>Trial 7 out of 78</p>","null","","","","","","","","","","","","","","","","","","","","","","","","","",""
"","","","","","image-keyboard-response","158","1306725","0.0-3.0-5.0-1.6","5d9eb6d611b7c400172aa975","A3","batch1","pattern_response","1360","stim/yes_30_ver_b1_b.png","f","pattern_54","f","true","","","","1360","true","6","","","","","","","","","","","","","","","","",""
"","","","","","html-keyboard-response","159","1308039","0.0-3.0-5.0-0.7","5d9eb6d611b7c400172aa975","A3","batch1","pattern_show_trial_num","null","<p class=block-text>Trial 8 out of 78</p>","null","","","","","","","","","","","","","","","","","","","","","","","","","",""
"","","","","","image-keyboard-response","160","1311201","0.0-3.0-5.0-1.7","5d9eb6d611b7c400172aa975","A3","batch1","pattern_response","3160.800000000745","stim/no_28_2.png","j","pattern_11","j","true","","","","3160.800000000745","true","7","","","","","","","","","","","","","","","","",""
"","","","","","html-keyboard-response","161","1312523","0.0-3.0-5.0-0.8","5d9eb6d611b7c400172aa975","A3","batch1","pattern_show_trial_num","null","<p class=block-text>Trial 9 out of 78</p>","null","","","","","","","","","","","","","","","","","","","","","","","","","",""
"","","","","","image-keyboard-response","162","1318351","0.0-3.0-5.0-1.8","5d9eb6d611b7c400172aa975","A3","batch1","pattern_response","5825.699999999255","stim/no_37_2_w.png","j","pattern_19","j","true","","","","5825.699999999255","true","8","","","","","","","","","","","","","","","","",""
"","","","","","html-keyboard-response","163","1319679","0.0-3.0-5.0-0.9","5d9eb6d611b7c400172aa975","A3","batch1","pattern_show_trial_num","null","<p class=block-text>Trial 10 out of 78</p>","null","","","","","","","","","","","","","","","","","","","","","","","","","",""
"","","","","","image-keyboard-response","164","1324231","0.0-3.0-5.0-1.9","5d9eb6d611b7c400172aa975","A3","batch1","pattern_response","4550.599999997765","stim/no_25_1_b.png","f","pattern_09","j","false","","","","4550.599999997765","false","8","","","","","","","","","","","","","","","","",""
"","","","","","html-keyboard-response","165","1325549","0.0-3.0-5.0-0.10","5d9eb6d611b7c400172aa975","A3","batch1","pattern_show_trial_num","null","<p class=block-text>Trial 11 out of 78</p>","null","","","","","","","","","","","","","","","","","","","","","","","","","",""
"","","","","","image-keyboard-response","166","1326829","0.0-3.0-5.0-1.10","5d9eb6d611b7c400172aa975","A3","batch1","pattern_response","1278.5","stim/yes_23_ver_b1.png","f","pattern_48","f","true","","","","1278.5","true","9","","","","","","","","","","","","","","","","",""
"","","","","","html-keyboard-response","167","1328133","0.0-3.0-5.0-0.11","5d9eb6d611b7c400172aa975","A3","batch1","pattern_show_trial_num","null","<p class=block-text>Trial 12 out of 78</p>","null","","","","","","","","","","","","","","","","","","","","","","","","","",""
"","","","","","image-keyboard-response","168","1329553","0.0-3.0-5.0-1.11","5d9eb6d611b7c400172aa975","A3","batch1","pattern_response","1418.300000000745","stim/yes_12_hor_w1_w.png","f","pattern_42","f","true","","","","1418.300000000745","true","10","","","","","","","","","","","","","","","","",""
"","","","","","html-keyboard-response","169","1330864","0.0-3.0-5.0-0.12","5d9eb6d611b7c400172aa975","A3","batch1","pattern_show_trial_num","null","<p class=block-text>Trial 13 out of 78</p>","null","","","","","","","","","","","","","","","","","","","","","","","","","",""
"","","","","","image-keyboard-response","170","1332152","0.0-3.0-5.0-1.12","5d9eb6d611b7c400172aa975","A3","batch1","pattern_response","1287.300000000745","stim/yes_29_hor_b1_b.png","f","pattern_52","f","true","","","","1287.300000000745","true","11","","","","","","","","","","","","","","","","",""
"","","","","","html-keyboard-response","171","1333480","0.0-3.0-5.0-0.13","5d9eb6d611b7c400172aa975","A3","batch1","pattern_show_trial_num","null","<p class=block-text>Trial 14 out of 78</p>","null","","","","","","","","","","","","","","","","","","","","","","","","","",""
"","","","","","image-keyboard-response","172","1338013","0.0-3.0-5.0-1.13","5d9eb6d611b7c400172aa975","A3","batch1","pattern_response","4531.60000000149","stim/no_39_1_w.png","j","pattern_21","j","true","","","","4531.60000000149","true","12","","","","","","","","","","","","","","","","",""
"","","","","","html-keyboard-response","173","1339329","0.0-3.0-5.0-0.14","5d9eb6d611b7c400172aa975","A3","batch1","pattern_show_trial_num","null","<p class=block-text>Trial 15 out of 78</p>","null","","","","","","","","","","","","","","","","","","","","","","","","","",""
"","","","","","image-keyboard-response","174","1341299","0.0-3.0-5.0-1.14","5d9eb6d611b7c400172aa975","A3","batch1","pattern_response","1967.6000000014901","stim/yes_44_ver_w1_w.png","f","pattern_66","f","true","","","","1967.6000000014901","true","13","","","","","","","","","","","","","","","","",""
"","","","","","html-keyboard-response","175","1342615","0.0-3.0-5.0-0.15","5d9eb6d611b7c400172aa975","A3","batch1","pattern_show_trial_num","null","<p class=block-text>Trial 16 out of 78</p>","null","","","","","","","","","","","","","","","","","","","","","","","","","",""
"","","","","","image-keyboard-response","176","1345125","0.0-3.0-5.0-1.15","5d9eb6d611b7c400172aa975","A3","batch1","pattern_response","2508.10000000149","stim/no_12_1.png","j","pattern_01","j","true","","","","2508.10000000149","true","14","","","","","","","","","","","","","","","","",""
"","","","","","html-keyboard-response","177","1346447","0.0-3.0-5.0-0.16","5d9eb6d611b7c400172aa975","A3","batch1","pattern_show_trial_num","null","<p class=block-text>Trial 17 out of 78</p>","null","","","","","","","","","","","","","","","","","","","","","","","","","",""
"","","","","","image-keyboard-response","178","1348445","0.0-3.0-5.0-1.16","5d9eb6d611b7c400172aa975","A3","batch1","pattern_response","1996.300000000745","stim/no_18_1_b.png","j","pattern_05","j","true","","","","1996.300000000745","true","15","","","","","","","","","","","","","","","","",""
"","","","","","html-keyboard-response","179","1349767","0.0-3.0-5.0-0.17","5d9eb6d611b7c400172aa975","A3","batch1","pattern_show_trial_num","null","<p class=block-text>Trial 18 out of 78</p>","null","","","","","","","","","","","","","","","","","","","","","","","","","",""
"","","","","","image-keyboard-response","180","1353303","0.0-3.0-5.0-1.17","5d9eb6d611b7c400172aa975","A3","batch1","pattern_response","3533.800000000745","stim/yes_63_dia_b1.png","f","pattern_78","f","true","","","","3533.800000000745","true","16","","","","","","","","","","","","","","","","",""
"","","","","","html-keyboard-response","181","1354615","0.0-3.0-5.0-0.18","5d9eb6d611b7c400172aa975","A3","batch1","pattern_show_trial_num","null","<p class=block-text>Trial 19 out of 78</p>","null","","","","","","","","","","","","","","","","","","","","","","","","","",""
"","","","","","image-keyboard-response","182","1356291","0.0-3.0-5.0-1.18","5d9eb6d611b7c400172aa975","A3","batch1","pattern_response","1674.2000000029802","stim/no_30_1_b.png","f","pattern_13","j","false","","","","1674.2000000029802","false","16","","","","","","","","","","","","","","","","",""
"","","","","","html-keyboard-response","183","1357612","0.0-3.0-5.0-0.19","5d9eb6d611b7c400172aa975","A3","batch1","pattern_show_trial_num","null","<p class=block-text>Trial 20 out of 78</p>","null","","","","","","","","","","","","","","","","","","","","","","","","","",""
"","","","","","image-keyboard-response","184","1361262","0.0-3.0-5.0-1.19","5d9eb6d611b7c400172aa975","A3","batch1","pattern_response","3647.89999999851","stim/yes_49_hor_w1_b.png","f","pattern_70","f","true","","","","3647.89999999851","true","17","","","","","","","","","","","","","","","","",""
"","","","","","html-keyboard-response","185","1362581","0.0-3.0-5.0-0.20","5d9eb6d611b7c400172aa975","A3","batch1","pattern_show_trial_num","null","<p class=block-text>Trial 21 out of 78</p>","null","","","","","","","","","","","","","","","","","","","","","","","","","",""
"","","","","","image-keyboard-response","186","1366359","0.0-3.0-5.0-1.20","5d9eb6d611b7c400172aa975","A3","batch1","pattern_response","3775.699999999255","stim/yes_51_dia_b1.png","f","pattern_72","f","true","","","","3775.699999999255","true","18","","","","","","","","","","","","","","","","",""
"","","","","","html-keyboard-response","187","1367681","0.0-3.0-5.0-0.21","5d9eb6d611b7c400172aa975","A3","batch1","pattern_show_trial_num","null","<p class=block-text>Trial 22 out of 78</p>","null","","","","","","","","","","","","","","","","","","","","","","","","","",""
"","","","","","image-keyboard-response","188","1368564","0.0-3.0-5.0-1.21","5d9eb6d611b7c400172aa975","A3","batch1","pattern_response","882","stim/yes_15_dia_b1u_b.png","f","pattern_44","f","true","","","","882","true","19","","","","","","","","","","","","","","","","",""
"","","","","","html-keyboard-response","189","1369881","0.0-3.0-5.0-0.22","5d9eb6d611b7c400172aa975","A3","batch1","pattern_show_trial_num","null","<p class=block-text>Trial 23 out of 78</p>","null","","","","","","","","","","","","","","","","","","","","","","","","","",""
"","","","","","image-keyboard-response","190","1371486","0.0-3.0-5.0-1.22","5d9eb6d611b7c400172aa975","A3","batch1","pattern_response","1603.5","stim/yes_26_dia_w2_w.png","f","pattern_50","f","true","","","","1603.5","true","20","","","","","","","","","","","","","","","","",""
"","","","","","html-keyboard-response","191","1372796","0.0-3.0-5.0-0.23","5d9eb6d611b7c400172aa975","A3","batch1","pattern_show_trial_num","null","<p class=block-text>Trial 24 out of 78</p>","null","","","","","","","","","","","","","","","","","","","","","","","","","",""
"","","","","","image-keyboard-response","192","1377710","0.0-3.0-5.0-1.23","5d9eb6d611b7c400172aa975","A3","batch1","pattern_response","4912.10000000149","stim/no_67_1.png","j","pattern_39","j","true","","","","4912.10000000149","true","21","","","","","","","","","","","","","","","","",""
"","","","","","html-keyboard-response","193","1379015","0.0-3.0-5.0-0.24","5d9eb6d611b7c400172aa975","A3","batch1","pattern_show_trial_num","null","<p class=block-text>Trial 25 out of 78</p>","null","","","","","","","","","","","","","","","","","","","","","","","","","",""
"","","","","","image-keyboard-response","194","1384547","0.0-3.0-5.0-1.24","5d9eb6d611b7c400172aa975","A3","batch1","pattern_response","5530.599999997765","stim/no_49_2_b.png","f","pattern_29","j","false","","","","5530.599999997765","false","21","","","","","","","","","","","","","","","","",""
"","","","","","html-keyboard-response","195","1385858","0.0-3.0-5.0-0.25","5d9eb6d611b7c400172aa975","A3","batch1","pattern_show_trial_num","null","<p class=block-text>Trial 26 out of 78</p>","null","","","","","","","","","","","","","","","","","","","","","","","","","",""
"","","","","","image-keyboard-response","196","1387076","0.0-3.0-5.0-1.25","5d9eb6d611b7c400172aa975","A3","batch1","pattern_response","1216.199999999255","stim/yes_46_ver_b1_b.png","f","pattern_68","f","true","","","","1216.199999999255","true","22","","","","","","","","","","","","","","","","",""
"","","","","","html-keyboard-response","197","1388382","0.0-3.0-5.0-0.26","5d9eb6d611b7c400172aa975","A3","batch1","pattern_show_trial_num","null","<p class=block-text>Trial 27 out of 78</p>","null","","","","","","","","","","","","","","","","","","","","","","","","","",""
"","","","","","image-keyboard-response","198","1389121","0.0-3.0-5.0-1.26","5d9eb6d611b7c400172aa975","A3","batch1","pattern_response","737.9000000022352","stim/yes_17_ver_b1_b.png","f","pattern_46","f","true","","","","737.9000000022352","true","23","","","","","","","","","","","","","","","","",""
"","","","","","html-keyboard-response","199","1390445","0.0-3.0-5.0-0.27","5d9eb6d611b7c400172aa975","A3","batch1","pattern_show_trial_num","null","<p class=block-text>Trial 28 out of 78</p>","null","","","","","","","","","","","","","","","","","","","","","","","","","",""
"","","","","","image-keyboard-response","200","1392338","0.0-3.0-5.0-1.27","5d9eb6d611b7c400172aa975","A3","batch1","pattern_response","1891.1000000014901","stim/no_43_2_b.png","j","pattern_23","j","true","","","","1891.1000000014901","true","24","","","","","","","","","","","","","","","","",""
"","","","","","html-keyboard-response","201","1393652","0.0-3.0-5.0-0.28","5d9eb6d611b7c400172aa975","A3","batch1","pattern_show_trial_num","null","<p class=block-text>Trial 29 out of 78</p>","null","","","","","","","","","","","","","","","","","","","","","","","","","",""
"","","","","","image-keyboard-response","202","1399342","0.0-3.0-5.0-1.28","5d9eb6d611b7c400172aa975","A3","batch1","pattern_response","5688.699999999255","stim/no_51_1.png","j","pattern_31","j","true","","","","5688.699999999255","true","25","","","","","","","","","","","","","","","","",""
"","","","","","html-keyboard-response","203","1400662","0.0-3.0-5.0-0.29","5d9eb6d611b7c400172aa975","A3","batch1","pattern_show_trial_num","null","<p class=block-text>Trial 30 out of 78</p>","null","","","","","","","","","","","","","","","","","","","","","","","","","",""
"","","","","","image-keyboard-response","204","1406944","0.0-3.0-5.0-1.29","5d9eb6d611b7c400172aa975","A3","batch1","pattern_response","6279.79999999702","stim/no_47_1_b.png","j","pattern_27","j","true","","","","6279.79999999702","true","26","","","","","","","","","","","","","","","","",""
"","","","","","html-keyboard-response","205","1408251","0.0-3.0-5.0-0.30","5d9eb6d611b7c400172aa975","A3","batch1","pattern_show_trial_num","null","<p class=block-text>Trial 31 out of 78</p>","null","","","","","","","","","","","","","","","","","","","","","","","","","",""
"","","","","","image-keyboard-response","206","1409548","0.0-3.0-5.0-1.30","5d9eb6d611b7c400172aa975","A3","batch1","pattern_response","1295","stim/yes_36_ver_w1_w.png","f","pattern_58","f","true","","","","1295","true","27","","","","","","","","","","","","","","","","",""
"","","","","","html-keyboard-response","207","1410867","0.0-3.0-5.0-0.31","5d9eb6d611b7c400172aa975","A3","batch1","pattern_show_trial_num","null","<p class=block-text>Trial 32 out of 78</p>","null","","","","","","","","","","","","","","","","","","","","","","","","","",""
"","","","","","image-keyboard-response","208","1412079","0.0-3.0-5.0-1.31","5d9eb6d611b7c400172aa975","A3","batch1","pattern_response","1209.3999999985099","stim/yes_39_hor_w1_w.png","f","pattern_62","f","true","","","","1209.3999999985099","true","28","","","","","","","","","","","","","","","","",""
"","","","","","html-keyboard-response","209","1413398","0.0-3.0-5.0-0.32","5d9eb6d611b7c400172aa975","A3","batch1","pattern_show_trial_num","null","<p class=block-text>Trial 33 out of 78</p>","null","","","","","","","","","","","","","","","","","","","","","","","","","",""
"","","","","","image-keyboard-response","210","1418817","0.0-3.0-5.0-1.32","5d9eb6d611b7c400172aa975","A3","batch1","pattern_response","5417.60000000149","stim/no_45_1_w.png","j","pattern_25","j","true","","","","5417.60000000149","true","29","","","","","","","","","","","","","","","","",""
"","","","","","html-keyboard-response","211","1420143","0.0-3.0-5.0-0.33","5d9eb6d611b7c400172aa975","A3","batch1","pattern_show_trial_num","null","<p class=block-text>Trial 34 out of 78</p>","null","","","","","","","","","","","","","","","","","","","","","","","","","",""
"","","","","","image-keyboard-response","212","1425918","0.0-3.0-5.0-1.33","5d9eb6d611b7c400172aa975","A3","batch1","pattern_response","5775.699999999255","stim/no_36_1_b.png","j","pattern_17","j","true","","","","5775.699999999255","true","30","","","","","","","","","","","","","","","","",""
"","","","","","html-keyboard-response","213","1427238","0.0-3.0-5.0-0.34","5d9eb6d611b7c400172aa975","A3","batch1","pattern_show_trial_num","null","<p class=block-text>Trial 35 out of 78</p>","null","","","","","","","","","","","","","","","","","","","","","","","","","",""
"","","","","","image-keyboard-response","214","1432056","0.0-3.0-5.0-1.34","5d9eb6d611b7c400172aa975","A3","batch1","pattern_response","4816","stim/yes_42_dia_w1_w.png","j","pattern_64","f","false","","","","4816","false","30","","","","","","","","","","","","","","","","",""
"","","","","","html-keyboard-response","215","1433375","0.0-3.0-5.0-0.35","5d9eb6d611b7c400172aa975","A3","batch1","pattern_show_trial_num","null","<p class=block-text>Trial 36 out of 78</p>","null","","","","","","","","","","","","","","","","","","","","","","","","","",""
"","","","","","image-keyboard-response","216","1436424","0.0-3.0-5.0-1.35","5d9eb6d611b7c400172aa975","A3","batch1","pattern_response","3047.10000000149","stim/no_22_1_b.png","j","pattern_07","j","true","","","","3047.10000000149","true","31","","","","","","","","","","","","","","","","",""
"","","","","","html-keyboard-response","217","1437743","0.0-3.0-5.0-0.36","5d9eb6d611b7c400172aa975","A3","batch1","pattern_show_trial_num","null","<p class=block-text>Trial 37 out of 78</p>","null","","","","","","","","","","","","","","","","","","","","","","","","","",""
"","","","","","image-keyboard-response","218","1445766","0.0-3.0-5.0-1.36","5d9eb6d611b7c400172aa975","A3","batch1","pattern_response","8020.39999999851","stim/no_58_1_w.png","j","pattern_35","j","true","","","","8020.39999999851","true","32","","","","","","","","","","","","","","","","",""
"","","","","","html-keyboard-response","219","1447079","0.0-3.0-5.0-0.37","5d9eb6d611b7c400172aa975","A3","batch1","pattern_show_trial_num","null","<p class=block-text>Trial 38 out of 78</p>","null","","","","","","","","","","","","","","","","","","","","","","","","","",""
"","","","","","image-keyboard-response","220","1454850","0.0-3.0-5.0-1.37","5d9eb6d611b7c400172aa975","A3","batch1","pattern_response","7769.60000000149","stim/no_53_1_b.png","j","pattern_33","j","true","","","","7769.60000000149","true","33","","","","","","","","","","","","","","","","",""
"","","","","","html-keyboard-response","221","1456165","0.0-3.0-5.0-0.38","5d9eb6d611b7c400172aa975","A3","batch1","pattern_show_trial_num","null","<p class=block-text>Trial 39 out of 78</p>","null","","","","","","","","","","","","","","","","","","","","","","","","","",""
"","","","","","image-keyboard-response","222","1457764","0.0-3.0-5.0-1.38","5d9eb6d611b7c400172aa975","A3","batch1","pattern_response","1596.300000000745","stim/yes_33_dia_w1_w.png","f","pattern_56","f","true","","","","1596.300000000745","true","34","","","","","","","","","","","","","","","","",""
"","","","","","image-keyboard-response","223","1463518","0.0-3.0-6.0","5d9eb6d611b7c400172aa975","A3","batch1","attention_check","5243","stim/empty_board.png","j","","j","true","","","","","","","500","[""f"",""j""]","","","","","","","","","","","","","","",""
"","","","","","html-keyboard-response","224","1464329","0.0-3.0-7.0-0.0","5d9eb6d611b7c400172aa975","A3","batch1","pattern_show_trial_num","null","<p class=block-text>Trial 40 out of 78</p>","null","","","","","","","","","","","","","","","","","","","","","","","","","",""
"","","","","","image-keyboard-response","225","1466740","0.0-3.0-7.0-1.0","5d9eb6d611b7c400172aa975","A3","batch1","pattern_response","2409.5","stim/yes_60_ver_b1_b.png","f","pattern_77","f","true","","","","2409.5","true","35","","","","","","","","","","","","","","","","",""
"","","","","","html-keyboard-response","226","1468045","0.0-3.0-7.0-0.1","5d9eb6d611b7c400172aa975","A3","batch1","pattern_show_trial_num","null","<p class=block-text>Trial 41 out of 78</p>","null","","","","","","","","","","","","","","","","","","","","","","","","","",""
"","","","","","image-keyboard-response","227","1470162","0.0-3.0-7.0-1.1","5d9eb6d611b7c400172aa975","A3","batch1","pattern_response","2115.5","stim/yes_25_hor_b1_b.png","f","pattern_49","f","true","","","","2115.5","true","36","","","","","","","","","","","","","","","","",""
"","","","","","html-keyboard-response","228","1471480","0.0-3.0-7.0-0.2","5d9eb6d611b7c400172aa975","A3","batch1","pattern_show_trial_num","null","<p class=block-text>Trial 42 out of 78</p>","null","","","","","","","","","","","","","","","","","","","","","","","","","",""
"","","","","","image-keyboard-response","229","1474111","0.0-3.0-7.0-1.2","5d9eb6d611b7c400172aa975","A3","batch1","pattern_response","2630.10000000149","stim/no_32_1_w.png","j","pattern_14","j","true","","","","2630.10000000149","true","37","","","","","","","","","","","","","","","","",""
"","","","","","html-keyboard-response","230","1475442","0.0-3.0-7.0-0.3","5d9eb6d611b7c400172aa975","A3","batch1","pattern_show_trial_num","null","<p class=block-text>Trial 43 out of 78</p>","null","","","","","","","","","","","","","","","","","","","","","","","","","",""
"","","","","","image-keyboard-response","231","1481333","0.0-3.0-7.0-1.3","5d9eb6d611b7c400172aa975","A3","batch1","pattern_response","5889.099999997765","stim/no_38_1_b.png","j","pattern_20","j","true","","","","5889.099999997765","true","38","","","","","","","","","","","","","","","","",""
"","","","","","html-keyboard-response","232","1482660","0.0-3.0-7.0-0.4","5d9eb6d611b7c400172aa975","A3","batch1","pattern_show_trial_num","null","<p class=block-text>Trial 44 out of 78</p>","null","","","","","","","","","","","","","","","","","","","","","","","","","",""
"","","","","","image-keyboard-response","233","1484044","0.0-3.0-7.0-1.4","5d9eb6d611b7c400172aa975","A3","batch1","pattern_response","1382.300000000745","stim/yes_52_ver_w1.png","f","pattern_73","f","true","","","","1382.300000000745","true","39","","","","","","","","","","","","","","","","",""
"","","","","","html-keyboard-response","234","1485373","0.0-3.0-7.0-0.5","5d9eb6d611b7c400172aa975","A3","batch1","pattern_show_trial_num","null","<p class=block-text>Trial 45 out of 78</p>","null","","","","","","","","","","","","","","","","","","","","","","","","","",""
"","","","","","image-keyboard-response","235","1488080","0.0-3.0-7.0-1.5","5d9eb6d611b7c400172aa975","A3","batch1","pattern_response","2709.10000000149","stim/no_17_1_w.png","j","pattern_04","j","true","","","","2709.10000000149","true","40","","","","","","","","","","","","","","","","",""
"","","","","","html-keyboard-response","236","1489388","0.0-3.0-7.0-0.6","5d9eb6d611b7c400172aa975","A3","batch1","pattern_show_trial_num","null","<p class=block-text>Trial 46 out of 78</p>","null","","","","","","","","","","","","","","","","","","","","","","","","","",""
"","","","","","image-keyboard-response","237","1493639","0.0-3.0-7.0-1.6","5d9eb6d611b7c400172aa975","A3","batch1","pattern_response","4249","stim/yes_40_dia_b1_b.png","j","pattern_63","f","false","","","","4249","false","40","","","","","","","","","","","","","","","","",""
"","","","","","html-keyboard-response","238","1494954","0.0-3.0-7.0-0.7","5d9eb6d611b7c400172aa975","A3","batch1","pattern_show_trial_num","null","<p class=block-text>Trial 47 out of 78</p>","null","","","","","","","","","","","","","","","","","","","","","","","","","",""
"","","","","","image-keyboard-response","239","1502412","0.0-3.0-7.0-1.7","5d9eb6d611b7c400172aa975","A3","batch1","pattern_response","7456.699999999255","stim/no_55_1_w.png","j","pattern_34","j","true","","","","7456.699999999255","true","41","","","","","","","","","","","","","","","","",""
"","","","","","html-keyboard-response","240","1503726","0.0-3.0-7.0-0.8","5d9eb6d611b7c400172aa975","A3","batch1","pattern_show_trial_num","null","<p class=block-text>Trial 48 out of 78</p>","null","","","","","","","","","","","","","","","","","","","","","","","","","",""
"","","","","","image-keyboard-response","241","1505554","0.0-3.0-7.0-1.8","5d9eb6d611b7c400172aa975","A3","batch1","pattern_response","1826.0999999977648","stim/yes_67_hor_b1.png","f","pattern_79","f","true","","","","1826.0999999977648","true","42","","","","","","","","","","","","","","","","",""
"","","","","","html-keyboard-response","242","1506867","0.0-3.0-7.0-0.9","5d9eb6d611b7c400172aa975","A3","batch1","pattern_show_trial_num","null","<p class=block-text>Trial 49 out of 78</p>","null","","","","","","","","","","","","","","","","","","","","","","","","","",""
"","","","","","image-keyboard-response","243","1509247","0.0-3.0-7.0-1.9","5d9eb6d611b7c400172aa975","A3","batch1","pattern_response","2377.900000002235","stim/yes_55_hor_w1_w.png","f","pattern_75","f","true","","","","2377.900000002235","true","43","","","","","","","","","","","","","","","","",""
"","","","","","html-keyboard-response","244","1510558","0.0-3.0-7.0-0.10","5d9eb6d611b7c400172aa975","A3","batch1","pattern_show_trial_num","null","<p class=block-text>Trial 50 out of 78</p>","null","","","","","","","","","","","","","","","","","","","","","","","","","",""
"","","","","","image-keyboard-response","245","1513256","0.0-3.0-7.0-1.10","5d9eb6d611b7c400172aa975","A3","batch1","pattern_response","2697.400000002235","stim/no_20_1_w.png","j","pattern_06","j","true","","","","2697.400000002235","true","44","","","","","","","","","","","","","","","","",""
"","","","","","html-keyboard-response","246","1514573","0.0-3.0-7.0-0.11","5d9eb6d611b7c400172aa975","A3","batch1","pattern_show_trial_num","null","<p class=block-text>Trial 51 out of 78</p>","null","","","","","","","","","","","","","","","","","","","","","","","","","",""
"","","","","","image-keyboard-response","247","1518318","0.0-3.0-7.0-1.11","5d9eb6d611b7c400172aa975","A3","batch1","pattern_response","3742.699999999255","stim/yes_48_dia_w1_w.png","f","pattern_69","f","true","","","","3742.699999999255","true","45","","","","","","","","","","","","","","","","",""
"","","","","","html-keyboard-response","248","1519624","0.0-3.0-7.0-0.12","5d9eb6d611b7c400172aa975","A3","batch1","pattern_show_trial_num","null","<p class=block-text>Trial 52 out of 78</p>","null","","","","","","","","","","","","","","","","","","","","","","","","","",""
"","","","","","image-keyboard-response","249","1522303","0.0-3.0-7.0-1.12","5d9eb6d611b7c400172aa975","A3","batch1","pattern_response","2677.699999999255","stim/yes_31_hor_b1.png","f","pattern_55","f","true","","","","2677.699999999255","true","46","","","","","","","","","","","","","","","","",""
"","","","","","html-keyboard-response","250","1523624","0.0-3.0-7.0-0.13","5d9eb6d611b7c400172aa975","A3","batch1","pattern_show_trial_num","null","<p class=block-text>Trial 53 out of 78</p>","null","","","","","","","","","","","","","","","","","","","","","","","","","",""
"","","","","","image-keyboard-response","251","1530843","0.0-3.0-7.0-1.13","5d9eb6d611b7c400172aa975","A3","batch1","pattern_response","7216.60000000149","stim/no_34_1_b.png","j","pattern_16","j","true","","","","7216.60000000149","true","47","","","","","","","","","","","","","","","","",""
"","","","","","html-keyboard-response","252","1532161","0.0-3.0-7.0-0.14","5d9eb6d611b7c400172aa975","A3","batch1","pattern_show_trial_num","null","<p class=block-text>Trial 54 out of 78</p>","null","","","","","","","","","","","","","","","","","","","","","","","","","",""
"","","","","","image-keyboard-response","253","1535904","0.0-3.0-7.0-1.14","5d9eb6d611b7c400172aa975","A3","batch1","pattern_response","3740.199999999255","stim/no_23_1.png","j","pattern_08","j","true","","","","3740.199999999255","true","48","","","","","","","","","","","","","","","","",""
"","","","","","html-keyboard-response","254","1537212","0.0-3.0-7.0-0.15","5d9eb6d611b7c400172aa975","A3","batch1","pattern_show_trial_num","null","<p class=block-text>Trial 55 out of 78</p>","null","","","","","","","","","","","","","","","","","","","","","","","","","",""
"","","","","","image-keyboard-response","255","1541917","0.0-3.0-7.0-1.15","5d9eb6d611b7c400172aa975","A3","batch1","pattern_response","4702.800000000745","stim/no_62_1_w.png","j","pattern_36","j","true","","","","4702.800000000745","true","49","","","","","","","","","","","","","","","","",""
"","","","","","html-keyboard-response","256","1543239","0.0-3.0-7.0-0.16","5d9eb6d611b7c400172aa975","A3","batch1","pattern_show_trial_num","null","<p class=block-text>Trial 56 out of 78</p>","null","","","","","","","","","","","","","","","","","","","","","","","","","",""
"","","","","","image-keyboard-response","257","1553196","0.0-3.0-7.0-1.16","5d9eb6d611b7c400172aa975","A3","batch1","pattern_response","9962.10000000149","stim/no_70_2.png","j","pattern_40","j","true","","","","9962.10000000149","true","50","","","","","","","","","","","","","","","","",""
"","","","","","html-keyboard-response","258","1554514","0.0-3.0-7.0-0.17","5d9eb6d611b7c400172aa975","A3","batch1","pattern_show_trial_num","null","<p class=block-text>Trial 57 out of 78</p>","null","","","","","","","","","","","","","","","","","","","","","","","","","",""
"","","","","","image-keyboard-response","259","1555568","0.0-3.0-7.0-1.17","5d9eb6d611b7c400172aa975","A3","batch1","pattern_response","1052.699999999255","stim/yes_14_hor_b1_w.png","f","pattern_43","f","true","","","","1052.699999999255","true","51","","","","","","","","","","","","","","","","",""
"","","","","","html-keyboard-response","260","1556880","0.0-3.0-7.0-0.18","5d9eb6d611b7c400172aa975","A3","batch1","pattern_show_trial_num","null","<p class=block-text>Trial 58 out of 78</p>","null","","","","","","","","","","","","","","","","","","","","","","","","","",""
"","","","","","image-keyboard-response","261","1557864","0.0-3.0-7.0-1.18","5d9eb6d611b7c400172aa975","A3","batch1","pattern_response","982.1000000014901","stim/yes_29_ver_w1.png","f","pattern_53","f","true","","","","982.1000000014901","true","52","","","","","","","","","","","","","","","","",""
"","","","","","html-keyboard-response","262","1559183","0.0-3.0-7.0-0.19","5d9eb6d611b7c400172aa975","A3","batch1","pattern_show_trial_num","null","<p class=block-text>Trial 59 out of 78</p>","null","","","","","","","","","","","","","","","","","","","","","","","","","",""
"","","","","","image-keyboard-response","263","1562525","0.0-3.0-7.0-1.19","5d9eb6d611b7c400172aa975","A3","batch1","pattern_response","3341.199999999255","stim/yes_35_dia_b1.png","f","pattern_57","f","true","","","","3341.199999999255","true","53","","","","","","","","","","","","","","","","",""
"","","","","","html-keyboard-response","264","1563832","0.0-3.0-7.0-0.20","5d9eb6d611b7c400172aa975","A3","batch1","pattern_show_trial_num","null","<p class=block-text>Trial 60 out of 78</p>","null","","","","","","","","","","","","","","","","","","","","","","","","","",""
"","","","","","image-keyboard-response","265","1567199","0.0-3.0-7.0-1.20","5d9eb6d611b7c400172aa975","A3","batch1","pattern_response","3365","stim/no_26_1_w.png","j","pattern_10","j","true","","","","3365","true","54","","","","","","","","","","","","","","","","",""
"","","","","","html-keyboard-response","266","1568526","0.0-3.0-7.0-0.21","5d9eb6d611b7c400172aa975","A3","batch1","pattern_show_trial_num","null","<p class=block-text>Trial 61 out of 78</p>","null","","","","","","","","","","","","","","","","","","","","","","","","","",""
"","","","","","image-keyboard-response","267","1574005","0.0-3.0-7.0-1.21","5d9eb6d611b7c400172aa975","A3","batch1","pattern_response","5477.89999999851","stim/no_42_1_w.png","j","pattern_22","j","true","","","","5477.89999999851","true","55","","","","","","","","","","","","","","","","",""
"","","","","","html-keyboard-response","268","1575327","0.0-3.0-7.0-0.22","5d9eb6d611b7c400172aa975","A3","batch1","pattern_show_trial_num","null","<p class=block-text>Trial 62 out of 78</p>","null","","","","","","","","","","","","","","","","","","","","","","","","","",""
"","","","","","image-keyboard-response","269","1576911","0.0-3.0-7.0-1.22","5d9eb6d611b7c400172aa975","A3","batch1","pattern_response","1581.800000000745","stim/yes_45_hor_b2_b.png","f","pattern_67","f","true","","","","1581.800000000745","true","56","","","","","","","","","","","","","","","","",""
"","","","","","html-keyboard-response","270","1578216","0.0-3.0-7.0-0.23","5d9eb6d611b7c400172aa975","A3","batch1","pattern_show_trial_num","null","<p class=block-text>Trial 63 out of 78</p>","null","","","","","","","","","","","","","","","","","","","","","","","","","",""
"","","","","","image-keyboard-response","271","1579638","0.0-3.0-7.0-1.23","5d9eb6d611b7c400172aa975","A3","batch1","pattern_response","1420.9000000022352","stim/yes_43_ver_w1_w.png","f","pattern_65","f","true","","","","1420.9000000022352","true","57","","","","","","","","","","","","","","","","",""
"","","","","","html-keyboard-response","272","1580965","0.0-3.0-7.0-0.24","5d9eb6d611b7c400172aa975","A3","batch1","pattern_show_trial_num","null","<p class=block-text>Trial 64 out of 78</p>","null","","","","","","","","","","","","","","","","","","","","","","","","","",""
"","","","","","image-keyboard-response","273","1584704","0.0-3.0-7.0-1.24","5d9eb6d611b7c400172aa975","A3","batch1","pattern_response","3737.7000000029802","stim/yes_38_hor_b1_b.png","f","pattern_61","f","true","","","","3737.7000000029802","true","58","","","","","","","","","","","","","","","","",""
"","","","","","html-keyboard-response","274","1586029","0.0-3.0-7.0-0.25","5d9eb6d611b7c400172aa975","A3","batch1","pattern_show_trial_num","null","<p class=block-text>Trial 65 out of 78</p>","null","","","","","","","","","","","","","","","","","","","","","","","","","",""
"","","","","","image-keyboard-response","275","1594092","0.0-3.0-7.0-1.25","5d9eb6d611b7c400172aa975","A3","batch1","pattern_response","8060.70000000298","stim/yes_50_dia_w1.png","f","pattern_71","f","true","","","","8060.70000000298","true","59","","","","","","","","","","","","","","","","",""
"","","","","","html-keyboard-response","276","1595415","0.0-3.0-7.0-0.26","5d9eb6d611b7c400172aa975","A3","batch1","pattern_show_trial_num","null","<p class=block-text>Trial 66 out of 78</p>","null","","","","","","","","","","","","","","","","","","","","","","","","","",""
"","","","","","image-keyboard-response","277","1601005","0.0-3.0-7.0-1.26","5d9eb6d611b7c400172aa975","A3","batch1","pattern_response","5588","stim/no_36_2_w.png","j","pattern_18","j","true","","","","5588","true","60","","","","","","","","","","","","","","","","",""
"","","","","","html-keyboard-response","278","1602326","0.0-3.0-7.0-0.27","5d9eb6d611b7c400172aa975","A3","batch1","pattern_show_trial_num","null","<p class=block-text>Trial 67 out of 78</p>","null","","","","","","","","","","","","","","","","","","","","","","","","","",""
"","","","","","image-keyboard-response","279","1608877","0.0-3.0-7.0-1.27","5d9eb6d611b7c400172aa975","A3","batch1","pattern_response","6548.400000002235","stim/no_44_1.png","j","pattern_24","j","true","","","","6548.400000002235","true","61","","","","","","","","","","","","","","","","",""
"","","","","","html-keyboard-response","280","1610197","0.0-3.0-7.0-0.28","5d9eb6d611b7c400172aa975","A3","batch1","pattern_show_trial_num","null","<p class=block-text>Trial 68 out of 78</p>","null","","","","","","","","","","","","","","","","","","","","","","","","","",""
"","","","","","image-keyboard-response","281","1611990","0.0-3.0-7.0-1.28","5d9eb6d611b7c400172aa975","A3","batch1","pattern_response","1791.199999999255","stim/no_13_2_b.png","j","pattern_02","j","true","","","","1791.199999999255","true","62","","","","","","","","","","","","","","","","",""
"","","","","","html-keyboard-response","282","1613328","0.0-3.0-7.0-0.29","5d9eb6d611b7c400172aa975","A3","batch1","pattern_show_trial_num","null","<p class=block-text>Trial 69 out of 78</p>","null","","","","","","","","","","","","","","","","","","","","","","","","","",""
"","","","","","image-keyboard-response","283","1620544","0.0-3.0-7.0-1.29","5d9eb6d611b7c400172aa975","A3","batch1","pattern_response","7214.599999997765","stim/no_52_1.png","j","pattern_32","j","true","","","","7214.599999997765","true","63","","","","","","","","","","","","","","","","",""
"","","","","","html-keyboard-response","284","1621859","0.0-3.0-7.0-0.30","5d9eb6d611b7c400172aa975","A3","batch1","pattern_show_trial_num","null","<p class=block-text>Trial 70 out of 78</p>","null","","","","","","","","","","","","","","","","","","","","","","","","","",""
"","","","","","image-keyboard-response","285","1623233","0.0-3.0-7.0-1.30","5d9eb6d611b7c400172aa975","A3","batch1","pattern_response","1371.8999999985099","stim/yes_22_ver_w1.png","f","pattern_47","f","true","","","","1371.8999999985099","true","64","","","","","","","","","","","","","","","","",""
"","","","","","html-keyboard-response","286","1624557","0.0-3.0-7.0-0.31","5d9eb6d611b7c400172aa975","A3","batch1","pattern_show_trial_num","null","<p class=block-text>Trial 71 out of 78</p>","null","","","","","","","","","","","","","","","","","","","","","","","","","",""
"","","","","","image-keyboard-response","287","1630238","0.0-3.0-7.0-1.31","5d9eb6d611b7c400172aa975","A3","batch1","pattern_response","5679.89999999851","stim/no_46_1_b.png","j","pattern_26","j","true","","","","5679.89999999851","true","65","","","","","","","","","","","","","","","","",""
"","","","","","html-keyboard-response","288","1631559","0.0-3.0-7.0-0.32","5d9eb6d611b7c400172aa975","A3","batch1","pattern_show_trial_num","null","<p class=block-text>Trial 72 out of 78</p>","null","","","","","","","","","","","","","","","","","","","","","","","","","",""
"","","","","","image-keyboard-response","289","1637313","0.0-3.0-7.0-1.32","5d9eb6d611b7c400172aa975","A3","batch1","pattern_response","5751.5","stim/no_29_1_b.png","j","pattern_12","j","true","","","","5751.5","true","66","","","","","","","","","","","","","","","","",""
"","","","","","html-keyboard-response","290","1638630","0.0-3.0-7.0-0.33","5d9eb6d611b7c400172aa975","A3","batch1","pattern_show_trial_num","null","<p class=block-text>Trial 73 out of 78</p>","null","","","","","","","","","","","","","","","","","","","","","","","","","",""
"","","","","","image-keyboard-response","291","1644461","0.0-3.0-7.0-1.33","5d9eb6d611b7c400172aa975","A3","batch1","pattern_response","5829","stim/yes_37_dia_w1.png","j","pattern_59","f","false","","","","5829","false","66","","","","","","","","","","","","","","","","",""
"","","","","","html-keyboard-response","292","1645778","0.0-3.0-7.0-0.34","5d9eb6d611b7c400172aa975","A3","batch1","pattern_show_trial_num","null","<p class=block-text>Trial 74 out of 78</p>","null","","","","","","","","","","","","","","","","","","","","","","","","","",""
"","","","","","image-keyboard-response","293","1651217","0.0-3.0-7.0-1.34","5d9eb6d611b7c400172aa975","A3","batch1","pattern_response","5436.300000000745","stim/no_48_1_w.png","j","pattern_28","j","true","","","","5436.300000000745","true","67","","","","","","","","","","","","","","","","",""
"","","","","","html-keyboard-response","294","1652531","0.0-3.0-7.0-0.35","5d9eb6d611b7c400172aa975","A3","batch1","pattern_show_trial_num","null","<p class=block-text>Trial 75 out of 78</p>","null","","","","","","","","","","","","","","","","","","","","","","","","","",""
"","","","","","image-keyboard-response","295","1653923","0.0-3.0-7.0-1.35","5d9eb6d611b7c400172aa975","A3","batch1","pattern_response","1389.1000000014901","stim/yes_17_dia_w1.png","f","pattern_45","f","true","","","","1389.1000000014901","true","68","","","","","","","","","","","","","","","","",""
"","","","","","html-keyboard-response","296","1655234","0.0-3.0-7.0-0.36","5d9eb6d611b7c400172aa975","A3","batch1","pattern_show_trial_num","null","<p class=block-text>Trial 76 out of 78</p>","null","","","","","","","","","","","","","","","","","","","","","","","","","",""
"","","","","","image-keyboard-response","297","1660932","0.0-3.0-7.0-1.36","5d9eb6d611b7c400172aa975","A3","batch1","pattern_response","5697.29999999702","stim/no_50_1.png","j","pattern_30","j","true","","","","5697.29999999702","true","69","","","","","","","","","","","","","","","","",""
"","","","","","html-keyboard-response","298","1662245","0.0-3.0-7.0-0.37","5d9eb6d611b7c400172aa975","A3","batch1","pattern_show_trial_num","null","<p class=block-text>Trial 77 out of 78</p>","null","","","","","","","","","","","","","","","","","","","","","","","","","",""
"","","","","","image-keyboard-response","299","1663770","0.0-3.0-7.0-1.37","5d9eb6d611b7c400172aa975","A3","batch1","pattern_response","1523.199999999255","stim/yes_28_ver_b1.png","f","pattern_51","f","true","","","","1523.199999999255","true","70","","","","","","","","","","","","","","","","",""
"","","","","","html-keyboard-response","300","1665088","0.0-3.0-7.0-0.38","5d9eb6d611b7c400172aa975","A3","batch1","pattern_show_trial_num","null","<p class=block-text>Trial 78 out of 78</p>","null","","","","","","","","","","","","","","","","","","","","","","","","","",""
"","","","","","image-keyboard-response","301","1673165","0.0-3.0-7.0-1.38","5d9eb6d611b7c400172aa975","A3","batch1","pattern_response","8075","stim/no_65_1_b.png","j","pattern_38","j","true","","","","8075","true","71","","","","","","","","","","","","","","","","",""
"","","","","","html-button-response","302","1678440","0.0-3.0-8.0","5d9eb6d611b7c400172aa975","A3","batch1","","4761.199999999255","<p class = block-text>This concludes the 4-in-a-row detection game.Thank you for your responses!<br>
            You responded correctly on 91% of the trials.<br>
            When you are ready, press ""Continue"" button to continue </p>","0","","","","","","","","","","","","","","","","","","","","","","","","","",""
"true","","","","","fullscreen","303","1681530","0.0-4.0-0.0","5d9eb6d611b7c400172aa975","A3","batch1","","","","","","","","","","","","","","","","","","","","","","","","","","","","","",""
"","","","","","instructions","304","1747770","0.0-4.0-1.0-0.0-0.0","5d9eb6d611b7c400172aa975","A3","batch1","tol-instructions","66238.40000000224","","","","","","","","[{""page_index"":0,""viewing_time"":9538.5},{""page_index"":1,""viewing_time"":7498.400000002235},{""page_index"":2,""viewing_time"":14329.39999999851},{""page_index"":3,""viewing_time"":10322.800000000745},{""page_index"":4,""viewing_time"":12872.699999999255},{""page_index"":5,""viewing_time"":9443.10000000149},{""page_index"":6,""viewing_time"":2233.099999997765}]","","","","","","","","","","","","","","","","","","","",""
"","","","","","html-button-response","305","1749312","0.0-4.0-1.0-1.0-0.0","5d9eb6d611b7c400172aa975","A3","batch1","tol_enter_quiz","1541","<p class=block-text> Let's answer a few questions <br>","0","","","","","","","","","","","","","","","","","","","","","","","","","",""
"","","","","","html-button-response","306","1753445","0.0-4.0-1.0-1.0-1.0","5d9eb6d611b7c400172aa975","A3","batch1","tol_quiz","4132.400000002235","<p class = block-text>True or False: You can only move the ball on top of a peg. <br></p>","0","","","true","","","","","","","","","","","","","","","","","","","","","","",""
"","","","","","html-button-response","307","1755368","0.0-4.0-1.0-1.0-2.0","5d9eb6d611b7c400172aa975","A3","batch1","tol_quiz_feedback","1921.1000000014901","<p class = block-text>Correct! You can only move the ball on top of a peg.</p>","0","","","","","","","","","","","","","","","","","","","","","","","","","",""
"","","","","","html-button-response","308","1758432","0.0-4.0-1.0-1.0-3.0","5d9eb6d611b7c400172aa975","A3","batch1","tol_quiz","3062.5","<p class = block-text>True or False: You should try to match your board with the target board with fewest moves possible. <br></p>","0","","","true","","","","","","","","","","","","","","","","","","","","","","",""
"","","","","","html-button-response","309","1759982","0.0-4.0-1.0-1.0-4.0","5d9eb6d611b7c400172aa975","A3","batch1","tol_quiz_feedback","1549.300000000745","<p class = block-text>Correct! </p>","0","","","","","","","","","","","","","","","","","","","","","","","","","",""
"","","","","","html-button-response","310","1763263","0.0-4.0-2.0","5d9eb6d611b7c400172aa975","A3","batch1","","3280.199999999255","<p class=block-text> Now that you've understood the game, let's practice a few easier examples before we start!<br> <br>","0","","","","","","","","","","","","","","","","","","","","","","","","","",""
"","","","","","single-stim-button","311","1775049","0.0-4.0-3.0-0.0","5d9eb6d611b7c400172aa975","A3","batch1","tol_practice","11784","","","","","","","","","","","","","","tol_peg_2","11784","11784","0","[[1,2,0],[0,0],[0]]","1","[[1,2,0],[0,0],[3]]","practice","11784","","","","","",""
"","","","","","single-stim-button","312","1776189","0.0-4.0-3.0-1.0","5d9eb6d611b7c400172aa975","A3","batch1","tol_practice","1139","","","","","","","","","","","","","","tol_peg_3","1139","1139","0","[[1,2,0],[0,0],[3]]","1","[[1,2,0],[0,0],[3]]","practice","1139","","","","","",""
"","","","","","poldrack-single-stim","313","1777200","0.0-4.0-4.0","5d9eb6d611b7c400172aa975","A3","batch1","tol_feedback","-1","","","","","true","","","","","","","","","","1000","1000","500","","","","","","-1","none","true","","0",""
"","","","","","single-stim-button","314","1781838","0.0-4.0-5.0-0.0","5d9eb6d611b7c400172aa975","A3","batch1","tol_practice","4637","","","","","","","","","","","","","","tol_peg_1","4637","4637","0","[[1,0,0],[3,0],[0]]","2","[[0,0,0],[3,1],[2]]","practice","4637","","","","","",""
"","","","","","single-stim-button","315","1783155","0.0-4.0-5.0-1.0","5d9eb6d611b7c400172aa975","A3","batch1","tol_practice","1317","","","","","","","","","","","","","","tol_peg_3","1317","1317","0","[[1,0,0],[3,0],[2]]","2","[[0,0,0],[3,1],[2]]","practice","1317","","","","","",""
"","","","","","single-stim-button","316","1784225","0.0-4.0-5.1-0.1","5d9eb6d611b7c400172aa975","A3","batch1","tol_practice","1070","","","","","","","","","","","","","","tol_peg_1","1070","1070","0","[[0,0,0],[3,0],[2]]","3","[[0,0,0],[3,1],[2]]","practice","1070","","","","","",""
"","","","","","single-stim-button","317","1785479","0.0-4.0-5.1-1.1","5d9eb6d611b7c400172aa975","A3","batch1","tol_practice","1253","","","","","","","","","","","","","","tol_peg_2","1253","1253","0","[[0,0,0],[3,1],[2]]","3","[[0,0,0],[3,1],[2]]","practice","1253","","","","","",""
"","","","","","poldrack-single-stim","318","1786487","0.0-4.0-6.0","5d9eb6d611b7c400172aa975","A3","batch1","tol_feedback","-1","","","","","true","","","","","","","","","","1000","1000","500","","","","","","-1","none","true","","0",""
"","","","","","single-stim-button","319","1790770","0.0-4.0-7.0-0.0","5d9eb6d611b7c400172aa975","A3","batch1","tol_practice","4281","","","","","","","","","","","","","","tol_peg_2","4281","4281","0","[[1,2,0],[0,0],[0]]","4","[[1,0,0],[2,0],[3]]","practice","4281","","","","","",""
"","","","","","single-stim-button","320","1791841","0.0-4.0-7.0-1.0","5d9eb6d611b7c400172aa975","A3","batch1","tol_practice","1070","","","","","","","","","","","","","","tol_peg_3","1070","1070","0","[[1,2,0],[0,0],[3]]","4","[[1,0,0],[2,0],[3]]","practice","1070","","","","","",""
"","","","","","single-stim-button","321","1792798","0.0-4.0-7.1-0.1","5d9eb6d611b7c400172aa975","A3","batch1","tol_practice","957","","","","","","","","","","","","","","tol_peg_1","957","957","0","[[1,0,0],[0,0],[3]]","5","[[1,0,0],[2,0],[3]]","practice","957","","","","","",""
"","","","","","single-stim-button","322","1793897","0.0-4.0-7.1-1.1","5d9eb6d611b7c400172aa975","A3","batch1","tol_practice","1097","","","","","","","","","","","","","","tol_peg_2","1097","1097","0","[[1,0,0],[2,0],[3]]","5","[[1,0,0],[2,0],[3]]","practice","1097","","","","","",""
"","","","","","poldrack-single-stim","323","1794899","0.0-4.0-8.0","5d9eb6d611b7c400172aa975","A3","batch1","tol_feedback","-1","","","","","true","","","","","","","","","","1000","1000","500","","","","","","-1","none","true","","0",""
"","","","","","html-button-response","324","1800537","0.0-4.0-9.0","5d9eb6d611b7c400172aa975","A3","batch1","tol_instruction","5638.099999997765","<div class = centerbox><p class = center-block-text>Great job! You are done with practice trials<br>You are about to start official trials.<br> <br> Problem <strong>1</strong> out of 25 problems</p></div>","0","","","","","","","","","","","","","","","","","","","","","","","","","",""
"","","","","","single-stim-button","325","1806244","0.0-4.0-10.0-0.0","5d9eb6d611b7c400172aa975","A3","batch1","tol_tohand","4694","","","","","","","","","","","","","","tol_peg_1","4694","4694","0","[[1,0,0],[3,0],[0]]","1","[[1,3,0],[2,0],[0]]","0","0","","","","","","3"
"","","","","","single-stim-button","326","1807934","0.0-4.0-10.0-1.0","5d9eb6d611b7c400172aa975","A3","batch1","tol_toboard","1688","","","","","","","","","","","","","","tol_peg_3","1688","1688","0","[[1,0,0],[3,0],[2]]","1","[[1,3,0],[2,0],[0]]","0","0","","","","","","3"
"","","","","","single-stim-button","327","1809161","0.0-4.0-10.1-0.1","5d9eb6d611b7c400172aa975","A3","batch1","tol_tohand","1226","","","","","","","","","","","","","","tol_peg_2","1226","1226","0","[[1,0,0],[0,0],[2]]","2","[[1,3,0],[2,0],[0]]","0","0","","","","","","3"
"","","","","","single-stim-button","328","1810217","0.0-4.0-10.1-1.1","5d9eb6d611b7c400172aa975","A3","batch1","tol_toboard","1056","","","","","","","","","","","","","","tol_peg_1","1056","1056","0","[[1,3,0],[0,0],[2]]","2","[[1,3,0],[2,0],[0]]","0","0","","","","","","3"
"","","","","","single-stim-button","329","1815535","0.0-4.0-10.2-0.2","5d9eb6d611b7c400172aa975","A3","batch1","tol_tohand","5317","","","","","","","","","","","","","","tol_peg_3","5317","5317","0","[[1,3,0],[0,0],[0]]","3","[[1,3,0],[2,0],[0]]","0","0","","","","","","3"
"","","","","","single-stim-button","330","1816634","0.0-4.0-10.2-1.2","5d9eb6d611b7c400172aa975","A3","batch1","tol_toboard","1098","","","","","","","","","","","","","","tol_peg_2","1098","1098","0","[[1,3,0],[2,0],[0]]","3","[[1,3,0],[2,0],[0]]","0","0","","","","","","3"
"","","","","","poldrack-single-stim","331","1817645","0.0-4.0-11.0","5d9eb6d611b7c400172aa975","A3","batch1","tol_feedback","-1","","","","","true","","","","","","","","","","1000","1000","500","","","","","","-1","none","true","4694","11237",""
"","","","","","html-button-response","332","1819712","0.0-4.0-12.0","5d9eb6d611b7c400172aa975","A3","batch1","tol_trial_num","2066.599999997765","<div class = centerbox><p class = center-block-text>problem <strong>2</strong> out of 25 problems</p></div>","0","","","","","","","","","","","","","","","","","","","","","","","","","",""
"","","","","","single-stim-button","333","1824657","0.0-4.0-13.0-0.0","5d9eb6d611b7c400172aa975","A3","batch1","tol_tohand","4944","","","","","","","","","","","","","","tol_peg_1","4944","4944","0","[[1,0,0],[3,0],[0]]","1","[[2,1,3],[0,0],[0]]","1","0","","","","","","5"
"","","","","","single-stim-button","334","1829574","0.0-4.0-13.0-1.0","5d9eb6d611b7c400172aa975","A3","batch1","tol_toboard","4916","","","","","","","","","","","","","","tol_peg_3","4916","4916","0","[[1,0,0],[3,0],[2]]","1","[[2,1,3],[0,0],[0]]","1","0","","","","","","5"
"","","","","","single-stim-button","335","1830624","0.0-4.0-13.1-0.1","5d9eb6d611b7c400172aa975","A3","batch1","tol_tohand","1048","","","","","","","","","","","","","","tol_peg_1","1048","1048","0","[[0,0,0],[3,0],[2]]","2","[[2,1,3],[0,0],[0]]","1","0","","","","","","5"
"","","","","","single-stim-button","336","1831384","0.0-4.0-13.1-1.1","5d9eb6d611b7c400172aa975","A3","batch1","tol_toboard","759","","","","","","","","","","","","","","tol_peg_2","759","759","0","[[0,0,0],[3,1],[2]]","2","[[2,1,3],[0,0],[0]]","1","0","","","","","","5"
"","","","","","single-stim-button","337","1832328","0.0-4.0-13.2-0.2","5d9eb6d611b7c400172aa975","A3","batch1","tol_tohand","943","","","","","","","","","","","","","","tol_peg_3","943","943","0","[[0,0,0],[3,1],[0]]","3","[[2,1,3],[0,0],[0]]","1","0","","","","","","5"
"","","","","","single-stim-button","338","1833687","0.0-4.0-13.2-1.2","5d9eb6d611b7c400172aa975","A3","batch1","tol_toboard","1359","","","","","","","","","","","","","","tol_peg_1","1359","1359","0","[[2,0,0],[3,1],[0]]","3","[[2,1,3],[0,0],[0]]","1","0","","","","","","5"
"","","","","","single-stim-button","339","1834498","0.0-4.0-13.3-0.3","5d9eb6d611b7c400172aa975","A3","batch1","tol_tohand","809","","","","","","","","","","","","","","tol_peg_2","809","809","0","[[2,0,0],[3,0],[0]]","4","[[2,1,3],[0,0],[0]]","1","0","","","","","","5"
"","","","","","single-stim-button","340","1835378","0.0-4.0-13.3-1.3","5d9eb6d611b7c400172aa975","A3","batch1","tol_toboard","880","","","","","","","","","","","","","","tol_peg_1","880","880","0","[[2,1,0],[3,0],[0]]","4","[[2,1,3],[0,0],[0]]","1","0","","","","","","5"
"","","","","","single-stim-button","341","1836427","0.0-4.0-13.4-0.4","5d9eb6d611b7c400172aa975","A3","batch1","tol_tohand","1049","","","","","","","","","","","","","","tol_peg_2","1049","1049","0","[[2,1,0],[0,0],[0]]","5","[[2,1,3],[0,0],[0]]","1","0","","","","","","5"
"","","","","","single-stim-button","342","1837428","0.0-4.0-13.4-1.4","5d9eb6d611b7c400172aa975","A3","batch1","tol_toboard","1000","","","","","","","","","","","","","","tol_peg_1","1000","1000","0","[[2,1,3],[0,0],[0]]","5","[[2,1,3],[0,0],[0]]","1","0","","","","","","5"
"","","","","","poldrack-single-stim","343","1838446","0.0-4.0-14.0","5d9eb6d611b7c400172aa975","A3","batch1","tol_feedback","-1","","","","","true","","","","","","","","","","1000","1000","500","","","","","","-1","none","true","4944","8793",""
"","","","","","html-button-response","344","1839949","0.0-4.0-15.0","5d9eb6d611b7c400172aa975","A3","batch1","tol_trial_num","1502.800000000745","<div class = centerbox><p class = center-block-text>problem <strong>3</strong> out of 25 problems</p></div>","0","","","","","","","","","","","","","","","","","","","","","","","","","",""
"","","","","","single-stim-button","345","1844880","0.0-4.0-16.0-0.0","5d9eb6d611b7c400172aa975","A3","batch1","tol_tohand","4930","","","","","","","","","","","","","","tol_peg_1","4930","4930","0","[[2,0,0],[0,0],[1]]","1","[[1,2,0],[3,0],[0]]","2","0","","","","","","4"
"","","","","","single-stim-button","346","1846114","0.0-4.0-16.0-1.0","5d9eb6d611b7c400172aa975","A3","batch1","tol_toboard","1233","","","","","","","","","","","","","","tol_peg_2","1233","1233","0","[[2,0,0],[3,0],[1]]","1","[[1,2,0],[3,0],[0]]","2","0","","","","","","4"
"","","","","","single-stim-button","347","1847241","0.0-4.0-16.1-0.1","5d9eb6d611b7c400172aa975","A3","batch1","tol_tohand","1126","","","","","","","","","","","","","","tol_peg_1","1126","1126","0","[[0,0,0],[3,0],[1]]","2","[[1,2,0],[3,0],[0]]","2","0","","","","","","4"
