"success","timeout","failed_images","failed_audio","failed_video","trial_type","trial_index","time_elapsed","internal_node_id","subject_id","study_id","session_id","task","rt","stimulus","response","item","answer","correct","spm_correct","spm_rt","view_history","fiar_detect_rt","fiar_detect_correct","total_correct_fiar_detect","post_trial_gap","choices","mouse_click","stim_duration","block_duration","timing_post_trial","current_position","tol_num_moves_made","tol_target","tol_problem_id","tol_rt","key_press","possible_responses","tol_correct","preplanning","tol_rt_per_trial","tol_min_moves"
"true","false","[]","[]","[]","preload","0","79","0.0-0.0","5daa3d1726488800157a6ffc","F1","batch6","","","","","","","","","","","","","","","","","","","","","","","","","","","","","",""
"true","","","","","fullscreen","1","25248","0.0-1.0-0.0","5daa3d1726488800157a6ffc","F1","batch6","","","","","","","","","","","","","","","","","","","","","","","","","","","","","",""
"true","","","","","fullscreen","2","33059","0.0-2.0-0.0","5daa3d1726488800157a6ffc","F1","batch6","spm_fullscreen","","","","","","","","","","","","","","","","","","","","","","","","","","","","",""
"","","","","","html-button-response","3","46485","0.0-2.0-1.0","5daa3d1726488800157a6ffc","F1","batch6","","13425.699999988079","<p class = block-text><b>Instructions</b> <br>This is a widely used intelligence test in research. <br>In this test, a figure with a missing piece will be presented.<br>Below the figure are alternative pieces to complete the figure, only one of which is correct.<br> Different figures might involve different principles for obtaining the missing piece<br>Your job is to select the most logical piece to complete the figure.</p>","0","","","","","","","","","","","","","","","","","","","","","","","","","",""
"","","","","","html-keyboard-response","4","47289","0.0-2.0-2.0-0.0","5daa3d1726488800157a6ffc","F1","batch6","spm_show_trial_num","null","<p class=block-text>Trial 1 out of 60</p>","null","","","","","","","","","","","","","","","","","","","","","","","","","",""
"","","","","","image-button-response","5","56138","0.0-2.0-2.0-1.0","5daa3d1726488800157a6ffc","F1","batch6","spm_respsonse","8847.5","img/question_1_1.jpeg","3","mat_01","4","1","1","8847.5","","","","","","","","","","","","","","","","","","","","",""
"","","","","","html-keyboard-response","6","57201","0.0-2.0-2.0-0.1","5daa3d1726488800157a6ffc","F1","batch6","spm_show_trial_num","null","<p class=block-text>Trial 2 out of 60</p>","null","","","","","","","","","","","","","","","","","","","","","","","","","",""
"","","","","","image-button-response","7","62411","0.0-2.0-2.0-1.1","5daa3d1726488800157a6ffc","F1","batch6","spm_respsonse","5208.900000035763","img/question_1_2.jpeg","4","mat_02","5","1","1","5208.900000035763","","","","","","","","","","","","","","","","","","","","",""
"","","","","","html-keyboard-response","8","63466","0.0-2.0-2.0-0.2","5daa3d1726488800157a6ffc","F1","batch6","spm_show_trial_num","null","<p class=block-text>Trial 3 out of 60</p>","null","","","","","","","","","","","","","","","","","","","","","","","","","",""
"","","","","","image-button-response","9","67951","0.0-2.0-2.0-1.2","5daa3d1726488800157a6ffc","F1","batch6","spm_respsonse","4484.800000011921","img/question_1_3.jpeg","0","mat_03","1","1","1","4484.800000011921","","","","","","","","","","","","","","","","","","","","",""
"","","","","","html-keyboard-response","10","69012","0.0-2.0-2.0-0.3","5daa3d1726488800157a6ffc","F1","batch6","spm_show_trial_num","null","<p class=block-text>Trial 4 out of 60</p>","null","","","","","","","","","","","","","","","","","","","","","","","","","",""
"","","","","","image-button-response","11","80081","0.0-2.0-2.0-1.3","5daa3d1726488800157a6ffc","F1","batch6","spm_respsonse","11068.199999988079","img/question_1_4.jpeg","1","mat_04","2","1","1","11068.199999988079","","","","","","","","","","","","","","","","","","","","",""
"","","","","","html-keyboard-response","12","81156","0.0-2.0-2.0-0.4","5daa3d1726488800157a6ffc","F1","batch6","spm_show_trial_num","null","<p class=block-text>Trial 5 out of 60</p>","null","","","","","","","","","","","","","","","","","","","","","","","","","",""
"","","","","","image-button-response","13","84358","0.0-2.0-2.0-1.4","5daa3d1726488800157a6ffc","F1","batch6","spm_respsonse","3200.7000000476837","img/question_1_5.jpeg","5","mat_05","6","1","1","3200.7000000476837","","","","","","","","","","","","","","","","","","","","",""
"","","","","","html-keyboard-response","14","85422","0.0-2.0-2.0-0.5","5daa3d1726488800157a6ffc","F1","batch6","spm_show_trial_num","null","<p class=block-text>Trial 6 out of 60</p>","null","","","","","","","","","","","","","","","","","","","","","","","","","",""
"","","","","","image-button-response","15","90942","0.0-2.0-2.0-1.5","5daa3d1726488800157a6ffc","F1","batch6","spm_respsonse","5519.099999964237","img/question_1_6.jpeg","2","mat_06","3","1","1","5519.099999964237","","","","","","","","","","","","","","","","","","","","",""
"","","","","","html-keyboard-response","16","92016","0.0-2.0-2.0-0.6","5daa3d1726488800157a6ffc","F1","batch6","spm_show_trial_num","null","<p class=block-text>Trial 7 out of 60</p>","null","","","","","","","","","","","","","","","","","","","","","","","","","",""
"","","","","","image-button-response","17","100061","0.0-2.0-2.0-1.6","5daa3d1726488800157a6ffc","F1","batch6","spm_respsonse","8043.800000011921","img/question_1_7.jpeg","5","mat_07","6","1","1","8043.800000011921","","","","","","","","","","","","","","","","","","","","",""
"","","","","","html-keyboard-response","18","101113","0.0-2.0-2.0-0.7","5daa3d1726488800157a6ffc","F1","batch6","spm_show_trial_num","null","<p class=block-text>Trial 8 out of 60</p>","null","","","","","","","","","","","","","","","","","","","","","","","","","",""
"","","","","","image-button-response","19","110153","0.0-2.0-2.0-1.7","5daa3d1726488800157a6ffc","F1","batch6","spm_respsonse","9038.699999988079","img/question_1_8.jpeg","1","mat_08","2","1","1","9038.699999988079","","","","","","","","","","","","","","","","","","","","",""
"","","","","","html-keyboard-response","20","111220","0.0-2.0-2.0-0.8","5daa3d1726488800157a6ffc","F1","batch6","spm_show_trial_num","null","<p class=block-text>Trial 9 out of 60</p>","null","","","","","","","","","","","","","","","","","","","","","","","","","",""
"","","","","","image-button-response","21","116791","0.0-2.0-2.0-1.8","5daa3d1726488800157a6ffc","F1","batch6","spm_respsonse","5569.900000035763","img/question_1_9.jpeg","0","mat_09","1","1","1","5569.900000035763","","","","","","","","","","","","","","","","","","","","",""
"","","","","","html-keyboard-response","22","117857","0.0-2.0-2.0-0.9","5daa3d1726488800157a6ffc","F1","batch6","spm_show_trial_num","null","<p class=block-text>Trial 10 out of 60</p>","null","","","","","","","","","","","","","","","","","","","","","","","","","",""
"","","","","","image-button-response","23","127241","0.0-2.0-2.0-1.9","5daa3d1726488800157a6ffc","F1","batch6","spm_respsonse","9382.200000047684","img/question_1_10.jpeg","2","mat_10","3","1","1","9382.200000047684","","","","","","","","","","","","","","","","","","","","",""
"","","","","","html-keyboard-response","24","128309","0.0-2.0-2.0-0.10","5daa3d1726488800157a6ffc","F1","batch6","spm_show_trial_num","null","<p class=block-text>Trial 11 out of 60</p>","null","","","","","","","","","","","","","","","","","","","","","","","","","",""
"","","","","","image-button-response","25","145157","0.0-2.0-2.0-1.10","5daa3d1726488800157a6ffc","F1","batch6","spm_respsonse","16846.30000001192","img/question_1_11.jpeg","1","mat_11","4","0","0","16846.30000001192","","","","","","","","","","","","","","","","","","","","",""
"","","","","","html-keyboard-response","26","146208","0.0-2.0-2.0-0.11","5daa3d1726488800157a6ffc","F1","batch6","spm_show_trial_num","null","<p class=block-text>Trial 12 out of 60</p>","null","","","","","","","","","","","","","","","","","","","","","","","","","",""
"","","","","","image-button-response","27","156711","0.0-2.0-2.0-1.11","5daa3d1726488800157a6ffc","F1","batch6","spm_respsonse","10501.600000023842","img/question_1_12.jpeg","0","mat_12","5","0","0","10501.600000023842","","","","","","","","","","","","","","","","","","","","",""
"","","","","","html-keyboard-response","28","157769","0.0-2.0-2.0-0.12","5daa3d1726488800157a6ffc","F1","batch6","spm_show_trial_num","null","<p class=block-text>Trial 13 out of 60</p>","null","","","","","","","","","","","","","","","","","","","","","","","","","",""
"","","","","","image-button-response","29","161739","0.0-2.0-2.0-1.12","5daa3d1726488800157a6ffc","F1","batch6","spm_respsonse","3968.600000023842","img/question_2_1.jpeg","1","mat_13","2","1","1","3968.600000023842","","","","","","","","","","","","","","","","","","","","",""
"","","","","","html-keyboard-response","30","162794","0.0-2.0-2.0-0.13","5daa3d1726488800157a6ffc","F1","batch6","spm_show_trial_num","null","<p class=block-text>Trial 14 out of 60</p>","null","","","","","","","","","","","","","","","","","","","","","","","","","",""
"","","","","","image-button-response","31","168549","0.0-2.0-2.0-1.13","5daa3d1726488800157a6ffc","F1","batch6","spm_respsonse","5752.899999976158","img/question_2_2.jpeg","5","mat_14","6","1","1","5752.899999976158","","","","","","","","","","","","","","","","","","","","",""
"","","","","","html-keyboard-response","32","169600","0.0-2.0-2.0-0.14","5daa3d1726488800157a6ffc","F1","batch6","spm_show_trial_num","null","<p class=block-text>Trial 15 out of 60</p>","null","","","","","","","","","","","","","","","","","","","","","","","","","",""
"","","","","","image-button-response","33","174707","0.0-2.0-2.0-1.14","5daa3d1726488800157a6ffc","F1","batch6","spm_respsonse","5105.800000011921","img/question_2_3.jpeg","0","mat_15","1","1","1","5105.800000011921","","","","","","","","","","","","","","","","","","","","",""
"","","","","","html-keyboard-response","34","175765","0.0-2.0-2.0-0.15","5daa3d1726488800157a6ffc","F1","batch6","spm_show_trial_num","null","<p class=block-text>Trial 16 out of 60</p>","null","","","","","","","","","","","","","","","","","","","","","","","","","",""
"","","","","","image-button-response","35","190809","0.0-2.0-2.0-1.15","5daa3d1726488800157a6ffc","F1","batch6","spm_respsonse","15042.5","img/question_2_4.jpeg","3","mat_16","2","0","0","15042.5","","","","","","","","","","","","","","","","","","","","",""
"","","","","","html-keyboard-response","36","191874","0.0-2.0-2.0-0.16","5daa3d1726488800157a6ffc","F1","batch6","spm_show_trial_num","null","<p class=block-text>Trial 17 out of 60</p>","null","","","","","","","","","","","","","","","","","","","","","","","","","",""
"","","","","","image-button-response","37","197741","0.0-2.0-2.0-1.16","5daa3d1726488800157a6ffc","F1","batch6","spm_respsonse","5865.799999952316","img/question_2_5.jpeg","0","mat_17","1","1","1","5865.799999952316","","","","","","","","","","","","","","","","","","","","",""
"","","","","","html-keyboard-response","38","198811","0.0-2.0-2.0-0.17","5daa3d1726488800157a6ffc","F1","batch6","spm_show_trial_num","null","<p class=block-text>Trial 18 out of 60</p>","null","","","","","","","","","","","","","","","","","","","","","","","","","",""
"","","","","","image-button-response","39","210761","0.0-2.0-2.0-1.17","5daa3d1726488800157a6ffc","F1","batch6","spm_respsonse","11949.100000023842","img/question_2_6.jpeg","2","mat_18","3","1","1","11949.100000023842","","","","","","","","","","","","","","","","","","","","",""
"","","","","","html-keyboard-response","40","211823","0.0-2.0-2.0-0.18","5daa3d1726488800157a6ffc","F1","batch6","spm_show_trial_num","null","<p class=block-text>Trial 19 out of 60</p>","null","","","","","","","","","","","","","","","","","","","","","","","","","",""
"","","","","","image-button-response","41","219870","0.0-2.0-2.0-1.18","5daa3d1726488800157a6ffc","F1","batch6","spm_respsonse","8046.199999988079","img/question_2_7.jpeg","5","mat_19","5","0","0","8046.199999988079","","","","","","","","","","","","","","","","","","","","",""
"","","","","","html-keyboard-response","42","220938","0.0-2.0-2.0-0.19","5daa3d1726488800157a6ffc","F1","batch6","spm_show_trial_num","null","<p class=block-text>Trial 20 out of 60</p>","null","","","","","","","","","","","","","","","","","","","","","","","","","",""
"","","","","","image-button-response","43","238507","0.0-2.0-2.0-1.19","5daa3d1726488800157a6ffc","F1","batch6","spm_respsonse","17567","img/question_2_8.jpeg","5","mat_20","6","1","1","17567","","","","","","","","","","","","","","","","","","","","",""
"","","","","","html-keyboard-response","44","239566","0.0-2.0-2.0-0.20","5daa3d1726488800157a6ffc","F1","batch6","spm_show_trial_num","null","<p class=block-text>Trial 21 out of 60</p>","null","","","","","","","","","","","","","","","","","","","","","","","","","",""
"","","","","","image-button-response","45","249776","0.0-2.0-2.0-1.20","5daa3d1726488800157a6ffc","F1","batch6","spm_respsonse","10208.800000011921","img/question_2_9.jpeg","3","mat_21","4","1","1","10208.800000011921","","","","","","","","","","","","","","","","","","","","",""
"","","","","","html-keyboard-response","46","250831","0.0-2.0-2.0-0.21","5daa3d1726488800157a6ffc","F1","batch6","spm_show_trial_num","null","<p class=block-text>Trial 22 out of 60</p>","null","","","","","","","","","","","","","","","","","","","","","","","","","",""
"","","","","","image-button-response","47","272504","0.0-2.0-2.0-1.21","5daa3d1726488800157a6ffc","F1","batch6","spm_respsonse","21672.599999964237","img/question_2_10.jpeg","2","mat_22","3","1","1","21672.599999964237","","","","","","","","","","","","","","","","","","","","",""
"","","","","","html-keyboard-response","48","273573","0.0-2.0-2.0-0.22","5daa3d1726488800157a6ffc","F1","batch6","spm_show_trial_num","null","<p class=block-text>Trial 23 out of 60</p>","null","","","","","","","","","","","","","","","","","","","","","","","","","",""
"","","","","","image-button-response","49","287864","0.0-2.0-2.0-1.22","5daa3d1726488800157a6ffc","F1","batch6","spm_respsonse","14289.300000011921","img/question_2_11.jpeg","3","mat_23","4","1","1","14289.300000011921","","","","","","","","","","","","","","","","","","","","",""
"","","","","","html-keyboard-response","50","288935","0.0-2.0-2.0-0.23","5daa3d1726488800157a6ffc","F1","batch6","spm_show_trial_num","null","<p class=block-text>Trial 24 out of 60</p>","null","","","","","","","","","","","","","","","","","","","","","","","","","",""
"","","","","","image-button-response","51","331238","0.0-2.0-2.0-1.23","5daa3d1726488800157a6ffc","F1","batch6","spm_respsonse","42301.09999996424","img/question_2_12.jpeg","1","mat_24","5","0","0","42301.09999996424","","","","","","","","","","","","","","","","","","","","",""
"","","","","","html-button-response","52","334529","0.0-2.0-3.0","5daa3d1726488800157a6ffc","F1","batch6","attention_check","3027.300000011921","<p class = block-text>Attention check: Please choose 1<br></p>","0","","","true","","","","","","","","","","","","","","","","","","","","","","",""
"","","","","","html-keyboard-response","53","335334","0.0-2.0-4.0-0.0","5daa3d1726488800157a6ffc","F1","batch6","spm_show_trial_num","null","<p class=block-text>Trial 25 out of 60</p>","null","","","","","","","","","","","","","","","","","","","","","","","","","",""
"","","","","","image-button-response","54","348402","0.0-2.0-4.0-1.0","5daa3d1726488800157a6ffc","F1","batch6","spm_respsonse","13067.100000023842","img/question_3_1.jpeg","7","mat_25","8","1","1","13067.100000023842","","","","","","","","","","","","","","","","","","","","",""
"","","","","","html-keyboard-response","55","349461","0.0-2.0-4.0-0.1","5daa3d1726488800157a6ffc","F1","batch6","spm_show_trial_num","null","<p class=block-text>Trial 26 out of 60</p>","null","","","","","","","","","","","","","","","","","","","","","","","","","",""
"","","","","","image-button-response","56","358322","0.0-2.0-4.0-1.1","5daa3d1726488800157a6ffc","F1","batch6","spm_respsonse","8859.5","img/question_3_2.jpeg","1","mat_26","2","1","1","8859.5","","","","","","","","","","","","","","","","","","","","",""
"","","","","","html-keyboard-response","57","359381","0.0-2.0-4.0-0.2","5daa3d1726488800157a6ffc","F1","batch6","spm_show_trial_num","null","<p class=block-text>Trial 27 out of 60</p>","null","","","","","","","","","","","","","","","","","","","","","","","","","",""
"","","","","","image-button-response","58","377010","0.0-2.0-4.0-1.2","5daa3d1726488800157a6ffc","F1","batch6","spm_respsonse","17627.30000001192","img/question_3_3.jpeg","2","mat_27","3","1","1","17627.30000001192","","","","","","","","","","","","","","","","","","","","",""
"","","","","","html-keyboard-response","59","378078","0.0-2.0-4.0-0.3","5daa3d1726488800157a6ffc","F1","batch6","spm_show_trial_num","null","<p class=block-text>Trial 28 out of 60</p>","null","","","","","","","","","","","","","","","","","","","","","","","","","",""
"","","","","","image-button-response","60","413056","0.0-2.0-4.0-1.3","5daa3d1726488800157a6ffc","F1","batch6","spm_respsonse","34976.19999998808","img/question_3_4.jpeg","3","mat_28","8","0","0","34976.19999998808","","","","","","","","","","","","","","","","","","","","",""
"","","","","","html-keyboard-response","61","414132","0.0-2.0-4.0-0.4","5daa3d1726488800157a6ffc","F1","batch6","spm_show_trial_num","null","<p class=block-text>Trial 29 out of 60</p>","null","","","","","","","","","","","","","","","","","","","","","","","","","",""
"","","","","","image-button-response","62","431564","0.0-2.0-4.0-1.4","5daa3d1726488800157a6ffc","F1","batch6","spm_respsonse","17430.599999964237","img/question_3_5.jpeg","6","mat_29","7","1","1","17430.599999964237","","","","","","","","","","","","","","","","","","","","",""
"","","","","","html-keyboard-response","63","432621","0.0-2.0-4.0-0.5","5daa3d1726488800157a6ffc","F1","batch6","spm_show_trial_num","null","<p class=block-text>Trial 30 out of 60</p>","null","","","","","","","","","","","","","","","","","","","","","","","","","",""
"","","","","","image-button-response","64","459645","0.0-2.0-4.0-1.5","5daa3d1726488800157a6ffc","F1","batch6","spm_respsonse","27022.900000035763","img/question_3_6.jpeg","3","mat_30","4","1","1","27022.900000035763","","","","","","","","","","","","","","","","","","","","",""
"","","","","","html-keyboard-response","65","460712","0.0-2.0-4.0-0.6","5daa3d1726488800157a6ffc","F1","batch6","spm_show_trial_num","null","<p class=block-text>Trial 31 out of 60</p>","null","","","","","","","","","","","","","","","","","","","","","","","","","",""
"","","","","","image-button-response","66","494319","0.0-2.0-4.0-1.6","5daa3d1726488800157a6ffc","F1","batch6","spm_respsonse","33606.39999997616","img/question_3_7.jpeg","7","mat_31","5","0","0","33606.39999997616","","","","","","","","","","","","","","","","","","","","",""
"","","","","","html-keyboard-response","67","495389","0.0-2.0-4.0-0.7","5daa3d1726488800157a6ffc","F1","batch6","spm_show_trial_num","null","<p class=block-text>Trial 32 out of 60</p>","null","","","","","","","","","","","","","","","","","","","","","","","","","",""
"","","","","","image-button-response","68","527065","0.0-2.0-4.0-1.7","5daa3d1726488800157a6ffc","F1","batch6","spm_respsonse","31675","img/question_3_8.jpeg","0","mat_32","1","1","1","31675","","","","","","","","","","","","","","","","","","","","",""
"","","","","","html-keyboard-response","69","528125","0.0-2.0-4.0-0.8","5daa3d1726488800157a6ffc","F1","batch6","spm_show_trial_num","null","<p class=block-text>Trial 33 out of 60</p>","null","","","","","","","","","","","","","","","","","","","","","","","","","",""
"","","","","","image-button-response","70","558746","0.0-2.0-4.0-1.8","5daa3d1726488800157a6ffc","F1","batch6","spm_respsonse","30620.600000023842","img/question_3_9.jpeg","0","mat_33","7","0","0","30620.600000023842","","","","","","","","","","","","","","","","","","","","",""
"","","","","","html-keyboard-response","71","559816","0.0-2.0-4.0-0.9","5daa3d1726488800157a6ffc","F1","batch6","spm_show_trial_num","null","<p class=block-text>Trial 34 out of 60</p>","null","","","","","","","","","","","","","","","","","","","","","","","","","",""
"","","","","","image-button-response","72","579777","0.0-2.0-4.0-1.9","5daa3d1726488800157a6ffc","F1","batch6","spm_respsonse","19959.5","img/question_3_10.jpeg","7","mat_34","6","0","0","19959.5","","","","","","","","","","","","","","","","","","","","",""
"","","","","","html-keyboard-response","73","580831","0.0-2.0-4.0-0.10","5daa3d1726488800157a6ffc","F1","batch6","spm_show_trial_num","null","<p class=block-text>Trial 35 out of 60</p>","null","","","","","","","","","","","","","","","","","","","","","","","","","",""
"","","","","","image-button-response","74","618243","0.0-2.0-4.0-1.10","5daa3d1726488800157a6ffc","F1","batch6","spm_respsonse","37410.89999997616","img/question_3_11.jpeg","4","mat_35","1","0","0","37410.89999997616","","","","","","","","","","","","","","","","","","","","",""
"","","","","","html-keyboard-response","75","619312","0.0-2.0-4.0-0.11","5daa3d1726488800157a6ffc","F1","batch6","spm_show_trial_num","null","<p class=block-text>Trial 36 out of 60</p>","null","","","","","","","","","","","","","","","","","","","","","","","","","",""
"","","","","","image-button-response","76","844712","0.0-2.0-4.0-1.11","5daa3d1726488800157a6ffc","F1","batch6","spm_respsonse","225397.70000004768","img/question_3_12.jpeg","4","mat_36","2","0","0","225397.70000004768","","","","","","","","","","","","","","","","","","","","",""
"","","","","","html-keyboard-response","77","845782","0.0-2.0-4.0-0.12","5daa3d1726488800157a6ffc","F1","batch6","spm_show_trial_num","null","<p class=block-text>Trial 37 out of 60</p>","null","","","","","","","","","","","","","","","","","","","","","","","","","",""
"","","","","","image-button-response","78","855461","0.0-2.0-4.0-1.12","5daa3d1726488800157a6ffc","F1","batch6","spm_respsonse","9677.899999976158","img/question_4_1.jpeg","2","mat_37","3","1","1","9677.899999976158","","","","","","","","","","","","","","","","","","","","",""
"","","","","","html-keyboard-response","79","856525","0.0-2.0-4.0-0.13","5daa3d1726488800157a6ffc","F1","batch6","spm_show_trial_num","null","<p class=block-text>Trial 38 out of 60</p>","null","","","","","","","","","","","","","","","","","","","","","","","","","",""
"","","","","","image-button-response","80","872391","0.0-2.0-4.0-1.13","5daa3d1726488800157a6ffc","F1","batch6","spm_respsonse","15864.699999988079","img/question_4_2.jpeg","3","mat_38","4","1","1","15864.699999988079","","","","","","","","","","","","","","","","","","","","",""
"","","","","","html-keyboard-response","81","873468","0.0-2.0-4.0-0.14","5daa3d1726488800157a6ffc","F1","batch6","spm_show_trial_num","null","<p class=block-text>Trial 39 out of 60</p>","null","","","","","","","","","","","","","","","","","","","","","","","","","",""
"","","","","","image-button-response","82","885096","0.0-2.0-4.0-1.14","5daa3d1726488800157a6ffc","F1","batch6","spm_respsonse","11626.899999976158","img/question_4_3.jpeg","2","mat_39","3","1","1","11626.899999976158","","","","","","","","","","","","","","","","","","","","",""
"","","","","","html-keyboard-response","83","886159","0.0-2.0-4.0-0.15","5daa3d1726488800157a6ffc","F1","batch6","spm_show_trial_num","null","<p class=block-text>Trial 40 out of 60</p>","null","","","","","","","","","","","","","","","","","","","","","","","","","",""
"","","","","","image-button-response","84","900110","0.0-2.0-4.0-1.15","5daa3d1726488800157a6ffc","F1","batch6","spm_respsonse","13950","img/question_4_4.jpeg","6","mat_40","7","1","1","13950","","","","","","","","","","","","","","","","","","","","",""
"","","","","","html-keyboard-response","85","901171","0.0-2.0-4.0-0.16","5daa3d1726488800157a6ffc","F1","batch6","spm_show_trial_num","null","<p class=block-text>Trial 41 out of 60</p>","null","","","","","","","","","","","","","","","","","","","","","","","","","",""
"","","","","","image-button-response","86","912425","0.0-2.0-4.0-1.16","5daa3d1726488800157a6ffc","F1","batch6","spm_respsonse","11252.599999964237","img/question_4_5.jpeg","7","mat_41","8","1","1","11252.599999964237","","","","","","","","","","","","","","","","","","","","",""
"","","","","","html-keyboard-response","87","913486","0.0-2.0-4.0-0.17","5daa3d1726488800157a6ffc","F1","batch6","spm_show_trial_num","null","<p class=block-text>Trial 42 out of 60</p>","null","","","","","","","","","","","","","","","","","","","","","","","","","",""
"","","","","","image-button-response","88","931541","0.0-2.0-4.0-1.17","5daa3d1726488800157a6ffc","F1","batch6","spm_respsonse","18054.100000023842","img/question_4_6.jpeg","5","mat_42","6","1","1","18054.100000023842","","","","","","","","","","","","","","","","","","","","",""
"","","","","","html-keyboard-response","89","932596","0.0-2.0-4.0-0.18","5daa3d1726488800157a6ffc","F1","batch6","spm_show_trial_num","null","<p class=block-text>Trial 43 out of 60</p>","null","","","","","","","","","","","","","","","","","","","","","","","","","",""
"","","","","","image-button-response","90","945290","0.0-2.0-4.0-1.18","5daa3d1726488800157a6ffc","F1","batch6","spm_respsonse","12691.900000035763","img/question_4_7.jpeg","4","mat_43","5","1","1","12691.900000035763","","","","","","","","","","","","","","","","","","","","",""
"","","","","","html-keyboard-response","91","946359","0.0-2.0-4.0-0.19","5daa3d1726488800157a6ffc","F1","batch6","spm_show_trial_num","null","<p class=block-text>Trial 44 out of 60</p>","null","","","","","","","","","","","","","","","","","","","","","","","","","",""
"","","","","","image-button-response","92","960370","0.0-2.0-4.0-1.19","5daa3d1726488800157a6ffc","F1","batch6","spm_respsonse","14009.299999952316","img/question_4_8.jpeg","3","mat_44","4","1","1","14009.299999952316","","","","","","","","","","","","","","","","","","","","",""
"","","","","","html-keyboard-response","93","961439","0.0-2.0-4.0-0.20","5daa3d1726488800157a6ffc","F1","batch6","spm_show_trial_num","null","<p class=block-text>Trial 45 out of 60</p>","null","","","","","","","","","","","","","","","","","","","","","","","","","",""
"","","","","","image-button-response","94","1011169","0.0-2.0-4.0-1.20","5daa3d1726488800157a6ffc","F1","batch6","spm_respsonse","49728.89999997616","img/question_4_9.jpeg","0","mat_45","1","1","1","49728.89999997616","","","","","","","","","","","","","","","","","","","","",""
"","","","","","html-keyboard-response","95","1012222","0.0-2.0-4.0-0.21","5daa3d1726488800157a6ffc","F1","batch6","spm_show_trial_num","null","<p class=block-text>Trial 46 out of 60</p>","null","","","","","","","","","","","","","","","","","","","","","","","","","",""
"","","","","","image-button-response","96","1033817","0.0-2.0-4.0-1.21","5daa3d1726488800157a6ffc","F1","batch6","spm_respsonse","21595.30000001192","img/question_4_10.jpeg","6","mat_46","2","0","0","21595.30000001192","","","","","","","","","","","","","","","","","","","","",""
"","","","","","html-keyboard-response","97","1034888","0.0-2.0-4.0-0.22","5daa3d1726488800157a6ffc","F1","batch6","spm_show_trial_num","null","<p class=block-text>Trial 47 out of 60</p>","null","","","","","","","","","","","","","","","","","","","","","","","","","",""
"","","","","","image-button-response","98","1043796","0.0-2.0-4.0-1.22","5daa3d1726488800157a6ffc","F1","batch6","spm_respsonse","8906.699999988079","img/question_4_11.jpeg","7","mat_47","5","0","0","8906.699999988079","","","","","","","","","","","","","","","","","","","","",""
"","","","","","html-keyboard-response","99","1044855","0.0-2.0-4.0-0.23","5daa3d1726488800157a6ffc","F1","batch6","spm_show_trial_num","null","<p class=block-text>Trial 48 out of 60</p>","null","","","","","","","","","","","","","","","","","","","","","","","","","",""
"","","","","","image-button-response","100","1061870","0.0-2.0-4.0-1.23","5daa3d1726488800157a6ffc","F1","batch6","spm_respsonse","17014.299999952316","img/question_4_12.jpeg","6","mat_48","6","0","0","17014.299999952316","","","","","","","","","","","","","","","","","","","","",""
"","","","","","html-keyboard-response","101","1062938","0.0-2.0-4.0-0.24","5daa3d1726488800157a6ffc","F1","batch6","spm_show_trial_num","null","<p class=block-text>Trial 49 out of 60</p>","null","","","","","","","","","","","","","","","","","","","","","","","","","",""
"","","","","","image-button-response","102","1088850","0.0-2.0-4.0-1.24","5daa3d1726488800157a6ffc","F1","batch6","spm_respsonse","25910.100000023842","img/question_5_1.jpeg","0","mat_49","7","0","0","25910.100000023842","","","","","","","","","","","","","","","","","","","","",""
"","","","","","html-keyboard-response","103","1089927","0.0-2.0-4.0-0.25","5daa3d1726488800157a6ffc","F1","batch6","spm_show_trial_num","null","<p class=block-text>Trial 50 out of 60</p>","null","","","","","","","","","","","","","","","","","","","","","","","","","",""
"","","","","","image-button-response","104","1101300","0.0-2.0-4.0-1.25","5daa3d1726488800157a6ffc","F1","batch6","spm_respsonse","11371.600000023842","img/question_5_2.jpeg","5","mat_50","6","1","1","11371.600000023842","","","","","","","","","","","","","","","","","","","","",""
"","","","","","html-keyboard-response","105","1102370","0.0-2.0-4.0-0.26","5daa3d1726488800157a6ffc","F1","batch6","spm_show_trial_num","null","<p class=block-text>Trial 51 out of 60</p>","null","","","","","","","","","","","","","","","","","","","","","","","","","",""
"","","","","","image-button-response","106","1114691","0.0-2.0-4.0-1.26","5daa3d1726488800157a6ffc","F1","batch6","spm_respsonse","12319.100000023842","img/question_5_3.jpeg","0","mat_51","8","0","0","12319.100000023842","","","","","","","","","","","","","","","","","","","","",""
"","","","","","html-keyboard-response","107","1115754","0.0-2.0-4.0-0.27","5daa3d1726488800157a6ffc","F1","batch6","spm_show_trial_num","null","<p class=block-text>Trial 52 out of 60</p>","null","","","","","","","","","","","","","","","","","","","","","","","","","",""
"","","","","","image-button-response","108","1124042","0.0-2.0-4.0-1.27","5daa3d1726488800157a6ffc","F1","batch6","spm_respsonse","8286.899999976158","img/question_5_4.jpeg","2","mat_52","2","0","0","8286.899999976158","","","","","","","","","","","","","","","","","","","","",""
"","","","","","html-keyboard-response","109","1125115","0.0-2.0-4.0-0.28","5daa3d1726488800157a6ffc","F1","batch6","spm_show_trial_num","null","<p class=block-text>Trial 53 out of 60</p>","null","","","","","","","","","","","","","","","","","","","","","","","","","",""
"","","","","","image-button-response","110","1129865","0.0-2.0-4.0-1.28","5daa3d1726488800157a6ffc","F1","batch6","spm_respsonse","4748.800000011921","img/question_5_5.jpeg","2","mat_53","1","0","0","4748.800000011921","","","","","","","","","","","","","","","","","","","","",""
"","","","","","html-keyboard-response","111","1130936","0.0-2.0-4.0-0.29","5daa3d1726488800157a6ffc","F1","batch6","spm_show_trial_num","null","<p class=block-text>Trial 54 out of 60</p>","null","","","","","","","","","","","","","","","","","","","","","","","","","",""
"","","","","","image-button-response","112","1139310","0.0-2.0-4.0-1.29","5daa3d1726488800157a6ffc","F1","batch6","spm_respsonse","8373.400000035763","img/question_5_6.jpeg","4","mat_54","5","1","1","8373.400000035763","","","","","","","","","","","","","","","","","","","","",""
"","","","","","html-keyboard-response","113","1140378","0.0-2.0-4.0-0.30","5daa3d1726488800157a6ffc","F1","batch6","spm_show_trial_num","null","<p class=block-text>Trial 55 out of 60</p>","null","","","","","","","","","","","","","","","","","","","","","","","","","",""
"","","","","","image-button-response","114","1157883","0.0-2.0-4.0-1.30","5daa3d1726488800157a6ffc","F1","batch6","spm_respsonse","17502.599999964237","img/question_5_7.jpeg","6","mat_55","1","0","0","17502.599999964237","","","","","","","","","","","","","","","","","","","","",""
"","","","","","html-keyboard-response","115","1158934","0.0-2.0-4.0-0.31","5daa3d1726488800157a6ffc","F1","batch6","spm_show_trial_num","null","<p class=block-text>Trial 56 out of 60</p>","null","","","","","","","","","","","","","","","","","","","","","","","","","",""
"","","","","","image-button-response","116","1173967","0.0-2.0-4.0-1.31","5daa3d1726488800157a6ffc","F1","batch6","spm_respsonse","15031.399999976158","img/question_5_8.jpeg","4","mat_56","6","0","0","15031.399999976158","","","","","","","","","","","","","","","","","","","","",""
"","","","","","html-keyboard-response","117","1175047","0.0-2.0-4.0-0.32","5daa3d1726488800157a6ffc","F1","batch6","spm_show_trial_num","null","<p class=block-text>Trial 57 out of 60</p>","null","","","","","","","","","","","","","","","","","","","","","","","","","",""
"","","","","","image-button-response","118","1185510","0.0-2.0-4.0-1.32","5daa3d1726488800157a6ffc","F1","batch6","spm_respsonse","10461.599999964237","img/question_5_9.jpeg","6","mat_57","3","0","0","10461.599999964237","","","","","","","","","","","","","","","","","","","","",""
"","","","","","html-keyboard-response","119","1186569","0.0-2.0-4.0-0.33","5daa3d1726488800157a6ffc","F1","batch6","spm_show_trial_num","null","<p class=block-text>Trial 58 out of 60</p>","null","","","","","","","","","","","","","","","","","","","","","","","","","",""
"","","","","","image-button-response","120","1200056","0.0-2.0-4.0-1.33","5daa3d1726488800157a6ffc","F1","batch6","spm_respsonse","13485.800000011921","img/question_5_10.jpeg","0","mat_58","2","0","0","13485.800000011921","","","","","","","","","","","","","","","","","","","","",""
"","","","","","html-keyboard-response","121","1201111","0.0-2.0-4.0-0.34","5daa3d1726488800157a6ffc","F1","batch6","spm_show_trial_num","null","<p class=block-text>Trial 59 out of 60</p>","null","","","","","","","","","","","","","","","","","","","","","","","","","",""
"","","","","","image-button-response","122","1209561","0.0-2.0-4.0-1.34","5daa3d1726488800157a6ffc","F1","batch6","spm_respsonse","8448.5","img/question_5_11.jpeg","1","mat_59","4","0","0","8448.5","","","","","","","","","","","","","","","","","","","","",""
"","","","","","html-keyboard-response","123","1210623","0.0-2.0-4.0-0.35","5daa3d1726488800157a6ffc","F1","batch6","spm_show_trial_num","null","<p class=block-text>Trial 60 out of 60</p>","null","","","","","","","","","","","","","","","","","","","","","","","","","",""
"","","","","","image-button-response","124","1218294","0.0-2.0-4.0-1.35","5daa3d1726488800157a6ffc","F1","batch6","spm_respsonse","7669.300000011921","img/question_5_12.jpeg","4","mat_60","5","1","1","7669.300000011921","","","","","","","","","","","","","","","","","","","","",""
"","","","","","html-button-response","125","1224681","0.0-2.0-5.0","5daa3d1726488800157a6ffc","F1","batch6","spm_goodbye","6134.799999952316","<p class= block-text>This concludes the Standard Progressive Matrix game. Thank you for your responses!<br> When you are ready, click the button continue</p>","0","","","","","","","","","","","","","","","","","","","","","","","","","",""
"true","","","","","fullscreen","126","1229042","0.0-3.0-0.0","5daa3d1726488800157a6ffc","F1","batch6","","","","","","","","","","","","","","","","","","","","","","","","","","","","","",""
"","","","","","instructions","127","1264138","0.0-3.0-1.0-0.0","5daa3d1726488800157a6ffc","F1","batch6","","35094.90000003576","","","","","","","","[{""page_index"":0,""viewing_time"":23124.900000035763},{""page_index"":1,""viewing_time"":11969.799999952316}]","","","","","","","","","","","","","","","","","","","",""
"","","","","","html-button-response","128","1265716","0.0-3.0-1.0-1.0-0.0","5daa3d1726488800157a6ffc","F1","batch6","pattern_enter_quiz","1577.6000000238419","<p class=block-text> Let's answer a few questions <br>","0","","","","","","","","","","","","","","","","","","","","","","","","","",""
"","","","","","html-button-response","129","1271964","0.0-3.0-1.0-1.0-1.0","5daa3d1726488800157a6ffc","F1","batch6","pattern_quiz","6247.899999976158","<p class = block-text>True or False: You will have as much time as you want to make each choice. <br></p>","0","","","false","","","","","","","","","","","","","","","","","","","","","","",""
"","","","","","html-button-response","130","1275028","0.0-3.0-1.0-1.0-2.0","5daa3d1726488800157a6ffc","F1","batch6","pattern_quiz_feedback","3063.199999988079","<p class = block-text>Incorrect. Remember, You should make your choice as fast as you can.</p>","0","","","","","","","","","","","","","","","","","","","","","","","","","",""
"","","","","","html-button-response","131","1287642","0.0-3.0-1.0-1.0-3.0","5daa3d1726488800157a6ffc","F1","batch6","pattern_quiz","12613.5","<p class = block-text>True or False: You will look for 4 pieces in black or white color connected in a row either horizontally, vertically or diagonally. <br></p>","0","","","true","","","","","","","","","","","","","","","","","","","","","","",""
"","","","","","html-button-response","132","1288680","0.0-3.0-1.0-1.0-4.0","5daa3d1726488800157a6ffc","F1","batch6","pattern_quiz_feedback","1037.3999999761581","<p class = block-text>Correct! </p>","0","","","","","","","","","","","","","","","","","","","","","","","","","",""
"","","","","","html-button-response","133","1291914","0.0-3.0-1.0-2.0-0.0","5daa3d1726488800157a6ffc","F1","batch6","","3232.800000011921","<p class = block-text>You made too many incorrect choices.</p><p class = block-text>You will now repeat the instruction and quiz</p>","0","","","","","","","","","","","","","","","","","","","","","","","","","",""
"","","","","","instructions","134","1296326","0.0-3.0-1.1-0.1","5daa3d1726488800157a6ffc","F1","batch6","","4411.699999988079","","","","","","","","[{""page_index"":0,""viewing_time"":3398.199999988079},{""page_index"":1,""viewing_time"":1013.3999999761581}]","","","","","","","","","","","","","","","","","","","",""
"","","","","","html-button-response","135","1297667","0.0-3.0-1.1-1.1-0.1","5daa3d1726488800157a6ffc","F1","batch6","pattern_enter_quiz","1340","<p class=block-text> Let's answer a few questions <br>","0","","","","","","","","","","","","","","","","","","","","","","","","","",""
"","","","","","html-button-response","136","1299593","0.0-3.0-1.1-1.1-1.1","5daa3d1726488800157a6ffc","F1","batch6","pattern_quiz","1925.800000011921","<p class = block-text>True or False: You will have as much time as you want to make each choice. <br></p>","1","","","true","","","","","","","","","","","","","","","","","","","","","","",""
"","","","","","html-button-response","137","1304596","0.0-3.0-1.1-1.1-2.1","5daa3d1726488800157a6ffc","F1","batch6","pattern_quiz_feedback","5002.299999952316","<p class = block-text>Correct! You should make your choice <strong> as fast as you can</strong>.</p>","0","","","","","","","","","","","","","","","","","","","","","","","","","",""
"","","","","","html-button-response","138","1307298","0.0-3.0-1.1-1.1-3.1","5daa3d1726488800157a6ffc","F1","batch6","pattern_quiz","2701.699999988079","<p class = block-text>True or False: You will look for 4 pieces in black or white color connected in a row either horizontally, vertically or diagonally. <br></p>","0","","","true","","","","","","","","","","","","","","","","","","","","","","",""
"","","","","","html-button-response","139","1308372","0.0-3.0-1.1-1.1-4.1","5daa3d1726488800157a6ffc","F1","batch6","pattern_quiz_feedback","1073.6000000238419","<p class = block-text>Correct! </p>","0","","","","","","","","","","","","","","","","","","","","","","","","","",""
"","","","","","html-button-response","140","1311307","0.0-3.0-2.0","5daa3d1726488800157a6ffc","F1","batch6","pattern_enter_practice","2933.699999988079","<p class=block-text> Now that you've understood the game, let's do a few practice trials before we start!<br> <br>","0","","","","","","","","","","","","","","","","","","","","","","","","","",""
"","","","","","image-keyboard-response","141","1315433","0.0-3.0-3.0-0.0","5daa3d1726488800157a6ffc","F1","batch6","pattern_practice","4125.100000023842","stim/prac_yes_20_dia_b1.png","f","","f","true","","","","","","","","","","","","","","","","","","","","","","",""
"","","","","","html-keyboard-response","142","1316438","0.0-3.0-3.0-1.0","5daa3d1726488800157a6ffc","F1","batch6","pattern_feedback","null","<p style=""font-size:30px;color:green;"">Correct!</p>","null","","","","","","","","","","","","","","","","","","","","","","","","","",""
"","","","","","image-keyboard-response","143","1319101","0.0-3.0-3.0-0.1","5daa3d1726488800157a6ffc","F1","batch6","pattern_practice","2662.100000023842","stim/prac_no_16_1.png","j","","j","true","","","","","","","","","","","","","","","","","","","","","","",""
"","","","","","html-keyboard-response","144","1320112","0.0-3.0-3.0-1.1","5daa3d1726488800157a6ffc","F1","batch6","pattern_feedback","null","<p style=""font-size:30px;color:green;"">Correct!</p>","null","","","","","","","","","","","","","","","","","","","","","","","","","",""
"","","","","","image-keyboard-response","145","1322332","0.0-3.0-3.0-0.2","5daa3d1726488800157a6ffc","F1","batch6","pattern_practice","2219.199999988079","stim/prac_no_18_1.png","j","","j","true","","","","","","","","","","","","","","","","","","","","","","",""
"","","","","","html-keyboard-response","146","1323360","0.0-3.0-3.0-1.2","5daa3d1726488800157a6ffc","F1","batch6","pattern_feedback","null","<p style=""font-size:30px;color:green;"">Correct!</p>","null","","","","","","","","","","","","","","","","","","","","","","","","","",""
"","","","","","image-keyboard-response","147","1324324","0.0-3.0-3.0-0.3","5daa3d1726488800157a6ffc","F1","batch6","pattern_practice","963.3000000119209","stim/prac_yes_18_hor_w1.png","f","","f","true","","","","","","","","","","","","","","","","","","","","","","",""
"","","","","","html-keyboard-response","148","1325344","0.0-3.0-3.0-1.3","5daa3d1726488800157a6ffc","F1","batch6","pattern_feedback","null","<p style=""font-size:30px;color:green;"">Correct!</p>","null","","","","","","","","","","","","","","","","","","","","","","","","","",""
"","","","","","image-keyboard-response","149","1326124","0.0-3.0-3.0-0.4","5daa3d1726488800157a6ffc","F1","batch6","pattern_practice","779.8000000119209","stim/prac_yes_16_ver_w1.png","f","","f","true","","","","","","","","","","","","","","","","","","","","","","",""
"","","","","","html-keyboard-response","150","1327139","0.0-3.0-3.0-1.4","5daa3d1726488800157a6ffc","F1","batch6","pattern_feedback","null","<p style=""font-size:30px;color:green;"">Correct!</p>","null","","","","","","","","","","","","","","","","","","","","","","","","","",""
"","","","","","html-button-response","151","1335190","0.0-3.0-4.0","5daa3d1726488800157a6ffc","F1","batch6","pattern_enter_official_trials","8049.400000035763","<p class=block-text> Good job! You are done with practice trials!<br>
        You responded correctly on 100% of the trials.<br>
        Press the button below to start official trials. Now you won't see any feedback about your response</p>","0","","","","","","","","","","","","","","","","","","","","","","","","","",""
"","","","","","html-keyboard-response","152","1335991","0.0-3.0-5.0-0.0","5daa3d1726488800157a6ffc","F1","batch6","pattern_show_trial_num","null","<p class=block-text>Trial 1 out of 78</p>","null","","","","","","","","","","","","","","","","","","","","","","","","","",""
"","","","","","image-keyboard-response","153","1341973","0.0-3.0-5.0-1.0","5daa3d1726488800157a6ffc","F1","batch6","pattern_response","5980.899999976158","stim/no_39_1_w.png","j","pattern_21","j","true","","","","5980.899999976158","true","1","","","","","","","","","","","","","","","","",""
"","","","","","html-keyboard-response","154","1343301","0.0-3.0-5.0-0.1","5daa3d1726488800157a6ffc","F1","batch6","pattern_show_trial_num","null","<p class=block-text>Trial 2 out of 78</p>","null","","","","","","","","","","","","","","","","","","","","","","","","","",""
"","","","","","image-keyboard-response","155","1348374","0.0-3.0-5.0-1.1","5daa3d1726488800157a6ffc","F1","batch6","pattern_response","5071.699999988079","stim/no_47_1_b.png","j","pattern_27","j","true","","","","5071.699999988079","true","2","","","","","","","","","","","","","","","","",""
"","","","","","html-keyboard-response","156","1349701","0.0-3.0-5.0-0.2","5daa3d1726488800157a6ffc","F1","batch6","pattern_show_trial_num","null","<p class=block-text>Trial 3 out of 78</p>","null","","","","","","","","","","","","","","","","","","","","","","","","","",""
"","","","","","image-keyboard-response","157","1354622","0.0-3.0-5.0-1.2","5daa3d1726488800157a6ffc","F1","batch6","pattern_response","4919.600000023842","stim/yes_53_ver_b1_b.png","f","pattern_74","f","true","","","","4919.600000023842","true","3","","","","","","","","","","","","","","","","",""
"","","","","","html-keyboard-response","158","1355934","0.0-3.0-5.0-0.3","5daa3d1726488800157a6ffc","F1","batch6","pattern_show_trial_num","null","<p class=block-text>Trial 4 out of 78</p>","null","","","","","","","","","","","","","","","","","","","","","","","","","",""
"","","","","","image-keyboard-response","159","1359526","0.0-3.0-5.0-1.3","5daa3d1726488800157a6ffc","F1","batch6","pattern_response","3590.899999976158","stim/no_49_2_b.png","j","pattern_29","j","true","","","","3590.899999976158","true","4","","","","","","","","","","","","","","","","",""
"","","","","","html-keyboard-response","160","1360851","0.0-3.0-5.0-0.4","5daa3d1726488800157a6ffc","F1","batch6","pattern_show_trial_num","null","<p class=block-text>Trial 5 out of 78</p>","null","","","","","","","","","","","","","","","","","","","","","","","","","",""
"","","","","","image-keyboard-response","161","1362741","0.0-3.0-5.0-1.4","5daa3d1726488800157a6ffc","F1","batch6","pattern_response","1889","stim/no_12_1.png","f","pattern_01","j","false","","","","1889","false","4","","","","","","","","","","","","","","","","",""
"","","","","","html-keyboard-response","162","1364070","0.0-3.0-5.0-0.5","5daa3d1726488800157a6ffc","F1","batch6","pattern_show_trial_num","null","<p class=block-text>Trial 6 out of 78</p>","null","","","","","","","","","","","","","","","","","","","","","","","","","",""
"","","","","","image-keyboard-response","163","1368733","0.0-3.0-5.0-1.5","5daa3d1726488800157a6ffc","F1","batch6","pattern_response","4662.300000011921","stim/no_25_1_b.png","j","pattern_09","j","true","","","","4662.300000011921","true","5","","","","","","","","","","","","","","","","",""
"","","","","","html-keyboard-response","164","1370035","0.0-3.0-5.0-0.6","5daa3d1726488800157a6ffc","F1","batch6","pattern_show_trial_num","null","<p class=block-text>Trial 7 out of 78</p>","null","","","","","","","","","","","","","","","","","","","","","","","","","",""
"","","","","","image-keyboard-response","165","1372245","0.0-3.0-5.0-1.6","5daa3d1726488800157a6ffc","F1","batch6","pattern_response","2209.199999988079","stim/yes_23_ver_b1.png","f","pattern_48","f","true","","","","2209.199999988079","true","6","","","","","","","","","","","","","","","","",""
"","","","","","html-keyboard-response","166","1373571","0.0-3.0-5.0-0.7","5daa3d1726488800157a6ffc","F1","batch6","pattern_show_trial_num","null","<p class=block-text>Trial 8 out of 78</p>","null","","","","","","","","","","","","","","","","","","","","","","","","","",""
"","","","","","image-keyboard-response","167","1376365","0.0-3.0-5.0-1.7","5daa3d1726488800157a6ffc","F1","batch6","pattern_response","2793.5","stim/no_15_1_w.png","j","pattern_03","j","true","","","","2793.5","true","7","","","","","","","","","","","","","","","","",""
"","","","","","html-keyboard-response","168","1377684","0.0-3.0-5.0-0.8","5daa3d1726488800157a6ffc","F1","batch6","pattern_show_trial_num","null","<p class=block-text>Trial 9 out of 78</p>","null","","","","","","","","","","","","","","","","","","","","","","","","","",""
"","","","","","image-keyboard-response","169","1378733","0.0-3.0-5.0-1.8","5daa3d1726488800157a6ffc","F1","batch6","pattern_response","1048.300000011921","stim/yes_17_ver_b1_b.png","f","pattern_46","f","true","","","","1048.300000011921","true","8","","","","","","","","","","","","","","","","",""
"","","","","","html-keyboard-response","170","1380053","0.0-3.0-5.0-0.9","5daa3d1726488800157a6ffc","F1","batch6","pattern_show_trial_num","null","<p class=block-text>Trial 10 out of 78</p>","null","","","","","","","","","","","","","","","","","","","","","","","","","",""
"","","","","","image-keyboard-response","171","1385565","0.0-3.0-5.0-1.9","5daa3d1726488800157a6ffc","F1","batch6","pattern_response","5511","stim/no_36_1_b.png","j","pattern_17","j","true","","","","5511","true","9","","","","","","","","","","","","","","","","",""
"","","","","","html-keyboard-response","172","1386887","0.0-3.0-5.0-0.10","5daa3d1726488800157a6ffc","F1","batch6","pattern_show_trial_num","null","<p class=block-text>Trial 11 out of 78</p>","null","","","","","","","","","","","","","","","","","","","","","","","","","",""
"","","","","","image-keyboard-response","173","1390773","0.0-3.0-5.0-1.10","5daa3d1726488800157a6ffc","F1","batch6","pattern_response","3884.800000011921","stim/no_30_1_b.png","j","pattern_13","j","true","","","","3884.800000011921","true","10","","","","","","","","","","","","","","","","",""
"","","","","","html-keyboard-response","174","1392089","0.0-3.0-5.0-0.11","5daa3d1726488800157a6ffc","F1","batch6","pattern_show_trial_num","null","<p class=block-text>Trial 12 out of 78</p>","null","","","","","","","","","","","","","","","","","","","","","","","","","",""
"","","","","","image-keyboard-response","175","1393548","0.0-3.0-5.0-1.11","5daa3d1726488800157a6ffc","F1","batch6","pattern_response","1458.1000000238419","stim/no_18_1_b.png","j","pattern_05","j","true","","","","1458.1000000238419","true","11","","","","","","","","","","","","","","","","",""
"","","","","","html-keyboard-response","176","1394874","0.0-3.0-5.0-0.12","5daa3d1726488800157a6ffc","F1","batch6","pattern_show_trial_num","null","<p class=block-text>Trial 13 out of 78</p>","null","","","","","","","","","","","","","","","","","","","","","","","","","",""
"","","","","","image-keyboard-response","177","1406213","0.0-3.0-5.0-1.12","5daa3d1726488800157a6ffc","F1","batch6","pattern_response","11338","stim/no_67_1.png","j","pattern_39","j","true","","","","11338","true","12","","","","","","","","","","","","","","","","",""
"","","","","","html-keyboard-response","178","1407524","0.0-3.0-5.0-0.13","5daa3d1726488800157a6ffc","F1","batch6","pattern_show_trial_num","null","<p class=block-text>Trial 14 out of 78</p>","null","","","","","","","","","","","","","","","","","","","","","","","","","",""
"","","","","","image-keyboard-response","179","1408956","0.0-3.0-5.0-1.13","5daa3d1726488800157a6ffc","F1","batch6","pattern_response","1430.9000000357628","stim/yes_30_ver_b1_b.png","f","pattern_54","f","true","","","","1430.9000000357628","true","13","","","","","","","","","","","","","","","","",""
"","","","","","html-keyboard-response","180","1410289","0.0-3.0-5.0-0.14","5daa3d1726488800157a6ffc","F1","batch6","pattern_show_trial_num","null","<p class=block-text>Trial 15 out of 78</p>","null","","","","","","","","","","","","","","","","","","","","","","","","","",""
"","","","","","image-keyboard-response","181","1411733","0.0-3.0-5.0-1.14","5daa3d1726488800157a6ffc","F1","batch6","pattern_response","1442.8999999761581","stim/yes_33_dia_w1_w.png","f","pattern_56","f","true","","","","1442.8999999761581","true","14","","","","","","","","","","","","","","","","",""
"","","","","","html-keyboard-response","182","1413038","0.0-3.0-5.0-0.15","5daa3d1726488800157a6ffc","F1","batch6","pattern_show_trial_num","null","<p class=block-text>Trial 16 out of 78</p>","null","","","","","","","","","","","","","","","","","","","","","","","","","",""
"","","","","","image-keyboard-response","183","1415404","0.0-3.0-5.0-1.15","5daa3d1726488800157a6ffc","F1","batch6","pattern_response","2365.7999999523163","stim/no_28_2.png","j","pattern_11","j","true","","","","2365.7999999523163","true","15","","","","","","","","","","","","","","","","",""
"","","","","","html-keyboard-response","184","1416716","0.0-3.0-5.0-0.16","5daa3d1726488800157a6ffc","F1","batch6","pattern_show_trial_num","null","<p class=block-text>Trial 17 out of 78</p>","null","","","","","","","","","","","","","","","","","","","","","","","","","",""
"","","","","","image-keyboard-response","185","1418365","0.0-3.0-5.0-1.16","5daa3d1726488800157a6ffc","F1","batch6","pattern_response","1648.199999988079","stim/yes_49_hor_w1_b.png","f","pattern_70","f","true","","","","1648.199999988079","true","16","","","","","","","","","","","","","","","","",""
"","","","","","html-keyboard-response","186","1419690","0.0-3.0-5.0-0.17","5daa3d1726488800157a6ffc","F1","batch6","pattern_show_trial_num","null","<p class=block-text>Trial 18 out of 78</p>","null","","","","","","","","","","","","","","","","","","","","","","","","","",""
"","","","","","image-keyboard-response","187","1423013","0.0-3.0-5.0-1.17","5daa3d1726488800157a6ffc","F1","batch6","pattern_response","3322","stim/yes_58_dia_w1_w.png","f","pattern_76","f","true","","","","3322","true","17","","","","","","","","","","","","","","","","",""
"","","","","","html-keyboard-response","188","1424338","0.0-3.0-5.0-0.18","5daa3d1726488800157a6ffc","F1","batch6","pattern_show_trial_num","null","<p class=block-text>Trial 19 out of 78</p>","null","","","","","","","","","","","","","","","","","","","","","","","","","",""
"","","","","","image-keyboard-response","189","1425100","0.0-3.0-5.0-1.18","5daa3d1726488800157a6ffc","F1","batch6","pattern_response","761.5","stim/yes_12_hor_w1_w.png","f","pattern_42","f","true","","","","761.5","true","18","","","","","","","","","","","","","","","","",""
"","","","","","html-keyboard-response","190","1426416","0.0-3.0-5.0-0.19","5daa3d1726488800157a6ffc","F1","batch6","pattern_show_trial_num","null","<p class=block-text>Trial 20 out of 78</p>","null","","","","","","","","","","","","","","","","","","","","","","","","","",""
"","","","","","image-keyboard-response","191","1429501","0.0-3.0-5.0-1.19","5daa3d1726488800157a6ffc","F1","batch6","pattern_response","3083.7000000476837","stim/no_33_1_b.png","j","pattern_15","j","true","","","","3083.7000000476837","true","19","","","","","","","","","","","","","","","","",""
"","","","","","html-keyboard-response","192","1430817","0.0-3.0-5.0-0.20","5daa3d1726488800157a6ffc","F1","batch6","pattern_show_trial_num","null","<p class=block-text>Trial 21 out of 78</p>","null","","","","","","","","","","","","","","","","","","","","","","","","","",""
"","","","","","image-keyboard-response","193","1432012","0.0-3.0-5.0-1.20","5daa3d1726488800157a6ffc","F1","batch6","pattern_response","1194.1000000238419","stim/no_22_1_b.png","j","pattern_07","j","true","","","","1194.1000000238419","true","20","","","","","","","","","","","","","","","","",""
"","","","","","html-keyboard-response","194","1433316","0.0-3.0-5.0-0.21","5daa3d1726488800157a6ffc","F1","batch6","pattern_show_trial_num","null","<p class=block-text>Trial 22 out of 78</p>","null","","","","","","","","","","","","","","","","","","","","","","","","","",""
"","","","","","image-keyboard-response","195","1435820","0.0-3.0-5.0-1.21","5daa3d1726488800157a6ffc","F1","batch6","pattern_response","2501","stim/no_45_1_w.png","j","pattern_25","j","true","","","","2501","true","21","","","","","","","","","","","","","","","","",""
"","","","","","html-keyboard-response","196","1437132","0.0-3.0-5.0-0.22","5daa3d1726488800157a6ffc","F1","batch6","pattern_show_trial_num","null","<p class=block-text>Trial 23 out of 78</p>","null","","","","","","","","","","","","","","","","","","","","","","","","","",""
"","","","","","image-keyboard-response","197","1437925","0.0-3.0-5.0-1.22","5daa3d1726488800157a6ffc","F1","batch6","pattern_response","792","stim/yes_29_hor_b1_b.png","f","pattern_52","f","true","","","","792","true","22","","","","","","","","","","","","","","","","",""
"","","","","","html-keyboard-response","198","1439251","0.0-3.0-5.0-0.23","5daa3d1726488800157a6ffc","F1","batch6","pattern_show_trial_num","null","<p class=block-text>Trial 24 out of 78</p>","null","","","","","","","","","","","","","","","","","","","","","","","","","",""
"","","","","","image-keyboard-response","199","1445061","0.0-3.0-5.0-1.23","5daa3d1726488800157a6ffc","F1","batch6","pattern_response","5809.300000011921","stim/no_51_1.png","j","pattern_31","j","true","","","","5809.300000011921","true","23","","","","","","","","","","","","","","","","",""
"","","","","","html-keyboard-response","200","1446365","0.0-3.0-5.0-0.24","5daa3d1726488800157a6ffc","F1","batch6","pattern_show_trial_num","null","<p class=block-text>Trial 25 out of 78</p>","null","","","","","","","","","","","","","","","","","","","","","","","","","",""
"","","","","","image-keyboard-response","201","1447813","0.0-3.0-5.0-1.24","5daa3d1726488800157a6ffc","F1","batch6","pattern_response","1447.199999988079","stim/yes_26_dia_w2_w.png","f","pattern_50","f","true","","","","1447.199999988079","true","24","","","","","","","","","","","","","","","","",""
"","","","","","html-keyboard-response","202","1449140","0.0-3.0-5.0-0.25","5daa3d1726488800157a6ffc","F1","batch6","pattern_show_trial_num","null","<p class=block-text>Trial 26 out of 78</p>","null","","","","","","","","","","","","","","","","","","","","","","","","","",""
"","","","","","image-keyboard-response","203","1453909","0.0-3.0-5.0-1.25","5daa3d1726488800157a6ffc","F1","batch6","pattern_response","4767.800000011921","stim/yes_44_ver_w1_w.png","j","pattern_66","f","false","","","","4767.800000011921","false","24","","","","","","","","","","","","","","","","",""
"","","","","","html-keyboard-response","204","1455216","0.0-3.0-5.0-0.26","5daa3d1726488800157a6ffc","F1","batch6","pattern_show_trial_num","null","<p class=block-text>Trial 27 out of 78</p>","null","","","","","","","","","","","","","","","","","","","","","","","","","",""
"","","","","","image-keyboard-response","205","1458989","0.0-3.0-5.0-1.26","5daa3d1726488800157a6ffc","F1","batch6","pattern_response","3771.800000011921","stim/yes_70_ver_b1.png","f","pattern_80","f","true","","","","3771.800000011921","true","25","","","","","","","","","","","","","","","","",""
"","","","","","html-keyboard-response","206","1460317","0.0-3.0-5.0-0.27","5daa3d1726488800157a6ffc","F1","batch6","pattern_show_trial_num","null","<p class=block-text>Trial 28 out of 78</p>","null","","","","","","","","","","","","","","","","","","","","","","","","","",""
"","","","","","image-keyboard-response","207","1461589","0.0-3.0-5.0-1.27","5daa3d1726488800157a6ffc","F1","batch6","pattern_response","1270.3999999761581","stim/yes_51_dia_b1.png","f","pattern_72","f","true","","","","1270.3999999761581","true","26","","","","","","","","","","","","","","","","",""
"","","","","","html-keyboard-response","208","1462913","0.0-3.0-5.0-0.28","5daa3d1726488800157a6ffc","F1","batch6","pattern_show_trial_num","null","<p class=block-text>Trial 29 out of 78</p>","null","","","","","","","","","","","","","","","","","","","","","","","","","",""
"","","","","","image-keyboard-response","209","1463765","0.0-3.0-5.0-1.28","5daa3d1726488800157a6ffc","F1","batch6","pattern_response","851.4000000357628","stim/yes_15_dia_b1u_b.png","f","pattern_44","f","true","","","","851.4000000357628","true","27","","","","","","","","","","","","","","","","",""
"","","","","","html-keyboard-response","210","1465075","0.0-3.0-5.0-0.29","5daa3d1726488800157a6ffc","F1","batch6","pattern_show_trial_num","null","<p class=block-text>Trial 30 out of 78</p>","null","","","","","","","","","","","","","","","","","","","","","","","","","",""
"","","","","","image-keyboard-response","211","1466333","0.0-3.0-5.0-1.29","5daa3d1726488800157a6ffc","F1","batch6","pattern_response","1256.8999999761581","stim/yes_63_dia_b1.png","f","pattern_78","f","true","","","","1256.8999999761581","true","28","","","","","","","","","","","","","","","","",""
"","","","","","html-keyboard-response","212","1467656","0.0-3.0-5.0-0.30","5daa3d1726488800157a6ffc","F1","batch6","pattern_show_trial_num","null","<p class=block-text>Trial 31 out of 78</p>","null","","","","","","","","","","","","","","","","","","","","","","","","","",""
"","","","","","image-keyboard-response","213","1469357","0.0-3.0-5.0-1.30","5daa3d1726488800157a6ffc","F1","batch6","pattern_response","1700.1000000238419","stim/yes_36_ver_w1_w.png","f","pattern_58","f","true","","","","1700.1000000238419","true","29","","","","","","","","","","","","","","","","",""
"","","","","","html-keyboard-response","214","1470675","0.0-3.0-5.0-0.31","5daa3d1726488800157a6ffc","F1","batch6","pattern_show_trial_num","null","<p class=block-text>Trial 32 out of 78</p>","null","","","","","","","","","","","","","","","","","","","","","","","","","",""
"","","","","","image-keyboard-response","215","1474277","0.0-3.0-5.0-1.31","5daa3d1726488800157a6ffc","F1","batch6","pattern_response","3601.300000011921","stim/yes_42_dia_w1_w.png","j","pattern_64","f","false","","","","3601.300000011921","false","29","","","","","","","","","","","","","","","","",""
"","","","","","html-keyboard-response","216","1475601","0.0-3.0-5.0-0.32","5daa3d1726488800157a6ffc","F1","batch6","pattern_show_trial_num","null","<p class=block-text>Trial 33 out of 78</p>","null","","","","","","","","","","","","","","","","","","","","","","","","","",""
"","","","","","image-keyboard-response","217","1480253","0.0-3.0-5.0-1.32","5daa3d1726488800157a6ffc","F1","batch6","pattern_response","4651","stim/no_58_1_w.png","j","pattern_35","j","true","","","","4651","true","30","","","","","","","","","","","","","","","","",""
"","","","","","html-keyboard-response","218","1481563","0.0-3.0-5.0-0.33","5daa3d1726488800157a6ffc","F1","batch6","pattern_show_trial_num","null","<p class=block-text>Trial 34 out of 78</p>","null","","","","","","","","","","","","","","","","","","","","","","","","","",""
"","","","","","image-keyboard-response","219","1485877","0.0-3.0-5.0-1.33","5daa3d1726488800157a6ffc","F1","batch6","pattern_response","4313.600000023842","stim/no_53_1_b.png","j","pattern_33","j","true","","","","4313.600000023842","true","31","","","","","","","","","","","","","","","","",""
"","","","","","html-keyboard-response","220","1487187","0.0-3.0-5.0-0.34","5daa3d1726488800157a6ffc","F1","batch6","pattern_show_trial_num","null","<p class=block-text>Trial 35 out of 78</p>","null","","","","","","","","","","","","","","","","","","","","","","","","","",""
"","","","","","image-keyboard-response","221","1489925","0.0-3.0-5.0-1.34","5daa3d1726488800157a6ffc","F1","batch6","pattern_response","2737","stim/yes_39_hor_w1_w.png","j","pattern_62","f","false","","","","2737","false","31","","","","","","","","","","","","","","","","",""
"","","","","","html-keyboard-response","222","1491250","0.0-3.0-5.0-0.35","5daa3d1726488800157a6ffc","F1","batch6","pattern_show_trial_num","null","<p class=block-text>Trial 36 out of 78</p>","null","","","","","","","","","","","","","","","","","","","","","","","","","",""
"","","","","","image-keyboard-response","223","1492469","0.0-3.0-5.0-1.35","5daa3d1726488800157a6ffc","F1","batch6","pattern_response","1218.800000011921","stim/yes_37_hor_w1_w.png","f","pattern_60","f","true","","","","1218.800000011921","true","32","","","","","","","","","","","","","","","","",""
"","","","","","html-keyboard-response","224","1493787","0.0-3.0-5.0-0.36","5daa3d1726488800157a6ffc","F1","batch6","pattern_show_trial_num","null","<p class=block-text>Trial 37 out of 78</p>","null","","","","","","","","","","","","","","","","","","","","","","","","","",""
"","","","","","image-keyboard-response","225","1496733","0.0-3.0-5.0-1.36","5daa3d1726488800157a6ffc","F1","batch6","pattern_response","2945.099999964237","stim/yes_46_ver_b1_b.png","j","pattern_68","f","false","","","","2945.099999964237","false","32","","","","","","","","","","","","","","","","",""
"","","","","","html-keyboard-response","226","1498059","0.0-3.0-5.0-0.37","5daa3d1726488800157a6ffc","F1","batch6","pattern_show_trial_num","null","<p class=block-text>Trial 38 out of 78</p>","null","","","","","","","","","","","","","","","","","","","","","","","","","",""
"","","","","","image-keyboard-response","227","1500869","0.0-3.0-5.0-1.37","5daa3d1726488800157a6ffc","F1","batch6","pattern_response","2809.400000035763","stim/no_37_2_w.png","j","pattern_19","j","true","","","","2809.400000035763","true","33","","","","","","","","","","","","","","","","",""
"","","","","","html-keyboard-response","228","1502199","0.0-3.0-5.0-0.38","5daa3d1726488800157a6ffc","F1","batch6","pattern_show_trial_num","null","<p class=block-text>Trial 39 out of 78</p>","null","","","","","","","","","","","","","","","","","","","","","","","","","",""
"","","","","","image-keyboard-response","229","1504366","0.0-3.0-5.0-1.38","5daa3d1726488800157a6ffc","F1","batch6","pattern_response","2165.5","stim/no_43_2_b.png","j","pattern_23","j","true","","","","2165.5","true","34","","","","","","","","","","","","","","","","",""
"","","","","","image-keyboard-response","230","1509517","0.0-3.0-6.0","5daa3d1726488800157a6ffc","F1","batch6","attention_check","4636.899999976158","stim/empty_board.png","j","","j","true","","","","","","","500","[""f"",""j""]","","","","","","","","","","","","","","",""
"","","","","","html-keyboard-response","231","1510330","0.0-3.0-7.0-0.0","5daa3d1726488800157a6ffc","F1","batch6","pattern_show_trial_num","null","<p class=block-text>Trial 40 out of 78</p>","null","","","","","","","","","","","","","","","","","","","","","","","","","",""
"","","","","","image-keyboard-response","232","1516837","0.0-3.0-7.0-1.0","5daa3d1726488800157a6ffc","F1","batch6","pattern_response","6505.800000011921","stim/no_29_1_b.png","j","pattern_12","j","true","","","","6505.800000011921","true","35","","","","","","","","","","","","","","","","",""
"","","","","","html-keyboard-response","233","1518144","0.0-3.0-7.0-0.1","5daa3d1726488800157a6ffc","F1","batch6","pattern_show_trial_num","null","<p class=block-text>Trial 41 out of 78</p>","null","","","","","","","","","","","","","","","","","","","","","","","","","",""
"","","","","","image-keyboard-response","234","1521397","0.0-3.0-7.0-1.1","5daa3d1726488800157a6ffc","F1","batch6","pattern_response","3251.900000035763","stim/yes_48_dia_w1_w.png","j","pattern_69","f","false","","","","3251.900000035763","false","35","","","","","","","","","","","","","","","","",""
"","","","","","html-keyboard-response","235","1522704","0.0-3.0-7.0-0.2","5daa3d1726488800157a6ffc","F1","batch6","pattern_show_trial_num","null","<p class=block-text>Trial 42 out of 78</p>","null","","","","","","","","","","","","","","","","","","","","","","","","","",""
"","","","","","image-keyboard-response","236","1523629","0.0-3.0-7.0-1.2","5daa3d1726488800157a6ffc","F1","batch6","pattern_response","924.2999999523163","stim/yes_17_dia_w1.png","f","pattern_45","f","true","","","","924.2999999523163","true","36","","","","","","","","","","","","","","","","",""
"","","","","","html-keyboard-response","237","1524947","0.0-3.0-7.0-0.3","5daa3d1726488800157a6ffc","F1","batch6","pattern_show_trial_num","null","<p class=block-text>Trial 43 out of 78</p>","null","","","","","","","","","","","","","","","","","","","","","","","","","",""
"","","","","","image-keyboard-response","238","1527853","0.0-3.0-7.0-1.3","5daa3d1726488800157a6ffc","F1","batch6","pattern_response","2905.300000011921","stim/yes_50_dia_w1.png","f","pattern_71","f","true","","","","2905.300000011921","true","37","","","","","","","","","","","","","","","","",""
"","","","","","html-keyboard-response","239","1529174","0.0-3.0-7.0-0.4","5daa3d1726488800157a6ffc","F1","batch6","pattern_show_trial_num","null","<p class=block-text>Trial 44 out of 78</p>","null","","","","","","","","","","","","","","","","","","","","","","","","","",""
"","","","","","image-keyboard-response","240","1530164","0.0-3.0-7.0-1.4","5daa3d1726488800157a6ffc","F1","batch6","pattern_response","989.8000000119209","stim/yes_28_ver_b1.png","f","pattern_51","f","true","","","","989.8000000119209","true","38","","","","","","","","","","","","","","","","",""
"","","","","","html-keyboard-response","241","1531477","0.0-3.0-7.0-0.5","5daa3d1726488800157a6ffc","F1","batch6","pattern_show_trial_num","null","<p class=block-text>Trial 45 out of 78</p>","null","","","","","","","","","","","","","","","","","","","","","","","","","",""
"","","","","","image-keyboard-response","242","1532829","0.0-3.0-7.0-1.5","5daa3d1726488800157a6ffc","F1","batch6","pattern_response","1348.5","stim/no_17_1_w.png","j","pattern_04","j","true","","","","1348.5","true","39","","","","","","","","","","","","","","","","",""
"","","","","","html-keyboard-response","243","1534149","0.0-3.0-7.0-0.6","5daa3d1726488800157a6ffc","F1","batch6","pattern_show_trial_num","null","<p class=block-text>Trial 46 out of 78</p>","null","","","","","","","","","","","","","","","","","","","","","","","","","",""
"","","","","","image-keyboard-response","244","1540493","0.0-3.0-7.0-1.6","5daa3d1726488800157a6ffc","F1","batch6","pattern_response","6342.600000023842","stim/yes_60_ver_b1_b.png","j","pattern_77","f","false","","","","6342.600000023842","false","39","","","","","","","","","","","","","","","","",""
"","","","","","html-keyboard-response","245","1541810","0.0-3.0-7.0-0.7","5daa3d1726488800157a6ffc","F1","batch6","pattern_show_trial_num","null","<p class=block-text>Trial 47 out of 78</p>","null","","","","","","","","","","","","","","","","","","","","","","","","","",""
"","","","","","image-keyboard-response","246","1545333","0.0-3.0-7.0-1.7","5daa3d1726488800157a6ffc","F1","batch6","pattern_response","3521.199999988079","stim/yes_52_ver_w1.png","j","pattern_73","f","false","","","","3521.199999988079","false","39","","","","","","","","","","","","","","","","",""
"","","","","","html-keyboard-response","247","1546650","0.0-3.0-7.0-0.8","5daa3d1726488800157a6ffc","F1","batch6","pattern_show_trial_num","null","<p class=block-text>Trial 48 out of 78</p>","null","","","","","","","","","","","","","","","","","","","","","","","","","",""
"","","","","","image-keyboard-response","248","1547453","0.0-3.0-7.0-1.8","5daa3d1726488800157a6ffc","F1","batch6","pattern_response","801.9000000357628","stim/yes_14_hor_b1_w.png","f","pattern_43","f","true","","","","801.9000000357628","true","40","","","","","","","","","","","","","","","","",""
"","","","","","html-keyboard-response","249","1548769","0.0-3.0-7.0-0.9","5daa3d1726488800157a6ffc","F1","batch6","pattern_show_trial_num","null","<p class=block-text>Trial 49 out of 78</p>","null","","","","","","","","","","","","","","","","","","","","","","","","","",""
"","","","","","image-keyboard-response","250","1550277","0.0-3.0-7.0-1.9","5daa3d1726488800157a6ffc","F1","batch6","pattern_response","1507.7000000476837","stim/yes_35_dia_b1.png","f","pattern_57","f","true","","","","1507.7000000476837","true","41","","","","","","","","","","","","","","","","",""
"","","","","","html-keyboard-response","251","1551589","0.0-3.0-7.0-0.10","5daa3d1726488800157a6ffc","F1","batch6","pattern_show_trial_num","null","<p class=block-text>Trial 50 out of 78</p>","null","","","","","","","","","","","","","","","","","","","","","","","","","",""
"","","","","","image-keyboard-response","252","1553021","0.0-3.0-7.0-1.10","5daa3d1726488800157a6ffc","F1","batch6","pattern_response","1431","stim/no_23_1.png","j","pattern_08","j","true","","","","1431","true","42","","","","","","","","","","","","","","","","",""
"","","","","","html-keyboard-response","253","1554347","0.0-3.0-7.0-0.11","5daa3d1726488800157a6ffc","F1","batch6","pattern_show_trial_num","null","<p class=block-text>Trial 51 out of 78</p>","null","","","","","","","","","","","","","","","","","","","","","","","","","",""
"","","","","","image-keyboard-response","254","1555429","0.0-3.0-7.0-1.11","5daa3d1726488800157a6ffc","F1","batch6","pattern_response","1080.800000011921","stim/yes_25_hor_b1_b.png","f","pattern_49","f","true","","","","1080.800000011921","true","43","","","","","","","","","","","","","","","","",""
"","","","","","html-keyboard-response","255","1556749","0.0-3.0-7.0-0.12","5daa3d1726488800157a6ffc","F1","batch6","pattern_show_trial_num","null","<p class=block-text>Trial 52 out of 78</p>","null","","","","","","","","","","","","","","","","","","","","","","","","","",""
"","","","","","image-keyboard-response","256","1559341","0.0-3.0-7.0-1.12","5daa3d1726488800157a6ffc","F1","batch6","pattern_response","2590.400000035763","stim/no_34_1_b.png","j","pattern_16","j","true","","","","2590.400000035763","true","44","","","","","","","","","","","","","","","","",""
"","","","","","html-keyboard-response","257","1560667","0.0-3.0-7.0-0.13","5daa3d1726488800157a6ffc","F1","batch6","pattern_show_trial_num","null","<p class=block-text>Trial 53 out of 78</p>","null","","","","","","","","","","","","","","","","","","","","","","","","","",""
"","","","","","image-keyboard-response","258","1567629","0.0-3.0-7.0-1.13","5daa3d1726488800157a6ffc","F1","batch6","pattern_response","6961.199999988079","stim/no_65_1_b.png","j","pattern_38","j","true","","","","6961.199999988079","true","45","","","","","","","","","","","","","","","","",""
"","","","","","html-keyboard-response","259","1568945","0.0-3.0-7.0-0.14","5daa3d1726488800157a6ffc","F1","batch6","pattern_show_trial_num","null","<p class=block-text>Trial 54 out of 78</p>","null","","","","","","","","","","","","","","","","","","","","","","","","","",""
"","","","","","image-keyboard-response","260","1573517","0.0-3.0-7.0-1.14","5daa3d1726488800157a6ffc","F1","batch6","pattern_response","4570","stim/yes_37_dia_w1.png","j","pattern_59","f","false","","","","4570","false","45","","","","","","","","","","","","","","","","",""
"","","","","","html-keyboard-response","261","1574829","0.0-3.0-7.0-0.15","5daa3d1726488800157a6ffc","F1","batch6","pattern_show_trial_num","null","<p class=block-text>Trial 55 out of 78</p>","null","","","","","","","","","","","","","","","","","","","","","","","","","",""
"","","","","","image-keyboard-response","262","1576476","0.0-3.0-7.0-1.15","5daa3d1726488800157a6ffc","F1","batch6","pattern_response","1647","stim/yes_22_ver_w1.png","f","pattern_47","f","true","","","","1647","true","46","","","","","","","","","","","","","","","","",""
"","","","","","html-keyboard-response","263","1577802","0.0-3.0-7.0-0.16","5daa3d1726488800157a6ffc","F1","batch6","pattern_show_trial_num","null","<p class=block-text>Trial 56 out of 78</p>","null","","","","","","","","","","","","","","","","","","","","","","","","","",""
"","","","","","image-keyboard-response","264","1582621","0.0-3.0-7.0-1.16","5daa3d1726488800157a6ffc","F1","batch6","pattern_response","4818.199999988079","stim/no_36_2_w.png","j","pattern_18","j","true","","","","4818.199999988079","true","47","","","","","","","","","","","","","","","","",""
"","","","","","html-keyboard-response","265","1583936","0.0-3.0-7.0-0.17","5daa3d1726488800157a6ffc","F1","batch6","pattern_show_trial_num","null","<p class=block-text>Trial 57 out of 78</p>","null","","","","","","","","","","","","","","","","","","","","","","","","","",""
"","","","","","image-keyboard-response","266","1589453","0.0-3.0-7.0-1.17","5daa3d1726488800157a6ffc","F1","batch6","pattern_response","5515.800000011921","stim/no_62_1_w.png","j","pattern_36","j","true","","","","5515.800000011921","true","48","","","","","","","","","","","","","","","","",""
"","","","","","html-keyboard-response","267","1590769","0.0-3.0-7.0-0.18","5daa3d1726488800157a6ffc","F1","batch6","pattern_show_trial_num","null","<p class=block-text>Trial 58 out of 78</p>","null","","","","","","","","","","","","","","","","","","","","","","","","","",""
"","","","","","image-keyboard-response","268","1595445","0.0-3.0-7.0-1.18","5daa3d1726488800157a6ffc","F1","batch6","pattern_response","4675.099999964237","stim/no_46_1_b.png","j","pattern_26","j","true","","","","4675.099999964237","true","49","","","","","","","","","","","","","","","","",""
"","","","","","html-keyboard-response","269","1596760","0.0-3.0-7.0-0.19","5daa3d1726488800157a6ffc","F1","batch6","pattern_show_trial_num","null","<p class=block-text>Trial 59 out of 78</p>","null","","","","","","","","","","","","","","","","","","","","","","","","","",""
"","","","","","image-keyboard-response","270","1598573","0.0-3.0-7.0-1.19","5daa3d1726488800157a6ffc","F1","batch6","pattern_response","1812.2999999523163","stim/yes_40_dia_b1_b.png","f","pattern_63","f","true","","","","1812.2999999523163","true","50","","","","","","","","","","","","","","","","",""
"","","","","","html-keyboard-response","271","1599903","0.0-3.0-7.0-0.20","5daa3d1726488800157a6ffc","F1","batch6","pattern_show_trial_num","null","<p class=block-text>Trial 60 out of 78</p>","null","","","","","","","","","","","","","","","","","","","","","","","","","",""
"","","","","","image-keyboard-response","272","1601461","0.0-3.0-7.0-1.20","5daa3d1726488800157a6ffc","F1","batch6","pattern_response","1557.300000011921","stim/yes_55_hor_w1_w.png","f","pattern_75","f","true","","","","1557.300000011921","true","51","","","","","","","","","","","","","","","","",""
"","","","","","html-keyboard-response","273","1602786","0.0-3.0-7.0-0.21","5daa3d1726488800157a6ffc","F1","batch6","pattern_show_trial_num","null","<p class=block-text>Trial 61 out of 78</p>","null","","","","","","","","","","","","","","","","","","","","","","","","","",""
"","","","","","image-keyboard-response","274","1608533","0.0-3.0-7.0-1.21","5daa3d1726488800157a6ffc","F1","batch6","pattern_response","5746.300000011921","stim/no_48_1_w.png","j","pattern_28","j","true","","","","5746.300000011921","true","52","","","","","","","","","","","","","","","","",""
"","","","","","html-keyboard-response","275","1609852","0.0-3.0-7.0-0.22","5daa3d1726488800157a6ffc","F1","batch6","pattern_show_trial_num","null","<p class=block-text>Trial 62 out of 78</p>","null","","","","","","","","","","","","","","","","","","","","","","","","","",""
"","","","","","image-keyboard-response","276","1616205","0.0-3.0-7.0-1.22","5daa3d1726488800157a6ffc","F1","batch6","pattern_response","6351.699999988079","stim/no_70_2.png","j","pattern_40","j","true","","","","6351.699999988079","true","53","","","","","","","","","","","","","","","","",""
"","","","","","html-keyboard-response","277","1617529","0.0-3.0-7.0-0.23","5daa3d1726488800157a6ffc","F1","batch6","pattern_show_trial_num","null","<p class=block-text>Trial 63 out of 78</p>","null","","","","","","","","","","","","","","","","","","","","","","","","","",""
"","","","","","image-keyboard-response","278","1621870","0.0-3.0-7.0-1.23","5daa3d1726488800157a6ffc","F1","batch6","pattern_response","4339.600000023842","stim/no_38_1_b.png","j","pattern_20","j","true","","","","4339.600000023842","true","54","","","","","","","","","","","","","","","","",""
"","","","","","html-keyboard-response","279","1623192","0.0-3.0-7.0-0.24","5daa3d1726488800157a6ffc","F1","batch6","pattern_show_trial_num","null","<p class=block-text>Trial 64 out of 78</p>","null","","","","","","","","","","","","","","","","","","","","","","","","","",""
"","","","","","image-keyboard-response","280","1626525","0.0-3.0-7.0-1.24","5daa3d1726488800157a6ffc","F1","batch6","pattern_response","3332.100000023842","stim/no_32_1_w.png","j","pattern_14","j","true","","","","3332.100000023842","true","55","","","","","","","","","","","","","","","","",""
"","","","","","html-keyboard-response","281","1627839","0.0-3.0-7.0-0.25","5daa3d1726488800157a6ffc","F1","batch6","pattern_show_trial_num","null","<p class=block-text>Trial 65 out of 78</p>","null","","","","","","","","","","","","","","","","","","","","","","","","","",""
"","","","","","image-keyboard-response","282","1630813","0.0-3.0-7.0-1.25","5daa3d1726488800157a6ffc","F1","batch6","pattern_response","2973.699999988079","stim/yes_67_hor_b1.png","f","pattern_79","f","true","","","","2973.699999988079","true","56","","","","","","","","","","","","","","","","",""
"","","","","","html-keyboard-response","283","1632117","0.0-3.0-7.0-0.26","5daa3d1726488800157a6ffc","F1","batch6","pattern_show_trial_num","null","<p class=block-text>Trial 66 out of 78</p>","null","","","","","","","","","","","","","","","","","","","","","","","","","",""
"","","","","","image-keyboard-response","284","1633037","0.0-3.0-7.0-1.26","5daa3d1726488800157a6ffc","F1","batch6","pattern_response","919.3000000119209","stim/yes_31_hor_b1.png","f","pattern_55","f","true","","","","919.3000000119209","true","57","","","","","","","","","","","","","","","","",""
"","","","","","html-keyboard-response","285","1634340","0.0-3.0-7.0-0.27","5daa3d1726488800157a6ffc","F1","batch6","pattern_show_trial_num","null","<p class=block-text>Trial 67 out of 78</p>","null","","","","","","","","","","","","","","","","","","","","","","","","","",""
"","","","","","image-keyboard-response","286","1635197","0.0-3.0-7.0-1.27","5daa3d1726488800157a6ffc","F1","batch6","pattern_response","855.6000000238419","stim/yes_45_hor_b2_b.png","f","pattern_67","f","true","","","","855.6000000238419","true","58","","","","","","","","","","","","","","","","",""
"","","","","","html-keyboard-response","287","1636522","0.0-3.0-7.0-0.28","5daa3d1726488800157a6ffc","F1","batch6","pattern_show_trial_num","null","<p class=block-text>Trial 68 out of 78</p>","null","","","","","","","","","","","","","","","","","","","","","","","","","",""
"","","","","","image-keyboard-response","288","1640453","0.0-3.0-7.0-1.28","5daa3d1726488800157a6ffc","F1","batch6","pattern_response","3929.899999976158","stim/no_44_1.png","j","pattern_24","j","true","","","","3929.899999976158","true","59","","","","","","","","","","","","","","","","",""
"","","","","","html-keyboard-response","289","1641780","0.0-3.0-7.0-0.29","5daa3d1726488800157a6ffc","F1","batch6","pattern_show_trial_num","null","<p class=block-text>Trial 69 out of 78</p>","null","","","","","","","","","","","","","","","","","","","","","","","","","",""
"","","","","","image-keyboard-response","290","1643037","0.0-3.0-7.0-1.29","5daa3d1726488800157a6ffc","F1","batch6","pattern_response","1255.5","stim/no_13_2_b.png","j","pattern_02","j","true","","","","1255.5","true","60","","","","","","","","","","","","","","","","",""
"","","","","","html-keyboard-response","291","1644350","0.0-3.0-7.0-0.30","5daa3d1726488800157a6ffc","F1","batch6","pattern_show_trial_num","null","<p class=block-text>Trial 70 out of 78</p>","null","","","","","","","","","","","","","","","","","","","","","","","","","",""
"","","","","","image-keyboard-response","292","1650333","0.0-3.0-7.0-1.30","5daa3d1726488800157a6ffc","F1","batch6","pattern_response","5982.5","stim/no_55_1_w.png","j","pattern_34","j","true","","","","5982.5","true","61","","","","","","","","","","","","","","","","",""
"","","","","","html-keyboard-response","293","1651654","0.0-3.0-7.0-0.31","5daa3d1726488800157a6ffc","F1","batch6","pattern_show_trial_num","null","<p class=block-text>Trial 71 out of 78</p>","null","","","","","","","","","","","","","","","","","","","","","","","","","",""
"","","","","","image-keyboard-response","294","1654653","0.0-3.0-7.0-1.31","5daa3d1726488800157a6ffc","F1","batch6","pattern_response","2998.699999988079","stim/no_42_1_w.png","j","pattern_22","j","true","","","","2998.699999988079","true","62","","","","","","","","","","","","","","","","",""
"","","","","","html-keyboard-response","295","1655971","0.0-3.0-7.0-0.32","5daa3d1726488800157a6ffc","F1","batch6","pattern_show_trial_num","null","<p class=block-text>Trial 72 out of 78</p>","null","","","","","","","","","","","","","","","","","","","","","","","","","",""
"","","","","","image-keyboard-response","296","1660822","0.0-3.0-7.0-1.32","5daa3d1726488800157a6ffc","F1","batch6","pattern_response","4849.699999988079","stim/no_50_1.png","j","pattern_30","j","true","","","","4849.699999988079","true","63","","","","","","","","","","","","","","","","",""
"","","","","","html-keyboard-response","297","1662140","0.0-3.0-7.0-0.33","5daa3d1726488800157a6ffc","F1","batch6","pattern_show_trial_num","null","<p class=block-text>Trial 73 out of 78</p>","null","","","","","","","","","","","","","","","","","","","","","","","","","",""
"","","","","","image-keyboard-response","298","1664581","0.0-3.0-7.0-1.33","5daa3d1726488800157a6ffc","F1","batch6","pattern_response","2440","stim/yes_29_ver_w1.png","j","pattern_53","f","false","","","","2440","false","63","","","","","","","","","","","","","","","","",""
"","","","","","html-keyboard-response","299","1665892","0.0-3.0-7.0-0.34","5daa3d1726488800157a6ffc","F1","batch6","pattern_show_trial_num","null","<p class=block-text>Trial 74 out of 78</p>","null","","","","","","","","","","","","","","","","","","","","","","","","","",""
"","","","","","image-keyboard-response","300","1670597","0.0-3.0-7.0-1.34","5daa3d1726488800157a6ffc","F1","batch6","pattern_response","4704.600000023842","stim/no_52_1.png","j","pattern_32","j","true","","","","4704.600000023842","true","64","","","","","","","","","","","","","","","","",""
"","","","","","html-keyboard-response","301","1671911","0.0-3.0-7.0-0.35","5daa3d1726488800157a6ffc","F1","batch6","pattern_show_trial_num","null","<p class=block-text>Trial 75 out of 78</p>","null","","","","","","","","","","","","","","","","","","","","","","","","","",""
"","","","","","image-keyboard-response","302","1674022","0.0-3.0-7.0-1.35","5daa3d1726488800157a6ffc","F1","batch6","pattern_response","2109.900000035763","stim/no_26_1_w.png","j","pattern_10","j","true","","","","2109.900000035763","true","65","","","","","","","","","","","","","","","","",""
"","","","","","html-keyboard-response","303","1675337","0.0-3.0-7.0-0.36","5daa3d1726488800157a6ffc","F1","batch6","pattern_show_trial_num","null","<p class=block-text>Trial 76 out of 78</p>","null","","","","","","","","","","","","","","","","","","","","","","","","","",""
"","","","","","image-keyboard-response","304","1676901","0.0-3.0-7.0-1.36","5daa3d1726488800157a6ffc","F1","batch6","pattern_response","1563.6000000238419","stim/no_20_1_w.png","j","pattern_06","j","true","","","","1563.6000000238419","true","66","","","","","","","","","","","","","","","","",""
"","","","","","html-keyboard-response","305","1678210","0.0-3.0-7.0-0.37","5daa3d1726488800157a6ffc","F1","batch6","pattern_show_trial_num","null","<p class=block-text>Trial 77 out of 78</p>","null","","","","","","","","","","","","","","","","","","","","","","","","","",""
"","","","","","image-keyboard-response","306","1679205","0.0-3.0-7.0-1.37","5daa3d1726488800157a6ffc","F1","batch6","pattern_response","994.1000000238419","stim/yes_38_hor_b1_b.png","f","pattern_61","f","true","","","","994.1000000238419","true","67","","","","","","","","","","","","","","","","",""
"","","","","","html-keyboard-response","307","1680536","0.0-3.0-7.0-0.38","5daa3d1726488800157a6ffc","F1","batch6","pattern_show_trial_num","null","<p class=block-text>Trial 78 out of 78</p>","null","","","","","","","","","","","","","","","","","","","","","","","","","",""
"","","","","","image-keyboard-response","308","1681901","0.0-3.0-7.0-1.38","5daa3d1726488800157a6ffc","F1","batch6","pattern_response","1364.5","stim/yes_43_ver_w1_w.png","f","pattern_65","f","true","","","","1364.5","true","68","","","","","","","","","","","","","","","","",""
"","","","","","html-button-response","309","1689412","0.0-3.0-8.0","5daa3d1726488800157a6ffc","F1","batch6","","7006.900000035763","<p class = block-text>This concludes the 4-in-a-row detection game.Thank you for your responses!<br>
            You responded correctly on 87% of the trials.<br>
            When you are ready, press ""Continue"" button to continue </p>","0","","","","","","","","","","","","","","","","","","","","","","","","","",""
"true","","","","","fullscreen","310","1692234","0.0-4.0-0.0","5daa3d1726488800157a6ffc","F1","batch6","","","","","","","","","","","","","","","","","","","","","","","","","","","","","",""
"","","","","","instructions","311","1764393","0.0-4.0-1.0-0.0-0.0","5daa3d1726488800157a6ffc","F1","batch6","tol-instructions","72158.09999996424","","","","","","","","[{""page_index"":0,""viewing_time"":12809.199999988079},{""page_index"":1,""viewing_time"":7430.600000023842},{""page_index"":2,""viewing_time"":5968.699999988079},{""page_index"":3,""viewing_time"":15682.699999988079},{""page_index"":4,""viewing_time"":8622.5},{""page_index"":5,""viewing_time"":17580.5},{""page_index"":6,""viewing_time"":4063.800000011921}]","","","","","","","","","","","","","","","","","","","",""
"","","","","","html-button-response","312","1765615","0.0-4.0-1.0-1.0-0.0","5daa3d1726488800157a6ffc","F1","batch6","tol_enter_quiz","1221.699999988079","<p class=block-text> Let's answer a few questions <br>","0","","","","","","","","","","","","","","","","","","","","","","","","","",""
"","","","","","html-button-response","313","1774960","0.0-4.0-1.0-1.0-1.0","5daa3d1726488800157a6ffc","F1","batch6","tol_quiz","9344.5","<p class = block-text>True or False: You can only move the ball on top of a peg. <br></p>","1","","","false","","","","","","","","","","","","","","","","","","","","","","",""
"","","","","","html-button-response","314","1777229","0.0-4.0-1.0-1.0-2.0","5daa3d1726488800157a6ffc","F1","batch6","tol_quiz_feedback","2267.900000035763","<p class = block-text>Incorrect. Remember, you can only move the ball on top of a peg.</p>","0","","","","","","","","","","","","","","","","","","","","","","","","","",""
"","","","","","html-button-response","315","1780652","0.0-4.0-1.0-1.0-3.0","5daa3d1726488800157a6ffc","F1","batch6","tol_quiz","3422.099999964237","<p class = block-text>True or False: You should try to match your board with the target board with fewest moves possible. <br></p>","0","","","true","","","","","","","","","","","","","","","","","","","","","","",""
"","","","","","html-button-response","316","1781727","0.0-4.0-1.0-1.0-4.0","5daa3d1726488800157a6ffc","F1","batch6","tol_quiz_feedback","1074.8999999761581","<p class = block-text>Correct! </p>","0","","","","","","","","","","","","","","","","","","","","","","","","","",""
"","","","","","html-button-response","317","1783006","0.0-4.0-1.0-2.0-0.0","5daa3d1726488800157a6ffc","F1","batch6","","1277.8999999761581","<p class = block-text>You made too many incorrect choices.</p><p class = block-text>You will now repeat the instructions and quiz</p>","0","","","","","","","","","","","","","","","","","","","","","","","","","",""
"","","","","","instructions","318","1789911","0.0-4.0-1.1-0.1-0.1","5daa3d1726488800157a6ffc","F1","batch6","tol-instructions","6904.600000023842","","","","","","","","[{""page_index"":0,""viewing_time"":1399.5},{""page_index"":1,""viewing_time"":410.60000002384186},{""page_index"":2,""viewing_time"":541.8999999761581},{""page_index"":3,""viewing_time"":511.80000001192093},{""page_index"":4,""viewing_time"":658.3000000119209},{""page_index"":5,""viewing_time"":571.6999999880791},{""page_index"":6,""viewing_time"":2810.600000023842}]","","","","","","","","","","","","","","","","","","","",""
"","","","","","html-button-response","319","1791118","0.0-4.0-1.1-1.1-0.1","5daa3d1726488800157a6ffc","F1","batch6","tol_enter_quiz","1207.300000011921","<p class=block-text> Let's answer a few questions <br>","0","","","","","","","","","","","","","","","","","","","","","","","","","",""
"","","","","","html-button-response","320","1794517","0.0-4.0-1.1-1.1-1.1","5daa3d1726488800157a6ffc","F1","batch6","tol_quiz","3398.5","<p class = block-text>True or False: You can only move the ball on top of a peg. <br></p>","0","","","true","","","","","","","","","","","","","","","","","","","","","","",""
"","","","","","html-button-response","321","1795973","0.0-4.0-1.1-1.1-2.1","5daa3d1726488800157a6ffc","F1","batch6","tol_quiz_feedback","1455.0999999642372","<p class = block-text>Correct! You can only move the ball on top of a peg.</p>","0","","","","","","","","","","","","","","","","","","","","","","","","","",""
"","","","","","html-button-response","322","1798884","0.0-4.0-1.1-1.1-3.1","5daa3d1726488800157a6ffc","F1","batch6","tol_quiz","2910.199999988079","<p class = block-text>True or False: You should try to match your board with the target board with fewest moves possible. <br></p>","0","","","true","","","","","","","","","","","","","","","","","","","","","","",""
"","","","","","html-button-response","323","1799611","0.0-4.0-1.1-1.1-4.1","5daa3d1726488800157a6ffc","F1","batch6","tol_quiz_feedback","727.1999999880791","<p class = block-text>Correct! </p>","0","","","","","","","","","","","","","","","","","","","","","","","","","",""
"","","","","","html-button-response","324","1800982","0.0-4.0-2.0","5daa3d1726488800157a6ffc","F1","batch6","","1370.199999988079","<p class=block-text> Now that you've understood the game, let's practice a few easier examples before we start!<br> <br>","0","","","","","","","","","","","","","","","","","","","","","","","","","",""
"","","","","","single-stim-button","325","1803926","0.0-4.0-3.0-0.0","5daa3d1726488800157a6ffc","F1","batch6","tol_practice","2942","","","","","","","","","","","","","","tol_peg_2","2942","2942","0","[[1,2,0],[0,0],[0]]","1","[[1,2,0],[0,0],[3]]","practice","2942","","","","","",""
"","","","","","single-stim-button","326","1805273","0.0-4.0-3.0-1.0","5daa3d1726488800157a6ffc","F1","batch6","tol_practice","1346","","","","","","","","","","","","","","tol_peg_3","1346","1346","0","[[1,2,0],[0,0],[3]]","1","[[1,2,0],[0,0],[3]]","practice","1346","","","","","",""
"","","","","","poldrack-single-stim","327","1806281","0.0-4.0-4.0","5daa3d1726488800157a6ffc","F1","batch6","tol_feedback","-1","","","","","true","","","","","","","","","","1000","1000","500","","","","","","-1","none","true","","0",""
"","","","","","single-stim-button","328","1812263","0.0-4.0-5.0-0.0","5daa3d1726488800157a6ffc","F1","batch6","tol_practice","5982","","","","","","","","","","","","","","tol_peg_1","5982","5982","0","[[1,0,0],[3,0],[0]]","2","[[0,0,0],[3,1],[2]]","practice","5982","","","","","",""
"","","","","","single-stim-button","329","1813539","0.0-4.0-5.0-1.0","5daa3d1726488800157a6ffc","F1","batch6","tol_practice","1276","","","","","","","","","","","","","","tol_peg_3","1276","1276","0","[[1,0,0],[3,0],[2]]","2","[[0,0,0],[3,1],[2]]","practice","1276","","","","","",""
"","","","","","single-stim-button","330","1815459","0.0-4.0-5.1-0.1","5daa3d1726488800157a6ffc","F1","batch6","tol_practice","1920","","","","","","","","","","","","","","tol_peg_1","1920","1920","0","[[0,0,0],[3,0],[2]]","3","[[0,0,0],[3,1],[2]]","practice","1920","","","","","",""
"","","","","","single-stim-button","331","1816438","0.0-4.0-5.1-1.1","5daa3d1726488800157a6ffc","F1","batch6","tol_practice","979","","","","","","","","","","","","","","tol_peg_2","979","979","0","[[0,0,0],[3,1],[2]]","3","[[0,0,0],[3,1],[2]]","practice","979","","","","","",""
"","","","","","poldrack-single-stim","332","1817439","0.0-4.0-6.0","5daa3d1726488800157a6ffc","F1","batch6","tol_feedback","-1","","","","","true","","","","","","","","","","1000","1000","500","","","","","","-1","none","true","","0",""
"","","","","","single-stim-button","333","1821522","0.0-4.0-7.0-0.0","5daa3d1726488800157a6ffc","F1","batch6","tol_practice","4082","","","","","","","","","","","","","","tol_peg_2","4082","4082","0","[[1,2,0],[0,0],[0]]","4","[[1,0,0],[2,0],[3]]","practice","4082","","","","","",""
"","","","","","single-stim-button","334","1822545","0.0-4.0-7.0-1.0","5daa3d1726488800157a6ffc","F1","batch6","tol_practice","1022","","","","","","","","","","","","","","tol_peg_3","1022","1022","0","[[1,2,0],[0,0],[3]]","4","[[1,0,0],[2,0],[3]]","practice","1022","","","","","",""
"","","","","","single-stim-button","335","1823604","0.0-4.0-7.1-0.1","5daa3d1726488800157a6ffc","F1","batch6","tol_practice","1058","","","","","","","","","","","","","","tol_peg_1","1058","1058","0","[[1,0,0],[0,0],[3]]","5","[[1,0,0],[2,0],[3]]","practice","1058","","","","","",""
"","","","","","single-stim-button","336","1824279","0.0-4.0-7.1-1.1","5daa3d1726488800157a6ffc","F1","batch6","tol_practice","673","","","","","","","","","","","","","","tol_peg_2","673","673","0","[[1,0,0],[2,0],[3]]","5","[[1,0,0],[2,0],[3]]","practice","673","","","","","",""
"","","","","","poldrack-single-stim","337","1825286","0.0-4.0-8.0","5daa3d1726488800157a6ffc","F1","batch6","tol_feedback","-1","","","","","true","","","","","","","","","","1000","1000","500","","","","","","-1","none","true","","0",""
"","","","","","html-button-response","338","1827793","0.0-4.0-9.0","5daa3d1726488800157a6ffc","F1","batch6","tol_instruction","2506.699999988079","<div class = centerbox><p class = center-block-text>Great job! You are done with practice trials<br>You are about to start official trials.<br> <br> Problem <strong>1</strong> out of 25 problems</p></div>","0","","","","","","","","","","","","","","","","","","","","","","","","","",""
"","","","","","single-stim-button","339","1835102","0.0-4.0-10.0-0.0","5daa3d1726488800157a6ffc","F1","batch6","tol_tohand","6306","","","","","","","","","","","","","","tol_peg_1","6306","6306","0","[[1,0,0],[3,0],[0]]","1","[[1,3,0],[2,0],[0]]","0","0","","","","","","3"
"","","","","","single-stim-button","340","1837680","0.0-4.0-10.0-1.0","5daa3d1726488800157a6ffc","F1","batch6","tol_toboard","2578","","","","","","","","","","","","","","tol_peg_2","2578","2578","0","[[1,0,0],[3,2],[0]]","1","[[1,3,0],[2,0],[0]]","0","0","","","","","","3"
"","","","","","single-stim-button","341","1839646","0.0-4.0-10.1-0.1","5daa3d1726488800157a6ffc","F1","batch6","tol_tohand","1966","","","","","","","","","","","","","","tol_peg_2","1966","1966","0","[[1,0,0],[3,0],[0]]","2","[[1,3,0],[2,0],[0]]","0","0","","","","","","3"
"","","","","","single-stim-button","342","1840607","0.0-4.0-10.1-1.1","5daa3d1726488800157a6ffc","F1","batch6","tol_toboard","960","","","","","","","","","","","","","","tol_peg_3","960","960","0","[[1,0,0],[3,0],[2]]","2","[[1,3,0],[2,0],[0]]","0","0","","","","","","3"
"","","","","","single-stim-button","343","1841652","0.0-4.0-10.2-0.2","5daa3d1726488800157a6ffc","F1","batch6","tol_tohand","1045","","","","","","","","","","","","","","tol_peg_2","1045","1045","0","[[1,0,0],[0,0],[2]]","3","[[1,3,0],[2,0],[0]]","0","0","","","","","","3"
