"success","timeout","failed_images","failed_audio","failed_video","trial_type","trial_index","time_elapsed","internal_node_id","subject_id","study_id","session_id","view_history","rt","task","stimulus","response","correct","mouse_click","stim_duration","block_duration","timing_post_trial","current_position","tol_num_moves_made","tol_target","tol_problem_id","tol_rt","key_press","possible_responses","tol_correct","preplanning","tol_rt_per_trial","tol_min_moves","answer","item","fiar_detect_rt","fiar_detect_correct","total_correct_fiar_detect","post_trial_gap","choices","spm_correct","spm_rt"
"true","false","[]","[]","[]","preload","0","8266","0.0-0.0","5db0a97f127d4000117cdfa0","B2","batch2","","","","","","","","","","","","","","","","","","","","","","","","","","","","","",""
"true","","","","","fullscreen","1","16038","0.0-1.0-0.0","5db0a97f127d4000117cdfa0","B2","batch2","","","","","","","","","","","","","","","","","","","","","","","","","","","","","",""
"true","","","","","fullscreen","2","20421","0.0-2.0-0.0","5db0a97f127d4000117cdfa0","B2","batch2","","","","","","","","","","","","","","","","","","","","","","","","","","","","","",""
"","","","","","instructions","3","88189","0.0-2.0-1.0-0.0-0.0","5db0a97f127d4000117cdfa0","B2","batch2","[{""page_index"":0,""viewing_time"":10797.09999999404},{""page_index"":1,""viewing_time"":3839.9000000059605},{""page_index"":2,""viewing_time"":13176.09999999404},{""page_index"":3,""viewing_time"":13416.100000023842},{""page_index"":4,""viewing_time"":8888.199999988079},{""page_index"":5,""viewing_time"":11975.800000011921},{""page_index"":6,""viewing_time"":5671.799999982119}]","67765.20000001788","tol-instructions","","","","","","","","","","","","","","","","","","","","","","","","","","",""
"","","","","","html-button-response","4","89789","0.0-2.0-1.0-1.0-0.0","5db0a97f127d4000117cdfa0","B2","batch2","","1599.4000000059605","tol_enter_quiz","<p class=block-text> Let's answer a few questions <br>","0","","","","","","","","","","","","","","","","","","","","","","","","",""
"","","","","","html-button-response","5","95197","0.0-2.0-1.0-1.0-1.0","5db0a97f127d4000117cdfa0","B2","batch2","","5406.5999999940395","tol_quiz","<p class = block-text>True or False: You can only move the ball on top of a peg. <br></p>","1","false","","","","","","","","","","","","","","","","","","","","","","","",""
"","","","","","html-button-response","6","98949","0.0-2.0-1.0-1.0-2.0","5db0a97f127d4000117cdfa0","B2","batch2","","3750.600000023842","tol_quiz_feedback","<p class = block-text>Incorrect. Remember, you can only move the ball on top of a peg.</p>","0","","","","","","","","","","","","","","","","","","","","","","","","",""
"","","","","","html-button-response","7","101621","0.0-2.0-1.0-1.0-3.0","5db0a97f127d4000117cdfa0","B2","batch2","","2671.300000011921","tol_quiz","<p class = block-text>True or False: You should try to match your board with the target board with fewest moves possible. <br></p>","0","true","","","","","","","","","","","","","","","","","","","","","","","",""
"","","","","","html-button-response","8","102581","0.0-2.0-1.0-1.0-4.0","5db0a97f127d4000117cdfa0","B2","batch2","","959","tol_quiz_feedback","<p class = block-text>Correct! </p>","0","","","","","","","","","","","","","","","","","","","","","","","","",""
"","","","","","html-button-response","9","104925","0.0-2.0-1.0-2.0-0.0","5db0a97f127d4000117cdfa0","B2","batch2","","2342.800000011921","","<p class = block-text>You made too many incorrect choices.</p><p class = block-text>You will now repeat the instructions and quiz</p>","0","","","","","","","","","","","","","","","","","","","","","","","","",""
"","","","","","instructions","10","128357","0.0-2.0-1.1-0.1-0.1","5db0a97f127d4000117cdfa0","B2","batch2","[{""page_index"":0,""viewing_time"":3895.4000000059605},{""page_index"":1,""viewing_time"":1792.0999999940395},{""page_index"":2,""viewing_time"":1423.9000000059605},{""page_index"":3,""viewing_time"":3776.0999999940395},{""page_index"":4,""viewing_time"":1928.1000000238419},{""page_index"":5,""viewing_time"":8223.799999982119},{""page_index"":6,""viewing_time"":2391.9000000059605}]","23431.600000023842","tol-instructions","","","","","","","","","","","","","","","","","","","","","","","","","","",""
"","","","","","html-button-response","11","129365","0.0-2.0-1.1-1.1-0.1","5db0a97f127d4000117cdfa0","B2","batch2","","1007.5999999940395","tol_enter_quiz","<p class=block-text> Let's answer a few questions <br>","0","","","","","","","","","","","","","","","","","","","","","","","","",""
"","","","","","html-button-response","12","131093","0.0-2.0-1.1-1.1-1.1","5db0a97f127d4000117cdfa0","B2","batch2","","1727.0999999940395","tol_quiz","<p class = block-text>True or False: You can only move the ball on top of a peg. <br></p>","0","true","","","","","","","","","","","","","","","","","","","","","","","",""
"","","","","","html-button-response","13","131917","0.0-2.0-1.1-1.1-2.1","5db0a97f127d4000117cdfa0","B2","batch2","","823.3999999761581","tol_quiz_feedback","<p class = block-text>Correct! You can only move the ball on top of a peg.</p>","0","","","","","","","","","","","","","","","","","","","","","","","","",""
"","","","","","html-button-response","14","133093","0.0-2.0-1.1-1.1-3.1","5db0a97f127d4000117cdfa0","B2","batch2","","1175.199999988079","tol_quiz","<p class = block-text>True or False: You should try to match your board with the target board with fewest moves possible. <br></p>","0","true","","","","","","","","","","","","","","","","","","","","","","","",""
"","","","","","html-button-response","15","134029","0.0-2.0-1.1-1.1-4.1","5db0a97f127d4000117cdfa0","B2","batch2","","935.5","tol_quiz_feedback","<p class = block-text>Correct! </p>","0","","","","","","","","","","","","","","","","","","","","","","","","",""
"","","","","","html-button-response","16","136381","0.0-2.0-2.0","5db0a97f127d4000117cdfa0","B2","batch2","","2351.2999999821186","","<p class=block-text> Now that you've understood the game, let's practice a few easier examples before we start!<br> <br>","0","","","","","","","","","","","","","","","","","","","","","","","","",""
"","","","","","single-stim-button","17","141071","0.0-2.0-3.0-0.0","5db0a97f127d4000117cdfa0","B2","batch2","","4688","tol_practice","","","","tol_peg_2","4688","4688","0","[[1,2,0],[0,0],[0]]","1","[[1,2,0],[0,0],[3]]","practice","4688","","","","","","","","","","","","","","",""
"","","","","","single-stim-button","18","142837","0.0-2.0-3.0-1.0","5db0a97f127d4000117cdfa0","B2","batch2","","1765","tol_practice","","","","tol_peg_3","1765","1765","0","[[1,2,0],[0,0],[3]]","1","[[1,2,0],[0,0],[3]]","practice","1765","","","","","","","","","","","","","","",""
"","","","","","poldrack-single-stim","19","143839","0.0-2.0-4.0","5db0a97f127d4000117cdfa0","B2","batch2","","-1","tol_feedback","","","true","","1000","1000","500","","","","","","-1","none","true","","0","","","","","","","","","",""
"","","","","","single-stim-button","20","149709","0.0-2.0-5.0-0.0","5db0a97f127d4000117cdfa0","B2","batch2","","5869","tol_practice","","","","tol_peg_1","5869","5869","0","[[1,0,0],[3,0],[0]]","2","[[0,0,0],[3,1],[2]]","practice","5869","","","","","","","","","","","","","","",""
"","","","","","single-stim-button","21","151093","0.0-2.0-5.0-1.0","5db0a97f127d4000117cdfa0","B2","batch2","","1384","tol_practice","","","","tol_peg_3","1384","1384","0","[[1,0,0],[3,0],[2]]","2","[[0,0,0],[3,1],[2]]","practice","1384","","","","","","","","","","","","","","",""
"","","","","","single-stim-button","22","152477","0.0-2.0-5.1-0.1","5db0a97f127d4000117cdfa0","B2","batch2","","1384","tol_practice","","","","tol_peg_1","1384","1384","0","[[0,0,0],[3,0],[2]]","3","[[0,0,0],[3,1],[2]]","practice","1384","","","","","","","","","","","","","","",""
"","","","","","single-stim-button","23","153109","0.0-2.0-5.1-1.1","5db0a97f127d4000117cdfa0","B2","batch2","","632","tol_practice","","","","tol_peg_2","632","632","0","[[0,0,0],[3,1],[2]]","3","[[0,0,0],[3,1],[2]]","practice","632","","","","","","","","","","","","","","",""
"","","","","","poldrack-single-stim","24","154110","0.0-2.0-6.0","5db0a97f127d4000117cdfa0","B2","batch2","","-1","tol_feedback","","","true","","1000","1000","500","","","","","","-1","none","true","","0","","","","","","","","","",""
"","","","","","single-stim-button","25","157093","0.0-2.0-7.0-0.0","5db0a97f127d4000117cdfa0","B2","batch2","","2982","tol_practice","","","","tol_peg_2","2982","2982","0","[[1,2,0],[0,0],[0]]","4","[[1,0,0],[2,0],[3]]","practice","2982","","","","","","","","","","","","","","",""
"","","","","","single-stim-button","26","158093","0.0-2.0-7.0-1.0","5db0a97f127d4000117cdfa0","B2","batch2","","1000","tol_practice","","","","tol_peg_3","1000","1000","0","[[1,2,0],[0,0],[3]]","4","[[1,0,0],[2,0],[3]]","practice","1000","","","","","","","","","","","","","","",""
"","","","","","single-stim-button","27","159861","0.0-2.0-7.1-0.1","5db0a97f127d4000117cdfa0","B2","batch2","","1768","tol_practice","","","","tol_peg_1","1768","1768","0","[[1,0,0],[0,0],[3]]","5","[[1,0,0],[2,0],[3]]","practice","1768","","","","","","","","","","","","","","",""
"","","","","","single-stim-button","28","160589","0.0-2.0-7.1-1.1","5db0a97f127d4000117cdfa0","B2","batch2","","728","tol_practice","","","","tol_peg_2","728","728","0","[[1,0,0],[2,0],[3]]","5","[[1,0,0],[2,0],[3]]","practice","728","","","","","","","","","","","","","","",""
"","","","","","poldrack-single-stim","29","161590","0.0-2.0-8.0","5db0a97f127d4000117cdfa0","B2","batch2","","-1","tol_feedback","","","true","","1000","1000","500","","","","","","-1","none","true","","0","","","","","","","","","",""
"","","","","","html-button-response","30","165765","0.0-2.0-9.0","5db0a97f127d4000117cdfa0","B2","batch2","","4173.5999999940395","tol_instruction","<div class = centerbox><p class = center-block-text>Great job! You are done with practice trials<br>You are about to start official trials.<br> <br> Problem <strong>1</strong> out of 25 problems</p></div>","0","","","","","","","","","","","","","","","","","","","","","","","","",""
"","","","","","single-stim-button","31","177269","0.0-2.0-10.0-0.0","5db0a97f127d4000117cdfa0","B2","batch2","","10502","tol_tohand","","","","tol_peg_1","10502","10502","0","[[1,0,0],[3,0],[0]]","1","[[1,3,0],[2,0],[0]]","0","0","","","","","","3","","","","","","","","",""
"","","","","","single-stim-button","32","181053","0.0-2.0-10.0-1.0","5db0a97f127d4000117cdfa0","B2","batch2","","3784","tol_toboard","","","","tol_peg_3","3784","3784","0","[[1,0,0],[3,0],[2]]","1","[[1,3,0],[2,0],[0]]","0","0","","","","","","3","","","","","","","","",""
"","","","","","single-stim-button","33","183597","0.0-2.0-10.1-0.1","5db0a97f127d4000117cdfa0","B2","batch2","","2543","tol_tohand","","","","tol_peg_2","2543","2543","0","[[1,0,0],[0,0],[2]]","2","[[1,3,0],[2,0],[0]]","0","0","","","","","","3","","","","","","","","",""
"","","","","","single-stim-button","34","186821","0.0-2.0-10.1-1.1","5db0a97f127d4000117cdfa0","B2","batch2","","3224","tol_toboard","","","","tol_peg_1","3224","3224","0","[[1,3,0],[0,0],[2]]","2","[[1,3,0],[2,0],[0]]","0","0","","","","","","3","","","","","","","","",""
"","","","","","single-stim-button","35","190037","0.0-2.0-10.2-0.2","5db0a97f127d4000117cdfa0","B2","batch2","","3216","tol_tohand","","","","tol_peg_3","3216","3216","0","[[1,3,0],[0,0],[0]]","3","[[1,3,0],[2,0],[0]]","0","0","","","","","","3","","","","","","","","",""
"","","","","","single-stim-button","36","190861","0.0-2.0-10.2-1.2","5db0a97f127d4000117cdfa0","B2","batch2","","824","tol_toboard","","","","tol_peg_2","824","824","0","[[1,3,0],[2,0],[0]]","3","[[1,3,0],[2,0],[0]]","0","0","","","","","","3","","","","","","","","",""
"","","","","","poldrack-single-stim","37","191863","0.0-2.0-11.0","5db0a97f127d4000117cdfa0","B2","batch2","","-1","tol_feedback","","","true","","1000","1000","500","","","","","","-1","none","true","10502","16261","","","","","","","","","",""
"","","","","","html-button-response","38","193133","0.0-2.0-12.0","5db0a97f127d4000117cdfa0","B2","batch2","","1268.699999988079","tol_trial_num","<div class = centerbox><p class = center-block-text>problem <strong>2</strong> out of 25 problems</p></div>","0","","","","","","","","","","","","","","","","","","","","","","","","",""
"","","","","","single-stim-button","39","205461","0.0-2.0-13.0-0.0","5db0a97f127d4000117cdfa0","B2","batch2","","12328","tol_tohand","","","","tol_peg_2","12328","12328","0","[[1,2,0],[0,0],[0]]","1","[[2,1,3],[0,0],[0]]","1","0","","","","","","5","","","","","","","","",""
"","","","","","single-stim-button","40","209757","0.0-2.0-13.0-1.0","5db0a97f127d4000117cdfa0","B2","batch2","","4296","tol_toboard","","","","tol_peg_3","4296","4296","0","[[1,2,0],[0,0],[3]]","1","[[2,1,3],[0,0],[0]]","1","0","","","","","","5","","","","","","","","",""
"","","","","","single-stim-button","41","210989","0.0-2.0-13.1-0.1","5db0a97f127d4000117cdfa0","B2","batch2","","1232","tol_tohand","","","","tol_peg_1","1232","1232","0","[[1,0,0],[0,0],[3]]","2","[[2,1,3],[0,0],[0]]","1","0","","","","","","5","","","","","","","","",""
"","","","","","single-stim-button","42","212589","0.0-2.0-13.1-1.1","5db0a97f127d4000117cdfa0","B2","batch2","","1600","tol_toboard","","","","tol_peg_2","1600","1600","0","[[1,0,0],[2,0],[3]]","2","[[2,1,3],[0,0],[0]]","1","0","","","","","","5","","","","","","","","",""
"","","","","","single-stim-button","43","215405","0.0-2.0-13.2-0.2","5db0a97f127d4000117cdfa0","B2","batch2","","2816","tol_tohand","","","","tol_peg_1","2816","2816","0","[[0,0,0],[2,0],[3]]","3","[[2,1,3],[0,0],[0]]","1","0","","","","","","5","","","","","","","","",""
"","","","","","single-stim-button","44","215901","0.0-2.0-13.2-1.2","5db0a97f127d4000117cdfa0","B2","batch2","","496","tol_toboard","","","","tol_peg_2","496","496","0","[[0,0,0],[2,1],[3]]","3","[[2,1,3],[0,0],[0]]","1","0","","","","","","5","","","","","","","","",""
"","","","","","single-stim-button","45","216805","0.0-2.0-13.3-0.3","5db0a97f127d4000117cdfa0","B2","batch2","","904","tol_tohand","","","","tol_peg_2","904","904","0","[[0,0,0],[2,0],[3]]","4","[[2,1,3],[0,0],[0]]","1","0","","","","","","5","","","","","","","","",""
"","","","","","single-stim-button","46","218277","0.0-2.0-13.3-1.3","5db0a97f127d4000117cdfa0","B2","batch2","","1472","tol_toboard","","","","tol_peg_2","1472","1472","0","[[0,0,0],[2,1],[3]]","4","[[2,1,3],[0,0],[0]]","1","0","","","","","","5","","","","","","","","",""
"","","","","","single-stim-button","47","219093","0.0-2.0-13.4-0.4","5db0a97f127d4000117cdfa0","B2","batch2","","816","tol_tohand","","","","tol_peg_2","816","816","0","[[0,0,0],[2,0],[3]]","5","[[2,1,3],[0,0],[0]]","1","0","","","","","","5","","","","","","","","",""
"","","","","","single-stim-button","48","226589","0.0-2.0-13.4-1.4","5db0a97f127d4000117cdfa0","B2","batch2","","7496","tol_toboard","","","","tol_peg_1","7496","7496","0","[[1,0,0],[2,0],[3]]","5","[[2,1,3],[0,0],[0]]","1","0","","","","","","5","","","","","","","","",""
"","","","","","single-stim-button","49","228925","0.0-2.0-13.5-0.5","5db0a97f127d4000117cdfa0","B2","batch2","","2335","tol_tohand","","","","tol_peg_2","2335","2335","0","[[1,0,0],[0,0],[3]]","6","[[2,1,3],[0,0],[0]]","1","0","","","","","","5","","","","","","","","",""
"","","","","","single-stim-button","50","234245","0.0-2.0-13.5-1.5","5db0a97f127d4000117cdfa0","B2","batch2","","5320","tol_toboard","","","","tol_peg_1","5320","5320","0","[[1,2,0],[0,0],[3]]","6","[[2,1,3],[0,0],[0]]","1","0","","","","","","5","","","","","","","","",""
"","","","","","single-stim-button","51","237821","0.0-2.0-13.6-0.6","5db0a97f127d4000117cdfa0","B2","batch2","","3576","tol_tohand","","","","tol_peg_1","3576","3576","0","[[1,0,0],[0,0],[3]]","7","[[2,1,3],[0,0],[0]]","1","0","","","","","","5","","","","","","","","",""
"","","","","","single-stim-button","52","244493","0.0-2.0-13.6-1.6","5db0a97f127d4000117cdfa0","B2","batch2","","6672","tol_toboard","","","","tol_peg_2","6672","6672","0","[[1,0,0],[2,0],[3]]","7","[[2,1,3],[0,0],[0]]","1","0","","","","","","5","","","","","","","","",""
"","","","","","single-stim-button","53","252517","0.0-2.0-13.7-0.7","5db0a97f127d4000117cdfa0","B2","batch2","","8023","tol_tohand","","","","tol_peg_1","8023","8023","0","[[0,0,0],[2,0],[3]]","8","[[2,1,3],[0,0],[0]]","1","0","","","","","","5","","","","","","","","",""
"","","","","","single-stim-button","54","255277","0.0-2.0-13.7-1.7","5db0a97f127d4000117cdfa0","B2","batch2","","2759","tol_toboard","","","","tol_peg_2","2759","2759","0","[[0,0,0],[2,1],[3]]","8","[[2,1,3],[0,0],[0]]","1","0","","","","","","5","","","","","","","","",""
"","","","","","single-stim-button","55","258749","0.0-2.0-13.8-0.8","5db0a97f127d4000117cdfa0","B2","batch2","","3472","tol_tohand","","","","tol_peg_2","3472","3472","0","[[0,0,0],[2,0],[3]]","9","[[2,1,3],[0,0],[0]]","1","0","","","","","","5","","","","","","","","",""
"","","","","","single-stim-button","56","262069","0.0-2.0-13.8-1.8","5db0a97f127d4000117cdfa0","B2","batch2","","3320","tol_toboard","","","","tol_peg_1","3320","3320","0","[[1,0,0],[2,0],[3]]","9","[[2,1,3],[0,0],[0]]","1","0","","","","","","5","","","","","","","","",""
"","","","","","single-stim-button","57","262661","0.0-2.0-13.9-0.9","5db0a97f127d4000117cdfa0","B2","batch2","","591","tol_tohand","","","","tol_peg_3","591","591","0","[[1,0,0],[2,0],[0]]","10","[[2,1,3],[0,0],[0]]","1","0","","","","","","5","","","","","","","","",""
"","","","","","single-stim-button","58","265957","0.0-2.0-13.9-1.9","5db0a97f127d4000117cdfa0","B2","batch2","","3295","tol_toboard","","","","tol_peg_2","3295","3295","0","[[1,0,0],[2,3],[0]]","10","[[2,1,3],[0,0],[0]]","1","0","","","","","","5","","","","","","","","",""
"","","","","","single-stim-button","59","270149","0.0-2.0-13.10-0.10","5db0a97f127d4000117cdfa0","B2","batch2","","4191","tol_tohand","","","","tol_peg_1","4191","4191","0","[[0,0,0],[2,3],[0]]","11","[[2,1,3],[0,0],[0]]","1","0","","","","","","5","","","","","","","","",""
"","","","","","single-stim-button","60","274405","0.0-2.0-13.10-1.10","5db0a97f127d4000117cdfa0","B2","batch2","","4255","tol_toboard","","","","tol_peg_3","4255","4255","0","[[0,0,0],[2,3],[1]]","11","[[2,1,3],[0,0],[0]]","1","0","","","","","","5","","","","","","","","",""
"","","","","","single-stim-button","61","279437","0.0-2.0-13.11-0.11","5db0a97f127d4000117cdfa0","B2","batch2","","5031","tol_tohand","","","","tol_peg_2","5031","5031","0","[[0,0,0],[2,0],[1]]","12","[[2,1,3],[0,0],[0]]","1","0","","","","","","5","","","","","","","","",""
"","","","","","single-stim-button","62","280685","0.0-2.0-13.11-1.11","5db0a97f127d4000117cdfa0","B2","batch2","","1247","tol_toboard","","","","tol_peg_2","1247","1247","0","[[0,0,0],[2,3],[1]]","12","[[2,1,3],[0,0],[0]]","1","0","","","","","","5","","","","","","","","",""
"","","","","","single-stim-button","63","281589","0.0-2.0-13.12-0.12","5db0a97f127d4000117cdfa0","B2","batch2","","903","tol_tohand","","","","tol_peg_2","903","903","0","[[0,0,0],[2,0],[1]]","13","[[2,1,3],[0,0],[0]]","1","0","","","","","","5","","","","","","","","",""
"","","","","","single-stim-button","64","282917","0.0-2.0-13.12-1.12","5db0a97f127d4000117cdfa0","B2","batch2","","1328","tol_toboard","","","","tol_peg_1","1328","1328","0","[[3,0,0],[2,0],[1]]","13","[[2,1,3],[0,0],[0]]","1","0","","","","","","5","","","","","","","","",""
"","","","","","single-stim-button","65","283597","0.0-2.0-13.13-0.13","5db0a97f127d4000117cdfa0","B2","batch2","","680","tol_tohand","","","","tol_peg_2","680","680","0","[[3,0,0],[0,0],[1]]","14","[[2,1,3],[0,0],[0]]","1","0","","","","","","5","","","","","","","","",""
"","","","","","single-stim-button","66","284605","0.0-2.0-13.13-1.13","5db0a97f127d4000117cdfa0","B2","batch2","","1008","tol_toboard","","","","tol_peg_1","1008","1008","0","[[3,2,0],[0,0],[1]]","14","[[2,1,3],[0,0],[0]]","1","0","","","","","","5","","","","","","","","",""
"","","","","","single-stim-button","67","287901","0.0-2.0-13.14-0.14","5db0a97f127d4000117cdfa0","B2","batch2","","3296","tol_tohand","","","","tol_peg_1","3296","3296","0","[[3,0,0],[0,0],[1]]","15","[[2,1,3],[0,0],[0]]","1","0","","","","","","5","","","","","","","","",""
"","","","","","single-stim-button","68","290293","0.0-2.0-13.14-1.14","5db0a97f127d4000117cdfa0","B2","batch2","","2392","tol_toboard","","","","tol_peg_1","2392","2392","0","[[3,2,0],[0,0],[1]]","15","[[2,1,3],[0,0],[0]]","1","0","","","","","","5","","","","","","","","",""
"","","","","","single-stim-button","69","290981","0.0-2.0-13.15-0.15","5db0a97f127d4000117cdfa0","B2","batch2","","688","tol_tohand","","","","tol_peg_1","688","688","0","[[3,0,0],[0,0],[1]]","16","[[2,1,3],[0,0],[0]]","1","0","","","","","","5","","","","","","","","",""
"","","","","","single-stim-button","70","294957","0.0-2.0-13.15-1.15","5db0a97f127d4000117cdfa0","B2","batch2","","3976","tol_toboard","","","","tol_peg_1","3976","3976","0","[[3,2,0],[0,0],[1]]","16","[[2,1,3],[0,0],[0]]","1","0","","","","","","5","","","","","","","","",""
"","","","","","single-stim-button","71","296269","0.0-2.0-13.16-0.16","5db0a97f127d4000117cdfa0","B2","batch2","","1311","tol_tohand","","","","tol_peg_3","1311","1311","0","[[3,2,0],[0,0],[0]]","17","[[2,1,3],[0,0],[0]]","1","0","","","","","","5","","","","","","","","",""
"","","","","","single-stim-button","72","304494","0.0-2.0-13.16-1.16","5db0a97f127d4000117cdfa0","B2","batch2","","8225","tol_toboard","","","","tol_peg_3","8225","8225","0","[[3,2,0],[0,0],[1]]","17","[[2,1,3],[0,0],[0]]","1","0","","","","","","5","","","","","","","","",""
"","","","","","single-stim-button","73","305886","0.0-2.0-13.17-0.17","5db0a97f127d4000117cdfa0","B2","batch2","","1392","tol_tohand","","","","tol_peg_1","1392","1392","0","[[3,0,0],[0,0],[1]]","18","[[2,1,3],[0,0],[0]]","1","0","","","","","","5","","","","","","","","",""
"","","","","","single-stim-button","74","318118","0.0-2.0-13.17-1.17","5db0a97f127d4000117cdfa0","B2","batch2","","12232","tol_toboard","","","","tol_peg_2","12232","12232","0","[[3,0,0],[2,0],[1]]","18","[[2,1,3],[0,0],[0]]","1","0","","","","","","5","","","","","","","","",""
"","","","","","single-stim-button","75","318878","0.0-2.0-13.18-0.18","5db0a97f127d4000117cdfa0","B2","batch2","","760","tol_tohand","","","","tol_peg_1","760","760","0","[[0,0,0],[2,0],[1]]","19","[[2,1,3],[0,0],[0]]","1","0","","","","","","5","","","","","","","","",""
"","","","","","single-stim-button","76","327822","0.0-2.0-13.18-1.18","5db0a97f127d4000117cdfa0","B2","batch2","","8944","tol_toboard","","","","tol_peg_2","8944","8944","0","[[0,0,0],[2,3],[1]]","19","[[2,1,3],[0,0],[0]]","1","0","","","","","","5","","","","","","","","",""
"","","","","","single-stim-button","77","329014","0.0-2.0-13.19-0.19","5db0a97f127d4000117cdfa0","B2","batch2","","1192","tol_tohand","","","","tol_peg_2","1192","1192","0","[[0,0,0],[2,0],[1]]","20","[[2,1,3],[0,0],[0]]","1","0","","","","","","5","","","","","","","","",""
"","","","","","single-stim-button","78","336030","0.0-2.0-13.19-1.19","5db0a97f127d4000117cdfa0","B2","batch2","","7016","tol_toboard","","","","tol_peg_1","7016","7016","0","[[3,0,0],[2,0],[1]]","20","[[2,1,3],[0,0],[0]]","1","0","","","","","","5","","","","","","","","",""
"","","","","","single-stim-button","79","343662","0.0-2.0-13.20-0.20","5db0a97f127d4000117cdfa0","B2","batch2","","7632","tol_tohand","","","","tol_peg_3","7632","7632","0","[[3,0,0],[2,0],[0]]","21","[[2,1,3],[0,0],[0]]","1","0","","","","","","5","","","","","","","","",""
"","","","","","single-stim-button","80","348734","0.0-2.0-13.20-1.20","5db0a97f127d4000117cdfa0","B2","batch2","","5072","tol_toboard","","","","tol_peg_1","5072","5072","0","[[3,1,0],[2,0],[0]]","21","[[2,1,3],[0,0],[0]]","1","0","","","","","","5","","","","","","","","",""
"","","","","","single-stim-button","81","349950","0.0-2.0-13.21-0.21","5db0a97f127d4000117cdfa0","B2","batch2","","1216","tol_tohand","","","","tol_peg_2","1216","1216","0","[[3,1,0],[0,0],[0]]","22","[[2,1,3],[0,0],[0]]","1","0","","","","","","5","","","","","","","","",""
"","","","","","single-stim-button","82","352894","0.0-2.0-13.21-1.21","5db0a97f127d4000117cdfa0","B2","batch2","","2944","tol_toboard","","","","tol_peg_3","2944","2944","0","[[3,1,0],[0,0],[2]]","22","[[2,1,3],[0,0],[0]]","1","0","","","","","","5","","","","","","","","",""
"","","","","","single-stim-button","83","354334","0.0-2.0-13.22-0.22","5db0a97f127d4000117cdfa0","B2","batch2","","1440","tol_tohand","","","","tol_peg_1","1440","1440","0","[[3,0,0],[0,0],[2]]","23","[[2,1,3],[0,0],[0]]","1","0","","","","","","5","","","","","","","","",""
"","","","","","single-stim-button","84","358782","0.0-2.0-13.22-1.22","5db0a97f127d4000117cdfa0","B2","batch2","","4448","tol_toboard","","","","tol_peg_2","4448","4448","0","[[3,0,0],[1,0],[2]]","23","[[2,1,3],[0,0],[0]]","1","0","","","","","","5","","","","","","","","",""
"","","","","","single-stim-button","85","360382","0.0-2.0-13.23-0.23","5db0a97f127d4000117cdfa0","B2","batch2","","1600","tol_tohand","","","","tol_peg_1","1600","1600","0","[[0,0,0],[1,0],[2]]","24","[[2,1,3],[0,0],[0]]","1","0","","","","","","5","","","","","","","","",""
"","","","","","single-stim-button","86","363478","0.0-2.0-13.23-1.23","5db0a97f127d4000117cdfa0","B2","batch2","","3096","tol_toboard","","","","tol_peg_2","3096","3096","0","[[0,0,0],[1,3],[2]]","24","[[2,1,3],[0,0],[0]]","1","0","","","","","","5","","","","","","","","",""
"","","","","","single-stim-button","87","364726","0.0-2.0-13.24-0.24","5db0a97f127d4000117cdfa0","B2","batch2","","1248","tol_tohand","","","","tol_peg_3","1248","1248","0","[[0,0,0],[1,3],[0]]","25","[[2,1,3],[0,0],[0]]","1","0","","","","","","5","","","","","","","","",""
"","","","","","single-stim-button","88","366718","0.0-2.0-13.24-1.24","5db0a97f127d4000117cdfa0","B2","batch2","","1991","tol_toboard","","","","tol_peg_1","1991","1991","0","[[2,0,0],[1,3],[0]]","25","[[2,1,3],[0,0],[0]]","1","0","","","","","","5","","","","","","","","",""
"","","","","","single-stim-button","89","368550","0.0-2.0-13.25-0.25","5db0a97f127d4000117cdfa0","B2","batch2","","1831","tol_tohand","","","","tol_peg_2","1831","1831","0","[[2,0,0],[1,0],[0]]","26","[[2,1,3],[0,0],[0]]","1","0","","","","","","5","","","","","","","","",""
"","","","","","single-stim-button","90","370230","0.0-2.0-13.25-1.25","5db0a97f127d4000117cdfa0","B2","batch2","","1679","tol_toboard","","","","tol_peg_3","1679","1679","0","[[2,0,0],[1,0],[3]]","26","[[2,1,3],[0,0],[0]]","1","0","","","","","","5","","","","","","","","",""
"","","","","","single-stim-button","91","371134","0.0-2.0-13.26-0.26","5db0a97f127d4000117cdfa0","B2","batch2","","904","tol_tohand","","","","tol_peg_2","904","904","0","[[2,0,0],[0,0],[3]]","27","[[2,1,3],[0,0],[0]]","1","0","","","","","","5","","","","","","","","",""
"","","","","","single-stim-button","92","373174","0.0-2.0-13.26-1.26","5db0a97f127d4000117cdfa0","B2","batch2","","2039","tol_toboard","","","","tol_peg_1","2039","2039","0","[[2,1,0],[0,0],[3]]","27","[[2,1,3],[0,0],[0]]","1","0","","","","","","5","","","","","","","","",""
"","","","","","single-stim-button","93","373894","0.0-2.0-13.27-0.27","5db0a97f127d4000117cdfa0","B2","batch2","","719","tol_tohand","","","","tol_peg_3","719","719","0","[[2,1,0],[0,0],[0]]","28","[[2,1,3],[0,0],[0]]","1","0","","","","","","5","","","","","","","","",""
"","","","","","single-stim-button","94","375126","0.0-2.0-13.27-1.27","5db0a97f127d4000117cdfa0","B2","batch2","","1231","tol_toboard","","","","tol_peg_1","1231","1231","0","[[2,1,3],[0,0],[0]]","28","[[2,1,3],[0,0],[0]]","1","0","","","","","","5","","","","","","","","",""
"","","","","","poldrack-single-stim","95","376128","0.0-2.0-14.0","5db0a97f127d4000117cdfa0","B2","batch2","","-1","tol_feedback","","","true","","1000","1000","500","","","","","","-1","none","true","12328","72127","","","","","","","","","",""
"","","","","","html-button-response","96","377254","0.0-2.0-15.0","5db0a97f127d4000117cdfa0","B2","batch2","","1125.5","tol_trial_num","<div class = centerbox><p class = center-block-text>problem <strong>3</strong> out of 25 problems</p></div>","0","","","","","","","","","","","","","","","","","","","","","","","","",""
"","","","","","single-stim-button","97","385942","0.0-2.0-16.0-0.0","5db0a97f127d4000117cdfa0","B2","batch2","","8687","tol_tohand","","","","tol_peg_1","8687","8687","0","[[2,0,0],[0,0],[1]]","1","[[1,2,0],[3,0],[0]]","2","0","","","","","","4","","","","","","","","",""
"","","","","","single-stim-button","98","388758","0.0-2.0-16.0-1.0","5db0a97f127d4000117cdfa0","B2","batch2","","2816","tol_toboard","","","","tol_peg_2","2816","2816","0","[[2,0,0],[3,0],[1]]","1","[[1,2,0],[3,0],[0]]","2","0","","","","","","4","","","","","","","","",""
"","","","","","single-stim-button","99","395382","0.0-2.0-16.1-0.1","5db0a97f127d4000117cdfa0","B2","batch2","","6623","tol_tohand","","","","tol_peg_1","6623","6623","0","[[0,0,0],[3,0],[1]]","2","[[1,2,0],[3,0],[0]]","2","0","","","","","","4","","","","","","","","",""
"","","","","","single-stim-button","100","399214","0.0-2.0-16.1-1.1","5db0a97f127d4000117cdfa0","B2","batch2","","3831","tol_toboard","","","","tol_peg_2","3831","3831","0","[[0,0,0],[3,2],[1]]","2","[[1,2,0],[3,0],[0]]","2","0","","","","","","4","","","","","","","","",""
"","","","","","single-stim-button","101","400270","0.0-2.0-16.2-0.2","5db0a97f127d4000117cdfa0","B2","batch2","","1055","tol_tohand","","","","tol_peg_3","1055","1055","0","[[0,0,0],[3,2],[0]]","3","[[1,2,0],[3,0],[0]]","2","0","","","","","","4","","","","","","","","",""
"","","","","","single-stim-button","102","401446","0.0-2.0-16.2-1.2","5db0a97f127d4000117cdfa0","B2","batch2","","1175","tol_toboard","","","","tol_peg_1","1175","1175","0","[[1,0,0],[3,2],[0]]","3","[[1,2,0],[3,0],[0]]","2","0","","","","","","4","","","","","","","","",""
"","","","","","single-stim-button","103","403054","0.0-2.0-16.3-0.3","5db0a97f127d4000117cdfa0","B2","batch2","","1607","tol_tohand","","","","tol_peg_2","1607","1607","0","[[1,0,0],[3,0],[0]]","4","[[1,2,0],[3,0],[0]]","2","0","","","","","","4","","","","","","","","",""
"","","","","","single-stim-button","104","404878","0.0-2.0-16.3-1.3","5db0a97f127d4000117cdfa0","B2","batch2","","1823","tol_toboard","","","","tol_peg_1","1823","1823","0","[[1,2,0],[3,0],[0]]","4","[[1,2,0],[3,0],[0]]","2","0","","","","","","4","","","","","","","","",""
"","","","","","poldrack-single-stim","105","405879","0.0-2.0-17.0","5db0a97f127d4000117cdfa0","B2","batch2","","-1","tol_feedback","","","true","","1000","1000","500","","","","","","-1","none","true","8687","17972","","","","","","","","","",""
"","","","","","html-button-response","106","406998","0.0-2.0-18.0","5db0a97f127d4000117cdfa0","B2","batch2","","1117.699999988079","tol_trial_num","<div class = centerbox><p class = center-block-text>problem <strong>4</strong> out of 25 problems</p></div>","0","","","","","","","","","","","","","","","","","","","","","","","","",""
"","","","","","single-stim-button","107","413438","0.0-2.0-19.0-0.0","5db0a97f127d4000117cdfa0","B2","batch2","","6439","tol_tohand","","","","tol_peg_2","6439","6439","0","[[3,0,0],[2,0],[0]]","1","[[3,0,0],[1,0],[2]]","3","0","","","","","","3","","","","","","","","",""
"","","","","","single-stim-button","108","421254","0.0-2.0-19.0-1.0","5db0a97f127d4000117cdfa0","B2","batch2","","7815","tol_toboard","","","","tol_peg_3","7815","7815","0","[[3,0,0],[2,0],[1]]","1","[[3,0,0],[1,0],[2]]","3","0","","","","","","3","","","","","","","","",""
"","","","","","single-stim-button","109","422126","0.0-2.0-19.1-0.1","5db0a97f127d4000117cdfa0","B2","batch2","","871","tol_tohand","","","","tol_peg_2","871","871","0","[[3,0,0],[0,0],[1]]","2","[[3,0,0],[1,0],[2]]","3","0","","","","","","3","","","","","","","","",""
"","","","","","single-stim-button","110","423734","0.0-2.0-19.1-1.1","5db0a97f127d4000117cdfa0","B2","batch2","","1608","tol_toboard","","","","tol_peg_2","1608","1608","0","[[3,0,0],[2,0],[1]]","2","[[3,0,0],[1,0],[2]]","3","0","","","","","","3","","","","","","","","",""
"","","","","","single-stim-button","111","426318","0.0-2.0-19.2-0.2","5db0a97f127d4000117cdfa0","B2","batch2","","2583","tol_tohand","","","","tol_peg_3","2583","2583","0","[[3,0,0],[2,0],[0]]","3","[[3,0,0],[1,0],[2]]","3","0","","","","","","3","","","","","","","","",""
"","","","","","single-stim-button","112","427454","0.0-2.0-19.2-1.2","5db0a97f127d4000117cdfa0","B2","batch2","","1135","tol_toboard","","","","tol_peg_2","1135","1135","0","[[3,0,0],[2,1],[0]]","3","[[3,0,0],[1,0],[2]]","3","0","","","","","","3","","","","","","","","",""
"","","","","","single-stim-button","113","428526","0.0-2.0-19.3-0.3","5db0a97f127d4000117cdfa0","B2","batch2","","1072","tol_tohand","","","","tol_peg_2","1072","1072","0","[[3,0,0],[2,0],[0]]","4","[[3,0,0],[1,0],[2]]","3","0","","","","","","3","","","","","","","","",""
"","","","","","single-stim-button","114","430102","0.0-2.0-19.3-1.3","5db0a97f127d4000117cdfa0","B2","batch2","","1575","tol_toboard","","","","tol_peg_1","1575","1575","0","[[3,1,0],[2,0],[0]]","4","[[3,0,0],[1,0],[2]]","3","0","","","","","","3","","","","","","","","",""
"","","","","","single-stim-button","115","431854","0.0-2.0-19.4-0.4","5db0a97f127d4000117cdfa0","B2","batch2","","1751","tol_tohand","","","","tol_peg_2","1751","1751","0","[[3,1,0],[0,0],[0]]","5","[[3,0,0],[1,0],[2]]","3","0","","","","","","3","","","","","","","","",""
"","","","","","single-stim-button","116","433350","0.0-2.0-19.4-1.4","5db0a97f127d4000117cdfa0","B2","batch2","","1495","tol_toboard","","","","tol_peg_3","1495","1495","0","[[3,1,0],[0,0],[2]]","5","[[3,0,0],[1,0],[2]]","3","0","","","","","","3","","","","","","","","",""
"","","","","","single-stim-button","117","434206","0.0-2.0-19.5-0.5","5db0a97f127d4000117cdfa0","B2","batch2","","855","tol_tohand","","","","tol_peg_1","855","855","0","[[3,0,0],[0,0],[2]]","6","[[3,0,0],[1,0],[2]]","3","0","","","","","","3","","","","","","","","",""
"","","","","","single-stim-button","118","434998","0.0-2.0-19.5-1.5","5db0a97f127d4000117cdfa0","B2","batch2","","792","tol_toboard","","","","tol_peg_2","792","792","0","[[3,0,0],[1,0],[2]]","6","[[3,0,0],[1,0],[2]]","3","0","","","","","","3","","","","","","","","",""
"","","","","","poldrack-single-stim","119","436000","0.0-2.0-20.0","5db0a97f127d4000117cdfa0","B2","batch2","","-1","tol_feedback","","","true","","1000","1000","500","","","","","","-1","none","true","6439","13571","","","","","","","","","",""
"","","","","","html-button-response","120","437030","0.0-2.0-21.0","5db0a97f127d4000117cdfa0","B2","batch2","","1028.5999999940395","tol_trial_num","<div class = centerbox><p class = center-block-text>problem <strong>5</strong> out of 25 problems</p></div>","0","","","","","","","","","","","","","","","","","","","","","","","","",""
"","","","","","single-stim-button","121","458102","0.0-2.0-22.0-0.0","5db0a97f127d4000117cdfa0","B2","batch2","","21071","tol_tohand","","","","tol_peg_2","21071","21071","0","[[1,0,0],[0,0],[3]]","1","[[0,0,0],[1,2],[3]]","4","0","","","","","","7","","","","","","","","",""
"","","","","","single-stim-button","122","460686","0.0-2.0-22.0-1.0","5db0a97f127d4000117cdfa0","B2","batch2","","2583","tol_toboard","","","","tol_peg_2","2583","2583","0","[[1,0,0],[2,0],[3]]","1","[[0,0,0],[1,2],[3]]","4","0","","","","","","7","","","","","","","","",""
"","","","","","single-stim-button","123","461351","0.0-2.0-22.1-0.1","5db0a97f127d4000117cdfa0","B2","batch2","","663","tol_tohand","","","","tol_peg_1","663","663","0","[[0,0,0],[2,0],[3]]","2","[[0,0,0],[1,2],[3]]","4","0","","","","","","7","","","","","","","","",""
"","","","","","single-stim-button","124","462550","0.0-2.0-22.1-1.1","5db0a97f127d4000117cdfa0","B2","batch2","","1199","tol_toboard","","","","tol_peg_2","1199","1199","0","[[0,0,0],[2,1],[3]]","2","[[0,0,0],[1,2],[3]]","4","0","","","","","","7","","","","","","","","",""
"","","","","","single-stim-button","125","465430","0.0-2.0-22.2-0.2","5db0a97f127d4000117cdfa0","B2","batch2","","2879","tol_tohand","","","","tol_peg_2","2879","2879","0","[[0,0,0],[2,0],[3]]","3","[[0,0,0],[1,2],[3]]","4","0","","","","","","7","","","","","","","","",""
"","","","","","single-stim-button","126","475710","0.0-2.0-22.2-1.2","5db0a97f127d4000117cdfa0","B2","batch2","","10279","tol_toboard","","","","tol_peg_1","10279","10279","0","[[1,0,0],[2,0],[3]]","3","[[0,0,0],[1,2],[3]]","4","0","","","","","","7","","","","","","","","",""
"","","","","","single-stim-button","127","476358","0.0-2.0-22.3-0.3","5db0a97f127d4000117cdfa0","B2","batch2","","647","tol_tohand","","","","tol_peg_2","647","647","0","[[1,0,0],[0,0],[3]]","4","[[0,0,0],[1,2],[3]]","4","0","","","","","","7","","","","","","","","",""
"","","","","","single-stim-button","128","480390","0.0-2.0-22.3-1.3","5db0a97f127d4000117cdfa0","B2","batch2","","4031","tol_toboard","","","","tol_peg_1","4031","4031","0","[[1,2,0],[0,0],[3]]","4","[[0,0,0],[1,2],[3]]","4","0","","","","","","7","","","","","","","","",""
"","","","","","single-stim-button","129","488615","0.0-2.0-22.4-0.4","5db0a97f127d4000117cdfa0","B2","batch2","","8224","tol_tohand","","","","tol_peg_3","8224","8224","0","[[1,2,0],[0,0],[0]]","5","[[0,0,0],[1,2],[3]]","4","0","","","","","","7","","","","","","","","",""
"","","","","","single-stim-button","130","492223","0.0-2.0-22.4-1.4","5db0a97f127d4000117cdfa0","B2","batch2","","3608","tol_toboard","","","","tol_peg_2","3608","3608","0","[[1,2,0],[3,0],[0]]","5","[[0,0,0],[1,2],[3]]","4","0","","","","","","7","","","","","","","","",""
"","","","","","single-stim-button","131","493551","0.0-2.0-22.5-0.5","5db0a97f127d4000117cdfa0","B2","batch2","","1328","tol_tohand","","","","tol_peg_1","1328","1328","0","[[1,0,0],[3,0],[0]]","6","[[0,0,0],[1,2],[3]]","4","0","","","","","","7","","","","","","","","",""
"","","","","","single-stim-button","132","495919","0.0-2.0-22.5-1.5","5db0a97f127d4000117cdfa0","B2","batch2","","2368","tol_toboard","","","","tol_peg_3","2368","2368","0","[[1,0,0],[3,0],[2]]","6","[[0,0,0],[1,2],[3]]","4","0","","","","","","7","","","","","","","","",""
"","","","","","single-stim-button","133","497143","0.0-2.0-22.6-0.6","5db0a97f127d4000117cdfa0","B2","batch2","","1224","tol_tohand","","","","tol_peg_1","1224","1224","0","[[0,0,0],[3,0],[2]]","7","[[0,0,0],[1,2],[3]]","4","0","","","","","","7","","","","","","","","",""
"","","","","","single-stim-button","134","506751","0.0-2.0-22.6-1.6","5db0a97f127d4000117cdfa0","B2","batch2","","9608","tol_toboard","","","","tol_peg_2","9608","9608","0","[[0,0,0],[3,1],[2]]","7","[[0,0,0],[1,2],[3]]","4","0","","","","","","7","","","","","","","","",""
"","","","","","single-stim-button","135","510775","0.0-2.0-22.7-0.7","5db0a97f127d4000117cdfa0","B2","batch2","","4024","tol_tohand","","","","tol_peg_3","4024","4024","0","[[0,0,0],[3,1],[0]]","8","[[0,0,0],[1,2],[3]]","4","0","","","","","","7","","","","","","","","",""
"","","","","","single-stim-button","136","515031","0.0-2.0-22.7-1.7","5db0a97f127d4000117cdfa0","B2","batch2","","4256","tol_toboard","","","","tol_peg_1","4256","4256","0","[[2,0,0],[3,1],[0]]","8","[[0,0,0],[1,2],[3]]","4","0","","","","","","7","","","","","","","","",""
"","","","","","single-stim-button","137","520031","0.0-2.0-22.8-0.8","5db0a97f127d4000117cdfa0","B2","batch2","","5000","tol_tohand","","","","tol_peg_2","5000","5000","0","[[2,0,0],[3,0],[0]]","9","[[0,0,0],[1,2],[3]]","4","0","","","","","","7","","","","","","","","",""
"","","","","","single-stim-button","138","521839","0.0-2.0-22.8-1.8","5db0a97f127d4000117cdfa0","B2","batch2","","1808","tol_toboard","","","","tol_peg_1","1808","1808","0","[[2,1,0],[3,0],[0]]","9","[[0,0,0],[1,2],[3]]","4","0","","","","","","7","","","","","","","","",""
"","","","","","single-stim-button","139","522711","0.0-2.0-22.9-0.9","5db0a97f127d4000117cdfa0","B2","batch2","","872","tol_tohand","","","","tol_peg_2","872","872","0","[[2,1,0],[0,0],[0]]","10","[[0,0,0],[1,2],[3]]","4","0","","","","","","7","","","","","","","","",""
"","","","","","single-stim-button","140","523471","0.0-2.0-22.9-1.9","5db0a97f127d4000117cdfa0","B2","batch2","","760","tol_toboard","","","","tol_peg_3","760","760","0","[[2,1,0],[0,0],[3]]","10","[[0,0,0],[1,2],[3]]","4","0","","","","","","7","","","","","","","","",""
"","","","","","single-stim-button","141","524887","0.0-2.0-22.10-0.10","5db0a97f127d4000117cdfa0","B2","batch2","","1416","tol_tohand","","","","tol_peg_1","1416","1416","0","[[2,0,0],[0,0],[3]]","11","[[0,0,0],[1,2],[3]]","4","0","","","","","","7","","","","","","","","",""
"","","","","","single-stim-button","142","529559","0.0-2.0-22.10-1.10","5db0a97f127d4000117cdfa0","B2","batch2","","4672","tol_toboard","","","","tol_peg_2","4672","4672","0","[[2,0,0],[1,0],[3]]","11","[[0,0,0],[1,2],[3]]","4","0","","","","","","7","","","","","","","","",""
"","","","","","single-stim-button","143","530367","0.0-2.0-22.11-0.11","5db0a97f127d4000117cdfa0","B2","batch2","","808","tol_tohand","","","","tol_peg_1","808","808","0","[[0,0,0],[1,0],[3]]","12","[[0,0,0],[1,2],[3]]","4","0","","","","","","7","","","","","","","","",""
"","","","","","single-stim-button","144","531095","0.0-2.0-22.11-1.11","5db0a97f127d4000117cdfa0","B2","batch2","","728","tol_toboard","","","","tol_peg_2","728","728","0","[[0,0,0],[1,2],[3]]","12","[[0,0,0],[1,2],[3]]","4","0","","","","","","7","","","","","","","","",""
"","","","","","poldrack-single-stim","145","532096","0.0-2.0-23.0","5db0a97f127d4000117cdfa0","B2","batch2","","-1","tol_feedback","","","true","","1000","1000","500","","","","","","-1","none","true","21071","48156","","","","","","","","","",""
"","","","","","html-button-response","146","533487","0.0-2.0-24.0","5db0a97f127d4000117cdfa0","B2","batch2","","1389.2999999821186","tol_trial_num","<div class = centerbox><p class = center-block-text>problem <strong>6</strong> out of 25 problems</p></div>","0","","","","","","","","","","","","","","","","","","","","","","","","",""
"","","","","","single-stim-button","147","540887","0.0-2.0-25.0-0.0","5db0a97f127d4000117cdfa0","B2","batch2","","7400","tol_tohand","","","","tol_peg_2","7400","7400","0","[[0,0,0],[1,0],[3]]","1","[[1,0,0],[2,3],[0]]","5","0","","","","","","6","","","","","","","","",""
"","","","","","single-stim-button","148","550431","0.0-2.0-25.0-1.0","5db0a97f127d4000117cdfa0","B2","batch2","","9544","tol_toboard","","","","tol_peg_1","9544","9544","0","[[2,0,0],[1,0],[3]]","1","[[1,0,0],[2,3],[0]]","5","0","","","","","","6","","","","","","","","",""
"","","","","","single-stim-button","149","554967","0.0-2.0-25.1-0.1","5db0a97f127d4000117cdfa0","B2","batch2","","4535","tol_tohand","","","","tol_peg_3","4535","4535","0","[[2,0,0],[1,0],[0]]","2","[[1,0,0],[2,3],[0]]","5","0","","","","","","6","","","","","","","","",""
"","","","","","single-stim-button","150","555951","0.0-2.0-25.1-1.1","5db0a97f127d4000117cdfa0","B2","batch2","","984","tol_toboard","","","","tol_peg_2","984","984","0","[[2,0,0],[1,3],[0]]","2","[[1,0,0],[2,3],[0]]","5","0","","","","","","6","","","","","","","","",""
"","","","","","single-stim-button","151","562863","0.0-2.0-25.2-0.2","5db0a97f127d4000117cdfa0","B2","batch2","","6912","tol_tohand","","","","tol_peg_1","6912","6912","0","[[0,0,0],[1,3],[0]]","3","[[1,0,0],[2,3],[0]]","5","0","","","","","","6","","","","","","","","",""
"","","","","","single-stim-button","152","565655","0.0-2.0-25.2-1.2","5db0a97f127d4000117cdfa0","B2","batch2","","2791","tol_toboard","","","","tol_peg_3","2791","2791","0","[[0,0,0],[1,3],[2]]","3","[[1,0,0],[2,3],[0]]","5","0","","","","","","6","","","","","","","","",""
"","","","","","single-stim-button","153","566575","0.0-2.0-25.3-0.3","5db0a97f127d4000117cdfa0","B2","batch2","","920","tol_tohand","","","","tol_peg_2","920","920","0","[[0,0,0],[1,0],[2]]","4","[[1,0,0],[2,3],[0]]","5","0","","","","","","6","","","","","","","","",""
"","","","","","single-stim-button","154","574023","0.0-2.0-25.3-1.3","5db0a97f127d4000117cdfa0","B2","batch2","","7448","tol_toboard","","","","tol_peg_1","7448","7448","0","[[3,0,0],[1,0],[2]]","4","[[1,0,0],[2,3],[0]]","5","0","","","","","","6","","","","","","","","",""
"","","","","","single-stim-button","155","574575","0.0-2.0-25.4-0.4","5db0a97f127d4000117cdfa0","B2","batch2","","552","tol_tohand","","","","tol_peg_2","552","552","0","[[3,0,0],[0,0],[2]]","5","[[1,0,0],[2,3],[0]]","5","0","","","","","","6","","","","","","","","",""
"","","","","","single-stim-button","156","577631","0.0-2.0-25.4-1.4","5db0a97f127d4000117cdfa0","B2","batch2","","3056","tol_toboard","","","","tol_peg_1","3056","3056","0","[[3,1,0],[0,0],[2]]","5","[[1,0,0],[2,3],[0]]","5","0","","","","","","6","","","","","","","","",""
"","","","","","single-stim-button","157","582935","0.0-2.0-25.5-0.5","5db0a97f127d4000117cdfa0","B2","batch2","","5303","tol_tohand","","","","tol_peg_3","5303","5303","0","[[3,1,0],[0,0],[0]]","6","[[1,0,0],[2,3],[0]]","5","0","","","","","","6","","","","","","","","",""
"","","","","","single-stim-button","158","584399","0.0-2.0-25.5-1.5","5db0a97f127d4000117cdfa0","B2","batch2","","1464","tol_toboard","","","","tol_peg_2","1464","1464","0","[[3,1,0],[2,0],[0]]","6","[[1,0,0],[2,3],[0]]","5","0","","","","","","6","","","","","","","","",""
"","","","","","single-stim-button","159","585607","0.0-2.0-25.6-0.6","5db0a97f127d4000117cdfa0","B2","batch2","","1208","tol_tohand","","","","tol_peg_1","1208","1208","0","[[3,0,0],[2,0],[0]]","7","[[1,0,0],[2,3],[0]]","5","0","","","","","","6","","","","","","","","",""
"","","","","","single-stim-button","160","588567","0.0-2.0-25.6-1.6","5db0a97f127d4000117cdfa0","B2","batch2","","2960","tol_toboard","","","","tol_peg_3","2960","2960","0","[[3,0,0],[2,0],[1]]","7","[[1,0,0],[2,3],[0]]","5","0","","","","","","6","","","","","","","","",""
"","","","","","single-stim-button","161","589431","0.0-2.0-25.7-0.7","5db0a97f127d4000117cdfa0","B2","batch2","","864","tol_tohand","","","","tol_peg_1","864","864","0","[[0,0,0],[2,0],[1]]","8","[[1,0,0],[2,3],[0]]","5","0","","","","","","6","","","","","","","","",""
"","","","","","single-stim-button","162","592895","0.0-2.0-25.7-1.7","5db0a97f127d4000117cdfa0","B2","batch2","","3464","tol_toboard","","","","tol_peg_2","3464","3464","0","[[0,0,0],[2,3],[1]]","8","[[1,0,0],[2,3],[0]]","5","0","","","","","","6","","","","","","","","",""
"","","","","","single-stim-button","163","594239","0.0-2.0-25.8-0.8","5db0a97f127d4000117cdfa0","B2","batch2","","1344","tol_tohand","","","","tol_peg_3","1344","1344","0","[[0,0,0],[2,3],[0]]","9","[[1,0,0],[2,3],[0]]","5","0","","","","","","6","","","","","","","","",""
"","","","","","single-stim-button","164","595223","0.0-2.0-25.8-1.8","5db0a97f127d4000117cdfa0","B2","batch2","","984","tol_toboard","","","","tol_peg_1","984","984","0","[[1,0,0],[2,3],[0]]","9","[[1,0,0],[2,3],[0]]","5","0","","","","","","6","","","","","","","","",""
"","","","","","poldrack-single-stim","165","596225","0.0-2.0-26.0","5db0a97f127d4000117cdfa0","B2","batch2","","-1","tol_feedback","","","true","","1000","1000","500","","","","","","-1","none","true","7400","29038","","","","","","","","","",""
"","","","","","html-button-response","166","597623","0.0-2.0-27.0","5db0a97f127d4000117cdfa0","B2","batch2","","1397","tol_trial_num","<div class = centerbox><p class = center-block-text>problem <strong>7</strong> out of 25 problems</p></div>","0","","","","","","","","","","","","","","","","","","","","","","","","",""
"","","","","","single-stim-button","167","604559","0.0-2.0-28.0-0.0","5db0a97f127d4000117cdfa0","B2","batch2","","6936","tol_tohand","","","","tol_peg_1","6936","6936","0","[[2,0,0],[0,0],[3]]","1","[[1,2,0],[3,0],[0]]","6","0","","","","","","5","","","","","","","","",""
"","","","","","single-stim-button","168","607264","0.0-2.0-28.0-1.0","5db0a97f127d4000117cdfa0","B2","batch2","","2705","tol_toboard","","","","tol_peg_2","2705","2705","0","[[2,0,0],[1,0],[3]]","1","[[1,2,0],[3,0],[0]]","6","0","","","","","","5","","","","","","","","",""
"","","","","","single-stim-button","169","609512","0.0-2.0-28.1-0.1","5db0a97f127d4000117cdfa0","B2","batch2","","2247","tol_tohand","","","","tol_peg_1","2247","2247","0","[[0,0,0],[1,0],[3]]","2","[[1,2,0],[3,0],[0]]","6","0","","","","","","5","","","","","","","","",""
"","","","","","single-stim-button","170","610600","0.0-2.0-28.1-1.1","5db0a97f127d4000117cdfa0","B2","batch2","","1088","tol_toboard","","","","tol_peg_2","1088","1088","0","[[0,0,0],[1,2],[3]]","2","[[1,2,0],[3,0],[0]]","6","0","","","","","","5","","","","","","","","",""
"","","","","","single-stim-button","171","617424","0.0-2.0-28.2-0.2","5db0a97f127d4000117cdfa0","B2","batch2","","6824","tol_tohand","","","","tol_peg_2","6824","6824","0","[[0,0,0],[1,0],[3]]","3","[[1,2,0],[3,0],[0]]","6","0","","","","","","5","","","","","","","","",""
"","","","","","single-stim-button","172","623360","0.0-2.0-28.2-1.2","5db0a97f127d4000117cdfa0","B2","batch2","","5935","tol_toboard","","","","tol_peg_2","5935","5935","0","[[0,0,0],[1,2],[3]]","3","[[1,2,0],[3,0],[0]]","6","0","","","","","","5","","","","","","","","",""
"","","","","","single-stim-button","173","632784","0.0-2.0-28.3-0.3","5db0a97f127d4000117cdfa0","B2","batch2","","9423","tol_tohand","","","","tol_peg_2","9423","9423","0","[[0,0,0],[1,0],[3]]","4","[[1,2,0],[3,0],[0]]","6","0","","","","","","5","","","","","","","","",""
"","","","","","single-stim-button","174","633448","0.0-2.0-28.3-1.3","5db0a97f127d4000117cdfa0","B2","batch2","","664","tol_toboard","","","","tol_peg_1","664","664","0","[[2,0,0],[1,0],[3]]","4","[[1,2,0],[3,0],[0]]","6","0","","","","","","5","","","","","","","","",""
"","","","","","single-stim-button","175","634208","0.0-2.0-28.4-0.4","5db0a97f127d4000117cdfa0","B2","batch2","","760","tol_tohand","","","","tol_peg_2","760","760","0","[[2,0,0],[0,0],[3]]","5","[[1,2,0],[3,0],[0]]","6","0","","","","","","5","","","","","","","","",""
"","","","","","single-stim-button","176","636368","0.0-2.0-28.4-1.4","5db0a97f127d4000117cdfa0","B2","batch2","","2160","tol_toboard","","","","tol_peg_1","2160","2160","0","[[2,1,0],[0,0],[3]]","5","[[1,2,0],[3,0],[0]]","6","0","","","","","","5","","","","","","","","",""
"","","","","","single-stim-button","177","641200","0.0-2.0-28.5-0.5","5db0a97f127d4000117cdfa0","B2","batch2","","4832","tol_tohand","","","","tol_peg_1","4832","4832","0","[[2,0,0],[0,0],[3]]","6","[[1,2,0],[3,0],[0]]","6","0","","","","","","5","","","","","","","","",""
"","","","","","single-stim-button","178","647112","0.0-2.0-28.5-1.5","5db0a97f127d4000117cdfa0","B2","batch2","","5912","tol_toboard","","","","tol_peg_2","5912","5912","0","[[2,0,0],[1,0],[3]]","6","[[1,2,0],[3,0],[0]]","6","0","","","","","","5","","","","","","","","",""
"","","","","","single-stim-button","179","648304","0.0-2.0-28.6-0.6","5db0a97f127d4000117cdfa0","B2","batch2","","1192","tol_tohand","","","","tol_peg_1","1192","1192","0","[[0,0,0],[1,0],[3]]","7","[[1,2,0],[3,0],[0]]","6","0","","","","","","5","","","","","","","","",""
"","","","","","single-stim-button","180","651024","0.0-2.0-28.6-1.6","5db0a97f127d4000117cdfa0","B2","batch2","","2720","tol_toboard","","","","tol_peg_2","2720","2720","0","[[0,0,0],[1,2],[3]]","7","[[1,2,0],[3,0],[0]]","6","0","","","","","","5","","","","","","","","",""
"","","","","","single-stim-button","181","653728","0.0-2.0-28.7-0.7","5db0a97f127d4000117cdfa0","B2","batch2","","2703","tol_tohand","","","","tol_peg_3","2703","2703","0","[[0,0,0],[1,2],[0]]","8","[[1,2,0],[3,0],[0]]","6","0","","","","","","5","","","","","","","","",""
"","","","","","single-stim-button","182","654320","0.0-2.0-28.7-1.7","5db0a97f127d4000117cdfa0","B2","batch2","","592","tol_toboard","","","","tol_peg_1","592","592","0","[[3,0,0],[1,2],[0]]","8","[[1,2,0],[3,0],[0]]","6","0","","","","","","5","","","","","","","","",""
"","","","","","single-stim-button","183","657544","0.0-2.0-28.8-0.8","5db0a97f127d4000117cdfa0","B2","batch2","","3224","tol_tohand","","","","tol_peg_2","3224","3224","0","[[3,0,0],[1,0],[0]]","9","[[1,2,0],[3,0],[0]]","6","0","","","","","","5","","","","","","","","",""
"","","","","","single-stim-button","184","660152","0.0-2.0-28.8-1.8","5db0a97f127d4000117cdfa0","B2","batch2","","2607","tol_toboard","","","","tol_peg_3","2607","2607","0","[[3,0,0],[1,0],[2]]","9","[[1,2,0],[3,0],[0]]","6","0","","","","","","5","","","","","","","","",""
"","","","","","single-stim-button","185","660816","0.0-2.0-28.9-0.9","5db0a97f127d4000117cdfa0","B2","batch2","","664","tol_tohand","","","","tol_peg_2","664","664","0","[[3,0,0],[0,0],[2]]","10","[[1,2,0],[3,0],[0]]","6","0","","","","","","5","","","","","","","","",""
"","","","","","single-stim-button","186","663432","0.0-2.0-28.9-1.9","5db0a97f127d4000117cdfa0","B2","batch2","","2616","tol_toboard","","","","tol_peg_1","2616","2616","0","[[3,1,0],[0,0],[2]]","10","[[1,2,0],[3,0],[0]]","6","0","","","","","","5","","","","","","","","",""
"","","","","","single-stim-button","187","787177","0.0-2.0-28.10-0.10","5db0a97f127d4000117cdfa0","B2","batch2","","123744","tol_tohand","","","","tol_peg_1","123744","123744","0","[[3,0,0],[0,0],[2]]","11","[[1,2,0],[3,0],[0]]","6","0","","","","","","5","","","","","","","","",""
"","","","","","single-stim-button","188","788393","0.0-2.0-28.10-1.10","5db0a97f127d4000117cdfa0","B2","batch2","","1216","tol_toboard","","","","tol_peg_2","1216","1216","0","[[3,0,0],[1,0],[2]]","11","[[1,2,0],[3,0],[0]]","6","0","","","","","","5","","","","","","","","",""
"","","","","","single-stim-button","189","790449","0.0-2.0-28.11-0.11","5db0a97f127d4000117cdfa0","B2","batch2","","2056","tol_tohand","","","","tol_peg_1","2056","2056","0","[[0,0,0],[1,0],[2]]","12","[[1,2,0],[3,0],[0]]","6","0","","","","","","5","","","","","","","","",""
"","","","","","single-stim-button","190","797225","0.0-2.0-28.11-1.11","5db0a97f127d4000117cdfa0","B2","batch2","","6775","tol_toboard","","","","tol_peg_1","6775","6775","0","[[3,0,0],[1,0],[2]]","12","[[1,2,0],[3,0],[0]]","6","0","","","","","","5","","","","","","","","",""
"","","","","","single-stim-button","191","798017","0.0-2.0-28.12-0.12","5db0a97f127d4000117cdfa0","B2","batch2","","792","tol_tohand","","","","tol_peg_3","792","792","0","[[3,0,0],[1,0],[0]]","13","[[1,2,0],[3,0],[0]]","6","0","","","","","","5","","","","","","","","",""
"","","","","","single-stim-button","192","799001","0.0-2.0-28.12-1.12","5db0a97f127d4000117cdfa0","B2","batch2","","984","tol_toboard","","","","tol_peg_2","984","984","0","[[3,0,0],[1,2],[0]]","13","[[1,2,0],[3,0],[0]]","6","0","","","","","","5","","","","","","","","",""
"","","","","","single-stim-button","193","800257","0.0-2.0-28.13-0.13","5db0a97f127d4000117cdfa0","B2","batch2","","1256","tol_tohand","","","","tol_peg_1","1256","1256","0","[[0,0,0],[1,2],[0]]","14","[[1,2,0],[3,0],[0]]","6","0","","","","","","5","","","","","","","","",""
"","","","","","single-stim-button","194","801361","0.0-2.0-28.13-1.13","5db0a97f127d4000117cdfa0","B2","batch2","","1103","tol_toboard","","","","tol_peg_3","1103","1103","0","[[0,0,0],[1,2],[3]]","14","[[1,2,0],[3,0],[0]]","6","0","","","","","","5","","","","","","","","",""
"","","","","","single-stim-button","195","805137","0.0-2.0-28.14-0.14","5db0a97f127d4000117cdfa0","B2","batch2","","3775","tol_tohand","","","","tol_peg_2","3775","3775","0","[[0,0,0],[1,0],[3]]","15","[[1,2,0],[3,0],[0]]","6","0","","","","","","5","","","","","","","","",""
"","","","","","single-stim-button","196","806625","0.0-2.0-28.14-1.14","5db0a97f127d4000117cdfa0","B2","batch2","","1488","tol_toboard","","","","tol_peg_1","1488","1488","0","[[2,0,0],[1,0],[3]]","15","[[1,2,0],[3,0],[0]]","6","0","","","","","","5","","","","","","","","",""
"","","","","","single-stim-button","197","807241","0.0-2.0-28.15-0.15","5db0a97f127d4000117cdfa0","B2","batch2","","615","tol_tohand","","","","tol_peg_2","615","615","0","[[2,0,0],[0,0],[3]]","16","[[1,2,0],[3,0],[0]]","6","0","","","","","","5","","","","","","","","",""
"","","","","","single-stim-button","198","809081","0.0-2.0-28.15-1.15","5db0a97f127d4000117cdfa0","B2","batch2","","1839","tol_toboard","","","","tol_peg_1","1839","1839","0","[[2,1,0],[0,0],[3]]","16","[[1,2,0],[3,0],[0]]","6","0","","","","","","5","","","","","","","","",""
"","","","","","single-stim-button","199","811377","0.0-2.0-28.16-0.16","5db0a97f127d4000117cdfa0","B2","batch2","","2295","tol_tohand","","","","tol_peg_1","2295","2295","0","[[2,0,0],[0,0],[3]]","17","[[1,2,0],[3,0],[0]]","6","0","","","","","","5","","","","","","","","",""
"","","","","","single-stim-button","200","812225","0.0-2.0-28.16-1.16","5db0a97f127d4000117cdfa0","B2","batch2","","847","tol_toboard","","","","tol_peg_2","847","847","0","[[2,0,0],[1,0],[3]]","17","[[1,2,0],[3,0],[0]]","6","0","","","","","","5","","","","","","","","",""
"","","","","","single-stim-button","201","813545","0.0-2.0-28.17-0.17","5db0a97f127d4000117cdfa0","B2","batch2","","1319","tol_tohand","","","","tol_peg_1","1319","1319","0","[[0,0,0],[1,0],[3]]","18","[[1,2,0],[3,0],[0]]","6","0","","","","","","5","","","","","","","","",""
"","","","","","single-stim-button","202","815529","0.0-2.0-28.17-1.17","5db0a97f127d4000117cdfa0","B2","batch2","","1984","tol_toboard","","","","tol_peg_2","1984","1984","0","[[0,0,0],[1,2],[3]]","18","[[1,2,0],[3,0],[0]]","6","0","","","","","","5","","","","","","","","",""
"","","","","","single-stim-button","203","818833","0.0-2.0-28.18-0.18","5db0a97f127d4000117cdfa0","B2","batch2","","3303","tol_tohand","","","","tol_peg_2","3303","3303","0","[[0,0,0],[1,0],[3]]","19","[[1,2,0],[3,0],[0]]","6","0","","","","","","5","","","","","","","","",""
"","","","","","single-stim-button","204","819217","0.0-2.0-28.18-1.18","5db0a97f127d4000117cdfa0","B2","batch2","","384","tol_toboard","","","","tol_peg_1","384","384","0","[[2,0,0],[1,0],[3]]","19","[[1,2,0],[3,0],[0]]","6","0","","","","","","5","","","","","","","","",""
"","","","","","single-stim-button","205","819985","0.0-2.0-28.19-0.19","5db0a97f127d4000117cdfa0","B2","batch2","","768","tol_tohand","","","","tol_peg_2","768","768","0","[[2,0,0],[0,0],[3]]","20","[[1,2,0],[3,0],[0]]","6","0","","","","","","5","","","","","","","","",""
"","","","","","single-stim-button","206","833065","0.0-2.0-28.19-1.19","5db0a97f127d4000117cdfa0","B2","batch2","","13079","tol_toboard","","","","tol_peg_1","13079","13079","0","[[2,1,0],[0,0],[3]]","20","[[1,2,0],[3,0],[0]]","6","0","","","","","","5","","","","","","","","",""
"","","","","","single-stim-button","207","834585","0.0-2.0-28.20-0.20","5db0a97f127d4000117cdfa0","B2","batch2","","1519","tol_tohand","","","","tol_peg_3","1519","1519","0","[[2,1,0],[0,0],[0]]","21","[[1,2,0],[3,0],[0]]","6","0","","","","","","5","","","","","","","","",""
"","","","","","single-stim-button","208","835712","0.0-2.0-28.20-1.20","5db0a97f127d4000117cdfa0","B2","batch2","","1127","tol_toboard","","","","tol_peg_2","1127","1127","0","[[2,1,0],[3,0],[0]]","21","[[1,2,0],[3,0],[0]]","6","0","","","","","","5","","","","","","","","",""
"","","","","","single-stim-button","209","837217","0.0-2.0-28.21-0.21","5db0a97f127d4000117cdfa0","B2","batch2","","1503","tol_tohand","","","","tol_peg_1","1503","1503","0","[[2,0,0],[3,0],[0]]","22","[[1,2,0],[3,0],[0]]","6","0","","","","","","5","","","","","","","","",""
"","","","","","single-stim-button","210","839088","0.0-2.0-28.21-1.21","5db0a97f127d4000117cdfa0","B2","batch2","","1871","tol_toboard","","","","tol_peg_3","1871","1871","0","[[2,0,0],[3,0],[1]]","22","[[1,2,0],[3,0],[0]]","6","0","","","","","","5","","","","","","","","",""
"","","","","","single-stim-button","211","839945","0.0-2.0-28.22-0.22","5db0a97f127d4000117cdfa0","B2","batch2","","855","tol_tohand","","","","tol_peg_1","855","855","0","[[0,0,0],[3,0],[1]]","23","[[1,2,0],[3,0],[0]]","6","0","","","","","","5","","","","","","","","",""
"","","","","","single-stim-button","212","840657","0.0-2.0-28.22-1.22","5db0a97f127d4000117cdfa0","B2","batch2","","712","tol_toboard","","","","tol_peg_2","712","712","0","[[0,0,0],[3,2],[1]]","23","[[1,2,0],[3,0],[0]]","6","0","","","","","","5","","","","","","","","",""
"","","","","","single-stim-button","213","843425","0.0-2.0-28.23-0.23","5db0a97f127d4000117cdfa0","B2","batch2","","2767","tol_tohand","","","","tol_peg_3","2767","2767","0","[[0,0,0],[3,2],[0]]","24","[[1,2,0],[3,0],[0]]","6","0","","","","","","5","","","","","","","","",""
"","","","","","single-stim-button","214","844312","0.0-2.0-28.23-1.23","5db0a97f127d4000117cdfa0","B2","batch2","","887","tol_toboard","","","","tol_peg_1","887","887","0","[[1,0,0],[3,2],[0]]","24","[[1,2,0],[3,0],[0]]","6","0","","","","","","5","","","","","","","","",""
"","","","","","single-stim-button","215","848346","0.0-2.0-28.24-0.24","5db0a97f127d4000117cdfa0","B2","batch2","","4032","tol_tohand","","","","tol_peg_2","4032","4032","0","[[1,0,0],[3,0],[0]]","25","[[1,2,0],[3,0],[0]]","6","0","","","","","","5","","","","","","","","",""
"","","","","","single-stim-button","216","849745","0.0-2.0-28.24-1.24","5db0a97f127d4000117cdfa0","B2","batch2","","1399","tol_toboard","","","","tol_peg_1","1399","1399","0","[[1,2,0],[3,0],[0]]","25","[[1,2,0],[3,0],[0]]","6","0","","","","","","5","","","","","","","","",""
"","","","","","poldrack-single-stim","217","850747","0.0-2.0-29.0","5db0a97f127d4000117cdfa0","B2","batch2","","-1","tol_feedback","","","true","","1000","1000","500","","","","","","-1","none","true","6936","189404","","","","","","","","","",""
"","","","","","html-button-response","218","851745","0.0-2.0-30.0","5db0a97f127d4000117cdfa0","B2","batch2","","997.5","tol_trial_num","<div class = centerbox><p class = center-block-text>problem <strong>8</strong> out of 25 problems</p></div>","0","","","","","","","","","","","","","","","","","","","","","","","","",""
"","","","","","single-stim-button","219","863873","0.0-2.0-31.0-0.0","5db0a97f127d4000117cdfa0","B2","batch2","","12127","tol_tohand","","","","tol_peg_3","12127","12127","0","[[0,0,0],[2,3],[0]]","1","[[1,2,0],[3,0],[0]]","7","0","","","","","","4","","","","","","","","",""
"","","","","","single-stim-button","220","865553","0.0-2.0-31.0-1.0","5db0a97f127d4000117cdfa0","B2","batch2","","1679","tol_toboard","","","","tol_peg_1","1679","1679","0","[[1,0,0],[2,3],[0]]","1","[[1,2,0],[3,0],[0]]","7","0","","","","","","4","","","","","","","","",""
"","","","","","single-stim-button","221","868745","0.0-2.0-31.1-0.1","5db0a97f127d4000117cdfa0","B2","batch2","","3191","tol_tohand","","","","tol_peg_2","3191","3191","0","[[1,0,0],[2,0],[0]]","2","[[1,2,0],[3,0],[0]]","7","0","","","","","","4","","","","","","","","",""
"","","","","","single-stim-button","222","870649","0.0-2.0-31.1-1.1","5db0a97f127d4000117cdfa0","B2","batch2","","1903","tol_toboard","","","","tol_peg_3","1903","1903","0","[[1,0,0],[2,0],[3]]","2","[[1,2,0],[3,0],[0]]","7","0","","","","","","4","","","","","","","","",""
"","","","","","single-stim-button","223","871681","0.0-2.0-31.2-0.2","5db0a97f127d4000117cdfa0","B2","batch2","","1031","tol_tohand","","","","tol_peg_2","1031","1031","0","[[1,0,0],[0,0],[3]]","3","[[1,2,0],[3,0],[0]]","7","0","","","","","","4","","","","","","","","",""
"","","","","","single-stim-button","224","872529","0.0-2.0-31.2-1.2","5db0a97f127d4000117cdfa0","B2","batch2","","848","tol_toboard","","","","tol_peg_1","848","848","0","[[1,2,0],[0,0],[3]]","3","[[1,2,0],[3,0],[0]]","7","0","","","","","","4","","","","","","","","",""
"","","","","","single-stim-button","225","873377","0.0-2.0-31.3-0.3","5db0a97f127d4000117cdfa0","B2","batch2","","847","tol_tohand","","","","tol_peg_3","847","847","0","[[1,2,0],[0,0],[0]]","4","[[1,2,0],[3,0],[0]]","7","0","","","","","","4","","","","","","","","",""
"","","","","","single-stim-button","226","874337","0.0-2.0-31.3-1.3","5db0a97f127d4000117cdfa0","B2","batch2","","959","tol_toboard","","","","tol_peg_2","959","959","0","[[1,2,0],[3,0],[0]]","4","[[1,2,0],[3,0],[0]]","7","0","","","","","","4","","","","","","","","",""
"","","","","","poldrack-single-stim","227","875338","0.0-2.0-32.0","5db0a97f127d4000117cdfa0","B2","batch2","","-1","tol_feedback","","","true","","1000","1000","500","","","","","","-1","none","true","12127","17196","","","","","","","","","",""
"","","","","","html-button-response","228","876449","0.0-2.0-33.0","5db0a97f127d4000117cdfa0","B2","batch2","","1109.5","tol_trial_num","<div class = centerbox><p class = center-block-text>problem <strong>9</strong> out of 25 problems</p></div>","0","","","","","","","","","","","","","","","","","","","","","","","","",""
"","","","","","single-stim-button","229","900297","0.0-2.0-34.0-0.0","5db0a97f127d4000117cdfa0","B2","batch2","","23847","tol_tohand","","","","tol_peg_1","23847","23847","0","[[3,0,0],[0,0],[1]]","1","[[2,1,0],[3,0],[0]]","8","0","","","","","","6","","","","","","","","",""
"","","","","","single-stim-button","230","909073","0.0-2.0-34.0-1.0","5db0a97f127d4000117cdfa0","B2","batch2","","8775","tol_toboard","","","","tol_peg_2","8775","8775","0","[[3,0,0],[2,0],[1]]","1","[[2,1,0],[3,0],[0]]","8","0","","","","","","6","","","","","","","","",""
"","","","","","single-stim-button","231","911777","0.0-2.0-34.1-0.1","5db0a97f127d4000117cdfa0","B2","batch2","","2703","tol_tohand","","","","tol_peg_3","2703","2703","0","[[3,0,0],[2,0],[0]]","2","[[2,1,0],[3,0],[0]]","8","0","","","","","","6","","","","","","","","",""
"","","","","","single-stim-button","232","914905","0.0-2.0-34.1-1.1","5db0a97f127d4000117cdfa0","B2","batch2","","3127","tol_toboard","","","","tol_peg_2","3127","3127","0","[[3,0,0],[2,1],[0]]","2","[[2,1,0],[3,0],[0]]","8","0","","","","","","6","","","","","","","","",""
"","","","","","single-stim-button","233","915793","0.0-2.0-34.2-0.2","5db0a97f127d4000117cdfa0","B2","batch2","","887","tol_tohand","","","","tol_peg_1","887","887","0","[[0,0,0],[2,1],[0]]","3","[[2,1,0],[3,0],[0]]","8","0","","","","","","6","","","","","","","","",""
"","","","","","single-stim-button","234","917081","0.0-2.0-34.2-1.2","5db0a97f127d4000117cdfa0","B2","batch2","","1287","tol_toboard","","","","tol_peg_3","1287","1287","0","[[0,0,0],[2,1],[3]]","3","[[2,1,0],[3,0],[0]]","8","0","","","","","","6","","","","","","","","",""
"","","","","","single-stim-button","235","920073","0.0-2.0-34.3-0.3","5db0a97f127d4000117cdfa0","B2","batch2","","2991","tol_tohand","","","","tol_peg_2","2991","2991","0","[[0,0,0],[2,0],[3]]","4","[[2,1,0],[3,0],[0]]","8","0","","","","","","6","","","","","","","","",""
"","","","","","single-stim-button","236","921905","0.0-2.0-34.3-1.3","5db0a97f127d4000117cdfa0","B2","batch2","","1832","tol_toboard","","","","tol_peg_1","1832","1832","0","[[1,0,0],[2,0],[3]]","4","[[2,1,0],[3,0],[0]]","8","0","","","","","","6","","","","","","","","",""
"","","","","","single-stim-button","237","922481","0.0-2.0-34.4-0.4","5db0a97f127d4000117cdfa0","B2","batch2","","576","tol_tohand","","","","tol_peg_2","576","576","0","[[1,0,0],[0,0],[3]]","5","[[2,1,0],[3,0],[0]]","8","0","","","","","","6","","","","","","","","",""
"","","","","","single-stim-button","238","927369","0.0-2.0-34.4-1.4","5db0a97f127d4000117cdfa0","B2","batch2","","4888","tol_toboard","","","","tol_peg_1","4888","4888","0","[[1,2,0],[0,0],[3]]","5","[[2,1,0],[3,0],[0]]","8","0","","","","","","6","","","","","","","","",""
"","","","","","single-stim-button","239","928761","0.0-2.0-34.5-0.5","5db0a97f127d4000117cdfa0","B2","batch2","","1391","tol_tohand","","","","tol_peg_3","1391","1391","0","[[1,2,0],[0,0],[0]]","6","[[2,1,0],[3,0],[0]]","8","0","","","","","","6","","","","","","","","",""
"","","","","","single-stim-button","240","930073","0.0-2.0-34.5-1.5","5db0a97f127d4000117cdfa0","B2","batch2","","1312","tol_toboard","","","","tol_peg_2","1312","1312","0","[[1,2,0],[3,0],[0]]","6","[[2,1,0],[3,0],[0]]","8","0","","","","","","6","","","","","","","","",""
"","","","","","single-stim-button","241","933153","0.0-2.0-34.6-0.6","5db0a97f127d4000117cdfa0","B2","batch2","","3079","tol_tohand","","","","tol_peg_1","3079","3079","0","[[1,0,0],[3,0],[0]]","7","[[2,1,0],[3,0],[0]]","8","0","","","","","","6","","","","","","","","",""
"","","","","","single-stim-button","242","935769","0.0-2.0-34.6-1.6","5db0a97f127d4000117cdfa0","B2","batch2","","2615","tol_toboard","","","","tol_peg_2","2615","2615","0","[[1,0,0],[3,2],[0]]","7","[[2,1,0],[3,0],[0]]","8","0","","","","","","6","","","","","","","","",""
"","","","","","single-stim-button","243","936625","0.0-2.0-34.7-0.7","5db0a97f127d4000117cdfa0","B2","batch2","","856","tol_tohand","","","","tol_peg_1","856","856","0","[[0,0,0],[3,2],[0]]","8","[[2,1,0],[3,0],[0]]","8","0","","","","","","6","","","","","","","","",""
"","","","","","single-stim-button","244","939985","0.0-2.0-34.7-1.7","5db0a97f127d4000117cdfa0","B2","batch2","","3360","tol_toboard","","","","tol_peg_3","3360","3360","0","[[0,0,0],[3,2],[1]]","8","[[2,1,0],[3,0],[0]]","8","0","","","","","","6","","","","","","","","",""
"","","","","","single-stim-button","245","940713","0.0-2.0-34.8-0.8","5db0a97f127d4000117cdfa0","B2","batch2","","728","tol_tohand","","","","tol_peg_2","728","728","0","[[0,0,0],[3,0],[1]]","9","[[2,1,0],[3,0],[0]]","8","0","","","","","","6","","","","","","","","",""
"","","","","","single-stim-button","246","941265","0.0-2.0-34.8-1.8","5db0a97f127d4000117cdfa0","B2","batch2","","552","tol_toboard","","","","tol_peg_1","552","552","0","[[2,0,0],[3,0],[1]]","9","[[2,1,0],[3,0],[0]]","8","0","","","","","","6","","","","","","","","",""
"","","","","","single-stim-button","247","942545","0.0-2.0-34.9-0.9","5db0a97f127d4000117cdfa0","B2","batch2","","1280","tol_tohand","","","","tol_peg_3","1280","1280","0","[[2,0,0],[3,0],[0]]","10","[[2,1,0],[3,0],[0]]","8","0","","","","","","6","","","","","","","","",""
"","","","","","single-stim-button","248","943505","0.0-2.0-34.9-1.9","5db0a97f127d4000117cdfa0","B2","batch2","","959","tol_toboard","","","","tol_peg_1","959","959","0","[[2,1,0],[3,0],[0]]","10","[[2,1,0],[3,0],[0]]","8","0","","","","","","6","","","","","","","","",""
"","","","","","poldrack-single-stim","249","944507","0.0-2.0-35.0","5db0a97f127d4000117cdfa0","B2","batch2","","-1","tol_feedback","","","true","","1000","1000","500","","","","","","-1","none","true","23847","38338","","","","","","","","","",""
"","","","","","html-button-response","250","945593","0.0-2.0-36.0","5db0a97f127d4000117cdfa0","B2","batch2","","1085.2000000178814","tol_trial_num","<div class = centerbox><p class = center-block-text>problem <strong>10</strong> out of 25 problems</p></div>","0","","","","","","","","","","","","","","","","","","","","","","","","",""
"","","","","","single-stim-button","251","954953","0.0-2.0-37.0-0.0","5db0a97f127d4000117cdfa0","B2","batch2","","9360","tol_tohand","","","","tol_peg_2","9360","9360","0","[[3,0,0],[0,0],[2]]","1","[[3,0,0],[2,1],[0]]","9","0","","","","","","3","","","","","","","","",""
"","","","","","single-stim-button","252","963145","0.0-2.0-37.0-1.0","5db0a97f127d4000117cdfa0","B2","batch2","","8192","tol_toboard","","","","tol_peg_1","8192","8192","0","[[3,1,0],[0,0],[2]]","1","[[3,0,0],[2,1],[0]]","9","0","","","","","","3","","","","","","","","",""
"","","","","","single-stim-button","253","963809","0.0-2.0-37.1-0.1","5db0a97f127d4000117cdfa0","B2","batch2","","663","tol_tohand","","","","tol_peg_3","663","663","0","[[3,1,0],[0,0],[0]]","2","[[3,0,0],[2,1],[0]]","9","0","","","","","","3","","","","","","","","",""
"","","","","","single-stim-button","254","964801","0.0-2.0-37.1-1.1","5db0a97f127d4000117cdfa0","B2","batch2","","992","tol_toboard","","","","tol_peg_2","992","992","0","[[3,1,0],[2,0],[0]]","2","[[3,0,0],[2,1],[0]]","9","0","","","","","","3","","","","","","","","",""
"","","","","","single-stim-button","255","965721","0.0-2.0-37.2-0.2","5db0a97f127d4000117cdfa0","B2","batch2","","920","tol_tohand","","","","tol_peg_1","920","920","0","[[3,0,0],[2,0],[0]]","3","[[3,0,0],[2,1],[0]]","9","0","","","","","","3","","","","","","","","",""
"","","","","","single-stim-button","256","966545","0.0-2.0-37.2-1.2","5db0a97f127d4000117cdfa0","B2","batch2","","824","tol_toboard","","","","tol_peg_2","824","824","0","[[3,0,0],[2,1],[0]]","3","[[3,0,0],[2,1],[0]]","9","0","","","","","","3","","","","","","","","",""
"","","","","","poldrack-single-stim","257","967548","0.0-2.0-38.0","5db0a97f127d4000117cdfa0","B2","batch2","","-1","tol_feedback","","","true","","1000","1000","500","","","","","","-1","none","true","9360","10943","","","","","","","","","",""
"","","","","","html-button-response","258","968658","0.0-2.0-39.0","5db0a97f127d4000117cdfa0","B2","batch2","","1108.800000011921","tol_trial_num","<div class = centerbox><p class = center-block-text>problem <strong>11</strong> out of 25 problems</p></div>","0","","","","","","","","","","","","","","","","","","","","","","","","",""
"","","","","","single-stim-button","259","995826","0.0-2.0-40.0-0.0","5db0a97f127d4000117cdfa0","B2","batch2","","27167","tol_tohand","","","","tol_peg_2","27167","27167","0","[[1,2,0],[0,0],[0]]","1","[[2,0,0],[1,3],[0]]","10","0","","","","","","6","","","","","","","","",""
"","","","","","single-stim-button","260","996681","0.0-2.0-40.0-1.0","5db0a97f127d4000117cdfa0","B2","batch2","","855","tol_toboard","","","","tol_peg_3","855","855","0","[[1,2,0],[0,0],[3]]","1","[[2,0,0],[1,3],[0]]","10","0","","","","","","6","","","","","","","","",""
"","","","","","single-stim-button","261","998522","0.0-2.0-40.1-0.1","5db0a97f127d4000117cdfa0","B2","batch2","","1839","tol_tohand","","","","tol_peg_1","1839","1839","0","[[1,0,0],[0,0],[3]]","2","[[2,0,0],[1,3],[0]]","10","0","","","","","","6","","","","","","","","",""
"","","","","","single-stim-button","262","999906","0.0-2.0-40.1-1.1","5db0a97f127d4000117cdfa0","B2","batch2","","1383","tol_toboard","","","","tol_peg_2","1383","1383","0","[[1,0,0],[2,0],[3]]","2","[[2,0,0],[1,3],[0]]","10","0","","","","","","6","","","","","","","","",""
"","","","","","single-stim-button","263","1006018","0.0-2.0-40.2-0.2","5db0a97f127d4000117cdfa0","B2","batch2","","6111","tol_tohand","","","","tol_peg_1","6111","6111","0","[[0,0,0],[2,0],[3]]","3","[[2,0,0],[1,3],[0]]","10","0","","","","","","6","","","","","","","","",""
"","","","","","single-stim-button","264","1006834","0.0-2.0-40.2-1.2","5db0a97f127d4000117cdfa0","B2","batch2","","815","tol_toboard","","","","tol_peg_2","815","815","0","[[0,0,0],[2,1],[3]]","3","[[2,0,0],[1,3],[0]]","10","0","","","","","","6","","","","","","","","",""
"","","","","","single-stim-button","265","1009145","0.0-2.0-40.3-0.3","5db0a97f127d4000117cdfa0","B2","batch2","","2311","tol_tohand","","","","tol_peg_2","2311","2311","0","[[0,0,0],[2,0],[3]]","4","[[2,0,0],[1,3],[0]]","10","0","","","","","","6","","","","","","","","",""
"","","","","","single-stim-button","266","1009281","0.0-2.0-40.3-1.3","5db0a97f127d4000117cdfa0","B2","batch2","","135","tol_toboard","","","","tol_peg_2","135","135","0","[[0,0,0],[2,1],[3]]","4","[[2,0,0],[1,3],[0]]","10","0","","","","","","6","","","","","","","","",""
"","","","","","single-stim-button","267","1011394","0.0-2.0-40.4-0.4","5db0a97f127d4000117cdfa0","B2","batch2","","2111","tol_tohand","","","","tol_peg_3","2111","2111","0","[[0,0,0],[2,1],[0]]","5","[[2,0,0],[1,3],[0]]","10","0","","","","","","6","","","","","","","","",""
"","","","","","single-stim-button","268","1014514","0.0-2.0-40.4-1.4","5db0a97f127d4000117cdfa0","B2","batch2","","3119","tol_toboard","","","","tol_peg_1","3119","3119","0","[[3,0,0],[2,1],[0]]","5","[[2,0,0],[1,3],[0]]","10","0","","","","","","6","","","","","","","","",""
"","","","","","single-stim-button","269","1015273","0.0-2.0-40.5-0.5","5db0a97f127d4000117cdfa0","B2","batch2","","759","tol_tohand","","","","tol_peg_2","759","759","0","[[3,0,0],[2,0],[0]]","6","[[2,0,0],[1,3],[0]]","10","0","","","","","","6","","","","","","","","",""
"","","","","","single-stim-button","270","1018946","0.0-2.0-40.5-1.5","5db0a97f127d4000117cdfa0","B2","batch2","","3671","tol_toboard","","","","tol_peg_3","3671","3671","0","[[3,0,0],[2,0],[1]]","6","[[2,0,0],[1,3],[0]]","10","0","","","","","","6","","","","","","","","",""
"","","","","","single-stim-button","271","1023737","0.0-2.0-40.6-0.6","5db0a97f127d4000117cdfa0","B2","batch2","","4791","tol_tohand","","","","tol_peg_2","4791","4791","0","[[3,0,0],[0,0],[1]]","7","[[2,0,0],[1,3],[0]]","10","0","","","","","","6","","","","","","","","",""
"","","","","","single-stim-button","272","1025170","0.0-2.0-40.6-1.6","5db0a97f127d4000117cdfa0","B2","batch2","","1431","tol_toboard","","","","tol_peg_1","1431","1431","0","[[3,2,0],[0,0],[1]]","7","[[2,0,0],[1,3],[0]]","10","0","","","","","","6","","","","","","","","",""
"","","","","","single-stim-button","273","1028002","0.0-2.0-40.7-0.7","5db0a97f127d4000117cdfa0","B2","batch2","","2832","tol_tohand","","","","tol_peg_3","2832","2832","0","[[3,2,0],[0,0],[0]]","8","[[2,0,0],[1,3],[0]]","10","0","","","","","","6","","","","","","","","",""
"","","","","","single-stim-button","274","1028738","0.0-2.0-40.7-1.7","5db0a97f127d4000117cdfa0","B2","batch2","","736","tol_toboard","","","","tol_peg_2","736","736","0","[[3,2,0],[1,0],[0]]","8","[[2,0,0],[1,3],[0]]","10","0","","","","","","6","","","","","","","","",""
"","","","","","single-stim-button","275","1030402","0.0-2.0-40.8-0.8","5db0a97f127d4000117cdfa0","B2","batch2","","1664","tol_tohand","","","","tol_peg_1","1664","1664","0","[[3,0,0],[1,0],[0]]","9","[[2,0,0],[1,3],[0]]","10","0","","","","","","6","","","","","","","","",""
"","","","","","single-stim-button","276","1035618","0.0-2.0-40.8-1.8","5db0a97f127d4000117cdfa0","B2","batch2","","5215","tol_toboard","","","","tol_peg_3","5215","5215","0","[[3,0,0],[1,0],[2]]","9","[[2,0,0],[1,3],[0]]","10","0","","","","","","6","","","","","","","","",""
"","","","","","single-stim-button","277","1037058","0.0-2.0-40.9-0.9","5db0a97f127d4000117cdfa0","B2","batch2","","1440","tol_tohand","","","","tol_peg_1","1440","1440","0","[[0,0,0],[1,0],[2]]","10","[[2,0,0],[1,3],[0]]","10","0","","","","","","6","","","","","","","","",""
"","","","","","single-stim-button","278","1037802","0.0-2.0-40.9-1.9","5db0a97f127d4000117cdfa0","B2","batch2","","743","tol_toboard","","","","tol_peg_2","743","743","0","[[0,0,0],[1,3],[2]]","10","[[2,0,0],[1,3],[0]]","10","0","","","","","","6","","","","","","","","",""
"","","","","","single-stim-button","279","1038538","0.0-2.0-40.10-0.10","5db0a97f127d4000117cdfa0","B2","batch2","","736","tol_tohand","","","","tol_peg_3","736","736","0","[[0,0,0],[1,3],[0]]","11","[[2,0,0],[1,3],[0]]","10","0","","","","","","6","","","","","","","","",""
"","","","","","single-stim-button","280","1039298","0.0-2.0-40.10-1.10","5db0a97f127d4000117cdfa0","B2","batch2","","759","tol_toboard","","","","tol_peg_1","759","759","0","[[2,0,0],[1,3],[0]]","11","[[2,0,0],[1,3],[0]]","10","0","","","","","","6","","","","","","","","",""
"","","","","","poldrack-single-stim","281","1040299","0.0-2.0-41.0","5db0a97f127d4000117cdfa0","B2","batch2","","-1","tol_feedback","","","true","","1000","1000","500","","","","","","-1","none","true","27167","51761","","","","","","","","","",""
"","","","","","html-button-response","282","1041130","0.0-2.0-42.0","5db0a97f127d4000117cdfa0","B2","batch2","","829.3999999761581","tol_trial_num","<div class = centerbox><p class = center-block-text>problem <strong>12</strong> out of 25 problems</p></div>","0","","","","","","","","","","","","","","","","","","","","","","","","",""
"","","","","","single-stim-button","283","1054786","0.0-2.0-43.0-0.0","5db0a97f127d4000117cdfa0","B2","batch2","","13655","tol_tohand","","","","tol_peg_1","13655","13655","0","[[1,0,0],[3,0],[0]]","1","[[2,3,0],[0,0],[1]]","11","0","","","","","","4","","","","","","","","",""
"","","","","","single-stim-button","284","1055562","0.0-2.0-43.0-1.0","5db0a97f127d4000117cdfa0","B2","batch2","","775","tol_toboard","","","","tol_peg_2","775","775","0","[[1,0,0],[3,2],[0]]","1","[[2,3,0],[0,0],[1]]","11","0","","","","","","4","","","","","","","","",""
"","","","","","single-stim-button","285","1056178","0.0-2.0-43.1-0.1","5db0a97f127d4000117cdfa0","B2","batch2","","616","tol_tohand","","","","tol_peg_1","616","616","0","[[0,0,0],[3,2],[0]]","2","[[2,3,0],[0,0],[1]]","11","0","","","","","","4","","","","","","","","",""
"","","","","","single-stim-button","286","1057194","0.0-2.0-43.1-1.1","5db0a97f127d4000117cdfa0","B2","batch2","","1015","tol_toboard","","","","tol_peg_3","1015","1015","0","[[0,0,0],[3,2],[1]]","2","[[2,3,0],[0,0],[1]]","11","0","","","","","","4","","","","","","","","",""
"","","","","","single-stim-button","287","1063210","0.0-2.0-43.2-0.2","5db0a97f127d4000117cdfa0","B2","batch2","","6016","tol_tohand","","","","tol_peg_2","6016","6016","0","[[0,0,0],[3,0],[1]]","3","[[2,3,0],[0,0],[1]]","11","0","","","","","","4","","","","","","","","",""
"","","","","","single-stim-button","288","1067074","0.0-2.0-43.2-1.2","5db0a97f127d4000117cdfa0","B2","batch2","","3863","tol_toboard","","","","tol_peg_1","3863","3863","0","[[2,0,0],[3,0],[1]]","3","[[2,3,0],[0,0],[1]]","11","0","","","","","","4","","","","","","","","",""
"","","","","","single-stim-button","289","1067697","0.0-2.0-43.3-0.3","5db0a97f127d4000117cdfa0","B2","batch2","","623","tol_tohand","","","","tol_peg_2","623","623","0","[[2,0,0],[0,0],[1]]","4","[[2,3,0],[0,0],[1]]","11","0","","","","","","4","","","","","","","","",""
"","","","","","single-stim-button","290","1069794","0.0-2.0-43.3-1.3","5db0a97f127d4000117cdfa0","B2","batch2","","2095","tol_toboard","","","","tol_peg_1","2095","2095","0","[[2,3,0],[0,0],[1]]","4","[[2,3,0],[0,0],[1]]","11","0","","","","","","4","","","","","","","","",""
"","","","","","poldrack-single-stim","291","1070795","0.0-2.0-44.0","5db0a97f127d4000117cdfa0","B2","batch2","","-1","tol_feedback","","","true","","1000","1000","500","","","","","","-1","none","true","13655","20910","","","","","","","","","",""
"","","","","","html-button-response","292","1071770","0.0-2.0-45.0","5db0a97f127d4000117cdfa0","B2","batch2","","973.5","tol_trial_num","<div class = centerbox><p class = center-block-text>problem <strong>13</strong> out of 25 problems</p></div>","0","","","","","","","","","","","","","","","","","","","","","","","","",""
"","","","","","single-stim-button","293","1076786","0.0-2.0-46.0-0.0","5db0a97f127d4000117cdfa0","B2","batch2","","5016","tol_tohand","","","","tol_peg_1","5016","5016","0","[[1,0,0],[3,0],[0]]","1","[[0,0,0],[2,3],[1]]","12","0","","","","","","4","","","","","","","","",""
"","","","","","single-stim-button","294","1077802","0.0-2.0-46.0-1.0","5db0a97f127d4000117cdfa0","B2","batch2","","1015","tol_toboard","","","","tol_peg_3","1015","1015","0","[[1,0,0],[3,0],[2]]","1","[[0,0,0],[2,3],[1]]","12","0","","","","","","4","","","","","","","","",""
"","","","","","single-stim-button","295","1084106","0.0-2.0-46.1-0.1","5db0a97f127d4000117cdfa0","B2","batch2","","6303","tol_tohand","","","","tol_peg_1","6303","6303","0","[[0,0,0],[3,0],[2]]","2","[[0,0,0],[2,3],[1]]","12","0","","","","","","4","","","","","","","","",""
"","","","","","single-stim-button","296","1086426","0.0-2.0-46.1-1.1","5db0a97f127d4000117cdfa0","B2","batch2","","2319","tol_toboard","","","","tol_peg_2","2319","2319","0","[[0,0,0],[3,1],[2]]","2","[[0,0,0],[2,3],[1]]","12","0","","","","","","4","","","","","","","","",""
"","","","","","single-stim-button","297","1088058","0.0-2.0-46.2-0.2","5db0a97f127d4000117cdfa0","B2","batch2","","1632","tol_tohand","","","","tol_peg_3","1632","1632","0","[[0,0,0],[3,1],[0]]","3","[[0,0,0],[2,3],[1]]","12","0","","","","","","4","","","","","","","","",""
"","","","","","single-stim-button","298","1089218","0.0-2.0-46.2-1.2","5db0a97f127d4000117cdfa0","B2","batch2","","1159","tol_toboard","","","","tol_peg_1","1159","1159","0","[[2,0,0],[3,1],[0]]","3","[[0,0,0],[2,3],[1]]","12","0","","","","","","4","","","","","","","","",""
"","","","","","single-stim-button","299","1090778","0.0-2.0-46.3-0.3","5db0a97f127d4000117cdfa0","B2","batch2","","1559","tol_tohand","","","","tol_peg_2","1559","1559","0","[[2,0,0],[3,0],[0]]","4","[[0,0,0],[2,3],[1]]","12","0","","","","","","4","","","","","","","","",""
"","","","","","single-stim-button","300","1092202","0.0-2.0-46.3-1.3","5db0a97f127d4000117cdfa0","B2","batch2","","1423","tol_toboard","","","","tol_peg_3","1423","1423","0","[[2,0,0],[3,0],[1]]","4","[[0,0,0],[2,3],[1]]","12","0","","","","","","4","","","","","","","","",""
"","","","","","single-stim-button","301","1095642","0.0-2.0-46.4-0.4","5db0a97f127d4000117cdfa0","B2","batch2","","3439","tol_tohand","","","","tol_peg_2","3439","3439","0","[[2,0,0],[0,0],[1]]","5","[[0,0,0],[2,3],[1]]","12","0","","","","","","4","","","","","","","","",""
"","","","","","single-stim-button","302","1098730","0.0-2.0-46.4-1.4","5db0a97f127d4000117cdfa0","B2","batch2","","3087","tol_toboard","","","","tol_peg_1","3087","3087","0","[[2,3,0],[0,0],[1]]","5","[[0,0,0],[2,3],[1]]","12","0","","","","","","4","","","","","","","","",""
"","","","","","single-stim-button","303","1101626","0.0-2.0-46.5-0.5","5db0a97f127d4000117cdfa0","B2","batch2","","2895","tol_tohand","","","","tol_peg_1","2895","2895","0","[[2,0,0],[0,0],[1]]","6","[[0,0,0],[2,3],[1]]","12","0","","","","","","4","","","","","","","","",""
"","","","","","single-stim-button","304","1106338","0.0-2.0-46.5-1.5","5db0a97f127d4000117cdfa0","B2","batch2","","4711","tol_toboard","","","","tol_peg_2","4711","4711","0","[[2,0,0],[3,0],[1]]","6","[[0,0,0],[2,3],[1]]","12","0","","","","","","4","","","","","","","","",""
"","","","","","single-stim-button","305","1107394","0.0-2.0-46.6-0.6","5db0a97f127d4000117cdfa0","B2","batch2","","1055","tol_tohand","","","","tol_peg_1","1055","1055","0","[[0,0,0],[3,0],[1]]","7","[[0,0,0],[2,3],[1]]","12","0","","","","","","4","","","","","","","","",""
"","","","","","single-stim-button","306","1108858","0.0-2.0-46.6-1.6","5db0a97f127d4000117cdfa0","B2","batch2","","1463","tol_toboard","","","","tol_peg_2","1463","1463","0","[[0,0,0],[3,2],[1]]","7","[[0,0,0],[2,3],[1]]","12","0","","","","","","4","","","","","","","","",""
"","","","","","single-stim-button","307","1110370","0.0-2.0-46.7-0.7","5db0a97f127d4000117cdfa0","B2","batch2","","1511","tol_tohand","","","","tol_peg_3","1511","1511","0","[[0,0,0],[3,2],[0]]","8","[[0,0,0],[2,3],[1]]","12","0","","","","","","4","","","","","","","","",""
"","","","","","single-stim-button","308","1111274","0.0-2.0-46.7-1.7","5db0a97f127d4000117cdfa0","B2","batch2","","903","tol_toboard","","","","tol_peg_1","903","903","0","[[1,0,0],[3,2],[0]]","8","[[0,0,0],[2,3],[1]]","12","0","","","","","","4","","","","","","","","",""
"","","","","","single-stim-button","309","1113682","0.0-2.0-46.8-0.8","5db0a97f127d4000117cdfa0","B2","batch2","","2408","tol_tohand","","","","tol_peg_2","2408","2408","0","[[1,0,0],[3,0],[0]]","9","[[0,0,0],[2,3],[1]]","12","0","","","","","","4","","","","","","","","",""
"","","","","","single-stim-button","310","1114722","0.0-2.0-46.8-1.8","5db0a97f127d4000117cdfa0","B2","batch2","","1040","tol_toboard","","","","tol_peg_3","1040","1040","0","[[1,0,0],[3,0],[2]]","9","[[0,0,0],[2,3],[1]]","12","0","","","","","","4","","","","","","","","",""
"","","","","","single-stim-button","311","1116370","0.0-2.0-46.9-0.9","5db0a97f127d4000117cdfa0","B2","batch2","","1647","tol_tohand","","","","tol_peg_1","1647","1647","0","[[0,0,0],[3,0],[2]]","10","[[0,0,0],[2,3],[1]]","12","0","","","","","","4","","","","","","","","",""
"","","","","","single-stim-button","312","1117346","0.0-2.0-46.9-1.9","5db0a97f127d4000117cdfa0","B2","batch2","","976","tol_toboard","","","","tol_peg_1","976","976","0","[[1,0,0],[3,0],[2]]","10","[[0,0,0],[2,3],[1]]","12","0","","","","","","4","","","","","","","","",""
"","","","","","single-stim-button","313","1118530","0.0-2.0-46.10-0.10","5db0a97f127d4000117cdfa0","B2","batch2","","1183","tol_tohand","","","","tol_peg_2","1183","1183","0","[[1,0,0],[0,0],[2]]","11","[[0,0,0],[2,3],[1]]","12","0","","","","","","4","","","","","","","","",""
"","","","","","single-stim-button","314","1123498","0.0-2.0-46.10-1.10","5db0a97f127d4000117cdfa0","B2","batch2","","4967","tol_toboard","","","","tol_peg_1","4967","4967","0","[[1,3,0],[0,0],[2]]","11","[[0,0,0],[2,3],[1]]","12","0","","","","","","4","","","","","","","","",""
"","","","","","single-stim-button","315","1124274","0.0-2.0-46.11-0.11","5db0a97f127d4000117cdfa0","B2","batch2","","776","tol_tohand","","","","tol_peg_3","776","776","0","[[1,3,0],[0,0],[0]]","12","[[0,0,0],[2,3],[1]]","12","0","","","","","","4","","","","","","","","",""
"","","","","","single-stim-button","316","1124986","0.0-2.0-46.11-1.11","5db0a97f127d4000117cdfa0","B2","batch2","","712","tol_toboard","","","","tol_peg_2","712","712","0","[[1,3,0],[2,0],[0]]","12","[[0,0,0],[2,3],[1]]","12","0","","","","","","4","","","","","","","","",""
"","","","","","single-stim-button","317","1126210","0.0-2.0-46.12-0.12","5db0a97f127d4000117cdfa0","B2","batch2","","1223","tol_tohand","","","","tol_peg_1","1223","1223","0","[[1,0,0],[2,0],[0]]","13","[[0,0,0],[2,3],[1]]","12","0","","","","","","4","","","","","","","","",""
"","","","","","single-stim-button","318","1127058","0.0-2.0-46.12-1.12","5db0a97f127d4000117cdfa0","B2","batch2","","847","tol_toboard","","","","tol_peg_2","847","847","0","[[1,0,0],[2,3],[0]]","13","[[0,0,0],[2,3],[1]]","12","0","","","","","","4","","","","","","","","",""
"","","","","","single-stim-button","319","1127746","0.0-2.0-46.13-0.13","5db0a97f127d4000117cdfa0","B2","batch2","","687","tol_tohand","","","","tol_peg_1","687","687","0","[[0,0,0],[2,3],[0]]","14","[[0,0,0],[2,3],[1]]","12","0","","","","","","4","","","","","","","","",""
"","","","","","single-stim-button","320","1128458","0.0-2.0-46.13-1.13","5db0a97f127d4000117cdfa0","B2","batch2","","712","tol_toboard","","","","tol_peg_3","712","712","0","[[0,0,0],[2,3],[1]]","14","[[0,0,0],[2,3],[1]]","12","0","","","","","","4","","","","","","","","",""
"","","","","","poldrack-single-stim","321","1129460","0.0-2.0-47.0","5db0a97f127d4000117cdfa0","B2","batch2","","-1","tol_feedback","","","true","","1000","1000","500","","","","","","-1","none","true","5016","31334","","","","","","","","","",""
"","","","","","html-button-response","322","1136586","0.0-2.0-48.0","5db0a97f127d4000117cdfa0","B2","batch2","","7124.5","attention_check","<p class = block-text>How many balls are in your board<br></p>","1","true","","","","","","","","","","","","","","","","","","","","","","","",""
"","","","","","html-button-response","323","1137602","0.0-2.0-49.0","5db0a97f127d4000117cdfa0","B2","batch2","","1014.9000000059605","tol_trial_num","<div class = centerbox><p class = center-block-text>problem <strong>14</strong> out of 25 problems</p></div>","0","","","","","","","","","","","","","","","","","","","","","","","","",""
"","","","","","single-stim-button","324","1145922","0.0-2.0-50.0-0.0","5db0a97f127d4000117cdfa0","B2","batch2","","8320","tol_tohand","","","","tol_peg_1","8320","8320","0","[[2,0,0],[3,0],[0]]","1","[[1,2,0],[3,0],[0]]","13","0","","","","","","4","","","","","","","","",""
"","","","","","single-stim-button","325","1147202","0.0-2.0-50.0-1.0","5db0a97f127d4000117cdfa0","B2","batch2","","1279","tol_toboard","","","","tol_peg_2","1279","1279","0","[[2,0,0],[3,1],[0]]","1","[[1,2,0],[3,0],[0]]","13","0","","","","","","4","","","","","","","","",""
"","","","","","single-stim-button","326","1147810","0.0-2.0-50.1-0.1","5db0a97f127d4000117cdfa0","B2","batch2","","607","tol_tohand","","","","tol_peg_1","607","607","0","[[0,0,0],[3,1],[0]]","2","[[1,2,0],[3,0],[0]]","13","0","","","","","","4","","","","","","","","",""
"","","","","","single-stim-button","327","1149930","0.0-2.0-50.1-1.1","5db0a97f127d4000117cdfa0","B2","batch2","","2120","tol_toboard","","","","tol_peg_3","2120","2120","0","[[0,0,0],[3,1],[2]]","2","[[1,2,0],[3,0],[0]]","13","0","","","","","","4","","","","","","","","",""
"","","","","","single-stim-button","328","1150650","0.0-2.0-50.2-0.2","5db0a97f127d4000117cdfa0","B2","batch2","","719","tol_tohand","","","","tol_peg_2","719","719","0","[[0,0,0],[3,0],[2]]","3","[[1,2,0],[3,0],[0]]","13","0","","","","","","4","","","","","","","","",""
"","","","","","single-stim-button","329","1151346","0.0-2.0-50.2-1.2","5db0a97f127d4000117cdfa0","B2","batch2","","695","tol_toboard","","","","tol_peg_1","695","695","0","[[1,0,0],[3,0],[2]]","3","[[1,2,0],[3,0],[0]]","13","0","","","","","","4","","","","","","","","",""
"","","","","","single-stim-button","330","1151931","0.0-2.0-50.3-0.3","5db0a97f127d4000117cdfa0","B2","batch2","","583","tol_tohand","","","","tol_peg_3","583","583","0","[[1,0,0],[3,0],[0]]","4","[[1,2,0],[3,0],[0]]","13","0","","","","","","4","","","","","","","","",""
"","","","","","single-stim-button","331","1152746","0.0-2.0-50.3-1.3","5db0a97f127d4000117cdfa0","B2","batch2","","815","tol_toboard","","","","tol_peg_1","815","815","0","[[1,2,0],[3,0],[0]]","4","[[1,2,0],[3,0],[0]]","13","0","","","","","","4","","","","","","","","",""
"","","","","","poldrack-single-stim","332","1153748","0.0-2.0-51.0","5db0a97f127d4000117cdfa0","B2","batch2","","-1","tol_feedback","","","true","","1000","1000","500","","","","","","-1","none","true","8320","10229","","","","","","","","","",""
"","","","","","html-button-response","333","1154610","0.0-2.0-52.0","5db0a97f127d4000117cdfa0","B2","batch2","","861.3000000119209","tol_trial_num","<div class = centerbox><p class = center-block-text>problem <strong>15</strong> out of 25 problems</p></div>","0","","","","","","","","","","","","","","","","","","","","","","","","",""
"","","","","","single-stim-button","334","1165387","0.0-2.0-53.0-0.0","5db0a97f127d4000117cdfa0","B2","batch2","","10775","tol_tohand","","","","tol_peg_1","10775","10775","0","[[1,0,0],[3,0],[0]]","1","[[2,0,0],[3,0],[1]]","14","0","","","","","","3","","","","","","","","",""
"","","","","","single-stim-button","335","1167611","0.0-2.0-53.0-1.0","5db0a97f127d4000117cdfa0","B2","batch2","","2223","tol_toboard","","","","tol_peg_2","2223","2223","0","[[1,0,0],[3,2],[0]]","1","[[2,0,0],[3,0],[1]]","14","0","","","","","","3","","","","","","","","",""
"","","","","","single-stim-button","336","1168282","0.0-2.0-53.1-0.1","5db0a97f127d4000117cdfa0","B2","batch2","","671","tol_tohand","","","","tol_peg_1","671","671","0","[[0,0,0],[3,2],[0]]","2","[[2,0,0],[3,0],[1]]","14","0","","","","","","3","","","","","","","","",""
"","","","","","single-stim-button","337","1169066","0.0-2.0-53.1-1.1","5db0a97f127d4000117cdfa0","B2","batch2","","783","tol_toboard","","","","tol_peg_3","783","783","0","[[0,0,0],[3,2],[1]]","2","[[2,0,0],[3,0],[1]]","14","0","","","","","","3","","","","","","","","",""
"","","","","","single-stim-button","338","1169826","0.0-2.0-53.2-0.2","5db0a97f127d4000117cdfa0","B2","batch2","","759","tol_tohand","","","","tol_peg_2","759","759","0","[[0,0,0],[3,0],[1]]","3","[[2,0,0],[3,0],[1]]","14","0","","","","","","3","","","","","","","","",""
"","","","","","single-stim-button","339","1170346","0.0-2.0-53.2-1.2","5db0a97f127d4000117cdfa0","B2","batch2","","519","tol_toboard","","","","tol_peg_1","519","519","0","[[2,0,0],[3,0],[1]]","3","[[2,0,0],[3,0],[1]]","14","0","","","","","","3","","","","","","","","",""
"","","","","","poldrack-single-stim","340","1171348","0.0-2.0-54.0","5db0a97f127d4000117cdfa0","B2","batch2","","-1","tol_feedback","","","true","","1000","1000","500","","","","","","-1","none","true","10775","12205","","","","","","","","","",""
"","","","","","html-button-response","341","1172258","0.0-2.0-55.0","5db0a97f127d4000117cdfa0","B2","batch2","","908.9000000059605","tol_trial_num","<div class = centerbox><p class = center-block-text>problem <strong>16</strong> out of 25 problems</p></div>","0","","","","","","","","","","","","","","","","","","","","","","","","",""
"","","","","","single-stim-button","342","1186170","0.0-2.0-56.0-0.0","5db0a97f127d4000117cdfa0","B2","batch2","","13911","tol_tohand","","","","tol_peg_3","13911","13911","0","[[0,0,0],[2,3],[0]]","1","[[2,3,0],[1,0],[0]]","15","0","","","","","","7","","","","","","","","",""
"","","","","","single-stim-button","343","1187074","0.0-2.0-56.0-1.0","5db0a97f127d4000117cdfa0","B2","batch2","","903","tol_toboard","","","","tol_peg_1","903","903","0","[[1,0,0],[2,3],[0]]","1","[[2,3,0],[1,0],[0]]","15","0","","","","","","7","","","","","","","","",""
"","","","","","single-stim-button","344","1196482","0.0-2.0-56.1-0.1","5db0a97f127d4000117cdfa0","B2","batch2","","9407","tol_tohand","","","","tol_peg_2","9407","9407","0","[[1,0,0],[2,0],[0]]","2","[[2,3,0],[1,0],[0]]","15","0","","","","","","7","","","","","","","","",""
"","","","","","single-stim-button","345","1197234","0.0-2.0-56.1-1.1","5db0a97f127d4000117cdfa0","B2","batch2","","751","tol_toboard","","","","tol_peg_1","751","751","0","[[1,3,0],[2,0],[0]]","2","[[2,3,0],[1,0],[0]]","15","0","","","","","","7","","","","","","","","",""
"","","","","","single-stim-button","346","1198298","0.0-2.0-56.2-0.2","5db0a97f127d4000117cdfa0","B2","batch2","","1063","tol_tohand","","","","tol_peg_2","1063","1063","0","[[1,3,0],[0,0],[0]]","3","[[2,3,0],[1,0],[0]]","15","0","","","","","","7","","","","","","","","",""
"","","","","","single-stim-button","347","1198986","0.0-2.0-56.2-1.2","5db0a97f127d4000117cdfa0","B2","batch2","","687","tol_toboard","","","","tol_peg_3","687","687","0","[[1,3,0],[0,0],[2]]","3","[[2,3,0],[1,0],[0]]","15","0","","","","","","7","","","","","","","","",""
"","","","","","single-stim-button","348","1200898","0.0-2.0-56.3-0.3","5db0a97f127d4000117cdfa0","B2","batch2","","1911","tol_tohand","","","","tol_peg_1","1911","1911","0","[[1,0,0],[0,0],[2]]","4","[[2,3,0],[1,0],[0]]","15","0","","","","","","7","","","","","","","","",""
"","","","","","single-stim-button","349","1207146","0.0-2.0-56.3-1.3","5db0a97f127d4000117cdfa0","B2","batch2","","6248","tol_toboard","","","","tol_peg_2","6248","6248","0","[[1,0,0],[3,0],[2]]","4","[[2,3,0],[1,0],[0]]","15","0","","","","","","7","","","","","","","","",""
"","","","","","single-stim-button","350","1208195","0.0-2.0-56.4-0.4","5db0a97f127d4000117cdfa0","B2","batch2","","1047","tol_tohand","","","","tol_peg_1","1047","1047","0","[[0,0,0],[3,0],[2]]","5","[[2,3,0],[1,0],[0]]","15","0","","","","","","7","","","","","","","","",""
"","","","","","single-stim-button","351","1209347","0.0-2.0-56.4-1.4","5db0a97f127d4000117cdfa0","B2","batch2","","1151","tol_toboard","","","","tol_peg_2","1151","1151","0","[[0,0,0],[3,1],[2]]","5","[[2,3,0],[1,0],[0]]","15","0","","","","","","7","","","","","","","","",""
"","","","","","single-stim-button","352","1210547","0.0-2.0-56.5-0.5","5db0a97f127d4000117cdfa0","B2","batch2","","1199","tol_tohand","","","","tol_peg_3","1199","1199","0","[[0,0,0],[3,1],[0]]","6","[[2,3,0],[1,0],[0]]","15","0","","","","","","7","","","","","","","","",""
