"success","timeout","failed_images","failed_audio","failed_video","trial_type","trial_index","time_elapsed","internal_node_id","subject_id","study_id","session_id","task","rt","stimulus","response","item","answer","correct","spm_correct","spm_rt","view_history","fiar_detect_rt","fiar_detect_correct","total_correct_fiar_detect","post_trial_gap","choices","mouse_click","stim_duration","block_duration","timing_post_trial","current_position","tol_num_moves_made","tol_target","tol_problem_id","tol_rt","key_press","possible_responses","tol_correct","preplanning","tol_rt_per_trial","tol_min_moves"
"true","false","[]","[]","[]","preload","0","731","0.0-0.0","5dc807ff27a267592c6129f5","B2","batch2","","","","","","","","","","","","","","","","","","","","","","","","","","","","","",""
"true","","","","","fullscreen","1","9963","0.0-1.0-0.0","5dc807ff27a267592c6129f5","B2","batch2","","","","","","","","","","","","","","","","","","","","","","","","","","","","","",""
"true","","","","","fullscreen","2","13224","0.0-2.0-0.0","5dc807ff27a267592c6129f5","B2","batch2","spm_fullscreen","","","","","","","","","","","","","","","","","","","","","","","","","","","","",""
"","","","","","html-button-response","3","22299","0.0-2.0-1.0","5dc807ff27a267592c6129f5","B2","batch2","","9073.699999809265","<p class = block-text><b>Instructions</b> <br>This is a widely used intelligence test in research. <br>In this test, a figure with a missing piece will be presented.<br>Below the figure are alternative pieces to complete the figure, only one of which is correct.<br> Different figures might involve different principles for obtaining the missing piece<br>Your job is to select the most logical piece to complete the figure.</p>","0","","","","","","","","","","","","","","","","","","","","","","","","","",""
"","","","","","html-keyboard-response","4","23113","0.0-2.0-2.0-0.0","5dc807ff27a267592c6129f5","B2","batch2","spm_show_trial_num","null","<p class=block-text>Trial 1 out of 60</p>","null","","","","","","","","","","","","","","","","","","","","","","","","","",""
"","","","","","image-button-response","5","28954","0.0-2.0-2.0-1.0","5dc807ff27a267592c6129f5","B2","batch2","spm_respsonse","5836.900000095367","img/question_1_1.jpeg","3","mat_01","4","1","1","5836.900000095367","","","","","","","","","","","","","","","","","","","","",""
"","","","","","html-keyboard-response","6","30027","0.0-2.0-2.0-0.1","5dc807ff27a267592c6129f5","B2","batch2","spm_show_trial_num","null","<p class=block-text>Trial 2 out of 60</p>","null","","","","","","","","","","","","","","","","","","","","","","","","","",""
"","","","","","image-button-response","7","33133","0.0-2.0-2.0-1.1","5dc807ff27a267592c6129f5","B2","batch2","spm_respsonse","3104.2000002861023","img/question_1_2.jpeg","4","mat_02","5","1","1","3104.2000002861023","","","","","","","","","","","","","","","","","","","","",""
"","","","","","html-keyboard-response","8","34188","0.0-2.0-2.0-0.2","5dc807ff27a267592c6129f5","B2","batch2","spm_show_trial_num","null","<p class=block-text>Trial 3 out of 60</p>","null","","","","","","","","","","","","","","","","","","","","","","","","","",""
"","","","","","image-button-response","9","40626","0.0-2.0-2.0-1.2","5dc807ff27a267592c6129f5","B2","batch2","spm_respsonse","6435.700000286102","img/question_1_3.jpeg","0","mat_03","1","1","1","6435.700000286102","","","","","","","","","","","","","","","","","","","","",""
"","","","","","html-keyboard-response","10","41698","0.0-2.0-2.0-0.3","5dc807ff27a267592c6129f5","B2","batch2","spm_show_trial_num","null","<p class=block-text>Trial 4 out of 60</p>","null","","","","","","","","","","","","","","","","","","","","","","","","","",""
"","","","","","image-button-response","11","46419","0.0-2.0-2.0-1.3","5dc807ff27a267592c6129f5","B2","batch2","spm_respsonse","4718.5","img/question_1_4.jpeg","1","mat_04","2","1","1","4718.5","","","","","","","","","","","","","","","","","","","","",""
"","","","","","html-keyboard-response","12","47485","0.0-2.0-2.0-0.4","5dc807ff27a267592c6129f5","B2","batch2","spm_show_trial_num","null","<p class=block-text>Trial 5 out of 60</p>","null","","","","","","","","","","","","","","","","","","","","","","","","","",""
"","","","","","image-button-response","13","51585","0.0-2.0-2.0-1.4","5dc807ff27a267592c6129f5","B2","batch2","spm_respsonse","4097.699999809265","img/question_1_5.jpeg","5","mat_05","6","1","1","4097.699999809265","","","","","","","","","","","","","","","","","","","","",""
"","","","","","html-keyboard-response","14","52661","0.0-2.0-2.0-0.5","5dc807ff27a267592c6129f5","B2","batch2","spm_show_trial_num","null","<p class=block-text>Trial 6 out of 60</p>","null","","","","","","","","","","","","","","","","","","","","","","","","","",""
"","","","","","image-button-response","15","55868","0.0-2.0-2.0-1.5","5dc807ff27a267592c6129f5","B2","batch2","spm_respsonse","3205","img/question_1_6.jpeg","2","mat_06","3","1","1","3205","","","","","","","","","","","","","","","","","","","","",""
"","","","","","html-keyboard-response","16","56941","0.0-2.0-2.0-0.6","5dc807ff27a267592c6129f5","B2","batch2","spm_show_trial_num","null","<p class=block-text>Trial 7 out of 60</p>","null","","","","","","","","","","","","","","","","","","","","","","","","","",""
"","","","","","image-button-response","17","62055","0.0-2.0-2.0-1.6","5dc807ff27a267592c6129f5","B2","batch2","spm_respsonse","5112.300000190735","img/question_1_7.jpeg","5","mat_07","6","1","1","5112.300000190735","","","","","","","","","","","","","","","","","","","","",""
"","","","","","html-keyboard-response","18","63124","0.0-2.0-2.0-0.7","5dc807ff27a267592c6129f5","B2","batch2","spm_show_trial_num","null","<p class=block-text>Trial 8 out of 60</p>","null","","","","","","","","","","","","","","","","","","","","","","","","","",""
"","","","","","image-button-response","19","68038","0.0-2.0-2.0-1.7","5dc807ff27a267592c6129f5","B2","batch2","spm_respsonse","4911.5","img/question_1_8.jpeg","1","mat_08","2","1","1","4911.5","","","","","","","","","","","","","","","","","","","","",""
"","","","","","html-keyboard-response","20","69110","0.0-2.0-2.0-0.8","5dc807ff27a267592c6129f5","B2","batch2","spm_show_trial_num","null","<p class=block-text>Trial 9 out of 60</p>","null","","","","","","","","","","","","","","","","","","","","","","","","","",""
"","","","","","image-button-response","21","72782","0.0-2.0-2.0-1.8","5dc807ff27a267592c6129f5","B2","batch2","spm_respsonse","3669.699999809265","img/question_1_9.jpeg","0","mat_09","1","1","1","3669.699999809265","","","","","","","","","","","","","","","","","","","","",""
"","","","","","html-keyboard-response","22","73852","0.0-2.0-2.0-0.9","5dc807ff27a267592c6129f5","B2","batch2","spm_show_trial_num","null","<p class=block-text>Trial 10 out of 60</p>","null","","","","","","","","","","","","","","","","","","","","","","","","","",""
"","","","","","image-button-response","23","81054","0.0-2.0-2.0-1.9","5dc807ff27a267592c6129f5","B2","batch2","spm_respsonse","7200","img/question_1_10.jpeg","2","mat_10","3","1","1","7200","","","","","","","","","","","","","","","","","","","","",""
"","","","","","html-keyboard-response","24","82124","0.0-2.0-2.0-0.10","5dc807ff27a267592c6129f5","B2","batch2","spm_show_trial_num","null","<p class=block-text>Trial 11 out of 60</p>","null","","","","","","","","","","","","","","","","","","","","","","","","","",""
"","","","","","image-button-response","25","102416","0.0-2.0-2.0-1.10","5dc807ff27a267592c6129f5","B2","batch2","spm_respsonse","20290.400000095367","img/question_1_11.jpeg","3","mat_11","4","1","1","20290.400000095367","","","","","","","","","","","","","","","","","","","","",""
"","","","","","html-keyboard-response","26","103478","0.0-2.0-2.0-0.11","5dc807ff27a267592c6129f5","B2","batch2","spm_show_trial_num","null","<p class=block-text>Trial 12 out of 60</p>","null","","","","","","","","","","","","","","","","","","","","","","","","","",""
"","","","","","image-button-response","27","128363","0.0-2.0-2.0-1.11","5dc807ff27a267592c6129f5","B2","batch2","spm_respsonse","24883.099999904633","img/question_1_12.jpeg","3","mat_12","5","0","0","24883.099999904633","","","","","","","","","","","","","","","","","","","","",""
"","","","","","html-keyboard-response","28","129439","0.0-2.0-2.0-0.12","5dc807ff27a267592c6129f5","B2","batch2","spm_show_trial_num","null","<p class=block-text>Trial 13 out of 60</p>","null","","","","","","","","","","","","","","","","","","","","","","","","","",""
"","","","","","image-button-response","29","132618","0.0-2.0-2.0-1.12","5dc807ff27a267592c6129f5","B2","batch2","spm_respsonse","3177.199999809265","img/question_2_1.jpeg","1","mat_13","2","1","1","3177.199999809265","","","","","","","","","","","","","","","","","","","","",""
"","","","","","html-keyboard-response","30","133679","0.0-2.0-2.0-0.13","5dc807ff27a267592c6129f5","B2","batch2","spm_show_trial_num","null","<p class=block-text>Trial 14 out of 60</p>","null","","","","","","","","","","","","","","","","","","","","","","","","","",""
"","","","","","image-button-response","31","139208","0.0-2.0-2.0-1.13","5dc807ff27a267592c6129f5","B2","batch2","spm_respsonse","5526.10000038147","img/question_2_2.jpeg","5","mat_14","6","1","1","5526.10000038147","","","","","","","","","","","","","","","","","","","","",""
"","","","","","html-keyboard-response","32","140275","0.0-2.0-2.0-0.14","5dc807ff27a267592c6129f5","B2","batch2","spm_show_trial_num","null","<p class=block-text>Trial 15 out of 60</p>","null","","","","","","","","","","","","","","","","","","","","","","","","","",""
"","","","","","image-button-response","33","143188","0.0-2.0-2.0-1.14","5dc807ff27a267592c6129f5","B2","batch2","spm_respsonse","2910.800000190735","img/question_2_3.jpeg","0","mat_15","1","1","1","2910.800000190735","","","","","","","","","","","","","","","","","","","","",""
"","","","","","html-keyboard-response","34","144262","0.0-2.0-2.0-0.15","5dc807ff27a267592c6129f5","B2","batch2","spm_show_trial_num","null","<p class=block-text>Trial 16 out of 60</p>","null","","","","","","","","","","","","","","","","","","","","","","","","","",""
"","","","","","image-button-response","35","151399","0.0-2.0-2.0-1.15","5dc807ff27a267592c6129f5","B2","batch2","spm_respsonse","7135.199999809265","img/question_2_4.jpeg","1","mat_16","2","1","1","7135.199999809265","","","","","","","","","","","","","","","","","","","","",""
"","","","","","html-keyboard-response","36","152465","0.0-2.0-2.0-0.16","5dc807ff27a267592c6129f5","B2","batch2","spm_show_trial_num","null","<p class=block-text>Trial 17 out of 60</p>","null","","","","","","","","","","","","","","","","","","","","","","","","","",""
"","","","","","image-button-response","37","157937","0.0-2.0-2.0-1.16","5dc807ff27a267592c6129f5","B2","batch2","spm_respsonse","5469.099999904633","img/question_2_5.jpeg","0","mat_17","1","1","1","5469.099999904633","","","","","","","","","","","","","","","","","","","","",""
"","","","","","html-keyboard-response","38","159007","0.0-2.0-2.0-0.17","5dc807ff27a267592c6129f5","B2","batch2","spm_show_trial_num","null","<p class=block-text>Trial 18 out of 60</p>","null","","","","","","","","","","","","","","","","","","","","","","","","","",""
"","","","","","image-button-response","39","167520","0.0-2.0-2.0-1.17","5dc807ff27a267592c6129f5","B2","batch2","spm_respsonse","8510.400000095367","img/question_2_6.jpeg","2","mat_18","3","1","1","8510.400000095367","","","","","","","","","","","","","","","","","","","","",""
"","","","","","html-keyboard-response","40","168585","0.0-2.0-2.0-0.18","5dc807ff27a267592c6129f5","B2","batch2","spm_show_trial_num","null","<p class=block-text>Trial 19 out of 60</p>","null","","","","","","","","","","","","","","","","","","","","","","","","","",""
"","","","","","image-button-response","41","184893","0.0-2.0-2.0-1.18","5dc807ff27a267592c6129f5","B2","batch2","spm_respsonse","16306.300000190735","img/question_2_7.jpeg","4","mat_19","5","1","1","16306.300000190735","","","","","","","","","","","","","","","","","","","","",""
"","","","","","html-keyboard-response","42","185951","0.0-2.0-2.0-0.19","5dc807ff27a267592c6129f5","B2","batch2","spm_show_trial_num","null","<p class=block-text>Trial 20 out of 60</p>","null","","","","","","","","","","","","","","","","","","","","","","","","","",""
"","","","","","image-button-response","43","192903","0.0-2.0-2.0-1.19","5dc807ff27a267592c6129f5","B2","batch2","spm_respsonse","6949.599999904633","img/question_2_8.jpeg","3","mat_20","6","0","0","6949.599999904633","","","","","","","","","","","","","","","","","","","","",""
"","","","","","html-keyboard-response","44","193981","0.0-2.0-2.0-0.20","5dc807ff27a267592c6129f5","B2","batch2","spm_show_trial_num","null","<p class=block-text>Trial 21 out of 60</p>","null","","","","","","","","","","","","","","","","","","","","","","","","","",""
"","","","","","image-button-response","45","198911","0.0-2.0-2.0-1.20","5dc807ff27a267592c6129f5","B2","batch2","spm_respsonse","4928.200000286102","img/question_2_9.jpeg","3","mat_21","4","1","1","4928.200000286102","","","","","","","","","","","","","","","","","","","","",""
"","","","","","html-keyboard-response","46","199982","0.0-2.0-2.0-0.21","5dc807ff27a267592c6129f5","B2","batch2","spm_show_trial_num","null","<p class=block-text>Trial 22 out of 60</p>","null","","","","","","","","","","","","","","","","","","","","","","","","","",""
"","","","","","image-button-response","47","207600","0.0-2.0-2.0-1.21","5dc807ff27a267592c6129f5","B2","batch2","spm_respsonse","7615.599999904633","img/question_2_10.jpeg","2","mat_22","3","1","1","7615.599999904633","","","","","","","","","","","","","","","","","","","","",""
"","","","","","html-keyboard-response","48","208666","0.0-2.0-2.0-0.22","5dc807ff27a267592c6129f5","B2","batch2","spm_show_trial_num","null","<p class=block-text>Trial 23 out of 60</p>","null","","","","","","","","","","","","","","","","","","","","","","","","","",""
"","","","","","image-button-response","49","217689","0.0-2.0-2.0-1.22","5dc807ff27a267592c6129f5","B2","batch2","spm_respsonse","9021.400000095367","img/question_2_11.jpeg","3","mat_23","4","1","1","9021.400000095367","","","","","","","","","","","","","","","","","","","","",""
"","","","","","html-keyboard-response","50","218757","0.0-2.0-2.0-0.23","5dc807ff27a267592c6129f5","B2","batch2","spm_show_trial_num","null","<p class=block-text>Trial 24 out of 60</p>","null","","","","","","","","","","","","","","","","","","","","","","","","","",""
"","","","","","image-button-response","51","246788","0.0-2.0-2.0-1.23","5dc807ff27a267592c6129f5","B2","batch2","spm_respsonse","28028.099999904633","img/question_2_12.jpeg","4","mat_24","5","1","1","28028.099999904633","","","","","","","","","","","","","","","","","","","","",""
"","","","","","html-button-response","52","249979","0.0-2.0-3.0","5dc807ff27a267592c6129f5","B2","batch2","attention_check","2939.199999809265","<p class = block-text>Attention check: Please choose 1<br></p>","0","","","true","","","","","","","","","","","","","","","","","","","","","","",""
"","","","","","html-keyboard-response","53","250785","0.0-2.0-4.0-0.0","5dc807ff27a267592c6129f5","B2","batch2","spm_show_trial_num","null","<p class=block-text>Trial 25 out of 60</p>","null","","","","","","","","","","","","","","","","","","","","","","","","","",""
"","","","","","image-button-response","54","259798","0.0-2.0-4.0-1.0","5dc807ff27a267592c6129f5","B2","batch2","spm_respsonse","9010.400000095367","img/question_3_1.jpeg","7","mat_25","8","1","1","9010.400000095367","","","","","","","","","","","","","","","","","","","","",""
"","","","","","html-keyboard-response","55","260855","0.0-2.0-4.0-0.1","5dc807ff27a267592c6129f5","B2","batch2","spm_show_trial_num","null","<p class=block-text>Trial 26 out of 60</p>","null","","","","","","","","","","","","","","","","","","","","","","","","","",""
"","","","","","image-button-response","56","268729","0.0-2.0-4.0-1.1","5dc807ff27a267592c6129f5","B2","batch2","spm_respsonse","7872.199999809265","img/question_3_2.jpeg","1","mat_26","2","1","1","7872.199999809265","","","","","","","","","","","","","","","","","","","","",""
"","","","","","html-keyboard-response","57","269797","0.0-2.0-4.0-0.2","5dc807ff27a267592c6129f5","B2","batch2","spm_show_trial_num","null","<p class=block-text>Trial 27 out of 60</p>","null","","","","","","","","","","","","","","","","","","","","","","","","","",""
"","","","","","image-button-response","58","285016","0.0-2.0-4.0-1.2","5dc807ff27a267592c6129f5","B2","batch2","spm_respsonse","15217.300000190735","img/question_3_3.jpeg","2","mat_27","3","1","1","15217.300000190735","","","","","","","","","","","","","","","","","","","","",""
"","","","","","html-keyboard-response","59","286085","0.0-2.0-4.0-0.3","5dc807ff27a267592c6129f5","B2","batch2","spm_show_trial_num","null","<p class=block-text>Trial 28 out of 60</p>","null","","","","","","","","","","","","","","","","","","","","","","","","","",""
"","","","","","image-button-response","60","304209","0.0-2.0-4.0-1.3","5dc807ff27a267592c6129f5","B2","batch2","spm_respsonse","18121","img/question_3_4.jpeg","7","mat_28","8","1","1","18121","","","","","","","","","","","","","","","","","","","","",""
"","","","","","html-keyboard-response","61","305273","0.0-2.0-4.0-0.4","5dc807ff27a267592c6129f5","B2","batch2","spm_show_trial_num","null","<p class=block-text>Trial 29 out of 60</p>","null","","","","","","","","","","","","","","","","","","","","","","","","","",""
"","","","","","image-button-response","62","315021","0.0-2.0-4.0-1.4","5dc807ff27a267592c6129f5","B2","batch2","spm_respsonse","9745.099999904633","img/question_3_5.jpeg","6","mat_29","7","1","1","9745.099999904633","","","","","","","","","","","","","","","","","","","","",""
"","","","","","html-keyboard-response","63","316098","0.0-2.0-4.0-0.5","5dc807ff27a267592c6129f5","B2","batch2","spm_show_trial_num","null","<p class=block-text>Trial 30 out of 60</p>","null","","","","","","","","","","","","","","","","","","","","","","","","","",""
"","","","","","image-button-response","64","330420","0.0-2.0-4.0-1.5","5dc807ff27a267592c6129f5","B2","batch2","spm_respsonse","14319.599999904633","img/question_3_6.jpeg","3","mat_30","4","1","1","14319.599999904633","","","","","","","","","","","","","","","","","","","","",""
"","","","","","html-keyboard-response","65","331501","0.0-2.0-4.0-0.6","5dc807ff27a267592c6129f5","B2","batch2","spm_show_trial_num","null","<p class=block-text>Trial 31 out of 60</p>","null","","","","","","","","","","","","","","","","","","","","","","","","","",""
"","","","","","image-button-response","66","339419","0.0-2.0-4.0-1.6","5dc807ff27a267592c6129f5","B2","batch2","spm_respsonse","7916","img/question_3_7.jpeg","4","mat_31","5","1","1","7916","","","","","","","","","","","","","","","","","","","","",""
"","","","","","html-keyboard-response","67","340503","0.0-2.0-4.0-0.7","5dc807ff27a267592c6129f5","B2","batch2","spm_show_trial_num","null","<p class=block-text>Trial 32 out of 60</p>","null","","","","","","","","","","","","","","","","","","","","","","","","","",""
"","","","","","image-button-response","68","358919","0.0-2.0-4.0-1.7","5dc807ff27a267592c6129f5","B2","batch2","spm_respsonse","18413.800000190735","img/question_3_8.jpeg","0","mat_32","1","1","1","18413.800000190735","","","","","","","","","","","","","","","","","","","","",""
"","","","","","html-keyboard-response","69","359987","0.0-2.0-4.0-0.8","5dc807ff27a267592c6129f5","B2","batch2","spm_show_trial_num","null","<p class=block-text>Trial 33 out of 60</p>","null","","","","","","","","","","","","","","","","","","","","","","","","","",""
"","","","","","image-button-response","70","370693","0.0-2.0-4.0-1.8","5dc807ff27a267592c6129f5","B2","batch2","spm_respsonse","10704.099999904633","img/question_3_9.jpeg","6","mat_33","7","1","1","10704.099999904633","","","","","","","","","","","","","","","","","","","","",""
"","","","","","html-keyboard-response","71","371772","0.0-2.0-4.0-0.9","5dc807ff27a267592c6129f5","B2","batch2","spm_show_trial_num","null","<p class=block-text>Trial 34 out of 60</p>","null","","","","","","","","","","","","","","","","","","","","","","","","","",""
"","","","","","image-button-response","72","405717","0.0-2.0-4.0-1.9","5dc807ff27a267592c6129f5","B2","batch2","spm_respsonse","33941.90000009537","img/question_3_10.jpeg","1","mat_34","6","0","0","33941.90000009537","","","","","","","","","","","","","","","","","","","","",""
"","","","","","html-keyboard-response","73","406784","0.0-2.0-4.0-0.10","5dc807ff27a267592c6129f5","B2","batch2","spm_show_trial_num","null","<p class=block-text>Trial 35 out of 60</p>","null","","","","","","","","","","","","","","","","","","","","","","","","","",""
"","","","","","image-button-response","74","429267","0.0-2.0-4.0-1.10","5dc807ff27a267592c6129f5","B2","batch2","spm_respsonse","22480.799999713898","img/question_3_11.jpeg","4","mat_35","1","0","0","22480.799999713898","","","","","","","","","","","","","","","","","","","","",""
"","","","","","html-keyboard-response","75","430338","0.0-2.0-4.0-0.11","5dc807ff27a267592c6129f5","B2","batch2","spm_show_trial_num","null","<p class=block-text>Trial 36 out of 60</p>","null","","","","","","","","","","","","","","","","","","","","","","","","","",""
"","","","","","image-button-response","76","443964","0.0-2.0-4.0-1.11","5dc807ff27a267592c6129f5","B2","batch2","spm_respsonse","13623.200000286102","img/question_3_12.jpeg","2","mat_36","2","0","0","13623.200000286102","","","","","","","","","","","","","","","","","","","","",""
"","","","","","html-keyboard-response","77","445029","0.0-2.0-4.0-0.12","5dc807ff27a267592c6129f5","B2","batch2","spm_show_trial_num","null","<p class=block-text>Trial 37 out of 60</p>","null","","","","","","","","","","","","","","","","","","","","","","","","","",""
"","","","","","image-button-response","78","449318","0.0-2.0-4.0-1.12","5dc807ff27a267592c6129f5","B2","batch2","spm_respsonse","4286.900000095367","img/question_4_1.jpeg","2","mat_37","3","1","1","4286.900000095367","","","","","","","","","","","","","","","","","","","","",""
"","","","","","html-keyboard-response","79","450394","0.0-2.0-4.0-0.13","5dc807ff27a267592c6129f5","B2","batch2","spm_show_trial_num","null","<p class=block-text>Trial 38 out of 60</p>","null","","","","","","","","","","","","","","","","","","","","","","","","","",""
"","","","","","image-button-response","80","459580","0.0-2.0-4.0-1.13","5dc807ff27a267592c6129f5","B2","batch2","spm_respsonse","9184.300000190735","img/question_4_2.jpeg","3","mat_38","4","1","1","9184.300000190735","","","","","","","","","","","","","","","","","","","","",""
"","","","","","html-keyboard-response","81","460647","0.0-2.0-4.0-0.14","5dc807ff27a267592c6129f5","B2","batch2","spm_show_trial_num","null","<p class=block-text>Trial 39 out of 60</p>","null","","","","","","","","","","","","","","","","","","","","","","","","","",""
"","","","","","image-button-response","82","475852","0.0-2.0-4.0-1.14","5dc807ff27a267592c6129f5","B2","batch2","spm_respsonse","15202","img/question_4_3.jpeg","2","mat_39","3","1","1","15202","","","","","","","","","","","","","","","","","","","","",""
"","","","","","html-keyboard-response","83","476919","0.0-2.0-4.0-0.15","5dc807ff27a267592c6129f5","B2","batch2","spm_show_trial_num","null","<p class=block-text>Trial 40 out of 60</p>","null","","","","","","","","","","","","","","","","","","","","","","","","","",""
"","","","","","image-button-response","84","489719","0.0-2.0-4.0-1.15","5dc807ff27a267592c6129f5","B2","batch2","spm_respsonse","12798","img/question_4_4.jpeg","6","mat_40","7","1","1","12798","","","","","","","","","","","","","","","","","","","","",""
"","","","","","html-keyboard-response","85","490796","0.0-2.0-4.0-0.16","5dc807ff27a267592c6129f5","B2","batch2","spm_show_trial_num","null","<p class=block-text>Trial 41 out of 60</p>","null","","","","","","","","","","","","","","","","","","","","","","","","","",""
"","","","","","image-button-response","86","513268","0.0-2.0-4.0-1.16","5dc807ff27a267592c6129f5","B2","batch2","spm_respsonse","22469.400000095367","img/question_4_5.jpeg","7","mat_41","8","1","1","22469.400000095367","","","","","","","","","","","","","","","","","","","","",""
"","","","","","html-keyboard-response","87","514334","0.0-2.0-4.0-0.17","5dc807ff27a267592c6129f5","B2","batch2","spm_show_trial_num","null","<p class=block-text>Trial 42 out of 60</p>","null","","","","","","","","","","","","","","","","","","","","","","","","","",""
"","","","","","image-button-response","88","527220","0.0-2.0-4.0-1.17","5dc807ff27a267592c6129f5","B2","batch2","spm_respsonse","12883.900000095367","img/question_4_6.jpeg","5","mat_42","6","1","1","12883.900000095367","","","","","","","","","","","","","","","","","","","","",""
"","","","","","html-keyboard-response","89","528295","0.0-2.0-4.0-0.18","5dc807ff27a267592c6129f5","B2","batch2","spm_show_trial_num","null","<p class=block-text>Trial 43 out of 60</p>","null","","","","","","","","","","","","","","","","","","","","","","","","","",""
"","","","","","image-button-response","90","541102","0.0-2.0-4.0-1.18","5dc807ff27a267592c6129f5","B2","batch2","spm_respsonse","12804.39999961853","img/question_4_7.jpeg","4","mat_43","5","1","1","12804.39999961853","","","","","","","","","","","","","","","","","","","","",""
"","","","","","html-keyboard-response","91","542173","0.0-2.0-4.0-0.19","5dc807ff27a267592c6129f5","B2","batch2","spm_show_trial_num","null","<p class=block-text>Trial 44 out of 60</p>","null","","","","","","","","","","","","","","","","","","","","","","","","","",""
"","","","","","image-button-response","92","556073","0.0-2.0-4.0-1.19","5dc807ff27a267592c6129f5","B2","batch2","spm_respsonse","13897.699999809265","img/question_4_8.jpeg","3","mat_44","4","1","1","13897.699999809265","","","","","","","","","","","","","","","","","","","","",""
"","","","","","html-keyboard-response","93","557143","0.0-2.0-4.0-0.20","5dc807ff27a267592c6129f5","B2","batch2","spm_show_trial_num","null","<p class=block-text>Trial 45 out of 60</p>","null","","","","","","","","","","","","","","","","","","","","","","","","","",""
"","","","","","image-button-response","94","573821","0.0-2.0-4.0-1.20","5dc807ff27a267592c6129f5","B2","batch2","spm_respsonse","16676.699999809265","img/question_4_9.jpeg","0","mat_45","1","1","1","16676.699999809265","","","","","","","","","","","","","","","","","","","","",""
"","","","","","html-keyboard-response","95","574892","0.0-2.0-4.0-0.21","5dc807ff27a267592c6129f5","B2","batch2","spm_show_trial_num","null","<p class=block-text>Trial 46 out of 60</p>","null","","","","","","","","","","","","","","","","","","","","","","","","","",""
"","","","","","image-button-response","96","593666","0.0-2.0-4.0-1.21","5dc807ff27a267592c6129f5","B2","batch2","spm_respsonse","18771","img/question_4_10.jpeg","1","mat_46","2","1","1","18771","","","","","","","","","","","","","","","","","","","","",""
"","","","","","html-keyboard-response","97","594720","0.0-2.0-4.0-0.22","5dc807ff27a267592c6129f5","B2","batch2","spm_show_trial_num","null","<p class=block-text>Trial 47 out of 60</p>","null","","","","","","","","","","","","","","","","","","","","","","","","","",""
"","","","","","image-button-response","98","628506","0.0-2.0-4.0-1.22","5dc807ff27a267592c6129f5","B2","batch2","spm_respsonse","33783.40000009537","img/question_4_11.jpeg","7","mat_47","5","0","0","33783.40000009537","","","","","","","","","","","","","","","","","","","","",""
"","","","","","html-keyboard-response","99","629569","0.0-2.0-4.0-0.23","5dc807ff27a267592c6129f5","B2","batch2","spm_show_trial_num","null","<p class=block-text>Trial 48 out of 60</p>","null","","","","","","","","","","","","","","","","","","","","","","","","","",""
"","","","","","image-button-response","100","653119","0.0-2.0-4.0-1.23","5dc807ff27a267592c6129f5","B2","batch2","spm_respsonse","23547.800000190735","img/question_4_12.jpeg","7","mat_48","6","0","0","23547.800000190735","","","","","","","","","","","","","","","","","","","","",""
"","","","","","html-keyboard-response","101","654190","0.0-2.0-4.0-0.24","5dc807ff27a267592c6129f5","B2","batch2","spm_show_trial_num","null","<p class=block-text>Trial 49 out of 60</p>","null","","","","","","","","","","","","","","","","","","","","","","","","","",""
"","","","","","image-button-response","102","663378","0.0-2.0-4.0-1.24","5dc807ff27a267592c6129f5","B2","batch2","spm_respsonse","9185.900000095367","img/question_5_1.jpeg","6","mat_49","7","1","1","9185.900000095367","","","","","","","","","","","","","","","","","","","","",""
"","","","","","html-keyboard-response","103","664441","0.0-2.0-4.0-0.25","5dc807ff27a267592c6129f5","B2","batch2","spm_show_trial_num","null","<p class=block-text>Trial 50 out of 60</p>","null","","","","","","","","","","","","","","","","","","","","","","","","","",""
"","","","","","image-button-response","104","700083","0.0-2.0-4.0-1.25","5dc807ff27a267592c6129f5","B2","batch2","spm_respsonse","35639.300000190735","img/question_5_2.jpeg","5","mat_50","6","1","1","35639.300000190735","","","","","","","","","","","","","","","","","","","","",""
"","","","","","html-keyboard-response","105","701158","0.0-2.0-4.0-0.26","5dc807ff27a267592c6129f5","B2","batch2","spm_show_trial_num","null","<p class=block-text>Trial 51 out of 60</p>","null","","","","","","","","","","","","","","","","","","","","","","","","","",""
"","","","","","image-button-response","106","746585","0.0-2.0-4.0-1.26","5dc807ff27a267592c6129f5","B2","batch2","spm_respsonse","45424.39999961853","img/question_5_3.jpeg","7","mat_51","8","1","1","45424.39999961853","","","","","","","","","","","","","","","","","","","","",""
"","","","","","html-keyboard-response","107","747656","0.0-2.0-4.0-0.27","5dc807ff27a267592c6129f5","B2","batch2","spm_show_trial_num","null","<p class=block-text>Trial 52 out of 60</p>","null","","","","","","","","","","","","","","","","","","","","","","","","","",""
"","","","","","image-button-response","108","769978","0.0-2.0-4.0-1.27","5dc807ff27a267592c6129f5","B2","batch2","spm_respsonse","22320.200000286102","img/question_5_4.jpeg","1","mat_52","2","1","1","22320.200000286102","","","","","","","","","","","","","","","","","","","","",""
"","","","","","html-keyboard-response","109","771036","0.0-2.0-4.0-0.28","5dc807ff27a267592c6129f5","B2","batch2","spm_show_trial_num","null","<p class=block-text>Trial 53 out of 60</p>","null","","","","","","","","","","","","","","","","","","","","","","","","","",""
"","","","","","image-button-response","110","777368","0.0-2.0-4.0-1.28","5dc807ff27a267592c6129f5","B2","batch2","spm_respsonse","6329.900000095367","img/question_5_5.jpeg","0","mat_53","1","1","1","6329.900000095367","","","","","","","","","","","","","","","","","","","","",""
"","","","","","html-keyboard-response","111","778431","0.0-2.0-4.0-0.29","5dc807ff27a267592c6129f5","B2","batch2","spm_show_trial_num","null","<p class=block-text>Trial 54 out of 60</p>","null","","","","","","","","","","","","","","","","","","","","","","","","","",""
"","","","","","image-button-response","112","803430","0.0-2.0-4.0-1.29","5dc807ff27a267592c6129f5","B2","batch2","spm_respsonse","24996.900000095367","img/question_5_6.jpeg","4","mat_54","5","1","1","24996.900000095367","","","","","","","","","","","","","","","","","","","","",""
"","","","","","html-keyboard-response","113","804498","0.0-2.0-4.0-0.30","5dc807ff27a267592c6129f5","B2","batch2","spm_show_trial_num","null","<p class=block-text>Trial 55 out of 60</p>","null","","","","","","","","","","","","","","","","","","","","","","","","","",""
"","","","","","image-button-response","114","843339","0.0-2.0-4.0-1.30","5dc807ff27a267592c6129f5","B2","batch2","spm_respsonse","38839.7000002861","img/question_5_7.jpeg","3","mat_55","1","0","0","38839.7000002861","","","","","","","","","","","","","","","","","","","","",""
"","","","","","html-keyboard-response","115","844405","0.0-2.0-4.0-0.31","5dc807ff27a267592c6129f5","B2","batch2","spm_show_trial_num","null","<p class=block-text>Trial 56 out of 60</p>","null","","","","","","","","","","","","","","","","","","","","","","","","","",""
"","","","","","image-button-response","116","920137","0.0-2.0-4.0-1.31","5dc807ff27a267592c6129f5","B2","batch2","spm_respsonse","75729.40000009537","img/question_5_8.jpeg","7","mat_56","6","0","0","75729.40000009537","","","","","","","","","","","","","","","","","","","","",""
"","","","","","html-keyboard-response","117","921206","0.0-2.0-4.0-0.32","5dc807ff27a267592c6129f5","B2","batch2","spm_show_trial_num","null","<p class=block-text>Trial 57 out of 60</p>","null","","","","","","","","","","","","","","","","","","","","","","","","","",""
"","","","","","image-button-response","118","950790","0.0-2.0-4.0-1.32","5dc807ff27a267592c6129f5","B2","batch2","spm_respsonse","29581.699999809265","img/question_5_9.jpeg","4","mat_57","3","0","0","29581.699999809265","","","","","","","","","","","","","","","","","","","","",""
"","","","","","html-keyboard-response","119","951861","0.0-2.0-4.0-0.33","5dc807ff27a267592c6129f5","B2","batch2","spm_show_trial_num","null","<p class=block-text>Trial 58 out of 60</p>","null","","","","","","","","","","","","","","","","","","","","","","","","","",""
"","","","","","image-button-response","120","994931","0.0-2.0-4.0-1.33","5dc807ff27a267592c6129f5","B2","batch2","spm_respsonse","43068.09999990463","img/question_5_10.jpeg","2","mat_58","2","0","0","43068.09999990463","","","","","","","","","","","","","","","","","","","","",""
"","","","","","html-keyboard-response","121","996002","0.0-2.0-4.0-0.34","5dc807ff27a267592c6129f5","B2","batch2","spm_show_trial_num","null","<p class=block-text>Trial 59 out of 60</p>","null","","","","","","","","","","","","","","","","","","","","","","","","","",""
"","","","","","image-button-response","122","1077442","0.0-2.0-4.0-1.34","5dc807ff27a267592c6129f5","B2","batch2","spm_respsonse","81438.30000019073","img/question_5_11.jpeg","6","mat_59","4","0","0","81438.30000019073","","","","","","","","","","","","","","","","","","","","",""
"","","","","","html-keyboard-response","123","1078516","0.0-2.0-4.0-0.35","5dc807ff27a267592c6129f5","B2","batch2","spm_show_trial_num","null","<p class=block-text>Trial 60 out of 60</p>","null","","","","","","","","","","","","","","","","","","","","","","","","","",""
"","","","","","image-button-response","124","1104623","0.0-2.0-4.0-1.35","5dc807ff27a267592c6129f5","B2","batch2","spm_respsonse","26105.5","img/question_5_12.jpeg","7","mat_60","5","0","0","26105.5","","","","","","","","","","","","","","","","","","","","",""
"","","","","","html-button-response","125","1107665","0.0-2.0-5.0","5dc807ff27a267592c6129f5","B2","batch2","spm_goodbye","2784.3999996185303","<p class= block-text>This concludes the Standard Progressive Matrix game. Thank you for your responses!<br> When you are ready, click the button continue</p>","0","","","","","","","","","","","","","","","","","","","","","","","","","",""
"true","","","","","fullscreen","126","1111066","0.0-3.0-0.0","5dc807ff27a267592c6129f5","B2","batch2","","","","","","","","","","","","","","","","","","","","","","","","","","","","","",""
"","","","","","instructions","127","1128038","0.0-3.0-1.0-0.0","5dc807ff27a267592c6129f5","B2","batch2","","16970.799999713898","","","","","","","","[{""page_index"":0,""viewing_time"":10778.199999809265},{""page_index"":1,""viewing_time"":6192.199999809265}]","","","","","","","","","","","","","","","","","","","",""
"","","","","","html-button-response","128","1129865","0.0-3.0-1.0-1.0-0.0","5dc807ff27a267592c6129f5","B2","batch2","pattern_enter_quiz","1826","<p class=block-text> Let's answer a few questions <br>","0","","","","","","","","","","","","","","","","","","","","","","","","","",""
"","","","","","html-button-response","129","1134672","0.0-3.0-1.0-1.0-1.0","5dc807ff27a267592c6129f5","B2","batch2","pattern_quiz","4805.699999809265","<p class = block-text>True or False: You will have as much time as you want to make each choice. <br></p>","0","","","false","","","","","","","","","","","","","","","","","","","","","","",""
"","","","","","html-button-response","130","1136564","0.0-3.0-1.0-1.0-2.0","5dc807ff27a267592c6129f5","B2","batch2","pattern_quiz_feedback","1890.9000000953674","<p class = block-text>Incorrect. Remember, You should make your choice as fast as you can.</p>","0","","","","","","","","","","","","","","","","","","","","","","","","","",""
"","","","","","html-button-response","131","1141362","0.0-3.0-1.0-1.0-3.0","5dc807ff27a267592c6129f5","B2","batch2","pattern_quiz","4796.900000095367","<p class = block-text>True or False: You will look for 4 pieces in black or white color connected in a row either horizontally, vertically or diagonally. <br></p>","0","","","true","","","","","","","","","","","","","","","","","","","","","","",""
"","","","","","html-button-response","132","1142768","0.0-3.0-1.0-1.0-4.0","5dc807ff27a267592c6129f5","B2","batch2","pattern_quiz_feedback","1404.2000002861023","<p class = block-text>Correct! </p>","0","","","","","","","","","","","","","","","","","","","","","","","","","",""
"","","","","","html-button-response","133","1145550","0.0-3.0-1.0-2.0-0.0","5dc807ff27a267592c6129f5","B2","batch2","","2780.9000000953674","<p class = block-text>You made too many incorrect choices.</p><p class = block-text>You will now repeat the instruction and quiz</p>","0","","","","","","","","","","","","","","","","","","","","","","","","","",""
"","","","","","instructions","134","1155452","0.0-3.0-1.1-0.1","5dc807ff27a267592c6129f5","B2","batch2","","9900.900000095367","","","","","","","","[{""page_index"":0,""viewing_time"":8053.699999809265},{""page_index"":1,""viewing_time"":1847}]","","","","","","","","","","","","","","","","","","","",""
"","","","","","html-button-response","135","1156989","0.0-3.0-1.1-1.1-0.1","5dc807ff27a267592c6129f5","B2","batch2","pattern_enter_quiz","1535.9000000953674","<p class=block-text> Let's answer a few questions <br>","0","","","","","","","","","","","","","","","","","","","","","","","","","",""
"","","","","","html-button-response","136","1158757","0.0-3.0-1.1-1.1-1.1","5dc807ff27a267592c6129f5","B2","batch2","pattern_quiz","1766.8000001907349","<p class = block-text>True or False: You will have as much time as you want to make each choice. <br></p>","1","","","true","","","","","","","","","","","","","","","","","","","","","","",""
"","","","","","html-button-response","137","1160202","0.0-3.0-1.1-1.1-2.1","5dc807ff27a267592c6129f5","B2","batch2","pattern_quiz_feedback","1444.0999999046326","<p class = block-text>Correct! You should make your choice <strong> as fast as you can</strong>.</p>","0","","","","","","","","","","","","","","","","","","","","","","","","","",""
"","","","","","html-button-response","138","1162205","0.0-3.0-1.1-1.1-3.1","5dc807ff27a267592c6129f5","B2","batch2","pattern_quiz","2002.0999999046326","<p class = block-text>True or False: You will look for 4 pieces in black or white color connected in a row either horizontally, vertically or diagonally. <br></p>","0","","","true","","","","","","","","","","","","","","","","","","","","","","",""
"","","","","","html-button-response","139","1163307","0.0-3.0-1.1-1.1-4.1","5dc807ff27a267592c6129f5","B2","batch2","pattern_quiz_feedback","1101.0999999046326","<p class = block-text>Correct! </p>","0","","","","","","","","","","","","","","","","","","","","","","","","","",""
"","","","","","html-button-response","140","1164819","0.0-3.0-2.0","5dc807ff27a267592c6129f5","B2","batch2","pattern_enter_practice","1511.5","<p class=block-text> Now that you've understood the game, let's do a few practice trials before we start!<br> <br>","0","","","","","","","","","","","","","","","","","","","","","","","","","",""
"","","","","","image-keyboard-response","141","1167870","0.0-3.0-3.0-0.0","5dc807ff27a267592c6129f5","B2","batch2","pattern_practice","3048.699999809265","stim/prac_yes_18_hor_w1.png","f","","f","true","","","","","","","","","","","","","","","","","","","","","","",""
"","","","","","html-keyboard-response","142","1168884","0.0-3.0-3.0-1.0","5dc807ff27a267592c6129f5","B2","batch2","pattern_feedback","null","<p style=""font-size:30px;color:green;"">Correct!</p>","null","","","","","","","","","","","","","","","","","","","","","","","","","",""
"","","","","","image-keyboard-response","143","1171276","0.0-3.0-3.0-0.1","5dc807ff27a267592c6129f5","B2","batch2","pattern_practice","2390.4000000953674","stim/prac_no_18_1.png","j","","j","true","","","","","","","","","","","","","","","","","","","","","","",""
"","","","","","html-keyboard-response","144","1172302","0.0-3.0-3.0-1.1","5dc807ff27a267592c6129f5","B2","batch2","pattern_feedback","null","<p style=""font-size:30px;color:green;"">Correct!</p>","null","","","","","","","","","","","","","","","","","","","","","","","","","",""
"","","","","","image-keyboard-response","145","1175162","0.0-3.0-3.0-0.2","5dc807ff27a267592c6129f5","B2","batch2","pattern_practice","2858","stim/prac_no_16_1.png","j","","j","true","","","","","","","","","","","","","","","","","","","","","","",""
"","","","","","html-keyboard-response","146","1176183","0.0-3.0-3.0-1.2","5dc807ff27a267592c6129f5","B2","batch2","pattern_feedback","null","<p style=""font-size:30px;color:green;"">Correct!</p>","null","","","","","","","","","","","","","","","","","","","","","","","","","",""
"","","","","","image-keyboard-response","147","1177223","0.0-3.0-3.0-0.3","5dc807ff27a267592c6129f5","B2","batch2","pattern_practice","1038.1999998092651","stim/prac_yes_16_ver_w1.png","f","","f","true","","","","","","","","","","","","","","","","","","","","","","",""
"","","","","","html-keyboard-response","148","1178246","0.0-3.0-3.0-1.3","5dc807ff27a267592c6129f5","B2","batch2","pattern_feedback","null","<p style=""font-size:30px;color:green;"">Correct!</p>","null","","","","","","","","","","","","","","","","","","","","","","","","","",""
"","","","","","image-keyboard-response","149","1179471","0.0-3.0-3.0-0.4","5dc807ff27a267592c6129f5","B2","batch2","pattern_practice","1222.9000000953674","stim/prac_yes_20_dia_b1.png","f","","f","true","","","","","","","","","","","","","","","","","","","","","","",""
"","","","","","html-keyboard-response","150","1180495","0.0-3.0-3.0-1.4","5dc807ff27a267592c6129f5","B2","batch2","pattern_feedback","null","<p style=""font-size:30px;color:green;"">Correct!</p>","null","","","","","","","","","","","","","","","","","","","","","","","","","",""
"","","","","","html-button-response","151","1184699","0.0-3.0-4.0","5dc807ff27a267592c6129f5","B2","batch2","pattern_enter_official_trials","4202.599999904633","<p class=block-text> Good job! You are done with practice trials!<br>
        You responded correctly on 100% of the trials.<br>
        Press the button below to start official trials. Now you won't see any feedback about your response</p>","0","","","","","","","","","","","","","","","","","","","","","","","","","",""
"","","","","","html-keyboard-response","152","1185502","0.0-3.0-5.0-0.0","5dc807ff27a267592c6129f5","B2","batch2","pattern_show_trial_num","null","<p class=block-text>Trial 1 out of 78</p>","null","","","","","","","","","","","","","","","","","","","","","","","","","",""
"","","","","","image-keyboard-response","153","1187298","0.0-3.0-5.0-1.0","5dc807ff27a267592c6129f5","B2","batch2","pattern_response","1794.2999997138977","stim/yes_44_ver_w1_w.png","f","pattern_66","f","true","","","","1794.2999997138977","true","1","","","","","","","","","","","","","","","","",""
"","","","","","html-keyboard-response","154","1188607","0.0-3.0-5.0-0.1","5dc807ff27a267592c6129f5","B2","batch2","pattern_show_trial_num","null","<p class=block-text>Trial 2 out of 78</p>","null","","","","","","","","","","","","","","","","","","","","","","","","","",""
"","","","","","image-keyboard-response","155","1190493","0.0-3.0-5.0-1.1","5dc807ff27a267592c6129f5","B2","batch2","pattern_response","1884.4000000953674","stim/no_25_1_b.png","j","pattern_09","j","true","","","","1884.4000000953674","true","2","","","","","","","","","","","","","","","","",""
"","","","","","html-keyboard-response","156","1191812","0.0-3.0-5.0-0.2","5dc807ff27a267592c6129f5","B2","batch2","pattern_show_trial_num","null","<p class=block-text>Trial 3 out of 78</p>","null","","","","","","","","","","","","","","","","","","","","","","","","","",""
"","","","","","image-keyboard-response","157","1192523","0.0-3.0-5.0-1.2","5dc807ff27a267592c6129f5","B2","batch2","pattern_response","709.1999998092651","stim/yes_29_hor_b1_b.png","f","pattern_52","f","true","","","","709.1999998092651","true","3","","","","","","","","","","","","","","","","",""
"","","","","","html-keyboard-response","158","1193827","0.0-3.0-5.0-0.3","5dc807ff27a267592c6129f5","B2","batch2","pattern_show_trial_num","null","<p class=block-text>Trial 4 out of 78</p>","null","","","","","","","","","","","","","","","","","","","","","","","","","",""
"","","","","","image-keyboard-response","159","1195785","0.0-3.0-5.0-1.3","5dc807ff27a267592c6129f5","B2","batch2","pattern_response","1956.4000000953674","stim/no_18_1_b.png","j","pattern_05","j","true","","","","1956.4000000953674","true","4","","","","","","","","","","","","","","","","",""
"","","","","","html-keyboard-response","160","1197096","0.0-3.0-5.0-0.4","5dc807ff27a267592c6129f5","B2","batch2","pattern_show_trial_num","null","<p class=block-text>Trial 5 out of 78</p>","null","","","","","","","","","","","","","","","","","","","","","","","","","",""
"","","","","","image-keyboard-response","161","1202830","0.0-3.0-5.0-1.4","5dc807ff27a267592c6129f5","B2","batch2","pattern_response","5733.199999809265","stim/no_51_1.png","j","pattern_31","j","true","","","","5733.199999809265","true","5","","","","","","","","","","","","","","","","",""
"","","","","","html-keyboard-response","162","1204148","0.0-3.0-5.0-0.5","5dc807ff27a267592c6129f5","B2","batch2","pattern_show_trial_num","null","<p class=block-text>Trial 6 out of 78</p>","null","","","","","","","","","","","","","","","","","","","","","","","","","",""
"","","","","","image-keyboard-response","163","1212889","0.0-3.0-5.0-1.5","5dc807ff27a267592c6129f5","B2","batch2","pattern_response","8739.400000095367","stim/yes_58_dia_w1_w.png","j","pattern_76","f","false","","","","8739.400000095367","false","5","","","","","","","","","","","","","","","","",""
"","","","","","html-keyboard-response","164","1214203","0.0-3.0-5.0-0.6","5dc807ff27a267592c6129f5","B2","batch2","pattern_show_trial_num","null","<p class=block-text>Trial 7 out of 78</p>","null","","","","","","","","","","","","","","","","","","","","","","","","","",""
"","","","","","image-keyboard-response","165","1218130","0.0-3.0-5.0-1.6","5dc807ff27a267592c6129f5","B2","batch2","pattern_response","3924.800000190735","stim/no_43_2_b.png","j","pattern_23","j","true","","","","3924.800000190735","true","6","","","","","","","","","","","","","","","","",""
"","","","","","html-keyboard-response","166","1219436","0.0-3.0-5.0-0.7","5dc807ff27a267592c6129f5","B2","batch2","pattern_show_trial_num","null","<p class=block-text>Trial 8 out of 78</p>","null","","","","","","","","","","","","","","","","","","","","","","","","","",""
"","","","","","image-keyboard-response","167","1225366","0.0-3.0-5.0-1.7","5dc807ff27a267592c6129f5","B2","batch2","pattern_response","5927.300000190735","stim/yes_63_dia_b1.png","f","pattern_78","f","true","","","","5927.300000190735","true","7","","","","","","","","","","","","","","","","",""
"","","","","","html-keyboard-response","168","1226684","0.0-3.0-5.0-0.8","5dc807ff27a267592c6129f5","B2","batch2","pattern_show_trial_num","null","<p class=block-text>Trial 9 out of 78</p>","null","","","","","","","","","","","","","","","","","","","","","","","","","",""
"","","","","","image-keyboard-response","169","1229989","0.0-3.0-5.0-1.8","5dc807ff27a267592c6129f5","B2","batch2","pattern_response","3302.5","stim/yes_42_dia_w1_w.png","f","pattern_64","f","true","","","","3302.5","true","8","","","","","","","","","","","","","","","","",""
"","","","","","html-keyboard-response","170","1231314","0.0-3.0-5.0-0.9","5dc807ff27a267592c6129f5","B2","batch2","pattern_show_trial_num","null","<p class=block-text>Trial 10 out of 78</p>","null","","","","","","","","","","","","","","","","","","","","","","","","","",""
"","","","","","image-keyboard-response","171","1232614","0.0-3.0-5.0-1.9","5dc807ff27a267592c6129f5","B2","batch2","pattern_response","1298.2999997138977","stim/yes_46_ver_b1_b.png","f","pattern_68","f","true","","","","1298.2999997138977","true","9","","","","","","","","","","","","","","","","",""
"","","","","","html-keyboard-response","172","1233925","0.0-3.0-5.0-0.10","5dc807ff27a267592c6129f5","B2","batch2","pattern_show_trial_num","null","<p class=block-text>Trial 11 out of 78</p>","null","","","","","","","","","","","","","","","","","","","","","","","","","",""
"","","","","","image-keyboard-response","173","1234691","0.0-3.0-5.0-1.10","5dc807ff27a267592c6129f5","B2","batch2","pattern_response","763.5999999046326","stim/yes_15_dia_b1u_b.png","f","pattern_44","f","true","","","","763.5999999046326","true","10","","","","","","","","","","","","","","","","",""
"","","","","","html-keyboard-response","174","1236006","0.0-3.0-5.0-0.11","5dc807ff27a267592c6129f5","B2","batch2","pattern_show_trial_num","null","<p class=block-text>Trial 12 out of 78</p>","null","","","","","","","","","","","","","","","","","","","","","","","","","",""
"","","","","","image-keyboard-response","175","1237720","0.0-3.0-5.0-1.11","5dc807ff27a267592c6129f5","B2","batch2","pattern_response","1712.5999999046326","stim/no_22_1_b.png","j","pattern_07","j","true","","","","1712.5999999046326","true","11","","","","","","","","","","","","","","","","",""
"","","","","","html-keyboard-response","176","1239038","0.0-3.0-5.0-0.12","5dc807ff27a267592c6129f5","B2","batch2","pattern_show_trial_num","null","<p class=block-text>Trial 13 out of 78</p>","null","","","","","","","","","","","","","","","","","","","","","","","","","",""
"","","","","","image-keyboard-response","177","1241017","0.0-3.0-5.0-1.12","5dc807ff27a267592c6129f5","B2","batch2","pattern_response","1976.5999999046326","stim/no_30_1_b.png","j","pattern_13","j","true","","","","1976.5999999046326","true","12","","","","","","","","","","","","","","","","",""
"","","","","","html-keyboard-response","178","1242340","0.0-3.0-5.0-0.13","5dc807ff27a267592c6129f5","B2","batch2","pattern_show_trial_num","null","<p class=block-text>Trial 14 out of 78</p>","null","","","","","","","","","","","","","","","","","","","","","","","","","",""
"","","","","","image-keyboard-response","179","1246026","0.0-3.0-5.0-1.13","5dc807ff27a267592c6129f5","B2","batch2","pattern_response","3683.7999997138977","stim/no_33_1_b.png","j","pattern_15","j","true","","","","3683.7999997138977","true","13","","","","","","","","","","","","","","","","",""
"","","","","","html-keyboard-response","180","1247350","0.0-3.0-5.0-0.14","5dc807ff27a267592c6129f5","B2","batch2","pattern_show_trial_num","null","<p class=block-text>Trial 15 out of 78</p>","null","","","","","","","","","","","","","","","","","","","","","","","","","",""
"","","","","","image-keyboard-response","181","1250483","0.0-3.0-5.0-1.14","5dc807ff27a267592c6129f5","B2","batch2","pattern_response","3131.7000002861023","stim/no_49_2_b.png","j","pattern_29","j","true","","","","3131.7000002861023","true","14","","","","","","","","","","","","","","","","",""
"","","","","","html-keyboard-response","182","1251814","0.0-3.0-5.0-0.15","5dc807ff27a267592c6129f5","B2","batch2","pattern_show_trial_num","null","<p class=block-text>Trial 16 out of 78</p>","null","","","","","","","","","","","","","","","","","","","","","","","","","",""
"","","","","","image-keyboard-response","183","1252991","0.0-3.0-5.0-1.15","5dc807ff27a267592c6129f5","B2","batch2","pattern_response","1175.3999996185303","stim/yes_33_dia_w1_w.png","f","pattern_56","f","true","","","","1175.3999996185303","true","15","","","","","","","","","","","","","","","","",""
"","","","","","html-keyboard-response","184","1254302","0.0-3.0-5.0-0.16","5dc807ff27a267592c6129f5","B2","batch2","pattern_show_trial_num","null","<p class=block-text>Trial 17 out of 78</p>","null","","","","","","","","","","","","","","","","","","","","","","","","","",""
"","","","","","image-keyboard-response","185","1259808","0.0-3.0-5.0-1.16","5dc807ff27a267592c6129f5","B2","batch2","pattern_response","5504.199999809265","stim/no_58_1_w.png","j","pattern_35","j","true","","","","5504.199999809265","true","16","","","","","","","","","","","","","","","","",""
"","","","","","html-keyboard-response","186","1261132","0.0-3.0-5.0-0.17","5dc807ff27a267592c6129f5","B2","batch2","pattern_show_trial_num","null","<p class=block-text>Trial 18 out of 78</p>","null","","","","","","","","","","","","","","","","","","","","","","","","","",""
"","","","","","image-keyboard-response","187","1265063","0.0-3.0-5.0-1.17","5dc807ff27a267592c6129f5","B2","batch2","pattern_response","3929.1000003814697","stim/no_39_1_w.png","j","pattern_21","j","true","","","","3929.1000003814697","true","17","","","","","","","","","","","","","","","","",""
"","","","","","html-keyboard-response","188","1266372","0.0-3.0-5.0-0.18","5dc807ff27a267592c6129f5","B2","batch2","pattern_show_trial_num","null","<p class=block-text>Trial 19 out of 78</p>","null","","","","","","","","","","","","","","","","","","","","","","","","","",""
"","","","","","image-keyboard-response","189","1268359","0.0-3.0-5.0-1.18","5dc807ff27a267592c6129f5","B2","batch2","pattern_response","1985.3999996185303","stim/yes_53_ver_b1_b.png","f","pattern_74","f","true","","","","1985.3999996185303","true","18","","","","","","","","","","","","","","","","",""
"","","","","","html-keyboard-response","190","1269667","0.0-3.0-5.0-0.19","5dc807ff27a267592c6129f5","B2","batch2","pattern_show_trial_num","null","<p class=block-text>Trial 20 out of 78</p>","null","","","","","","","","","","","","","","","","","","","","","","","","","",""
"","","","","","image-keyboard-response","191","1270529","0.0-3.0-5.0-1.19","5dc807ff27a267592c6129f5","B2","batch2","pattern_response","859.9000000953674","stim/no_12_1.png","j","pattern_01","j","true","","","","859.9000000953674","true","19","","","","","","","","","","","","","","","","",""
"","","","","","html-keyboard-response","192","1271840","0.0-3.0-5.0-0.20","5dc807ff27a267592c6129f5","B2","batch2","pattern_show_trial_num","null","<p class=block-text>Trial 21 out of 78</p>","null","","","","","","","","","","","","","","","","","","","","","","","","","",""
"","","","","","image-keyboard-response","193","1272926","0.0-3.0-5.0-1.20","5dc807ff27a267592c6129f5","B2","batch2","pattern_response","1085.3000001907349","stim/yes_36_ver_w1_w.png","f","pattern_58","f","true","","","","1085.3000001907349","true","20","","","","","","","","","","","","","","","","",""
"","","","","","html-keyboard-response","194","1274247","0.0-3.0-5.0-0.21","5dc807ff27a267592c6129f5","B2","batch2","pattern_show_trial_num","null","<p class=block-text>Trial 22 out of 78</p>","null","","","","","","","","","","","","","","","","","","","","","","","","","",""
"","","","","","image-keyboard-response","195","1275321","0.0-3.0-5.0-1.21","5dc807ff27a267592c6129f5","B2","batch2","pattern_response","1073","stim/no_15_1_w.png","j","pattern_03","j","true","","","","1073","true","21","","","","","","","","","","","","","","","","",""
"","","","","","html-keyboard-response","196","1276649","0.0-3.0-5.0-0.22","5dc807ff27a267592c6129f5","B2","batch2","pattern_show_trial_num","null","<p class=block-text>Trial 23 out of 78</p>","null","","","","","","","","","","","","","","","","","","","","","","","","","",""
"","","","","","image-keyboard-response","197","1277371","0.0-3.0-5.0-1.22","5dc807ff27a267592c6129f5","B2","batch2","pattern_response","720.1999998092651","stim/yes_39_hor_w1_w.png","f","pattern_62","f","true","","","","720.1999998092651","true","22","","","","","","","","","","","","","","","","",""
"","","","","","html-keyboard-response","198","1278675","0.0-3.0-5.0-0.23","5dc807ff27a267592c6129f5","B2","batch2","pattern_show_trial_num","null","<p class=block-text>Trial 24 out of 78</p>","null","","","","","","","","","","","","","","","","","","","","","","","","","",""
"","","","","","image-keyboard-response","199","1281529","0.0-3.0-5.0-1.23","5dc807ff27a267592c6129f5","B2","batch2","pattern_response","2852.7999997138977","stim/no_36_1_b.png","j","pattern_17","j","true","","","","2852.7999997138977","true","23","","","","","","","","","","","","","","","","",""
"","","","","","html-keyboard-response","200","1282856","0.0-3.0-5.0-0.24","5dc807ff27a267592c6129f5","B2","batch2","pattern_show_trial_num","null","<p class=block-text>Trial 25 out of 78</p>","null","","","","","","","","","","","","","","","","","","","","","","","","","",""
"","","","","","image-keyboard-response","201","1287896","0.0-3.0-5.0-1.24","5dc807ff27a267592c6129f5","B2","batch2","pattern_response","5038.099999904633","stim/no_53_1_b.png","j","pattern_33","j","true","","","","5038.099999904633","true","24","","","","","","","","","","","","","","","","",""
"","","","","","html-keyboard-response","202","1289204","0.0-3.0-5.0-0.25","5dc807ff27a267592c6129f5","B2","batch2","pattern_show_trial_num","null","<p class=block-text>Trial 26 out of 78</p>","null","","","","","","","","","","","","","","","","","","","","","","","","","",""
"","","","","","image-keyboard-response","203","1296050","0.0-3.0-5.0-1.25","5dc807ff27a267592c6129f5","B2","batch2","pattern_response","6843.599999904633","stim/no_67_1.png","j","pattern_39","j","true","","","","6843.599999904633","true","25","","","","","","","","","","","","","","","","",""
"","","","","","html-keyboard-response","204","1297371","0.0-3.0-5.0-0.26","5dc807ff27a267592c6129f5","B2","batch2","pattern_show_trial_num","null","<p class=block-text>Trial 27 out of 78</p>","null","","","","","","","","","","","","","","","","","","","","","","","","","",""
"","","","","","image-keyboard-response","205","1299698","0.0-3.0-5.0-1.26","5dc807ff27a267592c6129f5","B2","batch2","pattern_response","2325.199999809265","stim/yes_70_ver_b1.png","f","pattern_80","f","true","","","","2325.199999809265","true","26","","","","","","","","","","","","","","","","",""
"","","","","","html-keyboard-response","206","1301011","0.0-3.0-5.0-0.27","5dc807ff27a267592c6129f5","B2","batch2","pattern_show_trial_num","null","<p class=block-text>Trial 28 out of 78</p>","null","","","","","","","","","","","","","","","","","","","","","","","","","",""
"","","","","","image-keyboard-response","207","1302328","0.0-3.0-5.0-1.27","5dc807ff27a267592c6129f5","B2","batch2","pattern_response","1314.9000000953674","stim/yes_23_ver_b1.png","f","pattern_48","f","true","","","","1314.9000000953674","true","27","","","","","","","","","","","","","","","","",""
"","","","","","html-keyboard-response","208","1303643","0.0-3.0-5.0-0.28","5dc807ff27a267592c6129f5","B2","batch2","pattern_show_trial_num","null","<p class=block-text>Trial 29 out of 78</p>","null","","","","","","","","","","","","","","","","","","","","","","","","","",""
"","","","","","image-keyboard-response","209","1304446","0.0-3.0-5.0-1.28","5dc807ff27a267592c6129f5","B2","batch2","pattern_response","801.8000001907349","stim/yes_26_dia_w2_w.png","f","pattern_50","f","true","","","","801.8000001907349","true","28","","","","","","","","","","","","","","","","",""
"","","","","","html-keyboard-response","210","1305759","0.0-3.0-5.0-0.29","5dc807ff27a267592c6129f5","B2","batch2","pattern_show_trial_num","null","<p class=block-text>Trial 30 out of 78</p>","null","","","","","","","","","","","","","","","","","","","","","","","","","",""
"","","","","","image-keyboard-response","211","1306889","0.0-3.0-5.0-1.29","5dc807ff27a267592c6129f5","B2","batch2","pattern_response","1128.6999998092651","stim/yes_30_ver_b1_b.png","f","pattern_54","f","true","","","","1128.6999998092651","true","29","","","","","","","","","","","","","","","","",""
"","","","","","html-keyboard-response","212","1308209","0.0-3.0-5.0-0.30","5dc807ff27a267592c6129f5","B2","batch2","pattern_show_trial_num","null","<p class=block-text>Trial 31 out of 78</p>","null","","","","","","","","","","","","","","","","","","","","","","","","","",""
"","","","","","image-keyboard-response","213","1309026","0.0-3.0-5.0-1.30","5dc807ff27a267592c6129f5","B2","batch2","pattern_response","815.4000000953674","stim/yes_51_dia_b1.png","f","pattern_72","f","true","","","","815.4000000953674","true","30","","","","","","","","","","","","","","","","",""
"","","","","","html-keyboard-response","214","1310336","0.0-3.0-5.0-0.31","5dc807ff27a267592c6129f5","B2","batch2","pattern_show_trial_num","null","<p class=block-text>Trial 32 out of 78</p>","null","","","","","","","","","","","","","","","","","","","","","","","","","",""
"","","","","","image-keyboard-response","215","1313392","0.0-3.0-5.0-1.31","5dc807ff27a267592c6129f5","B2","batch2","pattern_response","3054.5","stim/no_47_1_b.png","j","pattern_27","j","true","","","","3054.5","true","31","","","","","","","","","","","","","","","","",""
"","","","","","html-keyboard-response","216","1314697","0.0-3.0-5.0-0.32","5dc807ff27a267592c6129f5","B2","batch2","pattern_show_trial_num","null","<p class=block-text>Trial 33 out of 78</p>","null","","","","","","","","","","","","","","","","","","","","","","","","","",""
"","","","","","image-keyboard-response","217","1315704","0.0-3.0-5.0-1.32","5dc807ff27a267592c6129f5","B2","batch2","pattern_response","1005.3000001907349","stim/yes_37_hor_w1_w.png","f","pattern_60","f","true","","","","1005.3000001907349","true","32","","","","","","","","","","","","","","","","",""
"","","","","","html-keyboard-response","218","1317013","0.0-3.0-5.0-0.33","5dc807ff27a267592c6129f5","B2","batch2","pattern_show_trial_num","null","<p class=block-text>Trial 34 out of 78</p>","null","","","","","","","","","","","","","","","","","","","","","","","","","",""
"","","","","","image-keyboard-response","219","1318760","0.0-3.0-5.0-1.33","5dc807ff27a267592c6129f5","B2","batch2","pattern_response","1745.4000000953674","stim/no_28_2.png","j","pattern_11","j","true","","","","1745.4000000953674","true","33","","","","","","","","","","","","","","","","",""
"","","","","","html-keyboard-response","220","1320073","0.0-3.0-5.0-0.34","5dc807ff27a267592c6129f5","B2","batch2","pattern_show_trial_num","null","<p class=block-text>Trial 35 out of 78</p>","null","","","","","","","","","","","","","","","","","","","","","","","","","",""
"","","","","","image-keyboard-response","221","1322302","0.0-3.0-5.0-1.34","5dc807ff27a267592c6129f5","B2","batch2","pattern_response","2228","stim/no_37_2_w.png","j","pattern_19","j","true","","","","2228","true","34","","","","","","","","","","","","","","","","",""
"","","","","","html-keyboard-response","222","1323621","0.0-3.0-5.0-0.35","5dc807ff27a267592c6129f5","B2","batch2","pattern_show_trial_num","null","<p class=block-text>Trial 36 out of 78</p>","null","","","","","","","","","","","","","","","","","","","","","","","","","",""
"","","","","","image-keyboard-response","223","1327019","0.0-3.0-5.0-1.35","5dc807ff27a267592c6129f5","B2","batch2","pattern_response","3396.8999996185303","stim/no_45_1_w.png","j","pattern_25","j","true","","","","3396.8999996185303","true","35","","","","","","","","","","","","","","","","",""
"","","","","","html-keyboard-response","224","1328353","0.0-3.0-5.0-0.36","5dc807ff27a267592c6129f5","B2","batch2","pattern_show_trial_num","null","<p class=block-text>Trial 37 out of 78</p>","null","","","","","","","","","","","","","","","","","","","","","","","","","",""
"","","","","","image-keyboard-response","225","1329206","0.0-3.0-5.0-1.36","5dc807ff27a267592c6129f5","B2","batch2","pattern_response","851.8000001907349","stim/yes_12_hor_w1_w.png","f","pattern_42","f","true","","","","851.8000001907349","true","36","","","","","","","","","","","","","","","","",""
"","","","","","html-keyboard-response","226","1330519","0.0-3.0-5.0-0.37","5dc807ff27a267592c6129f5","B2","batch2","pattern_show_trial_num","null","<p class=block-text>Trial 38 out of 78</p>","null","","","","","","","","","","","","","","","","","","","","","","","","","",""
"","","","","","image-keyboard-response","227","1331167","0.0-3.0-5.0-1.37","5dc807ff27a267592c6129f5","B2","batch2","pattern_response","647.3000001907349","stim/yes_17_ver_b1_b.png","f","pattern_46","f","true","","","","647.3000001907349","true","37","","","","","","","","","","","","","","","","",""
"","","","","","html-keyboard-response","228","1332475","0.0-3.0-5.0-0.38","5dc807ff27a267592c6129f5","B2","batch2","pattern_show_trial_num","null","<p class=block-text>Trial 39 out of 78</p>","null","","","","","","","","","","","","","","","","","","","","","","","","","",""
"","","","","","image-keyboard-response","229","1333279","0.0-3.0-5.0-1.38","5dc807ff27a267592c6129f5","B2","batch2","pattern_response","802.7000002861023","stim/yes_49_hor_w1_b.png","f","pattern_70","f","true","","","","802.7000002861023","true","38","","","","","","","","","","","","","","","","",""
"","","","","","image-keyboard-response","230","1334876","0.0-3.0-6.0","5dc807ff27a267592c6129f5","B2","batch2","attention_check","1093.8000001907349","stim/empty_board.png","j","","j","true","","","","","","","500","[""f"",""j""]","","","","","","","","","","","","","","",""
"","","","","","html-keyboard-response","231","1335683","0.0-3.0-7.0-0.0","5dc807ff27a267592c6129f5","B2","batch2","pattern_show_trial_num","null","<p class=block-text>Trial 40 out of 78</p>","null","","","","","","","","","","","","","","","","","","","","","","","","","",""
"","","","","","image-keyboard-response","232","1338078","0.0-3.0-7.0-1.0","5dc807ff27a267592c6129f5","B2","batch2","pattern_response","2392.9000000953674","stim/yes_52_ver_w1.png","f","pattern_73","f","true","","","","2392.9000000953674","true","39","","","","","","","","","","","","","","","","",""
"","","","","","html-keyboard-response","233","1339396","0.0-3.0-7.0-0.1","5dc807ff27a267592c6129f5","B2","batch2","pattern_show_trial_num","null","<p class=block-text>Trial 41 out of 78</p>","null","","","","","","","","","","","","","","","","","","","","","","","","","",""
"","","","","","image-keyboard-response","234","1341278","0.0-3.0-7.0-1.1","5dc807ff27a267592c6129f5","B2","batch2","pattern_response","1879.3999996185303","stim/no_20_1_w.png","j","pattern_06","j","true","","","","1879.3999996185303","true","40","","","","","","","","","","","","","","","","",""
"","","","","","html-keyboard-response","235","1342600","0.0-3.0-7.0-0.2","5dc807ff27a267592c6129f5","B2","batch2","pattern_show_trial_num","null","<p class=block-text>Trial 42 out of 78</p>","null","","","","","","","","","","","","","","","","","","","","","","","","","",""
"","","","","","image-keyboard-response","236","1345216","0.0-3.0-7.0-1.2","5dc807ff27a267592c6129f5","B2","batch2","pattern_response","2614.199999809265","stim/no_50_1.png","j","pattern_30","j","true","","","","2614.199999809265","true","41","","","","","","","","","","","","","","","","",""
"","","","","","html-keyboard-response","237","1346535","0.0-3.0-7.0-0.3","5dc807ff27a267592c6129f5","B2","batch2","pattern_show_trial_num","null","<p class=block-text>Trial 43 out of 78</p>","null","","","","","","","","","","","","","","","","","","","","","","","","","",""
"","","","","","image-keyboard-response","238","1351887","0.0-3.0-7.0-1.3","5dc807ff27a267592c6129f5","B2","batch2","pattern_response","5344.200000286102","stim/no_62_1_w.png","j","pattern_36","j","true","","","","5344.200000286102","true","42","","","","","","","","","","","","","","","","",""
"","","","","","html-keyboard-response","239","1353225","0.0-3.0-7.0-0.4","5dc807ff27a267592c6129f5","B2","batch2","pattern_show_trial_num","null","<p class=block-text>Trial 44 out of 78</p>","null","","","","","","","","","","","","","","","","","","","","","","","","","",""
"","","","","","image-keyboard-response","240","1354666","0.0-3.0-7.0-1.4","5dc807ff27a267592c6129f5","B2","batch2","pattern_response","1438.7999997138977","stim/no_26_1_w.png","j","pattern_10","j","true","","","","1438.7999997138977","true","43","","","","","","","","","","","","","","","","",""
"","","","","","html-keyboard-response","241","1355990","0.0-3.0-7.0-0.5","5dc807ff27a267592c6129f5","B2","batch2","pattern_show_trial_num","null","<p class=block-text>Trial 45 out of 78</p>","null","","","","","","","","","","","","","","","","","","","","","","","","","",""
"","","","","","image-keyboard-response","242","1359417","0.0-3.0-7.0-1.5","5dc807ff27a267592c6129f5","B2","batch2","pattern_response","3424","stim/no_44_1.png","j","pattern_24","j","true","","","","3424","true","44","","","","","","","","","","","","","","","","",""
"","","","","","html-keyboard-response","243","1360739","0.0-3.0-7.0-0.6","5dc807ff27a267592c6129f5","B2","batch2","pattern_show_trial_num","null","<p class=block-text>Trial 46 out of 78</p>","null","","","","","","","","","","","","","","","","","","","","","","","","","",""
"","","","","","image-keyboard-response","244","1362711","0.0-3.0-7.0-1.6","5dc807ff27a267592c6129f5","B2","batch2","pattern_response","1969.4000000953674","stim/no_42_1_w.png","j","pattern_22","j","true","","","","1969.4000000953674","true","45","","","","","","","","","","","","","","","","",""
"","","","","","html-keyboard-response","245","1364016","0.0-3.0-7.0-0.7","5dc807ff27a267592c6129f5","B2","batch2","pattern_show_trial_num","null","<p class=block-text>Trial 47 out of 78</p>","null","","","","","","","","","","","","","","","","","","","","","","","","","",""
"","","","","","image-keyboard-response","246","1366009","0.0-3.0-7.0-1.7","5dc807ff27a267592c6129f5","B2","batch2","pattern_response","1991.7000002861023","stim/no_36_2_w.png","j","pattern_18","j","true","","","","1991.7000002861023","true","46","","","","","","","","","","","","","","","","",""
"","","","","","html-keyboard-response","247","1367339","0.0-3.0-7.0-0.8","5dc807ff27a267592c6129f5","B2","batch2","pattern_show_trial_num","null","<p class=block-text>Trial 48 out of 78</p>","null","","","","","","","","","","","","","","","","","","","","","","","","","",""
"","","","","","image-keyboard-response","248","1369837","0.0-3.0-7.0-1.8","5dc807ff27a267592c6129f5","B2","batch2","pattern_response","2495.5999999046326","stim/no_48_1_w.png","j","pattern_28","j","true","","","","2495.5999999046326","true","47","","","","","","","","","","","","","","","","",""
"","","","","","html-keyboard-response","249","1371164","0.0-3.0-7.0-0.9","5dc807ff27a267592c6129f5","B2","batch2","pattern_show_trial_num","null","<p class=block-text>Trial 49 out of 78</p>","null","","","","","","","","","","","","","","","","","","","","","","","","","",""
"","","","","","image-keyboard-response","250","1372064","0.0-3.0-7.0-1.9","5dc807ff27a267592c6129f5","B2","batch2","pattern_response","898.5","stim/yes_38_hor_b1_b.png","f","pattern_61","f","true","","","","898.5","true","48","","","","","","","","","","","","","","","","",""
"","","","","","html-keyboard-response","251","1373382","0.0-3.0-7.0-0.10","5dc807ff27a267592c6129f5","B2","batch2","pattern_show_trial_num","null","<p class=block-text>Trial 50 out of 78</p>","null","","","","","","","","","","","","","","","","","","","","","","","","","",""
"","","","","","image-keyboard-response","252","1374216","0.0-3.0-7.0-1.10","5dc807ff27a267592c6129f5","B2","batch2","pattern_response","832","stim/yes_17_dia_w1.png","f","pattern_45","f","true","","","","832","true","49","","","","","","","","","","","","","","","","",""
"","","","","","html-keyboard-response","253","1375530","0.0-3.0-7.0-0.11","5dc807ff27a267592c6129f5","B2","batch2","pattern_show_trial_num","null","<p class=block-text>Trial 51 out of 78</p>","null","","","","","","","","","","","","","","","","","","","","","","","","","",""
"","","","","","image-keyboard-response","254","1378011","0.0-3.0-7.0-1.11","5dc807ff27a267592c6129f5","B2","batch2","pattern_response","2478.9000000953674","stim/no_46_1_b.png","j","pattern_26","j","true","","","","2478.9000000953674","true","50","","","","","","","","","","","","","","","","",""
"","","","","","html-keyboard-response","255","1379333","0.0-3.0-7.0-0.12","5dc807ff27a267592c6129f5","B2","batch2","pattern_show_trial_num","null","<p class=block-text>Trial 52 out of 78</p>","null","","","","","","","","","","","","","","","","","","","","","","","","","",""
"","","","","","image-keyboard-response","256","1386105","0.0-3.0-7.0-1.12","5dc807ff27a267592c6129f5","B2","batch2","pattern_response","6770.300000190735","stim/no_70_2.png","j","pattern_40","j","true","","","","6770.300000190735","true","51","","","","","","","","","","","","","","","","",""
"","","","","","html-keyboard-response","257","1387419","0.0-3.0-7.0-0.13","5dc807ff27a267592c6129f5","B2","batch2","pattern_show_trial_num","null","<p class=block-text>Trial 53 out of 78</p>","null","","","","","","","","","","","","","","","","","","","","","","","","","",""
"","","","","","image-keyboard-response","258","1391971","0.0-3.0-7.0-1.13","5dc807ff27a267592c6129f5","B2","batch2","pattern_response","4550.10000038147","stim/no_55_1_w.png","j","pattern_34","j","true","","","","4550.10000038147","true","52","","","","","","","","","","","","","","","","",""
"","","","","","html-keyboard-response","259","1393274","0.0-3.0-7.0-0.14","5dc807ff27a267592c6129f5","B2","batch2","pattern_show_trial_num","null","<p class=block-text>Trial 54 out of 78</p>","null","","","","","","","","","","","","","","","","","","","","","","","","","",""
"","","","","","image-keyboard-response","260","1394316","0.0-3.0-7.0-1.14","5dc807ff27a267592c6129f5","B2","batch2","pattern_response","1040","stim/yes_35_dia_b1.png","f","pattern_57","f","true","","","","1040","true","53","","","","","","","","","","","","","","","","",""
"","","","","","html-keyboard-response","261","1395626","0.0-3.0-7.0-0.15","5dc807ff27a267592c6129f5","B2","batch2","pattern_show_trial_num","null","<p class=block-text>Trial 55 out of 78</p>","null","","","","","","","","","","","","","","","","","","","","","","","","","",""
"","","","","","image-keyboard-response","262","1399391","0.0-3.0-7.0-1.15","5dc807ff27a267592c6129f5","B2","batch2","pattern_response","3763.4000000953674","stim/no_38_1_b.png","j","pattern_20","j","true","","","","3763.4000000953674","true","54","","","","","","","","","","","","","","","","",""
"","","","","","html-keyboard-response","263","1400699","0.0-3.0-7.0-0.16","5dc807ff27a267592c6129f5","B2","batch2","pattern_show_trial_num","null","<p class=block-text>Trial 56 out of 78</p>","null","","","","","","","","","","","","","","","","","","","","","","","","","",""
"","","","","","image-keyboard-response","264","1403836","0.0-3.0-7.0-1.16","5dc807ff27a267592c6129f5","B2","batch2","pattern_response","3135.300000190735","stim/no_17_1_w.png","j","pattern_04","j","true","","","","3135.300000190735","true","55","","","","","","","","","","","","","","","","",""
"","","","","","html-keyboard-response","265","1405160","0.0-3.0-7.0-0.17","5dc807ff27a267592c6129f5","B2","batch2","pattern_show_trial_num","null","<p class=block-text>Trial 57 out of 78</p>","null","","","","","","","","","","","","","","","","","","","","","","","","","",""
"","","","","","image-keyboard-response","266","1408050","0.0-3.0-7.0-1.17","5dc807ff27a267592c6129f5","B2","batch2","pattern_response","2888.5999999046326","stim/no_32_1_w.png","j","pattern_14","j","true","","","","2888.5999999046326","true","56","","","","","","","","","","","","","","","","",""
"","","","","","html-keyboard-response","267","1409378","0.0-3.0-7.0-0.18","5dc807ff27a267592c6129f5","B2","batch2","pattern_show_trial_num","null","<p class=block-text>Trial 58 out of 78</p>","null","","","","","","","","","","","","","","","","","","","","","","","","","",""
"","","","","","image-keyboard-response","268","1410939","0.0-3.0-7.0-1.18","5dc807ff27a267592c6129f5","B2","batch2","pattern_response","1558.6999998092651","stim/yes_40_dia_b1_b.png","f","pattern_63","f","true","","","","1558.6999998092651","true","57","","","","","","","","","","","","","","","","",""
"","","","","","html-keyboard-response","269","1412270","0.0-3.0-7.0-0.19","5dc807ff27a267592c6129f5","B2","batch2","pattern_show_trial_num","null","<p class=block-text>Trial 59 out of 78</p>","null","","","","","","","","","","","","","","","","","","","","","","","","","",""
"","","","","","image-keyboard-response","270","1413626","0.0-3.0-7.0-1.19","5dc807ff27a267592c6129f5","B2","batch2","pattern_response","1353.3999996185303","stim/yes_60_ver_b1_b.png","f","pattern_77","f","true","","","","1353.3999996185303","true","58","","","","","","","","","","","","","","","","",""
"","","","","","html-keyboard-response","271","1414942","0.0-3.0-7.0-0.20","5dc807ff27a267592c6129f5","B2","batch2","pattern_show_trial_num","null","<p class=block-text>Trial 60 out of 78</p>","null","","","","","","","","","","","","","","","","","","","","","","","","","",""
"","","","","","image-keyboard-response","272","1420613","0.0-3.0-7.0-1.20","5dc807ff27a267592c6129f5","B2","batch2","pattern_response","5670.199999809265","stim/yes_67_hor_b1.png","j","pattern_79","f","false","","","","5670.199999809265","false","58","","","","","","","","","","","","","","","","",""
"","","","","","html-keyboard-response","273","1421947","0.0-3.0-7.0-0.21","5dc807ff27a267592c6129f5","B2","batch2","pattern_show_trial_num","null","<p class=block-text>Trial 61 out of 78</p>","null","","","","","","","","","","","","","","","","","","","","","","","","","",""
"","","","","","image-keyboard-response","274","1426531","0.0-3.0-7.0-1.21","5dc807ff27a267592c6129f5","B2","batch2","pattern_response","4581.599999904633","stim/no_52_1.png","j","pattern_32","j","true","","","","4581.599999904633","true","59","","","","","","","","","","","","","","","","",""
"","","","","","html-keyboard-response","275","1427844","0.0-3.0-7.0-0.22","5dc807ff27a267592c6129f5","B2","batch2","pattern_show_trial_num","null","<p class=block-text>Trial 62 out of 78</p>","null","","","","","","","","","","","","","","","","","","","","","","","","","",""
"","","","","","image-keyboard-response","276","1428739","0.0-3.0-7.0-1.22","5dc807ff27a267592c6129f5","B2","batch2","pattern_response","892.3000001907349","stim/yes_28_ver_b1.png","f","pattern_51","f","true","","","","892.3000001907349","true","60","","","","","","","","","","","","","","","","",""
"","","","","","html-keyboard-response","277","1430054","0.0-3.0-7.0-0.23","5dc807ff27a267592c6129f5","B2","batch2","pattern_show_trial_num","null","<p class=block-text>Trial 63 out of 78</p>","null","","","","","","","","","","","","","","","","","","","","","","","","","",""
"","","","","","image-keyboard-response","278","1430945","0.0-3.0-7.0-1.23","5dc807ff27a267592c6129f5","B2","batch2","pattern_response","889.4000000953674","stim/yes_29_ver_w1.png","f","pattern_53","f","true","","","","889.4000000953674","true","61","","","","","","","","","","","","","","","","",""
"","","","","","html-keyboard-response","279","1432268","0.0-3.0-7.0-0.24","5dc807ff27a267592c6129f5","B2","batch2","pattern_show_trial_num","null","<p class=block-text>Trial 64 out of 78</p>","null","","","","","","","","","","","","","","","","","","","","","","","","","",""
"","","","","","image-keyboard-response","280","1433818","0.0-3.0-7.0-1.24","5dc807ff27a267592c6129f5","B2","batch2","pattern_response","1548.6999998092651","stim/no_23_1.png","j","pattern_08","j","true","","","","1548.6999998092651","true","62","","","","","","","","","","","","","","","","",""
"","","","","","html-keyboard-response","281","1435134","0.0-3.0-7.0-0.25","5dc807ff27a267592c6129f5","B2","batch2","pattern_show_trial_num","null","<p class=block-text>Trial 65 out of 78</p>","null","","","","","","","","","","","","","","","","","","","","","","","","","",""
"","","","","","image-keyboard-response","282","1436096","0.0-3.0-7.0-1.25","5dc807ff27a267592c6129f5","B2","batch2","pattern_response","960.5","stim/no_13_2_b.png","j","pattern_02","j","true","","","","960.5","true","63","","","","","","","","","","","","","","","","",""
"","","","","","html-keyboard-response","283","1437419","0.0-3.0-7.0-0.26","5dc807ff27a267592c6129f5","B2","batch2","pattern_show_trial_num","null","<p class=block-text>Trial 66 out of 78</p>","null","","","","","","","","","","","","","","","","","","","","","","","","","",""
"","","","","","image-keyboard-response","284","1441213","0.0-3.0-7.0-1.26","5dc807ff27a267592c6129f5","B2","batch2","pattern_response","3792.0999999046326","stim/yes_37_dia_w1.png","f","pattern_59","f","true","","","","3792.0999999046326","true","64","","","","","","","","","","","","","","","","",""
"","","","","","html-keyboard-response","285","1442534","0.0-3.0-7.0-0.27","5dc807ff27a267592c6129f5","B2","batch2","pattern_show_trial_num","null","<p class=block-text>Trial 67 out of 78</p>","null","","","","","","","","","","","","","","","","","","","","","","","","","",""
"","","","","","image-keyboard-response","286","1443307","0.0-3.0-7.0-1.27","5dc807ff27a267592c6129f5","B2","batch2","pattern_response","770.5","stim/yes_14_hor_b1_w.png","f","pattern_43","f","true","","","","770.5","true","65","","","","","","","","","","","","","","","","",""
"","","","","","html-keyboard-response","287","1444640","0.0-3.0-7.0-0.28","5dc807ff27a267592c6129f5","B2","batch2","pattern_show_trial_num","null","<p class=block-text>Trial 68 out of 78</p>","null","","","","","","","","","","","","","","","","","","","","","","","","","",""
"","","","","","image-keyboard-response","288","1445513","0.0-3.0-7.0-1.28","5dc807ff27a267592c6129f5","B2","batch2","pattern_response","871.5","stim/yes_45_hor_b2_b.png","f","pattern_67","f","true","","","","871.5","true","66","","","","","","","","","","","","","","","","",""
"","","","","","html-keyboard-response","289","1446829","0.0-3.0-7.0-0.29","5dc807ff27a267592c6129f5","B2","batch2","pattern_show_trial_num","null","<p class=block-text>Trial 69 out of 78</p>","null","","","","","","","","","","","","","","","","","","","","","","","","","",""
"","","","","","image-keyboard-response","290","1451394","0.0-3.0-7.0-1.29","5dc807ff27a267592c6129f5","B2","batch2","pattern_response","4562.5","stim/yes_48_dia_w1_w.png","j","pattern_69","f","false","","","","4562.5","false","66","","","","","","","","","","","","","","","","",""
"","","","","","html-keyboard-response","291","1452713","0.0-3.0-7.0-0.30","5dc807ff27a267592c6129f5","B2","batch2","pattern_show_trial_num","null","<p class=block-text>Trial 70 out of 78</p>","null","","","","","","","","","","","","","","","","","","","","","","","","","",""
"","","","","","image-keyboard-response","292","1455324","0.0-3.0-7.0-1.30","5dc807ff27a267592c6129f5","B2","batch2","pattern_response","2608.4000000953674","stim/no_34_1_b.png","j","pattern_16","j","true","","","","2608.4000000953674","true","67","","","","","","","","","","","","","","","","",""
"","","","","","html-keyboard-response","293","1456634","0.0-3.0-7.0-0.31","5dc807ff27a267592c6129f5","B2","batch2","pattern_show_trial_num","null","<p class=block-text>Trial 71 out of 78</p>","null","","","","","","","","","","","","","","","","","","","","","","","","","",""
"","","","","","image-keyboard-response","294","1457352","0.0-3.0-7.0-1.31","5dc807ff27a267592c6129f5","B2","batch2","pattern_response","716.3000001907349","stim/yes_22_ver_w1.png","f","pattern_47","f","true","","","","716.3000001907349","true","68","","","","","","","","","","","","","","","","",""
"","","","","","html-keyboard-response","295","1458670","0.0-3.0-7.0-0.32","5dc807ff27a267592c6129f5","B2","batch2","pattern_show_trial_num","null","<p class=block-text>Trial 72 out of 78</p>","null","","","","","","","","","","","","","","","","","","","","","","","","","",""
"","","","","","image-keyboard-response","296","1464534","0.0-3.0-7.0-1.32","5dc807ff27a267592c6129f5","B2","batch2","pattern_response","5862.599999904633","stim/yes_50_dia_w1.png","j","pattern_71","f","false","","","","5862.599999904633","false","68","","","","","","","","","","","","","","","","",""
"","","","","","html-keyboard-response","297","1465854","0.0-3.0-7.0-0.33","5dc807ff27a267592c6129f5","B2","batch2","pattern_show_trial_num","null","<p class=block-text>Trial 73 out of 78</p>","null","","","","","","","","","","","","","","","","","","","","","","","","","",""
"","","","","","image-keyboard-response","298","1467632","0.0-3.0-7.0-1.33","5dc807ff27a267592c6129f5","B2","batch2","pattern_response","1775.4000000953674","stim/no_29_1_b.png","j","pattern_12","j","true","","","","1775.4000000953674","true","69","","","","","","","","","","","","","","","","",""
"","","","","","html-keyboard-response","299","1468943","0.0-3.0-7.0-0.34","5dc807ff27a267592c6129f5","B2","batch2","pattern_show_trial_num","null","<p class=block-text>Trial 74 out of 78</p>","null","","","","","","","","","","","","","","","","","","","","","","","","","",""
"","","","","","image-keyboard-response","300","1470259","0.0-3.0-7.0-1.34","5dc807ff27a267592c6129f5","B2","batch2","pattern_response","1313.8000001907349","stim/yes_43_ver_w1_w.png","f","pattern_65","f","true","","","","1313.8000001907349","true","70","","","","","","","","","","","","","","","","",""
"","","","","","html-keyboard-response","301","1471566","0.0-3.0-7.0-0.35","5dc807ff27a267592c6129f5","B2","batch2","pattern_show_trial_num","null","<p class=block-text>Trial 75 out of 78</p>","null","","","","","","","","","","","","","","","","","","","","","","","","","",""
"","","","","","image-keyboard-response","302","1473246","0.0-3.0-7.0-1.35","5dc807ff27a267592c6129f5","B2","batch2","pattern_response","1678.1999998092651","stim/yes_31_hor_b1.png","f","pattern_55","f","true","","","","1678.1999998092651","true","71","","","","","","","","","","","","","","","","",""
"","","","","","html-keyboard-response","303","1474565","0.0-3.0-7.0-0.36","5dc807ff27a267592c6129f5","B2","batch2","pattern_show_trial_num","null","<p class=block-text>Trial 76 out of 78</p>","null","","","","","","","","","","","","","","","","","","","","","","","","","",""
"","","","","","image-keyboard-response","304","1481532","0.0-3.0-7.0-1.36","5dc807ff27a267592c6129f5","B2","batch2","pattern_response","6965.5","stim/no_65_1_b.png","j","pattern_38","j","true","","","","6965.5","true","72","","","","","","","","","","","","","","","","",""
"","","","","","html-keyboard-response","305","1482855","0.0-3.0-7.0-0.37","5dc807ff27a267592c6129f5","B2","batch2","pattern_show_trial_num","null","<p class=block-text>Trial 77 out of 78</p>","null","","","","","","","","","","","","","","","","","","","","","","","","","",""
"","","","","","image-keyboard-response","306","1484782","0.0-3.0-7.0-1.37","5dc807ff27a267592c6129f5","B2","batch2","pattern_response","1925.2999997138977","stim/yes_55_hor_w1_w.png","f","pattern_75","f","true","","","","1925.2999997138977","true","73","","","","","","","","","","","","","","","","",""
"","","","","","html-keyboard-response","307","1486103","0.0-3.0-7.0-0.38","5dc807ff27a267592c6129f5","B2","batch2","pattern_show_trial_num","null","<p class=block-text>Trial 78 out of 78</p>","null","","","","","","","","","","","","","","","","","","","","","","","","","",""
"","","","","","image-keyboard-response","308","1486814","0.0-3.0-7.0-1.38","5dc807ff27a267592c6129f5","B2","batch2","pattern_response","709.0999999046326","stim/yes_25_hor_b1_b.png","f","pattern_49","f","true","","","","709.0999999046326","true","74","","","","","","","","","","","","","","","","",""
"","","","","","html-button-response","309","1491592","0.0-3.0-8.0","5dc807ff27a267592c6129f5","B2","batch2","","4259.800000190735","<p class = block-text>This concludes the 4-in-a-row detection game.Thank you for your responses!<br>
            You responded correctly on 95% of the trials.<br>
            When you are ready, press ""Continue"" button to continue </p>","0","","","","","","","","","","","","","","","","","","","","","","","","","",""
"true","","","","","fullscreen","310","1494337","0.0-4.0-0.0","5dc807ff27a267592c6129f5","B2","batch2","","","","","","","","","","","","","","","","","","","","","","","","","","","","","",""
"","","","","","instructions","311","1581389","0.0-4.0-1.0-0.0-0.0","5dc807ff27a267592c6129f5","B2","batch2","tol-instructions","87051.90000009537","","","","","","","","[{""page_index"":0,""viewing_time"":12153},{""page_index"":1,""viewing_time"":7277},{""page_index"":2,""viewing_time"":4000.6000003814697},{""page_index"":3,""viewing_time"":11249.299999713898},{""page_index"":4,""viewing_time"":27944.599999904633},{""page_index"":5,""viewing_time"":20273.700000286102},{""page_index"":6,""viewing_time"":4153.5}]","","","","","","","","","","","","","","","","","","","",""
"","","","","","html-button-response","312","1582734","0.0-4.0-1.0-1.0-0.0","5dc807ff27a267592c6129f5","B2","batch2","tol_enter_quiz","1343.2999997138977","<p class=block-text> Let's answer a few questions <br>","0","","","","","","","","","","","","","","","","","","","","","","","","","",""
"","","","","","html-button-response","313","1586510","0.0-4.0-1.0-1.0-1.0","5dc807ff27a267592c6129f5","B2","batch2","tol_quiz","3775","<p class = block-text>True or False: You can only move the ball on top of a peg. <br></p>","0","","","true","","","","","","","","","","","","","","","","","","","","","","",""
"","","","","","html-button-response","314","1587734","0.0-4.0-1.0-1.0-2.0","5dc807ff27a267592c6129f5","B2","batch2","tol_quiz_feedback","1223.4000000953674","<p class = block-text>Correct! You can only move the ball on top of a peg.</p>","0","","","","","","","","","","","","","","","","","","","","","","","","","",""
"","","","","","html-button-response","315","1591083","0.0-4.0-1.0-1.0-3.0","5dc807ff27a267592c6129f5","B2","batch2","tol_quiz","3347.5","<p class = block-text>True or False: You should try to match your board with the target board with fewest moves possible. <br></p>","0","","","true","","","","","","","","","","","","","","","","","","","","","","",""
"","","","","","html-button-response","316","1592149","0.0-4.0-1.0-1.0-4.0","5dc807ff27a267592c6129f5","B2","batch2","tol_quiz_feedback","1065.4000000953674","<p class = block-text>Correct! </p>","0","","","","","","","","","","","","","","","","","","","","","","","","","",""
"","","","","","html-button-response","317","1593516","0.0-4.0-2.0","5dc807ff27a267592c6129f5","B2","batch2","","1365.4000000953674","<p class=block-text> Now that you've understood the game, let's practice a few easier examples before we start!<br> <br>","0","","","","","","","","","","","","","","","","","","","","","","","","","",""
"","","","","","single-stim-button","318","1598643","0.0-4.0-3.0-0.0","5dc807ff27a267592c6129f5","B2","batch2","tol_practice","5125","","","","","","","","","","","","","","tol_peg_2","5125","5125","0","[[1,2,0],[0,0],[0]]","1","[[1,2,0],[0,0],[3]]","practice","5125","","","","","",""
"","","","","","single-stim-button","319","1601317","0.0-4.0-3.0-1.0","5dc807ff27a267592c6129f5","B2","batch2","tol_practice","2673","","","","","","","","","","","","","","tol_peg_3","2673","2673","0","[[1,2,0],[0,0],[3]]","1","[[1,2,0],[0,0],[3]]","practice","2673","","","","","",""
"","","","","","poldrack-single-stim","320","1602332","0.0-4.0-4.0","5dc807ff27a267592c6129f5","B2","batch2","tol_feedback","-1","","","","","true","","","","","","","","","","1000","1000","500","","","","","","-1","none","true","","0",""
"","","","","","single-stim-button","321","1609331","0.0-4.0-5.0-0.0","5dc807ff27a267592c6129f5","B2","batch2","tol_practice","6998","","","","","","","","","","","","","","tol_peg_1","6998","6998","0","[[1,0,0],[3,0],[0]]","2","[[0,0,0],[3,1],[2]]","practice","6998","","","","","",""
"","","","","","single-stim-button","322","1611224","0.0-4.0-5.0-1.0","5dc807ff27a267592c6129f5","B2","batch2","tol_practice","1891","","","","","","","","","","","","","","tol_peg_3","1891","1891","0","[[1,0,0],[3,0],[2]]","2","[[0,0,0],[3,1],[2]]","practice","1891","","","","","",""
"","","","","","single-stim-button","323","1613085","0.0-4.0-5.1-0.1","5dc807ff27a267592c6129f5","B2","batch2","tol_practice","1861","","","","","","","","","","","","","","tol_peg_1","1861","1861","0","[[0,0,0],[3,0],[2]]","3","[[0,0,0],[3,1],[2]]","practice","1861","","","","","",""
"","","","","","single-stim-button","324","1614378","0.0-4.0-5.1-1.1","5dc807ff27a267592c6129f5","B2","batch2","tol_practice","1291","","","","","","","","","","","","","","tol_peg_2","1291","1291","0","[[0,0,0],[3,1],[2]]","3","[[0,0,0],[3,1],[2]]","practice","1291","","","","","",""
"","","","","","poldrack-single-stim","325","1615379","0.0-4.0-6.0","5dc807ff27a267592c6129f5","B2","batch2","tol_feedback","-1","","","","","true","","","","","","","","","","1000","1000","500","","","","","","-1","none","true","","0",""
"","","","","","single-stim-button","326","1620394","0.0-4.0-7.0-0.0","5dc807ff27a267592c6129f5","B2","batch2","tol_practice","5014","","","","","","","","","","","","","","tol_peg_2","5014","5014","0","[[1,2,0],[0,0],[0]]","4","[[1,0,0],[2,0],[3]]","practice","5014","","","","","",""
"","","","","","single-stim-button","327","1621899","0.0-4.0-7.0-1.0","5dc807ff27a267592c6129f5","B2","batch2","tol_practice","1505","","","","","","","","","","","","","","tol_peg_3","1505","1505","0","[[1,2,0],[0,0],[3]]","4","[[1,0,0],[2,0],[3]]","practice","1505","","","","","",""
"","","","","","single-stim-button","328","1623806","0.0-4.0-7.1-0.1","5dc807ff27a267592c6129f5","B2","batch2","tol_practice","1906","","","","","","","","","","","","","","tol_peg_1","1906","1906","0","[[1,0,0],[0,0],[3]]","5","[[1,0,0],[2,0],[3]]","practice","1906","","","","","",""
"","","","","","single-stim-button","329","1625231","0.0-4.0-7.1-1.1","5dc807ff27a267592c6129f5","B2","batch2","tol_practice","1424","","","","","","","","","","","","","","tol_peg_2","1424","1424","0","[[1,0,0],[2,0],[3]]","5","[[1,0,0],[2,0],[3]]","practice","1424","","","","","",""
"","","","","","poldrack-single-stim","330","1626233","0.0-4.0-8.0","5dc807ff27a267592c6129f5","B2","batch2","tol_feedback","-1","","","","","true","","","","","","","","","","1000","1000","500","","","","","","-1","none","true","","0",""
"","","","","","html-button-response","331","1630267","0.0-4.0-9.0","5dc807ff27a267592c6129f5","B2","batch2","tol_instruction","4033.4000000953674","<div class = centerbox><p class = center-block-text>Great job! You are done with practice trials<br>You are about to start official trials.<br> <br> Problem <strong>1</strong> out of 25 problems</p></div>","0","","","","","","","","","","","","","","","","","","","","","","","","","",""
"","","","","","single-stim-button","332","1641900","0.0-4.0-10.0-0.0","5dc807ff27a267592c6129f5","B2","batch2","tol_tohand","10626","","","","","","","","","","","","","","tol_peg_1","10626","10626","0","[[1,0,0],[3,0],[0]]","1","[[1,3,0],[2,0],[0]]","0","0","","","","","","3"
"","","","","","single-stim-button","333","1643185","0.0-4.0-10.0-1.0","5dc807ff27a267592c6129f5","B2","batch2","tol_toboard","1284","","","","","","","","","","","","","","tol_peg_3","1284","1284","0","[[1,0,0],[3,0],[2]]","1","[[1,3,0],[2,0],[0]]","0","0","","","","","","3"
"","","","","","single-stim-button","334","1644896","0.0-4.0-10.1-0.1","5dc807ff27a267592c6129f5","B2","batch2","tol_tohand","1711","","","","","","","","","","","","","","tol_peg_2","1711","1711","0","[[1,0,0],[0,0],[2]]","2","[[1,3,0],[2,0],[0]]","0","0","","","","","","3"
"","","","","","single-stim-button","335","1646188","0.0-4.0-10.1-1.1","5dc807ff27a267592c6129f5","B2","batch2","tol_toboard","1291","","","","","","","","","","","","","","tol_peg_1","1291","1291","0","[[1,3,0],[0,0],[2]]","2","[[1,3,0],[2,0],[0]]","0","0","","","","","","3"
"","","","","","single-stim-button","336","1648322","0.0-4.0-10.2-0.2","5dc807ff27a267592c6129f5","B2","batch2","tol_tohand","2132","","","","","","","","","","","","","","tol_peg_3","2132","2132","0","[[1,3,0],[0,0],[0]]","3","[[1,3,0],[2,0],[0]]","0","0","","","","","","3"
"","","","","","single-stim-button","337","1649700","0.0-4.0-10.2-1.2","5dc807ff27a267592c6129f5","B2","batch2","tol_toboard","1377","","","","","","","","","","","","","","tol_peg_2","1377","1377","0","[[1,3,0],[2,0],[0]]","3","[[1,3,0],[2,0],[0]]","0","0","","","","","","3"
"","","","","","poldrack-single-stim","338","1650716","0.0-4.0-11.0","5dc807ff27a267592c6129f5","B2","batch2","tol_feedback","-1","","","","","true","","","","","","","","","","1000","1000","500","","","","","","-1","none","true","10626","14469",""
"","","","","","html-button-response","339","1652353","0.0-4.0-12.0","5dc807ff27a267592c6129f5","B2","batch2","tol_trial_num","1635.5999999046326","<div class = centerbox><p class = center-block-text>problem <strong>2</strong> out of 25 problems</p></div>","0","","","","","","","","","","","","","","","","","","","","","","","","","",""
"","","","","","single-stim-button","340","1666438","0.0-4.0-13.0-0.0","5dc807ff27a267592c6129f5","B2","batch2","tol_tohand","14084","","","","","","","","","","","","","","tol_peg_1","14084","14084","0","[[1,0,0],[3,0],[0]]","1","[[2,1,3],[0,0],[0]]","1","0","","","","","","5"
"","","","","","single-stim-button","341","1669870","0.0-4.0-13.0-1.0","5dc807ff27a267592c6129f5","B2","batch2","tol_toboard","3432","","","","","","","","","","","","","","tol_peg_2","3432","3432","0","[[1,0,0],[3,2],[0]]","1","[[2,1,3],[0,0],[0]]","1","0","","","","","","5"
"","","","","","single-stim-button","342","1671938","0.0-4.0-13.1-0.1","5dc807ff27a267592c6129f5","B2","batch2","tol_tohand","2066","","","","","","","","","","","","","","tol_peg_1","2066","2066","0","[[0,0,0],[3,2],[0]]","2","[[2,1,3],[0,0],[0]]","1","0","","","","","","5"
"","","","","","single-stim-button","343","1673800","0.0-4.0-13.1-1.1","5dc807ff27a267592c6129f5","B2","batch2","tol_toboard","1862","","","","","","","","","","","","","","tol_peg_3","1862","1862","0","[[0,0,0],[3,2],[1]]","2","[[2,1,3],[0,0],[0]]","1","0","","","","","","5"
"","","","","","single-stim-button","344","1675900","0.0-4.0-13.2-0.2","5dc807ff27a267592c6129f5","B2","batch2","tol_tohand","2100","","","","","","","","","","","","","","tol_peg_2","2100","2100","0","[[0,0,0],[3,0],[1]]","3","[[2,1,3],[0,0],[0]]","1","0","","","","","","5"
"","","","","","single-stim-button","345","1677636","0.0-4.0-13.2-1.2","5dc807ff27a267592c6129f5","B2","batch2","tol_toboard","1735","","","","","","","","","","","","","","tol_peg_1","1735","1735","0","[[2,0,0],[3,0],[1]]","3","[[2,1,3],[0,0],[0]]","1","0","","","","","","5"
