"success","timeout","failed_images","failed_audio","failed_video","trial_type","trial_index","time_elapsed","internal_node_id","subject_id","study_id","session_id","view_history","rt","task","stimulus","response","correct","mouse_click","stim_duration","block_duration","timing_post_trial","current_position","tol_num_moves_made","tol_target","tol_problem_id","tol_rt","key_press","possible_responses","tol_correct","preplanning","tol_rt_per_trial","tol_min_moves","answer","item","fiar_detect_rt","fiar_detect_correct","total_correct_fiar_detect","post_trial_gap","choices","spm_correct","spm_rt"
"true","false","[]","[]","[]","preload","0","6624","0.0-0.0","5dcc90820a493f92d077d6ec","C3","batch3","","","","","","","","","","","","","","","","","","","","","","","","","","","","","",""
"true","","","","","fullscreen","1","27756","0.0-1.0-0.0","5dcc90820a493f92d077d6ec","C3","batch3","","","","","","","","","","","","","","","","","","","","","","","","","","","","","",""
"true","","","","","fullscreen","2","47614","0.0-2.0-0.0","5dcc90820a493f92d077d6ec","C3","batch3","","","","","","","","","","","","","","","","","","","","","","","","","","","","","",""
"","","","","","instructions","3","192864","0.0-2.0-1.0-0.0-0.0","5dcc90820a493f92d077d6ec","C3","batch3","[{""page_index"":0,""viewing_time"":106750.79999995232},{""page_index"":1,""viewing_time"":3747.100000023842},{""page_index"":2,""viewing_time"":6086},{""page_index"":3,""viewing_time"":8152.5},{""page_index"":4,""viewing_time"":8490.700000047684},{""page_index"":5,""viewing_time"":6440.100000023842},{""page_index"":6,""viewing_time"":5578}]","145245.5","tol-instructions","","","","","","","","","","","","","","","","","","","","","","","","","","",""
"","","","","","html-button-response","4","193901","0.0-2.0-1.0-1.0-0.0","5dcc90820a493f92d077d6ec","C3","batch3","","1035.9000000953674","tol_enter_quiz","<p class=block-text> Let's answer a few questions <br>","0","","","","","","","","","","","","","","","","","","","","","","","","",""
"","","","","","html-button-response","5","200771","0.0-2.0-1.0-1.0-1.0","5dcc90820a493f92d077d6ec","C3","batch3","","6868.200000047684","tol_quiz","<p class = block-text>True or False: You can only move the ball on top of a peg. <br></p>","0","true","","","","","","","","","","","","","","","","","","","","","","","",""
"","","","","","html-button-response","6","201951","0.0-2.0-1.0-1.0-2.0","5dcc90820a493f92d077d6ec","C3","batch3","","1178.7000000476837","tol_quiz_feedback","<p class = block-text>Correct! You can only move the ball on top of a peg.</p>","0","","","","","","","","","","","","","","","","","","","","","","","","",""
"","","","","","html-button-response","7","204703","0.0-2.0-1.0-1.0-3.0","5dcc90820a493f92d077d6ec","C3","batch3","","2751.4000000953674","tol_quiz","<p class = block-text>True or False: You should try to match your board with the target board with fewest moves possible. <br></p>","0","true","","","","","","","","","","","","","","","","","","","","","","","",""
"","","","","","html-button-response","8","205432","0.0-2.0-1.0-1.0-4.0","5dcc90820a493f92d077d6ec","C3","batch3","","727.2999999523163","tol_quiz_feedback","<p class = block-text>Correct! </p>","0","","","","","","","","","","","","","","","","","","","","","","","","",""
"","","","","","html-button-response","9","208271","0.0-2.0-2.0","5dcc90820a493f92d077d6ec","C3","batch3","","2837.1999999284744","","<p class=block-text> Now that you've understood the game, let's practice a few easier examples before we start!<br> <br>","0","","","","","","","","","","","","","","","","","","","","","","","","",""
"","","","","","single-stim-button","10","210801","0.0-2.0-3.0-0.0","5dcc90820a493f92d077d6ec","C3","batch3","","2527","tol_practice","","","","tol_peg_2","2527","2527","0","[[1,2,0],[0,0],[0]]","1","[[1,2,0],[0,0],[3]]","practice","2527","","","","","","","","","","","","","","",""
"","","","","","single-stim-button","11","211675","0.0-2.0-3.0-1.0","5dcc90820a493f92d077d6ec","C3","batch3","","872","tol_practice","","","","tol_peg_3","872","872","0","[[1,2,0],[0,0],[3]]","1","[[1,2,0],[0,0],[3]]","practice","872","","","","","","","","","","","","","","",""
"","","","","","poldrack-single-stim","12","212693","0.0-2.0-4.0","5dcc90820a493f92d077d6ec","C3","batch3","","-1","tol_feedback","","","true","","1000","1000","500","","","","","","-1","none","true","","0","","","","","","","","","",""
"","","","","","single-stim-button","13","215807","0.0-2.0-5.0-0.0","5dcc90820a493f92d077d6ec","C3","batch3","","3114","tol_practice","","","","tol_peg_1","3114","3114","0","[[1,0,0],[3,0],[0]]","2","[[0,0,0],[3,1],[2]]","practice","3114","","","","","","","","","","","","","","",""
"","","","","","single-stim-button","14","217244","0.0-2.0-5.0-1.0","5dcc90820a493f92d077d6ec","C3","batch3","","1436","tol_practice","","","","tol_peg_3","1436","1436","0","[[1,0,0],[3,0],[2]]","2","[[0,0,0],[3,1],[2]]","practice","1436","","","","","","","","","","","","","","",""
"","","","","","single-stim-button","15","217895","0.0-2.0-5.1-0.1","5dcc90820a493f92d077d6ec","C3","batch3","","650","tol_practice","","","","tol_peg_1","650","650","0","[[0,0,0],[3,0],[2]]","3","[[0,0,0],[3,1],[2]]","practice","650","","","","","","","","","","","","","","",""
"","","","","","single-stim-button","16","218481","0.0-2.0-5.1-1.1","5dcc90820a493f92d077d6ec","C3","batch3","","584","tol_practice","","","","tol_peg_2","584","584","0","[[0,0,0],[3,1],[2]]","3","[[0,0,0],[3,1],[2]]","practice","584","","","","","","","","","","","","","","",""
"","","","","","poldrack-single-stim","17","219486","0.0-2.0-6.0","5dcc90820a493f92d077d6ec","C3","batch3","","-1","tol_feedback","","","true","","1000","1000","500","","","","","","-1","none","true","","0","","","","","","","","","",""
"","","","","","single-stim-button","18","221457","0.0-2.0-7.0-0.0","5dcc90820a493f92d077d6ec","C3","batch3","","1969","tol_practice","","","","tol_peg_2","1969","1969","0","[[1,2,0],[0,0],[0]]","4","[[1,0,0],[2,0],[3]]","practice","1969","","","","","","","","","","","","","","",""
"","","","","","single-stim-button","19","222044","0.0-2.0-7.0-1.0","5dcc90820a493f92d077d6ec","C3","batch3","","586","tol_practice","","","","tol_peg_3","586","586","0","[[1,2,0],[0,0],[3]]","4","[[1,0,0],[2,0],[3]]","practice","586","","","","","","","","","","","","","","",""
"","","","","","single-stim-button","20","222787","0.0-2.0-7.1-0.1","5dcc90820a493f92d077d6ec","C3","batch3","","743","tol_practice","","","","tol_peg_1","743","743","0","[[1,0,0],[0,0],[3]]","5","[[1,0,0],[2,0],[3]]","practice","743","","","","","","","","","","","","","","",""
"","","","","","single-stim-button","21","223431","0.0-2.0-7.1-1.1","5dcc90820a493f92d077d6ec","C3","batch3","","644","tol_practice","","","","tol_peg_2","644","644","0","[[1,0,0],[2,0],[3]]","5","[[1,0,0],[2,0],[3]]","practice","644","","","","","","","","","","","","","","",""
"","","","","","poldrack-single-stim","22","224443","0.0-2.0-8.0","5dcc90820a493f92d077d6ec","C3","batch3","","-1","tol_feedback","","","true","","1000","1000","500","","","","","","-1","none","true","","0","","","","","","","","","",""
"","","","","","html-button-response","23","225950","0.0-2.0-9.0","5dcc90820a493f92d077d6ec","C3","batch3","","1505.7999999523163","tol_instruction","<div class = centerbox><p class = center-block-text>Great job! You are done with practice trials<br>You are about to start official trials.<br> <br> Problem <strong>1</strong> out of 25 problems</p></div>","0","","","","","","","","","","","","","","","","","","","","","","","","",""
"","","","","","single-stim-button","24","229562","0.0-2.0-10.0-0.0","5dcc90820a493f92d077d6ec","C3","batch3","","2597","tol_tohand","","","","tol_peg_2","2597","2597","0","[[1,2,0],[0,0],[0]]","1","[[1,3,0],[2,0],[0]]","0","0","","","","","","3","","","","","","","","",""
"","","","","","single-stim-button","25","230442","0.0-2.0-10.0-1.0","5dcc90820a493f92d077d6ec","C3","batch3","","879","tol_toboard","","","","tol_peg_3","879","879","0","[[1,2,0],[0,0],[3]]","1","[[1,3,0],[2,0],[0]]","0","0","","","","","","3","","","","","","","","",""
"","","","","","single-stim-button","26","231250","0.0-2.0-10.1-0.1","5dcc90820a493f92d077d6ec","C3","batch3","","808","tol_tohand","","","","tol_peg_1","808","808","0","[[1,0,0],[0,0],[3]]","2","[[1,3,0],[2,0],[0]]","0","0","","","","","","3","","","","","","","","",""
"","","","","","single-stim-button","27","231894","0.0-2.0-10.1-1.1","5dcc90820a493f92d077d6ec","C3","batch3","","642","tol_toboard","","","","tol_peg_2","642","642","0","[[1,0,0],[2,0],[3]]","2","[[1,3,0],[2,0],[0]]","0","0","","","","","","3","","","","","","","","",""
"","","","","","single-stim-button","28","232409","0.0-2.0-10.2-0.2","5dcc90820a493f92d077d6ec","C3","batch3","","514","tol_tohand","","","","tol_peg_3","514","514","0","[[1,0,0],[2,0],[0]]","3","[[1,3,0],[2,0],[0]]","0","0","","","","","","3","","","","","","","","",""
"","","","","","single-stim-button","29","233110","0.0-2.0-10.2-1.2","5dcc90820a493f92d077d6ec","C3","batch3","","699","tol_toboard","","","","tol_peg_1","699","699","0","[[1,3,0],[2,0],[0]]","3","[[1,3,0],[2,0],[0]]","0","0","","","","","","3","","","","","","","","",""
"","","","","","poldrack-single-stim","30","234119","0.0-2.0-11.0","5dcc90820a493f92d077d6ec","C3","batch3","","-1","tol_feedback","","","true","","1000","1000","500","","","","","","-1","none","true","2597","3919","","","","","","","","","",""
"","","","","","html-button-response","31","235091","0.0-2.0-12.0","5dcc90820a493f92d077d6ec","C3","batch3","","970.8999999761581","tol_trial_num","<div class = centerbox><p class = center-block-text>problem <strong>2</strong> out of 25 problems</p></div>","0","","","","","","","","","","","","","","","","","","","","","","","","",""
"","","","","","single-stim-button","32","239248","0.0-2.0-13.0-0.0","5dcc90820a493f92d077d6ec","C3","batch3","","4155","tol_tohand","","","","tol_peg_1","4155","4155","0","[[1,0,0],[3,0],[0]]","1","[[2,1,3],[0,0],[0]]","1","0","","","","","","5","","","","","","","","",""
"","","","","","single-stim-button","33","240178","0.0-2.0-13.0-1.0","5dcc90820a493f92d077d6ec","C3","batch3","","929","tol_toboard","","","","tol_peg_3","929","929","0","[[1,0,0],[3,0],[2]]","1","[[2,1,3],[0,0],[0]]","1","0","","","","","","5","","","","","","","","",""
"","","","","","single-stim-button","34","240785","0.0-2.0-13.1-0.1","5dcc90820a493f92d077d6ec","C3","batch3","","605","tol_tohand","","","","tol_peg_1","605","605","0","[[0,0,0],[3,0],[2]]","2","[[2,1,3],[0,0],[0]]","1","0","","","","","","5","","","","","","","","",""
"","","","","","single-stim-button","35","244685","0.0-2.0-13.1-1.1","5dcc90820a493f92d077d6ec","C3","batch3","","3899","tol_toboard","","","","tol_peg_2","3899","3899","0","[[0,0,0],[3,1],[2]]","2","[[2,1,3],[0,0],[0]]","1","0","","","","","","5","","","","","","","","",""
"","","","","","single-stim-button","36","245221","0.0-2.0-13.2-0.2","5dcc90820a493f92d077d6ec","C3","batch3","","533","tol_tohand","","","","tol_peg_3","533","533","0","[[0,0,0],[3,1],[0]]","3","[[2,1,3],[0,0],[0]]","1","0","","","","","","5","","","","","","","","",""
"","","","","","single-stim-button","37","245807","0.0-2.0-13.2-1.2","5dcc90820a493f92d077d6ec","C3","batch3","","586","tol_toboard","","","","tol_peg_1","586","586","0","[[2,0,0],[3,1],[0]]","3","[[2,1,3],[0,0],[0]]","1","0","","","","","","5","","","","","","","","",""
"","","","","","single-stim-button","38","246351","0.0-2.0-13.3-0.3","5dcc90820a493f92d077d6ec","C3","batch3","","543","tol_tohand","","","","tol_peg_2","543","543","0","[[2,0,0],[3,0],[0]]","4","[[2,1,3],[0,0],[0]]","1","0","","","","","","5","","","","","","","","",""
"","","","","","single-stim-button","39","248617","0.0-2.0-13.3-1.3","5dcc90820a493f92d077d6ec","C3","batch3","","2265","tol_toboard","","","","tol_peg_1","2265","2265","0","[[2,1,0],[3,0],[0]]","4","[[2,1,3],[0,0],[0]]","1","0","","","","","","5","","","","","","","","",""
"","","","","","single-stim-button","40","249105","0.0-2.0-13.4-0.4","5dcc90820a493f92d077d6ec","C3","batch3","","487","tol_tohand","","","","tol_peg_2","487","487","0","[[2,1,0],[0,0],[0]]","5","[[2,1,3],[0,0],[0]]","1","0","","","","","","5","","","","","","","","",""
"","","","","","single-stim-button","41","249670","0.0-2.0-13.4-1.4","5dcc90820a493f92d077d6ec","C3","batch3","","565","tol_toboard","","","","tol_peg_1","565","565","0","[[2,1,3],[0,0],[0]]","5","[[2,1,3],[0,0],[0]]","1","0","","","","","","5","","","","","","","","",""
"","","","","","poldrack-single-stim","42","250680","0.0-2.0-14.0","5dcc90820a493f92d077d6ec","C3","batch3","","-1","tol_feedback","","","true","","1000","1000","500","","","","","","-1","none","true","4155","6323","","","","","","","","","",""
"","","","","","html-button-response","43","251434","0.0-2.0-15.0","5dcc90820a493f92d077d6ec","C3","batch3","","753.5999999046326","tol_trial_num","<div class = centerbox><p class = center-block-text>problem <strong>3</strong> out of 25 problems</p></div>","0","","","","","","","","","","","","","","","","","","","","","","","","",""
"","","","","","single-stim-button","44","254147","0.0-2.0-16.0-0.0","5dcc90820a493f92d077d6ec","C3","batch3","","2712","tol_tohand","","","","tol_peg_1","2712","2712","0","[[2,0,0],[0,0],[1]]","1","[[1,2,0],[3,0],[0]]","2","0","","","","","","4","","","","","","","","",""
"","","","","","single-stim-button","45","256505","0.0-2.0-16.0-1.0","5dcc90820a493f92d077d6ec","C3","batch3","","2356","tol_toboard","","","","tol_peg_2","2356","2356","0","[[2,0,0],[3,0],[1]]","1","[[1,2,0],[3,0],[0]]","2","0","","","","","","4","","","","","","","","",""
"","","","","","single-stim-button","46","258081","0.0-2.0-16.1-0.1","5dcc90820a493f92d077d6ec","C3","batch3","","1575","tol_tohand","","","","tol_peg_1","1575","1575","0","[[0,0,0],[3,0],[1]]","2","[[1,2,0],[3,0],[0]]","2","0","","","","","","4","","","","","","","","",""
"","","","","","single-stim-button","47","258732","0.0-2.0-16.1-1.1","5dcc90820a493f92d077d6ec","C3","batch3","","650","tol_toboard","","","","tol_peg_2","650","650","0","[[0,0,0],[3,2],[1]]","2","[[1,2,0],[3,0],[0]]","2","0","","","","","","4","","","","","","","","",""
"","","","","","single-stim-button","48","259209","0.0-2.0-16.2-0.2","5dcc90820a493f92d077d6ec","C3","batch3","","476","tol_tohand","","","","tol_peg_3","476","476","0","[[0,0,0],[3,2],[0]]","3","[[1,2,0],[3,0],[0]]","2","0","","","","","","4","","","","","","","","",""
"","","","","","single-stim-button","49","259897","0.0-2.0-16.2-1.2","5dcc90820a493f92d077d6ec","C3","batch3","","687","tol_toboard","","","","tol_peg_1","687","687","0","[[1,0,0],[3,2],[0]]","3","[[1,2,0],[3,0],[0]]","2","0","","","","","","4","","","","","","","","",""
"","","","","","single-stim-button","50","260833","0.0-2.0-16.3-0.3","5dcc90820a493f92d077d6ec","C3","batch3","","935","tol_tohand","","","","tol_peg_2","935","935","0","[[1,0,0],[3,0],[0]]","4","[[1,2,0],[3,0],[0]]","2","0","","","","","","4","","","","","","","","",""
"","","","","","single-stim-button","51","261558","0.0-2.0-16.3-1.3","5dcc90820a493f92d077d6ec","C3","batch3","","724","tol_toboard","","","","tol_peg_1","724","724","0","[[1,2,0],[3,0],[0]]","4","[[1,2,0],[3,0],[0]]","2","0","","","","","","4","","","","","","","","",""
"","","","","","poldrack-single-stim","52","262563","0.0-2.0-17.0","5dcc90820a493f92d077d6ec","C3","batch3","","-1","tol_feedback","","","true","","1000","1000","500","","","","","","-1","none","true","2712","5698","","","","","","","","","",""
"","","","","","html-button-response","53","263224","0.0-2.0-18.0","5dcc90820a493f92d077d6ec","C3","batch3","","659.7999999523163","tol_trial_num","<div class = centerbox><p class = center-block-text>problem <strong>4</strong> out of 25 problems</p></div>","0","","","","","","","","","","","","","","","","","","","","","","","","",""
"","","","","","single-stim-button","54","265476","0.0-2.0-19.0-0.0","5dcc90820a493f92d077d6ec","C3","batch3","","2252","tol_tohand","","","","tol_peg_2","2252","2252","0","[[3,0,0],[2,0],[0]]","1","[[3,0,0],[1,0],[2]]","3","0","","","","","","3","","","","","","","","",""
"","","","","","single-stim-button","55","266158","0.0-2.0-19.0-1.0","5dcc90820a493f92d077d6ec","C3","batch3","","681","tol_toboard","","","","tol_peg_1","681","681","0","[[3,1,0],[2,0],[0]]","1","[[3,0,0],[1,0],[2]]","3","0","","","","","","3","","","","","","","","",""
"","","","","","single-stim-button","56","266806","0.0-2.0-19.1-0.1","5dcc90820a493f92d077d6ec","C3","batch3","","647","tol_tohand","","","","tol_peg_2","647","647","0","[[3,1,0],[0,0],[0]]","2","[[3,0,0],[1,0],[2]]","3","0","","","","","","3","","","","","","","","",""
"","","","","","single-stim-button","57","267724","0.0-2.0-19.1-1.1","5dcc90820a493f92d077d6ec","C3","batch3","","916","tol_toboard","","","","tol_peg_3","916","916","0","[[3,1,0],[0,0],[2]]","2","[[3,0,0],[1,0],[2]]","3","0","","","","","","3","","","","","","","","",""
"","","","","","single-stim-button","58","268738","0.0-2.0-19.2-0.2","5dcc90820a493f92d077d6ec","C3","batch3","","1014","tol_tohand","","","","tol_peg_1","1014","1014","0","[[3,0,0],[0,0],[2]]","3","[[3,0,0],[1,0],[2]]","3","0","","","","","","3","","","","","","","","",""
"","","","","","single-stim-button","59","269283","0.0-2.0-19.2-1.2","5dcc90820a493f92d077d6ec","C3","batch3","","544","tol_toboard","","","","tol_peg_2","544","544","0","[[3,0,0],[1,0],[2]]","3","[[3,0,0],[1,0],[2]]","3","0","","","","","","3","","","","","","","","",""
"","","","","","poldrack-single-stim","60","270299","0.0-2.0-20.0","5dcc90820a493f92d077d6ec","C3","batch3","","-1","tol_feedback","","","true","","1000","1000","500","","","","","","-1","none","true","2252","3913","","","","","","","","","",""
"","","","","","html-button-response","61","271236","0.0-2.0-21.0","5dcc90820a493f92d077d6ec","C3","batch3","","936.1000000238419","tol_trial_num","<div class = centerbox><p class = center-block-text>problem <strong>5</strong> out of 25 problems</p></div>","0","","","","","","","","","","","","","","","","","","","","","","","","",""
"","","","","","single-stim-button","62","283354","0.0-2.0-22.0-0.0","5dcc90820a493f92d077d6ec","C3","batch3","","12116","tol_tohand","","","","tol_peg_3","12116","12116","0","[[1,0,0],[2,0],[0]]","1","[[0,0,0],[1,2],[3]]","4","0","","","","","","7","","","","","","","","",""
"","","","","","single-stim-button","63","284993","0.0-2.0-22.0-1.0","5dcc90820a493f92d077d6ec","C3","batch3","","1638","tol_toboard","","","","tol_peg_3","1638","1638","0","[[1,0,0],[2,0],[3]]","1","[[0,0,0],[1,2],[3]]","4","0","","","","","","7","","","","","","","","",""
"","","","","","single-stim-button","64","297395","0.0-2.0-22.1-0.1","5dcc90820a493f92d077d6ec","C3","batch3","","12401","tol_tohand","","","","tol_peg_1","12401","12401","0","[[0,0,0],[2,0],[3]]","2","[[0,0,0],[1,2],[3]]","4","0","","","","","","7","","","","","","","","",""
"","","","","","single-stim-button","65","298146","0.0-2.0-22.1-1.1","5dcc90820a493f92d077d6ec","C3","batch3","","750","tol_toboard","","","","tol_peg_2","750","750","0","[[0,0,0],[2,1],[3]]","2","[[0,0,0],[1,2],[3]]","4","0","","","","","","7","","","","","","","","",""
"","","","","","single-stim-button","66","298719","0.0-2.0-22.2-0.2","5dcc90820a493f92d077d6ec","C3","batch3","","572","tol_tohand","","","","tol_peg_3","572","572","0","[[0,0,0],[2,1],[0]]","3","[[0,0,0],[1,2],[3]]","4","0","","","","","","7","","","","","","","","",""
"","","","","","single-stim-button","67","299341","0.0-2.0-22.2-1.2","5dcc90820a493f92d077d6ec","C3","batch3","","622","tol_toboard","","","","tol_peg_1","622","622","0","[[3,0,0],[2,1],[0]]","3","[[0,0,0],[1,2],[3]]","4","0","","","","","","7","","","","","","","","",""
"","","","","","single-stim-button","68","303407","0.0-2.0-22.3-0.3","5dcc90820a493f92d077d6ec","C3","batch3","","4064","tol_tohand","","","","tol_peg_2","4064","4064","0","[[3,0,0],[2,0],[0]]","4","[[0,0,0],[1,2],[3]]","4","0","","","","","","7","","","","","","","","",""
"","","","","","single-stim-button","69","304137","0.0-2.0-22.3-1.3","5dcc90820a493f92d077d6ec","C3","batch3","","729","tol_toboard","","","","tol_peg_1","729","729","0","[[3,1,0],[2,0],[0]]","4","[[0,0,0],[1,2],[3]]","4","0","","","","","","7","","","","","","","","",""
"","","","","","single-stim-button","70","305046","0.0-2.0-22.4-0.4","5dcc90820a493f92d077d6ec","C3","batch3","","908","tol_tohand","","","","tol_peg_2","908","908","0","[[3,1,0],[0,0],[0]]","5","[[0,0,0],[1,2],[3]]","4","0","","","","","","7","","","","","","","","",""
"","","","","","single-stim-button","71","305646","0.0-2.0-22.4-1.4","5dcc90820a493f92d077d6ec","C3","batch3","","600","tol_toboard","","","","tol_peg_3","600","600","0","[[3,1,0],[0,0],[2]]","5","[[0,0,0],[1,2],[3]]","4","0","","","","","","7","","","","","","","","",""
"","","","","","single-stim-button","72","306141","0.0-2.0-22.5-0.5","5dcc90820a493f92d077d6ec","C3","batch3","","493","tol_tohand","","","","tol_peg_1","493","493","0","[[3,0,0],[0,0],[2]]","6","[[0,0,0],[1,2],[3]]","4","0","","","","","","7","","","","","","","","",""
"","","","","","single-stim-button","73","306649","0.0-2.0-22.5-1.5","5dcc90820a493f92d077d6ec","C3","batch3","","507","tol_toboard","","","","tol_peg_2","507","507","0","[[3,0,0],[1,0],[2]]","6","[[0,0,0],[1,2],[3]]","4","0","","","","","","7","","","","","","","","",""
"","","","","","single-stim-button","74","307108","0.0-2.0-22.6-0.6","5dcc90820a493f92d077d6ec","C3","batch3","","459","tol_tohand","","","","tol_peg_3","459","459","0","[[3,0,0],[1,0],[0]]","7","[[0,0,0],[1,2],[3]]","4","0","","","","","","7","","","","","","","","",""
"","","","","","single-stim-button","75","307580","0.0-2.0-22.6-1.6","5dcc90820a493f92d077d6ec","C3","batch3","","470","tol_toboard","","","","tol_peg_2","470","470","0","[[3,0,0],[1,2],[0]]","7","[[0,0,0],[1,2],[3]]","4","0","","","","","","7","","","","","","","","",""
"","","","","","single-stim-button","76","308009","0.0-2.0-22.7-0.7","5dcc90820a493f92d077d6ec","C3","batch3","","428","tol_tohand","","","","tol_peg_1","428","428","0","[[0,0,0],[1,2],[0]]","8","[[0,0,0],[1,2],[3]]","4","0","","","","","","7","","","","","","","","",""
"","","","","","single-stim-button","77","308667","0.0-2.0-22.7-1.7","5dcc90820a493f92d077d6ec","C3","batch3","","658","tol_toboard","","","","tol_peg_3","658","658","0","[[0,0,0],[1,2],[3]]","8","[[0,0,0],[1,2],[3]]","4","0","","","","","","7","","","","","","","","",""
"","","","","","poldrack-single-stim","78","309672","0.0-2.0-23.0","5dcc90820a493f92d077d6ec","C3","batch3","","-1","tol_feedback","","","true","","1000","1000","500","","","","","","-1","none","true","12116","31441","","","","","","","","","",""
"","","","","","html-button-response","79","310408","0.0-2.0-24.0","5dcc90820a493f92d077d6ec","C3","batch3","","734.3999999761581","tol_trial_num","<div class = centerbox><p class = center-block-text>problem <strong>6</strong> out of 25 problems</p></div>","0","","","","","","","","","","","","","","","","","","","","","","","","",""
"","","","","","single-stim-button","80","321787","0.0-2.0-25.0-0.0","5dcc90820a493f92d077d6ec","C3","batch3","","11378","tol_tohand","","","","tol_peg_3","11378","11378","0","[[0,0,0],[1,2],[0]]","1","[[1,0,0],[2,3],[0]]","5","0","","","","","","6","","","","","","","","",""
"","","","","","single-stim-button","81","322474","0.0-2.0-25.0-1.0","5dcc90820a493f92d077d6ec","C3","batch3","","686","tol_toboard","","","","tol_peg_1","686","686","0","[[3,0,0],[1,2],[0]]","1","[[1,0,0],[2,3],[0]]","5","0","","","","","","6","","","","","","","","",""
"","","","","","single-stim-button","82","327127","0.0-2.0-25.1-0.1","5dcc90820a493f92d077d6ec","C3","batch3","","4651","tol_tohand","","","","tol_peg_2","4651","4651","0","[[3,0,0],[1,0],[0]]","2","[[1,0,0],[2,3],[0]]","5","0","","","","","","6","","","","","","","","",""
"","","","","","single-stim-button","83","327714","0.0-2.0-25.1-1.1","5dcc90820a493f92d077d6ec","C3","batch3","","585","tol_toboard","","","","tol_peg_1","585","585","0","[[3,2,0],[1,0],[0]]","2","[[1,0,0],[2,3],[0]]","5","0","","","","","","6","","","","","","","","",""
"","","","","","single-stim-button","84","328559","0.0-2.0-25.2-0.2","5dcc90820a493f92d077d6ec","C3","batch3","","844","tol_tohand","","","","tol_peg_2","844","844","0","[[3,2,0],[0,0],[0]]","3","[[1,0,0],[2,3],[0]]","5","0","","","","","","6","","","","","","","","",""
"","","","","","single-stim-button","85","329238","0.0-2.0-25.2-1.2","5dcc90820a493f92d077d6ec","C3","batch3","","678","tol_toboard","","","","tol_peg_3","678","678","0","[[3,2,0],[0,0],[1]]","3","[[1,0,0],[2,3],[0]]","5","0","","","","","","6","","","","","","","","",""
"","","","","","single-stim-button","86","329811","0.0-2.0-25.3-0.3","5dcc90820a493f92d077d6ec","C3","batch3","","572","tol_tohand","","","","tol_peg_1","572","572","0","[[3,0,0],[0,0],[1]]","4","[[1,0,0],[2,3],[0]]","5","0","","","","","","6","","","","","","","","",""
"","","","","","single-stim-button","87","330390","0.0-2.0-25.3-1.3","5dcc90820a493f92d077d6ec","C3","batch3","","579","tol_toboard","","","","tol_peg_2","579","579","0","[[3,0,0],[2,0],[1]]","4","[[1,0,0],[2,3],[0]]","5","0","","","","","","6","","","","","","","","",""
"","","","","","single-stim-button","88","330827","0.0-2.0-25.4-0.4","5dcc90820a493f92d077d6ec","C3","batch3","","436","tol_tohand","","","","tol_peg_1","436","436","0","[[0,0,0],[2,0],[1]]","5","[[1,0,0],[2,3],[0]]","5","0","","","","","","6","","","","","","","","",""
"","","","","","single-stim-button","89","331594","0.0-2.0-25.4-1.4","5dcc90820a493f92d077d6ec","C3","batch3","","766","tol_toboard","","","","tol_peg_2","766","766","0","[[0,0,0],[2,3],[1]]","5","[[1,0,0],[2,3],[0]]","5","0","","","","","","6","","","","","","","","",""
"","","","","","single-stim-button","90","331958","0.0-2.0-25.5-0.5","5dcc90820a493f92d077d6ec","C3","batch3","","363","tol_tohand","","","","tol_peg_2","363","363","0","[[0,0,0],[2,0],[1]]","6","[[1,0,0],[2,3],[0]]","5","0","","","","","","6","","","","","","","","",""
"","","","","","single-stim-button","91","332559","0.0-2.0-25.5-1.5","5dcc90820a493f92d077d6ec","C3","batch3","","600","tol_toboard","","","","tol_peg_2","600","600","0","[[0,0,0],[2,3],[1]]","6","[[1,0,0],[2,3],[0]]","5","0","","","","","","6","","","","","","","","",""
"","","","","","single-stim-button","92","333110","0.0-2.0-25.6-0.6","5dcc90820a493f92d077d6ec","C3","batch3","","551","tol_tohand","","","","tol_peg_3","551","551","0","[[0,0,0],[2,3],[0]]","7","[[1,0,0],[2,3],[0]]","5","0","","","","","","6","","","","","","","","",""
"","","","","","single-stim-button","93","333929","0.0-2.0-25.6-1.6","5dcc90820a493f92d077d6ec","C3","batch3","","818","tol_toboard","","","","tol_peg_1","818","818","0","[[1,0,0],[2,3],[0]]","7","[[1,0,0],[2,3],[0]]","5","0","","","","","","6","","","","","","","","",""
"","","","","","poldrack-single-stim","94","334940","0.0-2.0-26.0","5dcc90820a493f92d077d6ec","C3","batch3","","-1","tol_feedback","","","true","","1000","1000","500","","","","","","-1","none","true","11378","18795","","","","","","","","","",""
"","","","","","html-button-response","95","335811","0.0-2.0-27.0","5dcc90820a493f92d077d6ec","C3","batch3","","869.8999999761581","tol_trial_num","<div class = centerbox><p class = center-block-text>problem <strong>7</strong> out of 25 problems</p></div>","0","","","","","","","","","","","","","","","","","","","","","","","","",""
"","","","","","single-stim-button","96","337866","0.0-2.0-28.0-0.0","5dcc90820a493f92d077d6ec","C3","batch3","","2053","tol_tohand","","","","tol_peg_3","2053","2053","0","[[2,1,0],[0,0],[0]]","1","[[1,2,0],[3,0],[0]]","6","0","","","","","","5","","","","","","","","",""
"","","","","","single-stim-button","97","338439","0.0-2.0-28.0-1.0","5dcc90820a493f92d077d6ec","C3","batch3","","571","tol_toboard","","","","tol_peg_2","571","571","0","[[2,1,0],[3,0],[0]]","1","[[1,2,0],[3,0],[0]]","6","0","","","","","","5","","","","","","","","",""
"","","","","","single-stim-button","98","339913","0.0-2.0-28.1-0.1","5dcc90820a493f92d077d6ec","C3","batch3","","1474","tol_tohand","","","","tol_peg_1","1474","1474","0","[[2,0,0],[3,0],[0]]","2","[[1,2,0],[3,0],[0]]","6","0","","","","","","5","","","","","","","","",""
"","","","","","single-stim-button","99","340858","0.0-2.0-28.1-1.1","5dcc90820a493f92d077d6ec","C3","batch3","","944","tol_toboard","","","","tol_peg_2","944","944","0","[[2,0,0],[3,1],[0]]","2","[[1,2,0],[3,0],[0]]","6","0","","","","","","5","","","","","","","","",""
"","","","","","single-stim-button","100","341738","0.0-2.0-28.2-0.2","5dcc90820a493f92d077d6ec","C3","batch3","","880","tol_tohand","","","","tol_peg_1","880","880","0","[[0,0,0],[3,1],[0]]","3","[[1,2,0],[3,0],[0]]","6","0","","","","","","5","","","","","","","","",""
"","","","","","single-stim-button","101","342540","0.0-2.0-28.2-1.2","5dcc90820a493f92d077d6ec","C3","batch3","","801","tol_toboard","","","","tol_peg_3","801","801","0","[[0,0,0],[3,1],[2]]","3","[[1,2,0],[3,0],[0]]","6","0","","","","","","5","","","","","","","","",""
"","","","","","single-stim-button","102","343048","0.0-2.0-28.3-0.3","5dcc90820a493f92d077d6ec","C3","batch3","","507","tol_tohand","","","","tol_peg_2","507","507","0","[[0,0,0],[3,0],[2]]","4","[[1,2,0],[3,0],[0]]","6","0","","","","","","5","","","","","","","","",""
"","","","","","single-stim-button","103","343742","0.0-2.0-28.3-1.3","5dcc90820a493f92d077d6ec","C3","batch3","","694","tol_toboard","","","","tol_peg_1","694","694","0","[[1,0,0],[3,0],[2]]","4","[[1,2,0],[3,0],[0]]","6","0","","","","","","5","","","","","","","","",""
"","","","","","single-stim-button","104","344236","0.0-2.0-28.4-0.4","5dcc90820a493f92d077d6ec","C3","batch3","","493","tol_tohand","","","","tol_peg_3","493","493","0","[[1,0,0],[3,0],[0]]","5","[[1,2,0],[3,0],[0]]","6","0","","","","","","5","","","","","","","","",""
"","","","","","single-stim-button","105","344923","0.0-2.0-28.4-1.4","5dcc90820a493f92d077d6ec","C3","batch3","","686","tol_toboard","","","","tol_peg_1","686","686","0","[[1,2,0],[3,0],[0]]","5","[[1,2,0],[3,0],[0]]","6","0","","","","","","5","","","","","","","","",""
"","","","","","poldrack-single-stim","106","345925","0.0-2.0-29.0","5dcc90820a493f92d077d6ec","C3","batch3","","-1","tol_feedback","","","true","","1000","1000","500","","","","","","-1","none","true","2053","5407","","","","","","","","","",""
"","","","","","html-button-response","107","346827","0.0-2.0-30.0","5dcc90820a493f92d077d6ec","C3","batch3","","901.2999999523163","tol_trial_num","<div class = centerbox><p class = center-block-text>problem <strong>8</strong> out of 25 problems</p></div>","0","","","","","","","","","","","","","","","","","","","","","","","","",""
"","","","","","single-stim-button","108","350200","0.0-2.0-31.0-0.0","5dcc90820a493f92d077d6ec","C3","batch3","","3371","tol_tohand","","","","tol_peg_3","3371","3371","0","[[0,0,0],[2,3],[0]]","1","[[1,2,0],[3,0],[0]]","7","0","","","","","","4","","","","","","","","",""
"","","","","","single-stim-button","109","350751","0.0-2.0-31.0-1.0","5dcc90820a493f92d077d6ec","C3","batch3","","550","tol_toboard","","","","tol_peg_1","550","550","0","[[1,0,0],[2,3],[0]]","1","[[1,2,0],[3,0],[0]]","7","0","","","","","","4","","","","","","","","",""
"","","","","","single-stim-button","110","351266","0.0-2.0-31.1-0.1","5dcc90820a493f92d077d6ec","C3","batch3","","515","tol_tohand","","","","tol_peg_2","515","515","0","[[1,0,0],[2,0],[0]]","2","[[1,2,0],[3,0],[0]]","7","0","","","","","","4","","","","","","","","",""
"","","","","","single-stim-button","111","351760","0.0-2.0-31.1-1.1","5dcc90820a493f92d077d6ec","C3","batch3","","493","tol_toboard","","","","tol_peg_3","493","493","0","[[1,0,0],[2,0],[3]]","2","[[1,2,0],[3,0],[0]]","7","0","","","","","","4","","","","","","","","",""
"","","","","","single-stim-button","112","352247","0.0-2.0-31.2-0.2","5dcc90820a493f92d077d6ec","C3","batch3","","486","tol_tohand","","","","tol_peg_2","486","486","0","[[1,0,0],[0,0],[3]]","3","[[1,2,0],[3,0],[0]]","7","0","","","","","","4","","","","","","","","",""
"","","","","","single-stim-button","113","352763","0.0-2.0-31.2-1.2","5dcc90820a493f92d077d6ec","C3","batch3","","515","tol_toboard","","","","tol_peg_1","515","515","0","[[1,2,0],[0,0],[3]]","3","[[1,2,0],[3,0],[0]]","7","0","","","","","","4","","","","","","","","",""
"","","","","","single-stim-button","114","353235","0.0-2.0-31.3-0.3","5dcc90820a493f92d077d6ec","C3","batch3","","472","tol_tohand","","","","tol_peg_3","472","472","0","[[1,2,0],[0,0],[0]]","4","[[1,2,0],[3,0],[0]]","7","0","","","","","","4","","","","","","","","",""
"","","","","","single-stim-button","115","353650","0.0-2.0-31.3-1.3","5dcc90820a493f92d077d6ec","C3","batch3","","414","tol_toboard","","","","tol_peg_2","414","414","0","[[1,2,0],[3,0],[0]]","4","[[1,2,0],[3,0],[0]]","7","0","","","","","","4","","","","","","","","",""
"","","","","","poldrack-single-stim","116","354658","0.0-2.0-32.0","5dcc90820a493f92d077d6ec","C3","batch3","","-1","tol_feedback","","","true","","1000","1000","500","","","","","","-1","none","true","3371","4844","","","","","","","","","",""
"","","","","","html-button-response","117","355461","0.0-2.0-33.0","5dcc90820a493f92d077d6ec","C3","batch3","","802.6000000238419","tol_trial_num","<div class = centerbox><p class = center-block-text>problem <strong>9</strong> out of 25 problems</p></div>","0","","","","","","","","","","","","","","","","","","","","","","","","",""
"","","","","","single-stim-button","118","359407","0.0-2.0-34.0-0.0","5dcc90820a493f92d077d6ec","C3","batch3","","3945","tol_tohand","","","","tol_peg_1","3945","3945","0","[[3,0,0],[0,0],[1]]","1","[[2,1,0],[3,0],[0]]","8","0","","","","","","6","","","","","","","","",""
"","","","","","single-stim-button","119","363653","0.0-2.0-34.0-1.0","5dcc90820a493f92d077d6ec","C3","batch3","","4245","tol_toboard","","","","tol_peg_2","4245","4245","0","[[3,0,0],[2,0],[1]]","1","[[2,1,0],[3,0],[0]]","8","0","","","","","","6","","","","","","","","",""
"","","","","","single-stim-button","120","364197","0.0-2.0-34.1-0.1","5dcc90820a493f92d077d6ec","C3","batch3","","544","tol_tohand","","","","tol_peg_1","544","544","0","[[0,0,0],[2,0],[1]]","2","[[2,1,0],[3,0],[0]]","8","0","","","","","","6","","","","","","","","",""
"","","","","","single-stim-button","121","364713","0.0-2.0-34.1-1.1","5dcc90820a493f92d077d6ec","C3","batch3","","515","tol_toboard","","","","tol_peg_2","515","515","0","[[0,0,0],[2,3],[1]]","2","[[2,1,0],[3,0],[0]]","8","0","","","","","","6","","","","","","","","",""
"","","","","","single-stim-button","122","365157","0.0-2.0-34.2-0.2","5dcc90820a493f92d077d6ec","C3","batch3","","443","tol_tohand","","","","tol_peg_3","443","443","0","[[0,0,0],[2,3],[0]]","3","[[2,1,0],[3,0],[0]]","8","0","","","","","","6","","","","","","","","",""
"","","","","","single-stim-button","123","365766","0.0-2.0-34.2-1.2","5dcc90820a493f92d077d6ec","C3","batch3","","608","tol_toboard","","","","tol_peg_1","608","608","0","[[1,0,0],[2,3],[0]]","3","[[2,1,0],[3,0],[0]]","8","0","","","","","","6","","","","","","","","",""
"","","","","","single-stim-button","124","366273","0.0-2.0-34.3-0.3","5dcc90820a493f92d077d6ec","C3","batch3","","507","tol_tohand","","","","tol_peg_2","507","507","0","[[1,0,0],[2,0],[0]]","4","[[2,1,0],[3,0],[0]]","8","0","","","","","","6","","","","","","","","",""
"","","","","","single-stim-button","125","366825","0.0-2.0-34.3-1.3","5dcc90820a493f92d077d6ec","C3","batch3","","551","tol_toboard","","","","tol_peg_3","551","551","0","[[1,0,0],[2,0],[3]]","4","[[2,1,0],[3,0],[0]]","8","0","","","","","","6","","","","","","","","",""
"","","","","","single-stim-button","126","367240","0.0-2.0-34.4-0.4","5dcc90820a493f92d077d6ec","C3","batch3","","414","tol_tohand","","","","tol_peg_2","414","414","0","[[1,0,0],[0,0],[3]]","5","[[2,1,0],[3,0],[0]]","8","0","","","","","","6","","","","","","","","",""
"","","","","","single-stim-button","127","367763","0.0-2.0-34.4-1.4","5dcc90820a493f92d077d6ec","C3","batch3","","522","tol_toboard","","","","tol_peg_1","522","522","0","[[1,2,0],[0,0],[3]]","5","[[2,1,0],[3,0],[0]]","8","0","","","","","","6","","","","","","","","",""
"","","","","","single-stim-button","128","368593","0.0-2.0-34.5-0.5","5dcc90820a493f92d077d6ec","C3","batch3","","830","tol_tohand","","","","tol_peg_3","830","830","0","[[1,2,0],[0,0],[0]]","6","[[2,1,0],[3,0],[0]]","8","0","","","","","","6","","","","","","","","",""
"","","","","","single-stim-button","129","369087","0.0-2.0-34.5-1.5","5dcc90820a493f92d077d6ec","C3","batch3","","493","tol_toboard","","","","tol_peg_2","493","493","0","[[1,2,0],[3,0],[0]]","6","[[2,1,0],[3,0],[0]]","8","0","","","","","","6","","","","","","","","",""
"","","","","","single-stim-button","130","372367","0.0-2.0-34.6-0.6","5dcc90820a493f92d077d6ec","C3","batch3","","3278","tol_tohand","","","","tol_peg_1","3278","3278","0","[[1,0,0],[3,0],[0]]","7","[[2,1,0],[3,0],[0]]","8","0","","","","","","6","","","","","","","","",""
"","","","","","single-stim-button","131","373500","0.0-2.0-34.6-1.6","5dcc90820a493f92d077d6ec","C3","batch3","","1132","tol_toboard","","","","tol_peg_2","1132","1132","0","[[1,0,0],[3,2],[0]]","7","[[2,1,0],[3,0],[0]]","8","0","","","","","","6","","","","","","","","",""
"","","","","","single-stim-button","132","374122","0.0-2.0-34.7-0.7","5dcc90820a493f92d077d6ec","C3","batch3","","621","tol_tohand","","","","tol_peg_1","621","621","0","[[0,0,0],[3,2],[0]]","8","[[2,1,0],[3,0],[0]]","8","0","","","","","","6","","","","","","","","",""
"","","","","","single-stim-button","133","374816","0.0-2.0-34.7-1.7","5dcc90820a493f92d077d6ec","C3","batch3","","694","tol_toboard","","","","tol_peg_3","694","694","0","[[0,0,0],[3,2],[1]]","8","[[2,1,0],[3,0],[0]]","8","0","","","","","","6","","","","","","","","",""
"","","","","","single-stim-button","134","375231","0.0-2.0-34.8-0.8","5dcc90820a493f92d077d6ec","C3","batch3","","414","tol_tohand","","","","tol_peg_2","414","414","0","[[0,0,0],[3,0],[1]]","9","[[2,1,0],[3,0],[0]]","8","0","","","","","","6","","","","","","","","",""
"","","","","","single-stim-button","135","375763","0.0-2.0-34.8-1.8","5dcc90820a493f92d077d6ec","C3","batch3","","530","tol_toboard","","","","tol_peg_1","530","530","0","[[2,0,0],[3,0],[1]]","9","[[2,1,0],[3,0],[0]]","8","0","","","","","","6","","","","","","","","",""
"","","","","","single-stim-button","136","376384","0.0-2.0-34.9-0.9","5dcc90820a493f92d077d6ec","C3","batch3","","621","tol_tohand","","","","tol_peg_3","621","621","0","[[2,0,0],[3,0],[0]]","10","[[2,1,0],[3,0],[0]]","8","0","","","","","","6","","","","","","","","",""
"","","","","","single-stim-button","137","376986","0.0-2.0-34.9-1.9","5dcc90820a493f92d077d6ec","C3","batch3","","600","tol_toboard","","","","tol_peg_1","600","600","0","[[2,1,0],[3,0],[0]]","10","[[2,1,0],[3,0],[0]]","8","0","","","","","","6","","","","","","","","",""
"","","","","","poldrack-single-stim","138","377995","0.0-2.0-35.0","5dcc90820a493f92d077d6ec","C3","batch3","","-1","tol_feedback","","","true","","1000","1000","500","","","","","","-1","none","true","3945","11617","","","","","","","","","",""
"","","","","","html-button-response","139","383251","0.0-2.0-36.0","5dcc90820a493f92d077d6ec","C3","batch3","","5254.699999928474","tol_trial_num","<div class = centerbox><p class = center-block-text>problem <strong>10</strong> out of 25 problems</p></div>","0","","","","","","","","","","","","","","","","","","","","","","","","",""
"","","","","","single-stim-button","140","388385","0.0-2.0-37.0-0.0","5dcc90820a493f92d077d6ec","C3","batch3","","5134","tol_tohand","","","","tol_peg_2","5134","5134","0","[[3,0,0],[0,0],[2]]","1","[[3,0,0],[2,1],[0]]","9","0","","","","","","3","","","","","","","","",""
"","","","","","single-stim-button","141","389001","0.0-2.0-37.0-1.0","5dcc90820a493f92d077d6ec","C3","batch3","","615","tol_toboard","","","","tol_peg_1","615","615","0","[[3,1,0],[0,0],[2]]","1","[[3,0,0],[2,1],[0]]","9","0","","","","","","3","","","","","","","","",""
"","","","","","single-stim-button","142","390219","0.0-2.0-37.1-0.1","5dcc90820a493f92d077d6ec","C3","batch3","","1216","tol_tohand","","","","tol_peg_3","1216","1216","0","[[3,1,0],[0,0],[0]]","2","[[3,0,0],[2,1],[0]]","9","0","","","","","","3","","","","","","","","",""
"","","","","","single-stim-button","143","390778","0.0-2.0-37.1-1.1","5dcc90820a493f92d077d6ec","C3","batch3","","558","tol_toboard","","","","tol_peg_2","558","558","0","[[3,1,0],[2,0],[0]]","2","[[3,0,0],[2,1],[0]]","9","0","","","","","","3","","","","","","","","",""
"","","","","","single-stim-button","144","391329","0.0-2.0-37.2-0.2","5dcc90820a493f92d077d6ec","C3","batch3","","551","tol_tohand","","","","tol_peg_1","551","551","0","[[3,0,0],[2,0],[0]]","3","[[3,0,0],[2,1],[0]]","9","0","","","","","","3","","","","","","","","",""
"","","","","","single-stim-button","145","391923","0.0-2.0-37.2-1.2","5dcc90820a493f92d077d6ec","C3","batch3","","593","tol_toboard","","","","tol_peg_2","593","593","0","[[3,0,0],[2,1],[0]]","3","[[3,0,0],[2,1],[0]]","9","0","","","","","","3","","","","","","","","",""
"","","","","","poldrack-single-stim","146","392928","0.0-2.0-38.0","5dcc90820a493f92d077d6ec","C3","batch3","","-1","tol_feedback","","","true","","1000","1000","500","","","","","","-1","none","true","5134","6901","","","","","","","","","",""
"","","","","","html-button-response","147","394094","0.0-2.0-39.0","5dcc90820a493f92d077d6ec","C3","batch3","","1164","tol_trial_num","<div class = centerbox><p class = center-block-text>problem <strong>11</strong> out of 25 problems</p></div>","0","","","","","","","","","","","","","","","","","","","","","","","","",""
"","","","","","single-stim-button","148","399415","0.0-2.0-40.0-0.0","5dcc90820a493f92d077d6ec","C3","batch3","","5321","tol_tohand","","","","tol_peg_2","5321","5321","0","[[1,2,0],[0,0],[0]]","1","[[2,0,0],[1,3],[0]]","10","0","","","","","","6","","","","","","","","",""
"","","","","","single-stim-button","149","402524","0.0-2.0-40.0-1.0","5dcc90820a493f92d077d6ec","C3","batch3","","3108","tol_toboard","","","","tol_peg_3","3108","3108","0","[[1,2,0],[0,0],[3]]","1","[[2,0,0],[1,3],[0]]","10","0","","","","","","6","","","","","","","","",""
"","","","","","single-stim-button","150","403183","0.0-2.0-40.1-0.1","5dcc90820a493f92d077d6ec","C3","batch3","","657","tol_tohand","","","","tol_peg_1","657","657","0","[[1,0,0],[0,0],[3]]","2","[[2,0,0],[1,3],[0]]","10","0","","","","","","6","","","","","","","","",""
"","","","","","single-stim-button","151","403727","0.0-2.0-40.1-1.1","5dcc90820a493f92d077d6ec","C3","batch3","","544","tol_toboard","","","","tol_peg_2","544","544","0","[[1,0,0],[2,0],[3]]","2","[[2,0,0],[1,3],[0]]","10","0","","","","","","6","","","","","","","","",""
"","","","","","single-stim-button","152","405991","0.0-2.0-40.2-0.2","5dcc90820a493f92d077d6ec","C3","batch3","","2263","tol_tohand","","","","tol_peg_1","2263","2263","0","[[0,0,0],[2,0],[3]]","3","[[2,0,0],[1,3],[0]]","10","0","","","","","","6","","","","","","","","",""
"","","","","","single-stim-button","153","406422","0.0-2.0-40.2-1.2","5dcc90820a493f92d077d6ec","C3","batch3","","429","tol_toboard","","","","tol_peg_2","429","429","0","[[0,0,0],[2,1],[3]]","3","[[2,0,0],[1,3],[0]]","10","0","","","","","","6","","","","","","","","",""
"","","","","","single-stim-button","154","406872","0.0-2.0-40.3-0.3","5dcc90820a493f92d077d6ec","C3","batch3","","449","tol_tohand","","","","tol_peg_3","449","449","0","[[0,0,0],[2,1],[0]]","4","[[2,0,0],[1,3],[0]]","10","0","","","","","","6","","","","","","","","",""
"","","","","","single-stim-button","155","407861","0.0-2.0-40.3-1.3","5dcc90820a493f92d077d6ec","C3","batch3","","988","tol_toboard","","","","tol_peg_1","988","988","0","[[3,0,0],[2,1],[0]]","4","[[2,0,0],[1,3],[0]]","10","0","","","","","","6","","","","","","","","",""
"","","","","","single-stim-button","156","408470","0.0-2.0-40.4-0.4","5dcc90820a493f92d077d6ec","C3","batch3","","607","tol_tohand","","","","tol_peg_2","607","607","0","[[3,0,0],[2,0],[0]]","5","[[2,0,0],[1,3],[0]]","10","0","","","","","","6","","","","","","","","",""
"","","","","","single-stim-button","157","408964","0.0-2.0-40.4-1.4","5dcc90820a493f92d077d6ec","C3","batch3","","493","tol_toboard","","","","tol_peg_3","493","493","0","[[3,0,0],[2,0],[1]]","5","[[2,0,0],[1,3],[0]]","10","0","","","","","","6","","","","","","","","",""
"","","","","","single-stim-button","158","409581","0.0-2.0-40.5-0.5","5dcc90820a493f92d077d6ec","C3","batch3","","616","tol_tohand","","","","tol_peg_2","616","616","0","[[3,0,0],[0,0],[1]]","6","[[2,0,0],[1,3],[0]]","10","0","","","","","","6","","","","","","","","",""
"","","","","","single-stim-button","159","410031","0.0-2.0-40.5-1.5","5dcc90820a493f92d077d6ec","C3","batch3","","450","tol_toboard","","","","tol_peg_1","450","450","0","[[3,2,0],[0,0],[1]]","6","[[2,0,0],[1,3],[0]]","10","0","","","","","","6","","","","","","","","",""
"","","","","","single-stim-button","160","410820","0.0-2.0-40.6-0.6","5dcc90820a493f92d077d6ec","C3","batch3","","787","tol_tohand","","","","tol_peg_3","787","787","0","[[3,2,0],[0,0],[0]]","7","[[2,0,0],[1,3],[0]]","10","0","","","","","","6","","","","","","","","",""
"","","","","","single-stim-button","161","411242","0.0-2.0-40.6-1.6","5dcc90820a493f92d077d6ec","C3","batch3","","422","tol_toboard","","","","tol_peg_2","422","422","0","[[3,2,0],[1,0],[0]]","7","[[2,0,0],[1,3],[0]]","10","0","","","","","","6","","","","","","","","",""
"","","","","","single-stim-button","162","411779","0.0-2.0-40.7-0.7","5dcc90820a493f92d077d6ec","C3","batch3","","537","tol_tohand","","","","tol_peg_1","537","537","0","[[3,0,0],[1,0],[0]]","8","[[2,0,0],[1,3],[0]]","10","0","","","","","","6","","","","","","","","",""
"","","","","","single-stim-button","163","412732","0.0-2.0-40.7-1.7","5dcc90820a493f92d077d6ec","C3","batch3","","953","tol_toboard","","","","tol_peg_3","953","953","0","[[3,0,0],[1,0],[2]]","8","[[2,0,0],[1,3],[0]]","10","0","","","","","","6","","","","","","","","",""
"","","","","","single-stim-button","164","413383","0.0-2.0-40.8-0.8","5dcc90820a493f92d077d6ec","C3","batch3","","650","tol_tohand","","","","tol_peg_1","650","650","0","[[0,0,0],[1,0],[2]]","9","[[2,0,0],[1,3],[0]]","10","0","","","","","","6","","","","","","","","",""
"","","","","","single-stim-button","165","413913","0.0-2.0-40.8-1.8","5dcc90820a493f92d077d6ec","C3","batch3","","529","tol_toboard","","","","tol_peg_2","529","529","0","[[0,0,0],[1,3],[2]]","9","[[2,0,0],[1,3],[0]]","10","0","","","","","","6","","","","","","","","",""
"","","","","","single-stim-button","166","414888","0.0-2.0-40.9-0.9","5dcc90820a493f92d077d6ec","C3","batch3","","973","tol_tohand","","","","tol_peg_3","973","973","0","[[0,0,0],[1,3],[0]]","10","[[2,0,0],[1,3],[0]]","10","0","","","","","","6","","","","","","","","",""
"","","","","","single-stim-button","167","416380","0.0-2.0-40.9-1.9","5dcc90820a493f92d077d6ec","C3","batch3","","1492","tol_toboard","","","","tol_peg_1","1492","1492","0","[[2,0,0],[1,3],[0]]","10","[[2,0,0],[1,3],[0]]","10","0","","","","","","6","","","","","","","","",""
"","","","","","poldrack-single-stim","168","417390","0.0-2.0-41.0","5dcc90820a493f92d077d6ec","C3","batch3","","-1","tol_feedback","","","true","","1000","1000","500","","","","","","-1","none","true","5321","12860","","","","","","","","","",""
"","","","","","html-button-response","169","418462","0.0-2.0-42.0","5dcc90820a493f92d077d6ec","C3","batch3","","1070.9000000953674","tol_trial_num","<div class = centerbox><p class = center-block-text>problem <strong>12</strong> out of 25 problems</p></div>","0","","","","","","","","","","","","","","","","","","","","","","","","",""
"","","","","","single-stim-button","170","420016","0.0-2.0-43.0-0.0","5dcc90820a493f92d077d6ec","C3","batch3","","1553","tol_tohand","","","","tol_peg_2","1553","1553","0","[[1,2,0],[0,0],[0]]","1","[[2,3,0],[0,0],[1]]","11","0","","","","","","4","","","","","","","","",""
"","","","","","single-stim-button","171","423205","0.0-2.0-43.0-1.0","5dcc90820a493f92d077d6ec","C3","batch3","","3188","tol_toboard","","","","tol_peg_2","3188","3188","0","[[1,2,0],[3,0],[0]]","1","[[2,3,0],[0,0],[1]]","11","0","","","","","","4","","","","","","","","",""
"","","","","","single-stim-button","172","424284","0.0-2.0-43.1-0.1","5dcc90820a493f92d077d6ec","C3","batch3","","1078","tol_tohand","","","","tol_peg_1","1078","1078","0","[[1,0,0],[3,0],[0]]","2","[[2,3,0],[0,0],[1]]","11","0","","","","","","4","","","","","","","","",""
"","","","","","single-stim-button","173","424621","0.0-2.0-43.1-1.1","5dcc90820a493f92d077d6ec","C3","batch3","","336","tol_toboard","","","","tol_peg_1","336","336","0","[[1,2,0],[3,0],[0]]","2","[[2,3,0],[0,0],[1]]","11","0","","","","","","4","","","","","","","","",""
"","","","","","single-stim-button","174","426012","0.0-2.0-43.2-0.2","5dcc90820a493f92d077d6ec","C3","batch3","","1390","tol_tohand","","","","tol_peg_1","1390","1390","0","[[1,0,0],[3,0],[0]]","3","[[2,3,0],[0,0],[1]]","11","0","","","","","","4","","","","","","","","",""
"","","","","","single-stim-button","175","426912","0.0-2.0-43.2-1.2","5dcc90820a493f92d077d6ec","C3","batch3","","899","tol_toboard","","","","tol_peg_2","899","899","0","[[1,0,0],[3,2],[0]]","3","[[2,3,0],[0,0],[1]]","11","0","","","","","","4","","","","","","","","",""
"","","","","","single-stim-button","176","427671","0.0-2.0-43.3-0.3","5dcc90820a493f92d077d6ec","C3","batch3","","759","tol_tohand","","","","tol_peg_1","759","759","0","[[0,0,0],[3,2],[0]]","4","[[2,3,0],[0,0],[1]]","11","0","","","","","","4","","","","","","","","",""
"","","","","","single-stim-button","177","428635","0.0-2.0-43.3-1.3","5dcc90820a493f92d077d6ec","C3","batch3","","962","tol_toboard","","","","tol_peg_3","962","962","0","[[0,0,0],[3,2],[1]]","4","[[2,3,0],[0,0],[1]]","11","0","","","","","","4","","","","","","","","",""
"","","","","","single-stim-button","178","429402","0.0-2.0-43.4-0.4","5dcc90820a493f92d077d6ec","C3","batch3","","767","tol_tohand","","","","tol_peg_2","767","767","0","[[0,0,0],[3,0],[1]]","5","[[2,3,0],[0,0],[1]]","11","0","","","","","","4","","","","","","","","",""
"","","","","","single-stim-button","179","431371","0.0-2.0-43.4-1.4","5dcc90820a493f92d077d6ec","C3","batch3","","1966","tol_toboard","","","","tol_peg_1","1966","1966","0","[[2,0,0],[3,0],[1]]","5","[[2,3,0],[0,0],[1]]","11","0","","","","","","4","","","","","","","","",""
"","","","","","single-stim-button","180","432112","0.0-2.0-43.5-0.5","5dcc90820a493f92d077d6ec","C3","batch3","","740","tol_tohand","","","","tol_peg_2","740","740","0","[[2,0,0],[0,0],[1]]","6","[[2,3,0],[0,0],[1]]","11","0","","","","","","4","","","","","","","","",""
"","","","","","single-stim-button","181","433179","0.0-2.0-43.5-1.5","5dcc90820a493f92d077d6ec","C3","batch3","","1066","tol_toboard","","","","tol_peg_1","1066","1066","0","[[2,3,0],[0,0],[1]]","6","[[2,3,0],[0,0],[1]]","11","0","","","","","","4","","","","","","","","",""
"","","","","","poldrack-single-stim","182","434184","0.0-2.0-44.0","5dcc90820a493f92d077d6ec","C3","batch3","","-1","tol_feedback","","","true","","1000","1000","500","","","","","","-1","none","true","1553","6287","","","","","","","","","",""
"","","","","","html-button-response","183","436844","0.0-2.0-45.0","5dcc90820a493f92d077d6ec","C3","batch3","","2659.2000000476837","tol_trial_num","<div class = centerbox><p class = center-block-text>problem <strong>13</strong> out of 25 problems</p></div>","0","","","","","","","","","","","","","","","","","","","","","","","","",""
"","","","","","single-stim-button","184","439568","0.0-2.0-46.0-0.0","5dcc90820a493f92d077d6ec","C3","batch3","","2722","tol_tohand","","","","tol_peg_2","2722","2722","0","[[1,2,0],[0,0],[0]]","1","[[0,0,0],[2,3],[1]]","12","0","","","","","","4","","","","","","","","",""
"","","","","","single-stim-button","185","440716","0.0-2.0-46.0-1.0","5dcc90820a493f92d077d6ec","C3","batch3","","1148","tol_toboard","","","","tol_peg_3","1148","1148","0","[[1,2,0],[0,0],[3]]","1","[[0,0,0],[2,3],[1]]","12","0","","","","","","4","","","","","","","","",""
"","","","","","single-stim-button","186","441526","0.0-2.0-46.1-0.1","5dcc90820a493f92d077d6ec","C3","batch3","","809","tol_tohand","","","","tol_peg_1","809","809","0","[[1,0,0],[0,0],[3]]","2","[[0,0,0],[2,3],[1]]","12","0","","","","","","4","","","","","","","","",""
"","","","","","single-stim-button","187","442378","0.0-2.0-46.1-1.1","5dcc90820a493f92d077d6ec","C3","batch3","","850","tol_toboard","","","","tol_peg_2","850","850","0","[[1,0,0],[2,0],[3]]","2","[[0,0,0],[2,3],[1]]","12","0","","","","","","4","","","","","","","","",""
"","","","","","single-stim-button","188","443934","0.0-2.0-46.2-0.2","5dcc90820a493f92d077d6ec","C3","batch3","","1556","tol_tohand","","","","tol_peg_3","1556","1556","0","[[1,0,0],[2,0],[0]]","3","[[0,0,0],[2,3],[1]]","12","0","","","","","","4","","","","","","","","",""
"","","","","","single-stim-button","189","445087","0.0-2.0-46.2-1.2","5dcc90820a493f92d077d6ec","C3","batch3","","1153","tol_toboard","","","","tol_peg_2","1153","1153","0","[[1,0,0],[2,3],[0]]","3","[[0,0,0],[2,3],[1]]","12","0","","","","","","4","","","","","","","","",""
"","","","","","single-stim-button","190","445747","0.0-2.0-46.3-0.3","5dcc90820a493f92d077d6ec","C3","batch3","","658","tol_tohand","","","","tol_peg_1","658","658","0","[[0,0,0],[2,3],[0]]","4","[[0,0,0],[2,3],[1]]","12","0","","","","","","4","","","","","","","","",""
"","","","","","single-stim-button","191","446756","0.0-2.0-46.3-1.3","5dcc90820a493f92d077d6ec","C3","batch3","","1008","tol_toboard","","","","tol_peg_3","1008","1008","0","[[0,0,0],[2,3],[1]]","4","[[0,0,0],[2,3],[1]]","12","0","","","","","","4","","","","","","","","",""
"","","","","","poldrack-single-stim","192","447765","0.0-2.0-47.0","5dcc90820a493f92d077d6ec","C3","batch3","","-1","tol_feedback","","","true","","1000","1000","500","","","","","","-1","none","true","2722","5745","","","","","","","","","",""
"","","","","","html-button-response","193","452836","0.0-2.0-48.0","5dcc90820a493f92d077d6ec","C3","batch3","","5070.299999952316","attention_check","<p class = block-text>How many balls are in your board<br></p>","1","true","","","","","","","","","","","","","","","","","","","","","","","",""
"","","","","","html-button-response","194","453674","0.0-2.0-49.0","5dcc90820a493f92d077d6ec","C3","batch3","","836.6000000238419","tol_trial_num","<div class = centerbox><p class = center-block-text>problem <strong>14</strong> out of 25 problems</p></div>","0","","","","","","","","","","","","","","","","","","","","","","","","",""
"","","","","","single-stim-button","195","459094","0.0-2.0-50.0-0.0","5dcc90820a493f92d077d6ec","C3","batch3","","5420","tol_tohand","","","","tol_peg_1","5420","5420","0","[[2,0,0],[3,0],[0]]","1","[[1,2,0],[3,0],[0]]","13","0","","","","","","4","","","","","","","","",""
"","","","","","single-stim-button","196","461367","0.0-2.0-50.0-1.0","5dcc90820a493f92d077d6ec","C3","batch3","","2271","tol_toboard","","","","tol_peg_2","2271","2271","0","[[2,0,0],[3,1],[0]]","1","[[1,2,0],[3,0],[0]]","13","0","","","","","","4","","","","","","","","",""
"","","","","","single-stim-button","197","462661","0.0-2.0-50.1-0.1","5dcc90820a493f92d077d6ec","C3","batch3","","1293","tol_tohand","","","","tol_peg_1","1293","1293","0","[[0,0,0],[3,1],[0]]","2","[[1,2,0],[3,0],[0]]","13","0","","","","","","4","","","","","","","","",""
"","","","","","single-stim-button","198","463484","0.0-2.0-50.1-1.1","5dcc90820a493f92d077d6ec","C3","batch3","","823","tol_toboard","","","","tol_peg_3","823","823","0","[[0,0,0],[3,1],[2]]","2","[[1,2,0],[3,0],[0]]","13","0","","","","","","4","","","","","","","","",""
"","","","","","single-stim-button","199","464269","0.0-2.0-50.2-0.2","5dcc90820a493f92d077d6ec","C3","batch3","","783","tol_tohand","","","","tol_peg_2","783","783","0","[[0,0,0],[3,0],[2]]","3","[[1,2,0],[3,0],[0]]","13","0","","","","","","4","","","","","","","","",""
"","","","","","single-stim-button","200","465909","0.0-2.0-50.2-1.2","5dcc90820a493f92d077d6ec","C3","batch3","","1640","tol_toboard","","","","tol_peg_1","1640","1640","0","[[1,0,0],[3,0],[2]]","3","[[1,2,0],[3,0],[0]]","13","0","","","","","","4","","","","","","","","",""
"","","","","","single-stim-button","201","466331","0.0-2.0-50.3-0.3","5dcc90820a493f92d077d6ec","C3","batch3","","420","tol_tohand","","","","tol_peg_1","420","420","0","[[0,0,0],[3,0],[2]]","4","[[1,2,0],[3,0],[0]]","13","0","","","","","","4","","","","","","","","",""
"","","","","","single-stim-button","202","466976","0.0-2.0-50.3-1.3","5dcc90820a493f92d077d6ec","C3","batch3","","644","tol_toboard","","","","tol_peg_1","644","644","0","[[1,0,0],[3,0],[2]]","4","[[1,2,0],[3,0],[0]]","13","0","","","","","","4","","","","","","","","",""
"","","","","","single-stim-button","203","467940","0.0-2.0-50.4-0.4","5dcc90820a493f92d077d6ec","C3","batch3","","963","tol_tohand","","","","tol_peg_3","963","963","0","[[1,0,0],[3,0],[0]]","5","[[1,2,0],[3,0],[0]]","13","0","","","","","","4","","","","","","","","",""
"","","","","","single-stim-button","204","468992","0.0-2.0-50.4-1.4","5dcc90820a493f92d077d6ec","C3","batch3","","1050","tol_toboard","","","","tol_peg_1","1050","1050","0","[[1,2,0],[3,0],[0]]","5","[[1,2,0],[3,0],[0]]","13","0","","","","","","4","","","","","","","","",""
"","","","","","poldrack-single-stim","205","470000","0.0-2.0-51.0","5dcc90820a493f92d077d6ec","C3","batch3","","-1","tol_feedback","","","true","","1000","1000","500","","","","","","-1","none","true","5420","8879","","","","","","","","","",""
"","","","","","html-button-response","206","471400","0.0-2.0-52.0","5dcc90820a493f92d077d6ec","C3","batch3","","1398.1000000238419","tol_trial_num","<div class = centerbox><p class = center-block-text>problem <strong>15</strong> out of 25 problems</p></div>","0","","","","","","","","","","","","","","","","","","","","","","","","",""
"","","","","","single-stim-button","207","474984","0.0-2.0-53.0-0.0","5dcc90820a493f92d077d6ec","C3","batch3","","3584","tol_tohand","","","","tol_peg_1","3584","3584","0","[[1,0,0],[3,0],[0]]","1","[[2,0,0],[3,0],[1]]","14","0","","","","","","3","","","","","","","","",""
"","","","","","single-stim-button","208","475853","0.0-2.0-53.0-1.0","5dcc90820a493f92d077d6ec","C3","batch3","","869","tol_toboard","","","","tol_peg_2","869","869","0","[[1,0,0],[3,2],[0]]","1","[[2,0,0],[3,0],[1]]","14","0","","","","","","3","","","","","","","","",""
"","","","","","single-stim-button","209","476785","0.0-2.0-53.1-0.1","5dcc90820a493f92d077d6ec","C3","batch3","","931","tol_tohand","","","","tol_peg_1","931","931","0","[[0,0,0],[3,2],[0]]","2","[[2,0,0],[3,0],[1]]","14","0","","","","","","3","","","","","","","","",""
"","","","","","single-stim-button","210","477649","0.0-2.0-53.1-1.1","5dcc90820a493f92d077d6ec","C3","batch3","","862","tol_toboard","","","","tol_peg_3","862","862","0","[[0,0,0],[3,2],[1]]","2","[[2,0,0],[3,0],[1]]","14","0","","","","","","3","","","","","","","","",""
"","","","","","single-stim-button","211","478143","0.0-2.0-53.2-0.2","5dcc90820a493f92d077d6ec","C3","batch3","","493","tol_tohand","","","","tol_peg_2","493","493","0","[[0,0,0],[3,0],[1]]","3","[[2,0,0],[3,0],[1]]","14","0","","","","","","3","","","","","","","","",""
"","","","","","single-stim-button","212","478752","0.0-2.0-53.2-1.2","5dcc90820a493f92d077d6ec","C3","batch3","","608","tol_toboard","","","","tol_peg_1","608","608","0","[[2,0,0],[3,0],[1]]","3","[[2,0,0],[3,0],[1]]","14","0","","","","","","3","","","","","","","","",""
"","","","","","poldrack-single-stim","213","479756","0.0-2.0-54.0","5dcc90820a493f92d077d6ec","C3","batch3","","-1","tol_feedback","","","true","","1000","1000","500","","","","","","-1","none","true","3584","5008","","","","","","","","","",""
"","","","","","html-button-response","214","480923","0.0-2.0-55.0","5dcc90820a493f92d077d6ec","C3","batch3","","1165.8999999761581","tol_trial_num","<div class = centerbox><p class = center-block-text>problem <strong>16</strong> out of 25 problems</p></div>","0","","","","","","","","","","","","","","","","","","","","","","","","",""
"","","","","","single-stim-button","215","492162","0.0-2.0-56.0-0.0","5dcc90820a493f92d077d6ec","C3","batch3","","11237","tol_tohand","","","","tol_peg_2","11237","11237","0","[[0,0,0],[2,0],[1]]","1","[[2,3,0],[1,0],[0]]","15","0","","","","","","7","","","","","","","","",""
"","","","","","single-stim-button","216","494290","0.0-2.0-56.0-1.0","5dcc90820a493f92d077d6ec","C3","batch3","","2127","tol_toboard","","","","tol_peg_1","2127","2127","0","[[3,0,0],[2,0],[1]]","1","[[2,3,0],[1,0],[0]]","15","0","","","","","","7","","","","","","","","",""
"","","","","","single-stim-button","217","494819","0.0-2.0-56.1-0.1","5dcc90820a493f92d077d6ec","C3","batch3","","528","tol_tohand","","","","tol_peg_2","528","528","0","[[3,0,0],[0,0],[1]]","2","[[2,3,0],[1,0],[0]]","15","0","","","","","","7","","","","","","","","",""
"","","","","","single-stim-button","218","495359","0.0-2.0-56.1-1.1","5dcc90820a493f92d077d6ec","C3","batch3","","539","tol_toboard","","","","tol_peg_1","539","539","0","[[3,2,0],[0,0],[1]]","2","[[2,3,0],[1,0],[0]]","15","0","","","","","","7","","","","","","","","",""
"","","","","","single-stim-button","219","496325","0.0-2.0-56.2-0.2","5dcc90820a493f92d077d6ec","C3","batch3","","965","tol_tohand","","","","tol_peg_3","965","965","0","[[3,2,0],[0,0],[0]]","3","[[2,3,0],[1,0],[0]]","15","0","","","","","","7","","","","","","","","",""
"","","","","","single-stim-button","220","496997","0.0-2.0-56.2-1.2","5dcc90820a493f92d077d6ec","C3","batch3","","672","tol_toboard","","","","tol_peg_2","672","672","0","[[3,2,0],[1,0],[0]]","3","[[2,3,0],[1,0],[0]]","15","0","","","","","","7","","","","","","","","",""
"","","","","","single-stim-button","221","497542","0.0-2.0-56.3-0.3","5dcc90820a493f92d077d6ec","C3","batch3","","544","tol_tohand","","","","tol_peg_1","544","544","0","[[3,0,0],[1,0],[0]]","4","[[2,3,0],[1,0],[0]]","15","0","","","","","","7","","","","","","","","",""
"","","","","","single-stim-button","222","498834","0.0-2.0-56.3-1.3","5dcc90820a493f92d077d6ec","C3","batch3","","1291","tol_toboard","","","","tol_peg_3","1291","1291","0","[[3,0,0],[1,0],[2]]","4","[[2,3,0],[1,0],[0]]","15","0","","","","","","7","","","","","","","","",""
"","","","","","single-stim-button","223","499762","0.0-2.0-56.4-0.4","5dcc90820a493f92d077d6ec","C3","batch3","","927","tol_tohand","","","","tol_peg_1","927","927","0","[[0,0,0],[1,0],[2]]","5","[[2,3,0],[1,0],[0]]","15","0","","","","","","7","","","","","","","","",""
"","","","","","single-stim-button","224","500295","0.0-2.0-56.4-1.4","5dcc90820a493f92d077d6ec","C3","batch3","","531","tol_toboard","","","","tol_peg_2","531","531","0","[[0,0,0],[1,3],[2]]","5","[[2,3,0],[1,0],[0]]","15","0","","","","","","7","","","","","","","","",""
"","","","","","single-stim-button","225","500736","0.0-2.0-56.5-0.5","5dcc90820a493f92d077d6ec","C3","batch3","","441","tol_tohand","","","","tol_peg_3","441","441","0","[[0,0,0],[1,3],[0]]","6","[[2,3,0],[1,0],[0]]","15","0","","","","","","7","","","","","","","","",""
"","","","","","single-stim-button","226","501276","0.0-2.0-56.5-1.5","5dcc90820a493f92d077d6ec","C3","batch3","","538","tol_toboard","","","","tol_peg_1","538","538","0","[[2,0,0],[1,3],[0]]","6","[[2,3,0],[1,0],[0]]","15","0","","","","","","7","","","","","","","","",""
"","","","","","single-stim-button","227","501725","0.0-2.0-56.6-0.6","5dcc90820a493f92d077d6ec","C3","batch3","","448","tol_tohand","","","","tol_peg_2","448","448","0","[[2,0,0],[1,0],[0]]","7","[[2,3,0],[1,0],[0]]","15","0","","","","","","7","","","","","","","","",""
"","","","","","single-stim-button","228","502378","0.0-2.0-56.6-1.6","5dcc90820a493f92d077d6ec","C3","batch3","","652","tol_toboard","","","","tol_peg_1","652","652","0","[[2,3,0],[1,0],[0]]","7","[[2,3,0],[1,0],[0]]","15","0","","","","","","7","","","","","","","","",""
"","","","","","poldrack-single-stim","229","503392","0.0-2.0-57.0","5dcc90820a493f92d077d6ec","C3","batch3","","-1","tol_feedback","","","true","","1000","1000","500","","","","","","-1","none","true","11237","15090","","","","","","","","","",""
"","","","","","html-button-response","230","504555","0.0-2.0-58.0","5dcc90820a493f92d077d6ec","C3","batch3","","1161.9000000953674","tol_trial_num","<div class = centerbox><p class = center-block-text>problem <strong>17</strong> out of 25 problems</p></div>","0","","","","","","","","","","","","","","","","","","","","","","","","",""
"","","","","","single-stim-button","231","512057","0.0-2.0-59.0-0.0","5dcc90820a493f92d077d6ec","C3","batch3","","7501","tol_tohand","","","","tol_peg_2","7501","7501","0","[[1,2,0],[0,0],[0]]","1","[[3,1,0],[2,0],[0]]","16","0","","","","","","5","","","","","","","","",""
"","","","","","single-stim-button","232","513244","0.0-2.0-59.0-1.0","5dcc90820a493f92d077d6ec","C3","batch3","","1185","tol_toboard","","","","tol_peg_3","1185","1185","0","[[1,2,0],[0,0],[3]]","1","[[3,1,0],[2,0],[0]]","16","0","","","","","","5","","","","","","","","",""
"","","","","","single-stim-button","233","513832","0.0-2.0-59.1-0.1","5dcc90820a493f92d077d6ec","C3","batch3","","588","tol_tohand","","","","tol_peg_1","588","588","0","[[1,0,0],[0,0],[3]]","2","[[3,1,0],[2,0],[0]]","16","0","","","","","","5","","","","","","","","",""
"","","","","","single-stim-button","234","514443","0.0-2.0-59.1-1.1","5dcc90820a493f92d077d6ec","C3","batch3","","609","tol_toboard","","","","tol_peg_2","609","609","0","[[1,0,0],[2,0],[3]]","2","[[3,1,0],[2,0],[0]]","16","0","","","","","","5","","","","","","","","",""
"","","","","","single-stim-button","235","515364","0.0-2.0-59.2-0.2","5dcc90820a493f92d077d6ec","C3","batch3","","921","tol_tohand","","","","tol_peg_1","921","921","0","[[0,0,0],[2,0],[3]]","3","[[3,1,0],[2,0],[0]]","16","0","","","","","","5","","","","","","","","",""
"","","","","","single-stim-button","236","515971","0.0-2.0-59.2-1.2","5dcc90820a493f92d077d6ec","C3","batch3","","606","tol_toboard","","","","tol_peg_2","606","606","0","[[0,0,0],[2,1],[3]]","3","[[3,1,0],[2,0],[0]]","16","0","","","","","","5","","","","","","","","",""
"","","","","","single-stim-button","237","517077","0.0-2.0-59.3-0.3","5dcc90820a493f92d077d6ec","C3","batch3","","1104","tol_tohand","","","","tol_peg_3","1104","1104","0","[[0,0,0],[2,1],[0]]","4","[[3,1,0],[2,0],[0]]","16","0","","","","","","5","","","","","","","","",""
"","","","","","single-stim-button","238","517640","0.0-2.0-59.3-1.3","5dcc90820a493f92d077d6ec","C3","batch3","","562","tol_toboard","","","","tol_peg_1","562","562","0","[[3,0,0],[2,1],[0]]","4","[[3,1,0],[2,0],[0]]","16","0","","","","","","5","","","","","","","","",""
"","","","","","single-stim-button","239","518135","0.0-2.0-59.4-0.4","5dcc90820a493f92d077d6ec","C3","batch3","","495","tol_tohand","","","","tol_peg_2","495","495","0","[[3,0,0],[2,0],[0]]","5","[[3,1,0],[2,0],[0]]","16","0","","","","","","5","","","","","","","","",""
"","","","","","single-stim-button","240","518681","0.0-2.0-59.4-1.4","5dcc90820a493f92d077d6ec","C3","batch3","","545","tol_toboard","","","","tol_peg_1","545","545","0","[[3,1,0],[2,0],[0]]","5","[[3,1,0],[2,0],[0]]","16","0","","","","","","5","","","","","","","","",""
"","","","","","poldrack-single-stim","241","519698","0.0-2.0-60.0","5dcc90820a493f92d077d6ec","C3","batch3","","-1","tol_feedback","","","true","","1000","1000","500","","","","","","-1","none","true","7501","10609","","","","","","","","","",""
"","","","","","html-button-response","242","520488","0.0-2.0-61.0","5dcc90820a493f92d077d6ec","C3","batch3","","789.1000000238419","tol_trial_num","<div class = centerbox><p class = center-block-text>problem <strong>18</strong> out of 25 problems</p></div>","0","","","","","","","","","","","","","","","","","","","","","","","","",""
"","","","","","single-stim-button","243","523316","0.0-2.0-62.0-0.0","5dcc90820a493f92d077d6ec","C3","batch3","","2827","tol_tohand","","","","tol_peg_1","2827","2827","0","[[1,0,0],[3,0],[0]]","1","[[3,0,0],[2,0],[1]]","17","0","","","","","","5","","","","","","","","",""
"","","","","","single-stim-button","244","529796","0.0-2.0-62.0-1.0","5dcc90820a493f92d077d6ec","C3","batch3","","6480","tol_toboard","","","","tol_peg_3","6480","6480","0","[[1,0,0],[3,0],[2]]","1","[[3,0,0],[2,0],[1]]","17","0","","","","","","5","","","","","","","","",""
"","","","","","single-stim-button","245","530671","0.0-2.0-62.1-0.1","5dcc90820a493f92d077d6ec","C3","batch3","","873","tol_tohand","","","","tol_peg_2","873","873","0","[[1,0,0],[0,0],[2]]","2","[[3,0,0],[2,0],[1]]","17","0","","","","","","5","","","","","","","","",""
"","","","","","single-stim-button","246","531444","0.0-2.0-62.1-1.1","5dcc90820a493f92d077d6ec","C3","batch3","","772","tol_toboard","","","","tol_peg_1","772","772","0","[[1,3,0],[0,0],[2]]","2","[[3,0,0],[2,0],[1]]","17","0","","","","","","5","","","","","","","","",""
"","","","","","single-stim-button","247","531996","0.0-2.0-62.2-0.2","5dcc90820a493f92d077d6ec","C3","batch3","","550","tol_tohand","","","","tol_peg_3","550","550","0","[[1,3,0],[0,0],[0]]","3","[[3,0,0],[2,0],[1]]","17","0","","","","","","5","","","","","","","","",""
"","","","","","single-stim-button","248","532483","0.0-2.0-62.2-1.2","5dcc90820a493f92d077d6ec","C3","batch3","","486","tol_toboard","","","","tol_peg_2","486","486","0","[[1,3,0],[2,0],[0]]","3","[[3,0,0],[2,0],[1]]","17","0","","","","","","5","","","","","","","","",""
"","","","","","single-stim-button","249","533006","0.0-2.0-62.3-0.3","5dcc90820a493f92d077d6ec","C3","batch3","","521","tol_tohand","","","","tol_peg_1","521","521","0","[[1,0,0],[2,0],[0]]","4","[[3,0,0],[2,0],[1]]","17","0","","","","","","5","","","","","","","","",""
"","","","","","single-stim-button","250","533494","0.0-2.0-62.3-1.3","5dcc90820a493f92d077d6ec","C3","batch3","","487","tol_toboard","","","","tol_peg_2","487","487","0","[[1,0,0],[2,3],[0]]","4","[[3,0,0],[2,0],[1]]","17","0","","","","","","5","","","","","","","","",""
"","","","","","single-stim-button","251","534209","0.0-2.0-62.4-0.4","5dcc90820a493f92d077d6ec","C3","batch3","","715","tol_tohand","","","","tol_peg_1","715","715","0","[[0,0,0],[2,3],[0]]","5","[[3,0,0],[2,0],[1]]","17","0","","","","","","5","","","","","","","","",""
"","","","","","single-stim-button","252","535005","0.0-2.0-62.4-1.4","5dcc90820a493f92d077d6ec","C3","batch3","","794","tol_toboard","","","","tol_peg_3","794","794","0","[[0,0,0],[2,3],[1]]","5","[[3,0,0],[2,0],[1]]","17","0","","","","","","5","","","","","","","","",""
"","","","","","single-stim-button","253","535520","0.0-2.0-62.5-0.5","5dcc90820a493f92d077d6ec","C3","batch3","","515","tol_tohand","","","","tol_peg_2","515","515","0","[[0,0,0],[2,0],[1]]","6","[[3,0,0],[2,0],[1]]","17","0","","","","","","5","","","","","","","","",""
"","","","","","single-stim-button","254","536108","0.0-2.0-62.5-1.5","5dcc90820a493f92d077d6ec","C3","batch3","","586","tol_toboard","","","","tol_peg_1","586","586","0","[[3,0,0],[2,0],[1]]","6","[[3,0,0],[2,0],[1]]","17","0","","","","","","5","","","","","","","","",""
"","","","","","poldrack-single-stim","255","537113","0.0-2.0-63.0","5dcc90820a493f92d077d6ec","C3","batch3","","-1","tol_feedback","","","true","","1000","1000","500","","","","","","-1","none","true","2827","6001","","","","","","","","","",""
"","","","","","html-button-response","256","537827","0.0-2.0-64.0","5dcc90820a493f92d077d6ec","C3","batch3","","713.8999999761581","tol_trial_num","<div class = centerbox><p class = center-block-text>problem <strong>19</strong> out of 25 problems</p></div>","0","","","","","","","","","","","","","","","","","","","","","","","","",""
"","","","","","single-stim-button","257","540785","0.0-2.0-65.0-0.0","5dcc90820a493f92d077d6ec","C3","batch3","","2957","tol_tohand","","","","tol_peg_2","2957","2957","0","[[1,2,0],[0,0],[0]]","1","[[0,0,0],[1,2],[3]]","18","0","","","","","","7","","","","","","","","",""
"","","","","","single-stim-button","258","548243","0.0-2.0-65.0-1.0","5dcc90820a493f92d077d6ec","C3","batch3","","7457","tol_toboard","","","","tol_peg_2","7457","7457","0","[[1,2,0],[3,0],[0]]","1","[[0,0,0],[1,2],[3]]","18","0","","","","","","7","","","","","","","","",""
"","","","","","single-stim-button","259","551818","0.0-2.0-65.1-0.1","5dcc90820a493f92d077d6ec","C3","batch3","","3574","tol_tohand","","","","tol_peg_2","3574","3574","0","[[1,2,0],[0,0],[0]]","2","[[0,0,0],[1,2],[3]]","18","0","","","","","","7","","","","","","","","",""
"","","","","","single-stim-button","260","552326","0.0-2.0-65.1-1.1","5dcc90820a493f92d077d6ec","C3","batch3","","507","tol_toboard","","","","tol_peg_3","507","507","0","[[1,2,0],[0,0],[3]]","2","[[0,0,0],[1,2],[3]]","18","0","","","","","","7","","","","","","","","",""
"","","","","","single-stim-button","261","552900","0.0-2.0-65.2-0.2","5dcc90820a493f92d077d6ec","C3","batch3","","572","tol_tohand","","","","tol_peg_1","572","572","0","[[1,0,0],[0,0],[3]]","3","[[0,0,0],[1,2],[3]]","18","0","","","","","","7","","","","","","","","",""
"","","","","","single-stim-button","262","553422","0.0-2.0-65.2-1.2","5dcc90820a493f92d077d6ec","C3","batch3","","522","tol_toboard","","","","tol_peg_2","522","522","0","[[1,0,0],[2,0],[3]]","3","[[0,0,0],[1,2],[3]]","18","0","","","","","","7","","","","","","","","",""
"","","","","","single-stim-button","263","554712","0.0-2.0-65.3-0.3","5dcc90820a493f92d077d6ec","C3","batch3","","1289","tol_tohand","","","","tol_peg_1","1289","1289","0","[[0,0,0],[2,0],[3]]","4","[[0,0,0],[1,2],[3]]","18","0","","","","","","7","","","","","","","","",""
"","","","","","single-stim-button","264","555543","0.0-2.0-65.3-1.3","5dcc90820a493f92d077d6ec","C3","batch3","","831","tol_toboard","","","","tol_peg_2","831","831","0","[[0,0,0],[2,1],[3]]","4","[[0,0,0],[1,2],[3]]","18","0","","","","","","7","","","","","","","","",""
"","","","","","single-stim-button","265","557084","0.0-2.0-65.4-0.4","5dcc90820a493f92d077d6ec","C3","batch3","","1540","tol_tohand","","","","tol_peg_3","1540","1540","0","[[0,0,0],[2,1],[0]]","5","[[0,0,0],[1,2],[3]]","18","0","","","","","","7","","","","","","","","",""
"","","","","","single-stim-button","266","557779","0.0-2.0-65.4-1.4","5dcc90820a493f92d077d6ec","C3","batch3","","693","tol_toboard","","","","tol_peg_1","693","693","0","[[3,0,0],[2,1],[0]]","5","[[0,0,0],[1,2],[3]]","18","0","","","","","","7","","","","","","","","",""
"","","","","","single-stim-button","267","559514","0.0-2.0-65.5-0.5","5dcc90820a493f92d077d6ec","C3","batch3","","1735","tol_tohand","","","","tol_peg_2","1735","1735","0","[[3,0,0],[2,0],[0]]","6","[[0,0,0],[1,2],[3]]","18","0","","","","","","7","","","","","","","","",""
"","","","","","single-stim-button","268","561405","0.0-2.0-65.5-1.5","5dcc90820a493f92d077d6ec","C3","batch3","","1889","tol_toboard","","","","tol_peg_3","1889","1889","0","[[3,0,0],[2,0],[1]]","6","[[0,0,0],[1,2],[3]]","18","0","","","","","","7","","","","","","","","",""
"","","","","","single-stim-button","269","562357","0.0-2.0-65.6-0.6","5dcc90820a493f92d077d6ec","C3","batch3","","952","tol_tohand","","","","tol_peg_2","952","952","0","[[3,0,0],[0,0],[1]]","7","[[0,0,0],[1,2],[3]]","18","0","","","","","","7","","","","","","","","",""
"","","","","","single-stim-button","270","562937","0.0-2.0-65.6-1.6","5dcc90820a493f92d077d6ec","C3","batch3","","579","tol_toboard","","","","tol_peg_1","579","579","0","[[3,2,0],[0,0],[1]]","7","[[0,0,0],[1,2],[3]]","18","0","","","","","","7","","","","","","","","",""
"","","","","","single-stim-button","271","564105","0.0-2.0-65.7-0.7","5dcc90820a493f92d077d6ec","C3","batch3","","1167","tol_tohand","","","","tol_peg_3","1167","1167","0","[[3,2,0],[0,0],[0]]","8","[[0,0,0],[1,2],[3]]","18","0","","","","","","7","","","","","","","","",""
"","","","","","single-stim-button","272","564593","0.0-2.0-65.7-1.7","5dcc90820a493f92d077d6ec","C3","batch3","","487","tol_toboard","","","","tol_peg_2","487","487","0","[[3,2,0],[1,0],[0]]","8","[[0,0,0],[1,2],[3]]","18","0","","","","","","7","","","","","","","","",""
"","","","","","single-stim-button","273","565101","0.0-2.0-65.8-0.8","5dcc90820a493f92d077d6ec","C3","batch3","","508","tol_tohand","","","","tol_peg_1","508","508","0","[[3,0,0],[1,0],[0]]","9","[[0,0,0],[1,2],[3]]","18","0","","","","","","7","","","","","","","","",""
"","","","","","single-stim-button","274","565625","0.0-2.0-65.8-1.8","5dcc90820a493f92d077d6ec","C3","batch3","","522","tol_toboard","","","","tol_peg_2","522","522","0","[[3,0,0],[1,2],[0]]","9","[[0,0,0],[1,2],[3]]","18","0","","","","","","7","","","","","","","","",""
"","","","","","single-stim-button","275","566176","0.0-2.0-65.9-0.9","5dcc90820a493f92d077d6ec","C3","batch3","","549","tol_tohand","","","","tol_peg_1","549","549","0","[[0,0,0],[1,2],[0]]","10","[[0,0,0],[1,2],[3]]","18","0","","","","","","7","","","","","","","","",""
"","","","","","single-stim-button","276","566813","0.0-2.0-65.9-1.9","5dcc90820a493f92d077d6ec","C3","batch3","","637","tol_toboard","","","","tol_peg_3","637","637","0","[[0,0,0],[1,2],[3]]","10","[[0,0,0],[1,2],[3]]","18","0","","","","","","7","","","","","","","","",""
"","","","","","poldrack-single-stim","277","567824","0.0-2.0-66.0","5dcc90820a493f92d077d6ec","C3","batch3","","-1","tol_feedback","","","true","","1000","1000","500","","","","","","-1","none","true","2957","14843","","","","","","","","","",""
"","","","","","html-button-response","278","568333","0.0-2.0-67.0","5dcc90820a493f92d077d6ec","C3","batch3","","508.09999990463257","tol_trial_num","<div class = centerbox><p class = center-block-text>problem <strong>20</strong> out of 25 problems</p></div>","0","","","","","","","","","","","","","","","","","","","","","","","","",""
"","","","","","single-stim-button","279","570138","0.0-2.0-68.0-0.0","5dcc90820a493f92d077d6ec","C3","batch3","","1804","tol_tohand","","","","tol_peg_2","1804","1804","0","[[1,2,0],[0,0],[0]]","1","[[2,1,0],[0,0],[3]]","19","0","","","","","","5","","","","","","","","",""
"","","","","","single-stim-button","280","571505","0.0-2.0-68.0-1.0","5dcc90820a493f92d077d6ec","C3","batch3","","1365","tol_toboard","","","","tol_peg_3","1365","1365","0","[[1,2,0],[0,0],[3]]","1","[[2,1,0],[0,0],[3]]","19","0","","","","","","5","","","","","","","","",""
"","","","","","single-stim-button","281","572266","0.0-2.0-68.1-0.1","5dcc90820a493f92d077d6ec","C3","batch3","","759","tol_tohand","","","","tol_peg_1","759","759","0","[[1,0,0],[0,0],[3]]","2","[[2,1,0],[0,0],[3]]","19","0","","","","","","5","","","","","","","","",""
"","","","","","single-stim-button","282","572917","0.0-2.0-68.1-1.1","5dcc90820a493f92d077d6ec","C3","batch3","","651","tol_toboard","","","","tol_peg_2","651","651","0","[[1,0,0],[2,0],[3]]","2","[[2,1,0],[0,0],[3]]","19","0","","","","","","5","","","","","","","","",""
"","","","","","single-stim-button","283","573814","0.0-2.0-68.2-0.2","5dcc90820a493f92d077d6ec","C3","batch3","","896","tol_tohand","","","","tol_peg_1","896","896","0","[[0,0,0],[2,0],[3]]","3","[[2,1,0],[0,0],[3]]","19","0","","","","","","5","","","","","","","","",""
"","","","","","single-stim-button","284","575024","0.0-2.0-68.2-1.2","5dcc90820a493f92d077d6ec","C3","batch3","","1208","tol_toboard","","","","tol_peg_1","1208","1208","0","[[1,0,0],[2,0],[3]]","3","[[2,1,0],[0,0],[3]]","19","0","","","","","","5","","","","","","","","",""
"","","","","","single-stim-button","285","576114","0.0-2.0-68.3-0.3","5dcc90820a493f92d077d6ec","C3","batch3","","1090","tol_tohand","","","","tol_peg_1","1090","1090","0","[[0,0,0],[2,0],[3]]","4","[[2,1,0],[0,0],[3]]","19","0","","","","","","5","","","","","","","","",""
"","","","","","single-stim-button","286","576566","0.0-2.0-68.3-1.3","5dcc90820a493f92d077d6ec","C3","batch3","","451","tol_toboard","","","","tol_peg_2","451","451","0","[[0,0,0],[2,1],[3]]","4","[[2,1,0],[0,0],[3]]","19","0","","","","","","5","","","","","","","","",""
"","","","","","single-stim-button","287","577153","0.0-2.0-68.4-0.4","5dcc90820a493f92d077d6ec","C3","batch3","","586","tol_tohand","","","","tol_peg_3","586","586","0","[[0,0,0],[2,1],[0]]","5","[[2,1,0],[0,0],[3]]","19","0","","","","","","5","","","","","","","","",""
"","","","","","single-stim-button","288","577619","0.0-2.0-68.4-1.4","5dcc90820a493f92d077d6ec","C3","batch3","","465","tol_toboard","","","","tol_peg_1","465","465","0","[[3,0,0],[2,1],[0]]","5","[[2,1,0],[0,0],[3]]","19","0","","","","","","5","","","","","","","","",""
"","","","","","single-stim-button","289","578472","0.0-2.0-68.5-0.5","5dcc90820a493f92d077d6ec","C3","batch3","","852","tol_tohand","","","","tol_peg_2","852","852","0","[[3,0,0],[2,0],[0]]","6","[[2,1,0],[0,0],[3]]","19","0","","","","","","5","","","","","","","","",""
"","","","","","single-stim-button","290","579245","0.0-2.0-68.5-1.5","5dcc90820a493f92d077d6ec","C3","batch3","","773","tol_toboard","","","","tol_peg_3","773","773","0","[[3,0,0],[2,0],[1]]","6","[[2,1,0],[0,0],[3]]","19","0","","","","","","5","","","","","","","","",""
"","","","","","single-stim-button","291","580112","0.0-2.0-68.6-0.6","5dcc90820a493f92d077d6ec","C3","batch3","","866","tol_tohand","","","","tol_peg_1","866","866","0","[[0,0,0],[2,0],[1]]","7","[[2,1,0],[0,0],[3]]","19","0","","","","","","5","","","","","","","","",""
"","","","","","single-stim-button","292","580943","0.0-2.0-68.6-1.6","5dcc90820a493f92d077d6ec","C3","batch3","","830","tol_toboard","","","","tol_peg_1","830","830","0","[[3,0,0],[2,0],[1]]","7","[[2,1,0],[0,0],[3]]","19","0","","","","","","5","","","","","","","","",""
"","","","","","single-stim-button","293","583352","0.0-2.0-68.7-0.7","5dcc90820a493f92d077d6ec","C3","batch3","","2408","tol_tohand","","","","tol_peg_3","2408","2408","0","[[3,0,0],[2,0],[0]]","8","[[2,1,0],[0,0],[3]]","19","0","","","","","","5","","","","","","","","",""
"","","","","","single-stim-button","294","584081","0.0-2.0-68.7-1.7","5dcc90820a493f92d077d6ec","C3","batch3","","728","tol_toboard","","","","tol_peg_1","728","728","0","[[3,1,0],[2,0],[0]]","8","[[2,1,0],[0,0],[3]]","19","0","","","","","","5","","","","","","","","",""
"","","","","","single-stim-button","295","584554","0.0-2.0-68.8-0.8","5dcc90820a493f92d077d6ec","C3","batch3","","471","tol_tohand","","","","tol_peg_2","471","471","0","[[3,1,0],[0,0],[0]]","9","[[2,1,0],[0,0],[3]]","19","0","","","","","","5","","","","","","","","",""
"","","","","","single-stim-button","296","585270","0.0-2.0-68.8-1.8","5dcc90820a493f92d077d6ec","C3","batch3","","716","tol_toboard","","","","tol_peg_3","716","716","0","[[3,1,0],[0,0],[2]]","9","[[2,1,0],[0,0],[3]]","19","0","","","","","","5","","","","","","","","",""
"","","","","","single-stim-button","297","585989","0.0-2.0-68.9-0.9","5dcc90820a493f92d077d6ec","C3","batch3","","717","tol_tohand","","","","tol_peg_1","717","717","0","[[3,0,0],[0,0],[2]]","10","[[2,1,0],[0,0],[3]]","19","0","","","","","","5","","","","","","","","",""
"","","","","","single-stim-button","298","586825","0.0-2.0-68.9-1.9","5dcc90820a493f92d077d6ec","C3","batch3","","836","tol_toboard","","","","tol_peg_2","836","836","0","[[3,0,0],[1,0],[2]]","10","[[2,1,0],[0,0],[3]]","19","0","","","","","","5","","","","","","","","",""
"","","","","","single-stim-button","299","588178","0.0-2.0-68.10-0.10","5dcc90820a493f92d077d6ec","C3","batch3","","1352","tol_tohand","","","","tol_peg_1","1352","1352","0","[[0,0,0],[1,0],[2]]","11","[[2,1,0],[0,0],[3]]","19","0","","","","","","5","","","","","","","","",""
"","","","","","single-stim-button","300","589275","0.0-2.0-68.10-1.10","5dcc90820a493f92d077d6ec","C3","batch3","","1096","tol_toboard","","","","tol_peg_2","1096","1096","0","[[0,0,0],[1,3],[2]]","11","[[2,1,0],[0,0],[3]]","19","0","","","","","","5","","","","","","","","",""
"","","","","","single-stim-button","301","590034","0.0-2.0-68.11-0.11","5dcc90820a493f92d077d6ec","C3","batch3","","757","tol_tohand","","","","tol_peg_3","757","757","0","[[0,0,0],[1,3],[0]]","12","[[2,1,0],[0,0],[3]]","19","0","","","","","","5","","","","","","","","",""
"","","","","","single-stim-button","302","590995","0.0-2.0-68.11-1.11","5dcc90820a493f92d077d6ec","C3","batch3","","961","tol_toboard","","","","tol_peg_1","961","961","0","[[2,0,0],[1,3],[0]]","12","[[2,1,0],[0,0],[3]]","19","0","","","","","","5","","","","","","","","",""
"","","","","","single-stim-button","303","592586","0.0-2.0-68.12-0.12","5dcc90820a493f92d077d6ec","C3","batch3","","1590","tol_tohand","","","","tol_peg_2","1590","1590","0","[[2,0,0],[1,0],[0]]","13","[[2,1,0],[0,0],[3]]","19","0","","","","","","5","","","","","","","","",""
"","","","","","single-stim-button","304","593419","0.0-2.0-68.12-1.12","5dcc90820a493f92d077d6ec","C3","batch3","","831","tol_toboard","","","","tol_peg_3","831","831","0","[[2,0,0],[1,0],[3]]","13","[[2,1,0],[0,0],[3]]","19","0","","","","","","5","","","","","","","","",""
"","","","","","single-stim-button","305","594211","0.0-2.0-68.13-0.13","5dcc90820a493f92d077d6ec","C3","batch3","","790","tol_tohand","","","","tol_peg_2","790","790","0","[[2,0,0],[0,0],[3]]","14","[[2,1,0],[0,0],[3]]","19","0","","","","","","5","","","","","","","","",""
"","","","","","single-stim-button","306","595093","0.0-2.0-68.13-1.13","5dcc90820a493f92d077d6ec","C3","batch3","","881","tol_toboard","","","","tol_peg_1","881","881","0","[[2,1,0],[0,0],[3]]","14","[[2,1,0],[0,0],[3]]","19","0","","","","","","5","","","","","","","","",""
"","","","","","poldrack-single-stim","307","596103","0.0-2.0-69.0","5dcc90820a493f92d077d6ec","C3","batch3","","-1","tol_feedback","","","true","","1000","1000","500","","","","","","-1","none","true","1804","14938","","","","","","","","","",""
"","","","","","html-button-response","308","596984","0.0-2.0-70.0","5dcc90820a493f92d077d6ec","C3","batch3","","879.8999999761581","tol_trial_num","<div class = centerbox><p class = center-block-text>problem <strong>21</strong> out of 25 problems</p></div>","0","","","","","","","","","","","","","","","","","","","","","","","","",""
"","","","","","single-stim-button","309","599603","0.0-2.0-71.0-0.0","5dcc90820a493f92d077d6ec","C3","batch3","","2619","tol_tohand","","","","tol_peg_1","2619","2619","0","[[1,0,0],[3,0],[0]]","1","[[3,2,0],[0,0],[1]]","20","0","","","","","","6","","","","","","","","",""
"","","","","","single-stim-button","310","601227","0.0-2.0-71.0-1.0","5dcc90820a493f92d077d6ec","C3","batch3","","1622","tol_toboard","","","","tol_peg_2","1622","1622","0","[[1,0,0],[3,2],[0]]","1","[[3,2,0],[0,0],[1]]","20","0","","","","","","6","","","","","","","","",""
"","","","","","single-stim-button","311","610231","0.0-2.0-71.1-0.1","5dcc90820a493f92d077d6ec","C3","batch3","","9003","tol_tohand","","","","tol_peg_1","9003","9003","0","[[0,0,0],[3,2],[0]]","2","[[3,2,0],[0,0],[1]]","20","0","","","","","","6","","","","","","","","",""
"","","","","","single-stim-button","312","611289","0.0-2.0-71.1-1.1","5dcc90820a493f92d077d6ec","C3","batch3","","1056","tol_toboard","","","","tol_peg_3","1056","1056","0","[[0,0,0],[3,2],[1]]","2","[[3,2,0],[0,0],[1]]","20","0","","","","","","6","","","","","","","","",""
"","","","","","single-stim-button","313","612172","0.0-2.0-71.2-0.2","5dcc90820a493f92d077d6ec","C3","batch3","","883","tol_tohand","","","","tol_peg_2","883","883","0","[[0,0,0],[3,0],[1]]","3","[[3,2,0],[0,0],[1]]","20","0","","","","","","6","","","","","","","","",""
"","","","","","single-stim-button","314","617395","0.0-2.0-71.2-1.2","5dcc90820a493f92d077d6ec","C3","batch3","","5222","tol_toboard","","","","tol_peg_1","5222","5222","0","[[2,0,0],[3,0],[1]]","3","[[3,2,0],[0,0],[1]]","20","0","","","","","","6","","","","","","","","",""
"","","","","","single-stim-button","315","618463","0.0-2.0-71.3-0.3","5dcc90820a493f92d077d6ec","C3","batch3","","1067","tol_tohand","","","","tol_peg_2","1067","1067","0","[[2,0,0],[0,0],[1]]","4","[[3,2,0],[0,0],[1]]","20","0","","","","","","6","","","","","","","","",""
"","","","","","single-stim-button","316","621894","0.0-2.0-71.3-1.3","5dcc90820a493f92d077d6ec","C3","batch3","","3429","tol_toboard","","","","tol_peg_2","3429","3429","0","[[2,0,0],[3,0],[1]]","4","[[3,2,0],[0,0],[1]]","20","0","","","","","","6","","","","","","","","",""
"","","","","","single-stim-button","317","625920","0.0-2.0-71.4-0.4","5dcc90820a493f92d077d6ec","C3","batch3","","4025","tol_tohand","","","","tol_peg_2","4025","4025","0","[[2,0,0],[0,0],[1]]","5","[[3,2,0],[0,0],[1]]","20","0","","","","","","6","","","","","","","","",""
"","","","","","single-stim-button","318","626697","0.0-2.0-71.4-1.4","5dcc90820a493f92d077d6ec","C3","batch3","","776","tol_toboard","","","","tol_peg_1","776","776","0","[[2,3,0],[0,0],[1]]","5","[[3,2,0],[0,0],[1]]","20","0","","","","","","6","","","","","","","","",""
"","","","","","single-stim-button","319","629332","0.0-2.0-71.5-0.5","5dcc90820a493f92d077d6ec","C3","batch3","","2633","tol_tohand","","","","tol_peg_3","2633","2633","0","[[2,3,0],[0,0],[0]]","6","[[3,2,0],[0,0],[1]]","20","0","","","","","","6","","","","","","","","",""
"","","","","","single-stim-button","320","630317","0.0-2.0-71.5-1.5","5dcc90820a493f92d077d6ec","C3","batch3","","984","tol_toboard","","","","tol_peg_2","984","984","0","[[2,3,0],[1,0],[0]]","6","[[3,2,0],[0,0],[1]]","20","0","","","","","","6","","","","","","","","",""
"","","","","","single-stim-button","321","631266","0.0-2.0-71.6-0.6","5dcc90820a493f92d077d6ec","C3","batch3","","949","tol_tohand","","","","tol_peg_1","949","949","0","[[2,0,0],[1,0],[0]]","7","[[3,2,0],[0,0],[1]]","20","0","","","","","","6","","","","","","","","",""
"","","","","","single-stim-button","322","632274","0.0-2.0-71.6-1.6","5dcc90820a493f92d077d6ec","C3","batch3","","1007","tol_toboard","","","","tol_peg_3","1007","1007","0","[[2,0,0],[1,0],[3]]","7","[[3,2,0],[0,0],[1]]","20","0","","","","","","6","","","","","","","","",""
"","","","","","single-stim-button","323","633111","0.0-2.0-71.7-0.7","5dcc90820a493f92d077d6ec","C3","batch3","","835","tol_tohand","","","","tol_peg_1","835","835","0","[[0,0,0],[1,0],[3]]","8","[[3,2,0],[0,0],[1]]","20","0","","","","","","6","","","","","","","","",""
"","","","","","single-stim-button","324","633921","0.0-2.0-71.7-1.7","5dcc90820a493f92d077d6ec","C3","batch3","","809","tol_toboard","","","","tol_peg_2","809","809","0","[[0,0,0],[1,2],[3]]","8","[[3,2,0],[0,0],[1]]","20","0","","","","","","6","","","","","","","","",""
"","","","","","single-stim-button","325","634553","0.0-2.0-71.8-0.8","5dcc90820a493f92d077d6ec","C3","batch3","","631","tol_tohand","","","","tol_peg_3","631","631","0","[[0,0,0],[1,2],[0]]","9","[[3,2,0],[0,0],[1]]","20","0","","","","","","6","","","","","","","","",""
"","","","","","single-stim-button","326","635472","0.0-2.0-71.8-1.8","5dcc90820a493f92d077d6ec","C3","batch3","","919","tol_toboard","","","","tol_peg_1","919","919","0","[[3,0,0],[1,2],[0]]","9","[[3,2,0],[0,0],[1]]","20","0","","","","","","6","","","","","","","","",""
"","","","","","single-stim-button","327","636173","0.0-2.0-71.9-0.9","5dcc90820a493f92d077d6ec","C3","batch3","","700","tol_tohand","","","","tol_peg_2","700","700","0","[[3,0,0],[1,0],[0]]","10","[[3,2,0],[0,0],[1]]","20","0","","","","","","6","","","","","","","","",""
"","","","","","single-stim-button","328","637325","0.0-2.0-71.9-1.9","5dcc90820a493f92d077d6ec","C3","batch3","","1150","tol_toboard","","","","tol_peg_1","1150","1150","0","[[3,2,0],[1,0],[0]]","10","[[3,2,0],[0,0],[1]]","20","0","","","","","","6","","","","","","","","",""
"","","","","","single-stim-button","329","637959","0.0-2.0-71.10-0.10","5dcc90820a493f92d077d6ec","C3","batch3","","634","tol_tohand","","","","tol_peg_2","634","634","0","[[3,2,0],[0,0],[0]]","11","[[3,2,0],[0,0],[1]]","20","0","","","","","","6","","","","","","","","",""
"","","","","","single-stim-button","330","638794","0.0-2.0-71.10-1.10","5dcc90820a493f92d077d6ec","C3","batch3","","834","tol_toboard","","","","tol_peg_3","834","834","0","[[3,2,0],[0,0],[1]]","11","[[3,2,0],[0,0],[1]]","20","0","","","","","","6","","","","","","","","",""
"","","","","","poldrack-single-stim","331","639810","0.0-2.0-72.0","5dcc90820a493f92d077d6ec","C3","batch3","","-1","tol_feedback","","","true","","1000","1000","500","","","","","","-1","none","true","2619","23979","","","","","","","","","",""
"","","","","","html-button-response","332","640509","0.0-2.0-73.0","5dcc90820a493f92d077d6ec","C3","batch3","","698.2999999523163","tol_trial_num","<div class = centerbox><p class = center-block-text>problem <strong>22</strong> out of 25 problems</p></div>","0","","","","","","","","","","","","","","","","","","","","","","","","",""
"","","","","","single-stim-button","333","642385","0.0-2.0-74.0-0.0","5dcc90820a493f92d077d6ec","C3","batch3","","1874","tol_tohand","","","","tol_peg_2","1874","1874","0","[[1,0,0],[2,0],[0]]","1","[[0,0,0],[1,2],[3]]","21","0","","","","","","6","","","","","","","","",""
"","","","","","single-stim-button","334","643349","0.0-2.0-74.0-1.0","5dcc90820a493f92d077d6ec","C3","batch3","","963","tol_toboard","","","","tol_peg_3","963","963","0","[[1,0,0],[2,0],[3]]","1","[[0,0,0],[1,2],[3]]","21","0","","","","","","6","","","","","","","","",""
"","","","","","single-stim-button","335","647373","0.0-2.0-74.1-0.1","5dcc90820a493f92d077d6ec","C3","batch3","","4023","tol_tohand","","","","tol_peg_1","4023","4023","0","[[0,0,0],[2,0],[3]]","2","[[0,0,0],[1,2],[3]]","21","0","","","","","","6","","","","","","","","",""
"","","","","","single-stim-button","336","648471","0.0-2.0-74.1-1.1","5dcc90820a493f92d077d6ec","C3","batch3","","1096","tol_toboard","","","","tol_peg_2","1096","1096","0","[[0,0,0],[2,1],[3]]","2","[[0,0,0],[1,2],[3]]","21","0","","","","","","6","","","","","","","","",""
"","","","","","single-stim-button","337","649160","0.0-2.0-74.2-0.2","5dcc90820a493f92d077d6ec","C3","batch3","","688","tol_tohand","","","","tol_peg_3","688","688","0","[[0,0,0],[2,1],[0]]","3","[[0,0,0],[1,2],[3]]","21","0","","","","","","6","","","","","","","","",""
"","","","","","single-stim-button","338","650476","0.0-2.0-74.2-1.2","5dcc90820a493f92d077d6ec","C3","batch3","","1315","tol_toboard","","","","tol_peg_1","1315","1315","0","[[3,0,0],[2,1],[0]]","3","[[0,0,0],[1,2],[3]]","21","0","","","","","","6","","","","","","","","",""
"","","","","","single-stim-button","339","651215","0.0-2.0-74.3-0.3","5dcc90820a493f92d077d6ec","C3","batch3","","739","tol_tohand","","","","tol_peg_2","739","739","0","[[3,0,0],[2,0],[0]]","4","[[0,0,0],[1,2],[3]]","21","0","","","","","","6","","","","","","","","",""
"","","","","","single-stim-button","340","653300","0.0-2.0-74.3-1.3","5dcc90820a493f92d077d6ec","C3","batch3","","2083","tol_toboard","","","","tol_peg_3","2083","2083","0","[[3,0,0],[2,0],[1]]","4","[[0,0,0],[1,2],[3]]","21","0","","","","","","6","","","","","","","","",""
"","","","","","single-stim-button","341","654324","0.0-2.0-74.4-0.4","5dcc90820a493f92d077d6ec","C3","batch3","","1023","tol_tohand","","","","tol_peg_2","1023","1023","0","[[3,0,0],[0,0],[1]]","5","[[0,0,0],[1,2],[3]]","21","0","","","","","","6","","","","","","","","",""
"","","","","","single-stim-button","342","655135","0.0-2.0-74.4-1.4","5dcc90820a493f92d077d6ec","C3","batch3","","811","tol_toboard","","","","tol_peg_1","811","811","0","[[3,2,0],[0,0],[1]]","5","[[0,0,0],[1,2],[3]]","21","0","","","","","","6","","","","","","","","",""
"","","","","","single-stim-button","343","655873","0.0-2.0-74.5-0.5","5dcc90820a493f92d077d6ec","C3","batch3","","736","tol_tohand","","","","tol_peg_3","736","736","0","[[3,2,0],[0,0],[0]]","6","[[0,0,0],[1,2],[3]]","21","0","","","","","","6","","","","","","","","",""
"","","","","","single-stim-button","344","656647","0.0-2.0-74.5-1.5","5dcc90820a493f92d077d6ec","C3","batch3","","772","tol_toboard","","","","tol_peg_2","772","772","0","[[3,2,0],[1,0],[0]]","6","[[0,0,0],[1,2],[3]]","21","0","","","","","","6","","","","","","","","",""
"","","","","","single-stim-button","345","657370","0.0-2.0-74.6-0.6","5dcc90820a493f92d077d6ec","C3","batch3","","723","tol_tohand","","","","tol_peg_1","723","723","0","[[3,0,0],[1,0],[0]]","7","[[0,0,0],[1,2],[3]]","21","0","","","","","","6","","","","","","","","",""
"","","","","","single-stim-button","346","658293","0.0-2.0-74.6-1.6","5dcc90820a493f92d077d6ec","C3","batch3","","921","tol_toboard","","","","tol_peg_2","921","921","0","[[3,0,0],[1,2],[0]]","7","[[0,0,0],[1,2],[3]]","21","0","","","","","","6","","","","","","","","",""
"","","","","","single-stim-button","347","659058","0.0-2.0-74.7-0.7","5dcc90820a493f92d077d6ec","C3","batch3","","764","tol_tohand","","","","tol_peg_1","764","764","0","[[0,0,0],[1,2],[0]]","8","[[0,0,0],[1,2],[3]]","21","0","","","","","","6","","","","","","","","",""
"","","","","","single-stim-button","348","659778","0.0-2.0-74.7-1.7","5dcc90820a493f92d077d6ec","C3","batch3","","718","tol_toboard","","","","tol_peg_3","718","718","0","[[0,0,0],[1,2],[3]]","8","[[0,0,0],[1,2],[3]]","21","0","","","","","","6","","","","","","","","",""
"","","","","","poldrack-single-stim","349","660791","0.0-2.0-75.0","5dcc90820a493f92d077d6ec","C3","batch3","","-1","tol_feedback","","","true","","1000","1000","500","","","","","","-1","none","true","1874","10570","","","","","","","","","",""
"","","","","","html-button-response","350","662199","0.0-2.0-76.0","5dcc90820a493f92d077d6ec","C3","batch3","","1407.3000000715256","tol_trial_num","<div class = centerbox><p class = center-block-text>problem <strong>23</strong> out of 25 problems</p></div>","0","","","","","","","","","","","","","","","","","","","","","","","","",""
"","","","","","single-stim-button","351","669528","0.0-2.0-77.0-0.0","5dcc90820a493f92d077d6ec","C3","batch3","","7328","tol_tohand","","","","tol_peg_2","7328","7328","0","[[1,2,0],[0,0],[0]]","1","[[1,3,2],[0,0],[0]]","22","0","","","","","","3","","","","","","","","",""
"","","","","","single-stim-button","352","686097","0.0-2.0-77.0-1.0","5dcc90820a493f92d077d6ec","C3","batch3","","16568","tol_toboard","","","","tol_peg_3","16568","16568","0","[[1,2,0],[0,0],[3]]","1","[[1,3,2],[0,0],[0]]","22","0","","","","","","3","","","","","","","","",""
"","","","","","single-stim-button","353","687336","0.0-2.0-77.1-0.1","5dcc90820a493f92d077d6ec","C3","batch3","","1238","tol_tohand","","","","tol_peg_1","1238","1238","0","[[1,0,0],[0,0],[3]]","2","[[1,3,2],[0,0],[0]]","22","0","","","","","","3","","","","","","","","",""
"","","","","","single-stim-button","354","688229","0.0-2.0-77.1-1.1","5dcc90820a493f92d077d6ec","C3","batch3","","892","tol_toboard","","","","tol_peg_2","892","892","0","[[1,0,0],[2,0],[3]]","2","[[1,3,2],[0,0],[0]]","22","0","","","","","","3","","","","","","","","",""
"","","","","","single-stim-button","355","691762","0.0-2.0-77.2-0.2","5dcc90820a493f92d077d6ec","C3","batch3","","3531","tol_tohand","","","","tol_peg_3","3531","3531","0","[[1,0,0],[2,0],[0]]","3","[[1,3,2],[0,0],[0]]","22","0","","","","","","3","","","","","","","","",""
