"success","timeout","failed_images","failed_audio","failed_video","trial_type","trial_index","time_elapsed","internal_node_id","subject_id","study_id","session_id","task","rt","stimulus","response","item","answer","correct","spm_correct","spm_rt","view_history","fiar_detect_rt","fiar_detect_correct","total_correct_fiar_detect","post_trial_gap","choices","mouse_click","stim_duration","block_duration","timing_post_trial","current_position","tol_num_moves_made","tol_target","tol_problem_id","tol_rt","key_press","possible_responses","tol_correct","preplanning","tol_rt_per_trial","tol_min_moves"
"true","false","[]","[]","[]","preload","0","10494","0.0-0.0","5dccb82a76eab294aa4837ff","A3","batch1","","","","","","","","","","","","","","","","","","","","","","","","","","","","","",""
"true","","","","","fullscreen","1","35855","0.0-1.0-0.0","5dccb82a76eab294aa4837ff","A3","batch1","","","","","","","","","","","","","","","","","","","","","","","","","","","","","",""
"true","","","","","fullscreen","2","39881","0.0-2.0-0.0","5dccb82a76eab294aa4837ff","A3","batch1","spm_fullscreen","","","","","","","","","","","","","","","","","","","","","","","","","","","","",""
"","","","","","html-button-response","3","57093","0.0-2.0-1.0","5dccb82a76eab294aa4837ff","A3","batch1","","17203.89999999851","<p class = block-text><b>Instructions</b> <br>This is a widely used intelligence test in research. <br>In this test, a figure with a missing piece will be presented.<br>Below the figure are alternative pieces to complete the figure, only one of which is correct.<br> Different figures might involve different principles for obtaining the missing piece<br>Your job is to select the most logical piece to complete the figure.</p>","0","","","","","","","","","","","","","","","","","","","","","","","","","",""
"","","","","","html-keyboard-response","4","57895","0.0-2.0-2.0-0.0","5dccb82a76eab294aa4837ff","A3","batch1","spm_show_trial_num","null","<p class=block-text>Trial 1 out of 60</p>","null","","","","","","","","","","","","","","","","","","","","","","","","","",""
"","","","","","image-button-response","5","64854","0.0-2.0-2.0-1.0","5dccb82a76eab294aa4837ff","A3","batch1","spm_respsonse","6947.70000000298","img/question_1_1.jpeg","3","mat_01","4","1","1","6947.70000000298","","","","","","","","","","","","","","","","","","","","",""
"","","","","","html-keyboard-response","6","65927","0.0-2.0-2.0-0.1","5dccb82a76eab294aa4837ff","A3","batch1","spm_show_trial_num","null","<p class=block-text>Trial 2 out of 60</p>","null","","","","","","","","","","","","","","","","","","","","","","","","","",""
"","","","","","image-button-response","7","68869","0.0-2.0-2.0-1.1","5dccb82a76eab294aa4837ff","A3","batch1","spm_respsonse","2938.7000000029802","img/question_1_2.jpeg","4","mat_02","5","1","1","2938.7000000029802","","","","","","","","","","","","","","","","","","","","",""
"","","","","","html-keyboard-response","8","69935","0.0-2.0-2.0-0.2","5dccb82a76eab294aa4837ff","A3","batch1","spm_show_trial_num","null","<p class=block-text>Trial 3 out of 60</p>","null","","","","","","","","","","","","","","","","","","","","","","","","","",""
"","","","","","image-button-response","9","73276","0.0-2.0-2.0-1.2","5dccb82a76eab294aa4837ff","A3","batch1","spm_respsonse","3337.60000000149","img/question_1_3.jpeg","0","mat_03","1","1","1","3337.60000000149","","","","","","","","","","","","","","","","","","","","",""
"","","","","","html-keyboard-response","10","74333","0.0-2.0-2.0-0.3","5dccb82a76eab294aa4837ff","A3","batch1","spm_show_trial_num","null","<p class=block-text>Trial 4 out of 60</p>","null","","","","","","","","","","","","","","","","","","","","","","","","","",""
"","","","","","image-button-response","11","77701","0.0-2.0-2.0-1.3","5dccb82a76eab294aa4837ff","A3","batch1","spm_respsonse","3364.7000000029802","img/question_1_4.jpeg","1","mat_04","2","1","1","3364.7000000029802","","","","","","","","","","","","","","","","","","","","",""
"","","","","","html-keyboard-response","12","78767","0.0-2.0-2.0-0.4","5dccb82a76eab294aa4837ff","A3","batch1","spm_show_trial_num","null","<p class=block-text>Trial 5 out of 60</p>","null","","","","","","","","","","","","","","","","","","","","","","","","","",""
"","","","","","image-button-response","13","81885","0.0-2.0-2.0-1.4","5dccb82a76eab294aa4837ff","A3","batch1","spm_respsonse","3114.2999999970198","img/question_1_5.jpeg","5","mat_05","6","1","1","3114.2999999970198","","","","","","","","","","","","","","","","","","","","",""
"","","","","","html-keyboard-response","14","82937","0.0-2.0-2.0-0.5","5dccb82a76eab294aa4837ff","A3","batch1","spm_show_trial_num","null","<p class=block-text>Trial 6 out of 60</p>","null","","","","","","","","","","","","","","","","","","","","","","","","","",""
"","","","","","image-button-response","15","86845","0.0-2.0-2.0-1.5","5dccb82a76eab294aa4837ff","A3","batch1","spm_respsonse","3903.7000000029802","img/question_1_6.jpeg","2","mat_06","3","1","1","3903.7000000029802","","","","","","","","","","","","","","","","","","","","",""
"","","","","","html-keyboard-response","16","87897","0.0-2.0-2.0-0.6","5dccb82a76eab294aa4837ff","A3","batch1","spm_show_trial_num","null","<p class=block-text>Trial 7 out of 60</p>","null","","","","","","","","","","","","","","","","","","","","","","","","","",""
"","","","","","image-button-response","17","92453","0.0-2.0-2.0-1.6","5dccb82a76eab294aa4837ff","A3","batch1","spm_respsonse","4551.5","img/question_1_7.jpeg","5","mat_07","6","1","1","4551.5","","","","","","","","","","","","","","","","","","","","",""
"","","","","","html-keyboard-response","18","93509","0.0-2.0-2.0-0.7","5dccb82a76eab294aa4837ff","A3","batch1","spm_show_trial_num","null","<p class=block-text>Trial 8 out of 60</p>","null","","","","","","","","","","","","","","","","","","","","","","","","","",""
"","","","","","image-button-response","19","106493","0.0-2.0-2.0-1.7","5dccb82a76eab294aa4837ff","A3","batch1","spm_respsonse","12979.79999999702","img/question_1_8.jpeg","1","mat_08","2","1","1","12979.79999999702","","","","","","","","","","","","","","","","","","","","",""
"","","","","","html-keyboard-response","20","107551","0.0-2.0-2.0-0.8","5dccb82a76eab294aa4837ff","A3","batch1","spm_show_trial_num","null","<p class=block-text>Trial 9 out of 60</p>","null","","","","","","","","","","","","","","","","","","","","","","","","","",""
"","","","","","image-button-response","21","112733","0.0-2.0-2.0-1.8","5dccb82a76eab294aa4837ff","A3","batch1","spm_respsonse","5177.60000000149","img/question_1_9.jpeg","0","mat_09","1","1","1","5177.60000000149","","","","","","","","","","","","","","","","","","","","",""
"","","","","","html-keyboard-response","22","113807","0.0-2.0-2.0-0.9","5dccb82a76eab294aa4837ff","A3","batch1","spm_show_trial_num","null","<p class=block-text>Trial 10 out of 60</p>","null","","","","","","","","","","","","","","","","","","","","","","","","","",""
"","","","","","image-button-response","23","122141","0.0-2.0-2.0-1.9","5dccb82a76eab294aa4837ff","A3","batch1","spm_respsonse","8329.89999999851","img/question_1_10.jpeg","2","mat_10","3","1","1","8329.89999999851","","","","","","","","","","","","","","","","","","","","",""
"","","","","","html-keyboard-response","24","123195","0.0-2.0-2.0-0.10","5dccb82a76eab294aa4837ff","A3","batch1","spm_show_trial_num","null","<p class=block-text>Trial 11 out of 60</p>","null","","","","","","","","","","","","","","","","","","","","","","","","","",""
"","","","","","image-button-response","25","177349","0.0-2.0-2.0-1.10","5dccb82a76eab294aa4837ff","A3","batch1","spm_respsonse","54149.69999999553","img/question_1_11.jpeg","3","mat_11","4","1","1","54149.69999999553","","","","","","","","","","","","","","","","","","","","",""
"","","","","","html-keyboard-response","26","178412","0.0-2.0-2.0-0.11","5dccb82a76eab294aa4837ff","A3","batch1","spm_show_trial_num","null","<p class=block-text>Trial 12 out of 60</p>","null","","","","","","","","","","","","","","","","","","","","","","","","","",""
"","","","","","image-button-response","27","219876","0.0-2.0-2.0-1.11","5dccb82a76eab294aa4837ff","A3","batch1","spm_respsonse","41460","img/question_1_12.jpeg","4","mat_12","5","1","1","41460","","","","","","","","","","","","","","","","","","","","",""
"","","","","","html-keyboard-response","28","220929","0.0-2.0-2.0-0.12","5dccb82a76eab294aa4837ff","A3","batch1","spm_show_trial_num","null","<p class=block-text>Trial 13 out of 60</p>","null","","","","","","","","","","","","","","","","","","","","","","","","","",""
"","","","","","image-button-response","29","224556","0.0-2.0-2.0-1.12","5dccb82a76eab294aa4837ff","A3","batch1","spm_respsonse","3623.3000000044703","img/question_2_1.jpeg","1","mat_13","2","1","1","3623.3000000044703","","","","","","","","","","","","","","","","","","","","",""
"","","","","","html-keyboard-response","30","225613","0.0-2.0-2.0-0.13","5dccb82a76eab294aa4837ff","A3","batch1","spm_show_trial_num","null","<p class=block-text>Trial 14 out of 60</p>","null","","","","","","","","","","","","","","","","","","","","","","","","","",""
"","","","","","image-button-response","31","236900","0.0-2.0-2.0-1.13","5dccb82a76eab294aa4837ff","A3","batch1","spm_respsonse","11283.60000000149","img/question_2_2.jpeg","5","mat_14","6","1","1","11283.60000000149","","","","","","","","","","","","","","","","","","","","",""
"","","","","","html-keyboard-response","32","237957","0.0-2.0-2.0-0.14","5dccb82a76eab294aa4837ff","A3","batch1","spm_show_trial_num","null","<p class=block-text>Trial 15 out of 60</p>","null","","","","","","","","","","","","","","","","","","","","","","","","","",""
"","","","","","image-button-response","33","241564","0.0-2.0-2.0-1.14","5dccb82a76eab294aa4837ff","A3","batch1","spm_respsonse","3603.8000000044703","img/question_2_3.jpeg","0","mat_15","1","1","1","3603.8000000044703","","","","","","","","","","","","","","","","","","","","",""
"","","","","","html-keyboard-response","34","242617","0.0-2.0-2.0-0.15","5dccb82a76eab294aa4837ff","A3","batch1","spm_show_trial_num","null","<p class=block-text>Trial 16 out of 60</p>","null","","","","","","","","","","","","","","","","","","","","","","","","","",""
"","","","","","image-button-response","35","247692","0.0-2.0-2.0-1.15","5dccb82a76eab294aa4837ff","A3","batch1","spm_respsonse","5072.10000000149","img/question_2_4.jpeg","1","mat_16","2","1","1","5072.10000000149","","","","","","","","","","","","","","","","","","","","",""
"","","","","","html-keyboard-response","36","248771","0.0-2.0-2.0-0.16","5dccb82a76eab294aa4837ff","A3","batch1","spm_show_trial_num","null","<p class=block-text>Trial 17 out of 60</p>","null","","","","","","","","","","","","","","","","","","","","","","","","","",""
"","","","","","image-button-response","37","254421","0.0-2.0-2.0-1.16","5dccb82a76eab294aa4837ff","A3","batch1","spm_respsonse","5646.10000000149","img/question_2_5.jpeg","0","mat_17","1","1","1","5646.10000000149","","","","","","","","","","","","","","","","","","","","",""
"","","","","","html-keyboard-response","38","255472","0.0-2.0-2.0-0.17","5dccb82a76eab294aa4837ff","A3","batch1","spm_show_trial_num","null","<p class=block-text>Trial 18 out of 60</p>","null","","","","","","","","","","","","","","","","","","","","","","","","","",""
"","","","","","image-button-response","39","268956","0.0-2.0-2.0-1.17","5dccb82a76eab294aa4837ff","A3","batch1","spm_respsonse","13480.70000000298","img/question_2_6.jpeg","2","mat_18","3","1","1","13480.70000000298","","","","","","","","","","","","","","","","","","","","",""
"","","","","","html-keyboard-response","40","270023","0.0-2.0-2.0-0.18","5dccb82a76eab294aa4837ff","A3","batch1","spm_show_trial_num","null","<p class=block-text>Trial 19 out of 60</p>","null","","","","","","","","","","","","","","","","","","","","","","","","","",""
"","","","","","image-button-response","41","276892","0.0-2.0-2.0-1.18","5dccb82a76eab294aa4837ff","A3","batch1","spm_respsonse","6865.60000000149","img/question_2_7.jpeg","4","mat_19","5","1","1","6865.60000000149","","","","","","","","","","","","","","","","","","","","",""
"","","","","","html-keyboard-response","42","277968","0.0-2.0-2.0-0.19","5dccb82a76eab294aa4837ff","A3","batch1","spm_show_trial_num","null","<p class=block-text>Trial 20 out of 60</p>","null","","","","","","","","","","","","","","","","","","","","","","","","","",""
"","","","","","image-button-response","43","285876","0.0-2.0-2.0-1.19","5dccb82a76eab294aa4837ff","A3","batch1","spm_respsonse","7904.20000000298","img/question_2_8.jpeg","5","mat_20","6","1","1","7904.20000000298","","","","","","","","","","","","","","","","","","","","",""
"","","","","","html-keyboard-response","44","286938","0.0-2.0-2.0-0.20","5dccb82a76eab294aa4837ff","A3","batch1","spm_show_trial_num","null","<p class=block-text>Trial 21 out of 60</p>","null","","","","","","","","","","","","","","","","","","","","","","","","","",""
"","","","","","image-button-response","45","296236","0.0-2.0-2.0-1.20","5dccb82a76eab294aa4837ff","A3","batch1","spm_respsonse","9294.29999999702","img/question_2_9.jpeg","3","mat_21","4","1","1","9294.29999999702","","","","","","","","","","","","","","","","","","","","",""
"","","","","","html-keyboard-response","46","297289","0.0-2.0-2.0-0.21","5dccb82a76eab294aa4837ff","A3","batch1","spm_show_trial_num","null","<p class=block-text>Trial 22 out of 60</p>","null","","","","","","","","","","","","","","","","","","","","","","","","","",""
"","","","","","image-button-response","47","310556","0.0-2.0-2.0-1.21","5dccb82a76eab294aa4837ff","A3","batch1","spm_respsonse","13262.79999999702","img/question_2_10.jpeg","2","mat_22","3","1","1","13262.79999999702","","","","","","","","","","","","","","","","","","","","",""
"","","","","","html-keyboard-response","48","311627","0.0-2.0-2.0-0.22","5dccb82a76eab294aa4837ff","A3","batch1","spm_show_trial_num","null","<p class=block-text>Trial 23 out of 60</p>","null","","","","","","","","","","","","","","","","","","","","","","","","","",""
"","","","","","image-button-response","49","319516","0.0-2.0-2.0-1.22","5dccb82a76eab294aa4837ff","A3","batch1","spm_respsonse","7885.19999999553","img/question_2_11.jpeg","3","mat_23","4","1","1","7885.19999999553","","","","","","","","","","","","","","","","","","","","",""
"","","","","","html-keyboard-response","50","320567","0.0-2.0-2.0-0.23","5dccb82a76eab294aa4837ff","A3","batch1","spm_show_trial_num","null","<p class=block-text>Trial 24 out of 60</p>","null","","","","","","","","","","","","","","","","","","","","","","","","","",""
"","","","","","image-button-response","51","354476","0.0-2.0-2.0-1.23","5dccb82a76eab294aa4837ff","A3","batch1","spm_respsonse","33904.80000000447","img/question_2_12.jpeg","4","mat_24","5","1","1","33904.80000000447","","","","","","","","","","","","","","","","","","","","",""
"","","","","","html-button-response","52","359100","0.0-2.0-3.0","5dccb82a76eab294aa4837ff","A3","batch1","attention_check","4371.5","<p class = block-text>Attention check: Please choose 1<br></p>","0","","","true","","","","","","","","","","","","","","","","","","","","","","",""
"","","","","","html-keyboard-response","53","359902","0.0-2.0-4.0-0.0","5dccb82a76eab294aa4837ff","A3","batch1","spm_show_trial_num","null","<p class=block-text>Trial 25 out of 60</p>","null","","","","","","","","","","","","","","","","","","","","","","","","","",""
"","","","","","image-button-response","54","372412","0.0-2.0-4.0-1.0","5dccb82a76eab294aa4837ff","A3","batch1","spm_respsonse","12506.19999999553","img/question_3_1.jpeg","7","mat_25","8","1","1","12506.19999999553","","","","","","","","","","","","","","","","","","","","",""
"","","","","","html-keyboard-response","55","373470","0.0-2.0-4.0-0.1","5dccb82a76eab294aa4837ff","A3","batch1","spm_show_trial_num","null","<p class=block-text>Trial 26 out of 60</p>","null","","","","","","","","","","","","","","","","","","","","","","","","","",""
"","","","","","image-button-response","56","385740","0.0-2.0-4.0-1.1","5dccb82a76eab294aa4837ff","A3","batch1","spm_respsonse","12265.60000000149","img/question_3_2.jpeg","1","mat_26","2","1","1","12265.60000000149","","","","","","","","","","","","","","","","","","","","",""
"","","","","","html-keyboard-response","57","386807","0.0-2.0-4.0-0.2","5dccb82a76eab294aa4837ff","A3","batch1","spm_show_trial_num","null","<p class=block-text>Trial 27 out of 60</p>","null","","","","","","","","","","","","","","","","","","","","","","","","","",""
"","","","","","image-button-response","58","399244","0.0-2.0-4.0-1.2","5dccb82a76eab294aa4837ff","A3","batch1","spm_respsonse","12433","img/question_3_3.jpeg","2","mat_27","3","1","1","12433","","","","","","","","","","","","","","","","","","","","",""
"","","","","","html-keyboard-response","59","400297","0.0-2.0-4.0-0.3","5dccb82a76eab294aa4837ff","A3","batch1","spm_show_trial_num","null","<p class=block-text>Trial 28 out of 60</p>","null","","","","","","","","","","","","","","","","","","","","","","","","","",""
"","","","","","image-button-response","60","425748","0.0-2.0-4.0-1.3","5dccb82a76eab294aa4837ff","A3","batch1","spm_respsonse","25446.89999999851","img/question_3_4.jpeg","7","mat_28","8","1","1","25446.89999999851","","","","","","","","","","","","","","","","","","","","",""
"","","","","","html-keyboard-response","61","426801","0.0-2.0-4.0-0.4","5dccb82a76eab294aa4837ff","A3","batch1","spm_show_trial_num","null","<p class=block-text>Trial 29 out of 60</p>","null","","","","","","","","","","","","","","","","","","","","","","","","","",""
"","","","","","image-button-response","62","461164","0.0-2.0-4.0-1.4","5dccb82a76eab294aa4837ff","A3","batch1","spm_respsonse","34359.10000000149","img/question_3_5.jpeg","6","mat_29","7","1","1","34359.10000000149","","","","","","","","","","","","","","","","","","","","",""
"","","","","","html-keyboard-response","63","462216","0.0-2.0-4.0-0.5","5dccb82a76eab294aa4837ff","A3","batch1","spm_show_trial_num","null","<p class=block-text>Trial 30 out of 60</p>","null","","","","","","","","","","","","","","","","","","","","","","","","","",""
"","","","","","image-button-response","64","479948","0.0-2.0-4.0-1.5","5dccb82a76eab294aa4837ff","A3","batch1","spm_respsonse","17727.39999999851","img/question_3_6.jpeg","3","mat_30","4","1","1","17727.39999999851","","","","","","","","","","","","","","","","","","","","",""
"","","","","","html-keyboard-response","65","481001","0.0-2.0-4.0-0.6","5dccb82a76eab294aa4837ff","A3","batch1","spm_show_trial_num","null","<p class=block-text>Trial 31 out of 60</p>","null","","","","","","","","","","","","","","","","","","","","","","","","","",""
"","","","","","image-button-response","66","492708","0.0-2.0-4.0-1.6","5dccb82a76eab294aa4837ff","A3","batch1","spm_respsonse","11702.89999999851","img/question_3_7.jpeg","4","mat_31","5","1","1","11702.89999999851","","","","","","","","","","","","","","","","","","","","",""
"","","","","","html-keyboard-response","67","493760","0.0-2.0-4.0-0.7","5dccb82a76eab294aa4837ff","A3","batch1","spm_show_trial_num","null","<p class=block-text>Trial 32 out of 60</p>","null","","","","","","","","","","","","","","","","","","","","","","","","","",""
"","","","","","image-button-response","68","534364","0.0-2.0-4.0-1.7","5dccb82a76eab294aa4837ff","A3","batch1","spm_respsonse","40600.19999999553","img/question_3_8.jpeg","5","mat_32","1","0","0","40600.19999999553","","","","","","","","","","","","","","","","","","","","",""
"","","","","","html-keyboard-response","69","535429","0.0-2.0-4.0-0.8","5dccb82a76eab294aa4837ff","A3","batch1","spm_show_trial_num","null","<p class=block-text>Trial 33 out of 60</p>","null","","","","","","","","","","","","","","","","","","","","","","","","","",""
"","","","","","image-button-response","70","551747","0.0-2.0-4.0-1.8","5dccb82a76eab294aa4837ff","A3","batch1","spm_respsonse","16314.10000000149","img/question_3_9.jpeg","6","mat_33","7","1","1","16314.10000000149","","","","","","","","","","","","","","","","","","","","",""
"","","","","","html-keyboard-response","71","552813","0.0-2.0-4.0-0.9","5dccb82a76eab294aa4837ff","A3","batch1","spm_show_trial_num","null","<p class=block-text>Trial 34 out of 60</p>","null","","","","","","","","","","","","","","","","","","","","","","","","","",""
"","","","","","image-button-response","72","576763","0.0-2.0-4.0-1.9","5dccb82a76eab294aa4837ff","A3","batch1","spm_respsonse","23946.29999999702","img/question_3_10.jpeg","5","mat_34","6","1","1","23946.29999999702","","","","","","","","","","","","","","","","","","","","",""
"","","","","","html-keyboard-response","73","577827","0.0-2.0-4.0-0.10","5dccb82a76eab294aa4837ff","A3","batch1","spm_show_trial_num","null","<p class=block-text>Trial 35 out of 60</p>","null","","","","","","","","","","","","","","","","","","","","","","","","","",""
"","","","","","image-button-response","74","626979","0.0-2.0-4.0-1.10","5dccb82a76eab294aa4837ff","A3","batch1","spm_respsonse","49148.5","img/question_3_11.jpeg","0","mat_35","1","1","1","49148.5","","","","","","","","","","","","","","","","","","","","",""
"","","","","","html-keyboard-response","75","628034","0.0-2.0-4.0-0.11","5dccb82a76eab294aa4837ff","A3","batch1","spm_show_trial_num","null","<p class=block-text>Trial 36 out of 60</p>","null","","","","","","","","","","","","","","","","","","","","","","","","","",""
"","","","","","image-button-response","76","685483","0.0-2.0-4.0-1.11","5dccb82a76eab294aa4837ff","A3","batch1","spm_respsonse","57445.5","img/question_3_12.jpeg","2","mat_36","2","0","0","57445.5","","","","","","","","","","","","","","","","","","","","",""
"","","","","","html-keyboard-response","77","686537","0.0-2.0-4.0-0.12","5dccb82a76eab294aa4837ff","A3","batch1","spm_show_trial_num","null","<p class=block-text>Trial 37 out of 60</p>","null","","","","","","","","","","","","","","","","","","","","","","","","","",""
"","","","","","image-button-response","78","692243","0.0-2.0-4.0-1.12","5dccb82a76eab294aa4837ff","A3","batch1","spm_respsonse","5702.20000000298","img/question_4_1.jpeg","2","mat_37","3","1","1","5702.20000000298","","","","","","","","","","","","","","","","","","","","",""
"","","","","","html-keyboard-response","79","693307","0.0-2.0-4.0-0.13","5dccb82a76eab294aa4837ff","A3","batch1","spm_show_trial_num","null","<p class=block-text>Trial 38 out of 60</p>","null","","","","","","","","","","","","","","","","","","","","","","","","","",""
"","","","","","image-button-response","80","710035","0.0-2.0-4.0-1.13","5dccb82a76eab294aa4837ff","A3","batch1","spm_respsonse","16724.39999999851","img/question_4_2.jpeg","3","mat_38","4","1","1","16724.39999999851","","","","","","","","","","","","","","","","","","","","",""
"","","","","","html-keyboard-response","81","711088","0.0-2.0-4.0-0.14","5dccb82a76eab294aa4837ff","A3","batch1","spm_show_trial_num","null","<p class=block-text>Trial 39 out of 60</p>","null","","","","","","","","","","","","","","","","","","","","","","","","","",""
"","","","","","image-button-response","82","739002","0.0-2.0-4.0-1.14","5dccb82a76eab294aa4837ff","A3","batch1","spm_respsonse","27910.20000000298","img/question_4_3.jpeg","2","mat_39","3","1","1","27910.20000000298","","","","","","","","","","","","","","","","","","","","",""
"","","","","","html-keyboard-response","83","740056","0.0-2.0-4.0-0.15","5dccb82a76eab294aa4837ff","A3","batch1","spm_show_trial_num","null","<p class=block-text>Trial 40 out of 60</p>","null","","","","","","","","","","","","","","","","","","","","","","","","","",""
"","","","","","image-button-response","84","752675","0.0-2.0-4.0-1.15","5dccb82a76eab294aa4837ff","A3","batch1","spm_respsonse","12615.79999999702","img/question_4_4.jpeg","6","mat_40","7","1","1","12615.79999999702","","","","","","","","","","","","","","","","","","","","",""
"","","","","","html-keyboard-response","85","753739","0.0-2.0-4.0-0.16","5dccb82a76eab294aa4837ff","A3","batch1","spm_show_trial_num","null","<p class=block-text>Trial 41 out of 60</p>","null","","","","","","","","","","","","","","","","","","","","","","","","","",""
"","","","","","image-button-response","86","767739","0.0-2.0-4.0-1.16","5dccb82a76eab294aa4837ff","A3","batch1","spm_respsonse","13996","img/question_4_5.jpeg","7","mat_41","8","1","1","13996","","","","","","","","","","","","","","","","","","","","",""
"","","","","","html-keyboard-response","87","768796","0.0-2.0-4.0-0.17","5dccb82a76eab294aa4837ff","A3","batch1","spm_show_trial_num","null","<p class=block-text>Trial 42 out of 60</p>","null","","","","","","","","","","","","","","","","","","","","","","","","","",""
"","","","","","image-button-response","88","790307","0.0-2.0-4.0-1.17","5dccb82a76eab294aa4837ff","A3","batch1","spm_respsonse","21506.80000000447","img/question_4_6.jpeg","5","mat_42","6","1","1","21506.80000000447","","","","","","","","","","","","","","","","","","","","",""
"","","","","","html-keyboard-response","89","791360","0.0-2.0-4.0-0.18","5dccb82a76eab294aa4837ff","A3","batch1","spm_show_trial_num","null","<p class=block-text>Trial 43 out of 60</p>","null","","","","","","","","","","","","","","","","","","","","","","","","","",""
"","","","","","image-button-response","90","859522","0.0-2.0-4.0-1.18","5dccb82a76eab294aa4837ff","A3","batch1","spm_respsonse","68158.19999999553","img/question_4_7.jpeg","4","mat_43","5","1","1","68158.19999999553","","","","","","","","","","","","","","","","","","","","",""
"","","","","","html-keyboard-response","91","860575","0.0-2.0-4.0-0.19","5dccb82a76eab294aa4837ff","A3","batch1","spm_show_trial_num","null","<p class=block-text>Trial 44 out of 60</p>","null","","","","","","","","","","","","","","","","","","","","","","","","","",""
"","","","","","image-button-response","92","909131","0.0-2.0-4.0-1.19","5dccb82a76eab294aa4837ff","A3","batch1","spm_respsonse","48551.19999999553","img/question_4_8.jpeg","3","mat_44","4","1","1","48551.19999999553","","","","","","","","","","","","","","","","","","","","",""
"","","","","","html-keyboard-response","93","910193","0.0-2.0-4.0-0.20","5dccb82a76eab294aa4837ff","A3","batch1","spm_show_trial_num","null","<p class=block-text>Trial 45 out of 60</p>","null","","","","","","","","","","","","","","","","","","","","","","","","","",""
"","","","","","image-button-response","94","946410","0.0-2.0-4.0-1.20","5dccb82a76eab294aa4837ff","A3","batch1","spm_respsonse","36212.89999999851","img/question_4_9.jpeg","3","mat_45","1","0","0","36212.89999999851","","","","","","","","","","","","","","","","","","","","",""
"","","","","","html-keyboard-response","95","947463","0.0-2.0-4.0-0.21","5dccb82a76eab294aa4837ff","A3","batch1","spm_show_trial_num","null","<p class=block-text>Trial 46 out of 60</p>","null","","","","","","","","","","","","","","","","","","","","","","","","","",""
"","","","","","image-button-response","96","971482","0.0-2.0-4.0-1.21","5dccb82a76eab294aa4837ff","A3","batch1","spm_respsonse","24015.30000000447","img/question_4_10.jpeg","3","mat_46","2","0","0","24015.30000000447","","","","","","","","","","","","","","","","","","","","",""
"","","","","","html-keyboard-response","97","972536","0.0-2.0-4.0-0.22","5dccb82a76eab294aa4837ff","A3","batch1","spm_show_trial_num","null","<p class=block-text>Trial 47 out of 60</p>","null","","","","","","","","","","","","","","","","","","","","","","","","","",""
"","","","","","image-button-response","98","1016938","0.0-2.0-4.0-1.22","5dccb82a76eab294aa4837ff","A3","batch1","spm_respsonse","44397.89999999851","img/question_4_11.jpeg","1","mat_47","5","0","0","44397.89999999851","","","","","","","","","","","","","","","","","","","","",""
"","","","","","html-keyboard-response","99","1017999","0.0-2.0-4.0-0.23","5dccb82a76eab294aa4837ff","A3","batch1","spm_show_trial_num","null","<p class=block-text>Trial 48 out of 60</p>","null","","","","","","","","","","","","","","","","","","","","","","","","","",""
"","","","","","image-button-response","100","1040803","0.0-2.0-4.0-1.23","5dccb82a76eab294aa4837ff","A3","batch1","spm_respsonse","22799.30000000447","img/question_4_12.jpeg","5","mat_48","6","1","1","22799.30000000447","","","","","","","","","","","","","","","","","","","","",""
"","","","","","html-keyboard-response","101","1041855","0.0-2.0-4.0-0.24","5dccb82a76eab294aa4837ff","A3","batch1","spm_show_trial_num","null","<p class=block-text>Trial 49 out of 60</p>","null","","","","","","","","","","","","","","","","","","","","","","","","","",""
"","","","","","image-button-response","102","1063754","0.0-2.0-4.0-1.24","5dccb82a76eab294aa4837ff","A3","batch1","spm_respsonse","21895.10000000149","img/question_5_1.jpeg","6","mat_49","7","1","1","21895.10000000149","","","","","","","","","","","","","","","","","","","","",""
"","","","","","html-keyboard-response","103","1064817","0.0-2.0-4.0-0.25","5dccb82a76eab294aa4837ff","A3","batch1","spm_show_trial_num","null","<p class=block-text>Trial 50 out of 60</p>","null","","","","","","","","","","","","","","","","","","","","","","","","","",""
"","","","","","image-button-response","104","1098946","0.0-2.0-4.0-1.25","5dccb82a76eab294aa4837ff","A3","batch1","spm_respsonse","34124.79999999702","img/question_5_2.jpeg","5","mat_50","6","1","1","34124.79999999702","","","","","","","","","","","","","","","","","","","","",""
"","","","","","html-keyboard-response","105","1099998","0.0-2.0-4.0-0.26","5dccb82a76eab294aa4837ff","A3","batch1","spm_show_trial_num","null","<p class=block-text>Trial 51 out of 60</p>","null","","","","","","","","","","","","","","","","","","","","","","","","","",""
"","","","","","image-button-response","106","1134338","0.0-2.0-4.0-1.26","5dccb82a76eab294aa4837ff","A3","batch1","spm_respsonse","34335.89999999851","img/question_5_3.jpeg","7","mat_51","8","1","1","34335.89999999851","","","","","","","","","","","","","","","","","","","","",""
"","","","","","html-keyboard-response","107","1135397","0.0-2.0-4.0-0.27","5dccb82a76eab294aa4837ff","A3","batch1","spm_show_trial_num","null","<p class=block-text>Trial 52 out of 60</p>","null","","","","","","","","","","","","","","","","","","","","","","","","","",""
"","","","","","image-button-response","108","1178746","0.0-2.0-4.0-1.27","5dccb82a76eab294aa4837ff","A3","batch1","spm_respsonse","43344.59999999404","img/question_5_4.jpeg","4","mat_52","2","0","0","43344.59999999404","","","","","","","","","","","","","","","","","","","","",""
"","","","","","html-keyboard-response","109","1179800","0.0-2.0-4.0-0.28","5dccb82a76eab294aa4837ff","A3","batch1","spm_show_trial_num","null","<p class=block-text>Trial 53 out of 60</p>","null","","","","","","","","","","","","","","","","","","","","","","","","","",""
"","","","","","image-button-response","110","1204706","0.0-2.0-4.0-1.28","5dccb82a76eab294aa4837ff","A3","batch1","spm_respsonse","24901.79999999702","img/question_5_5.jpeg","2","mat_53","1","0","0","24901.79999999702","","","","","","","","","","","","","","","","","","","","",""
"","","","","","html-keyboard-response","111","1205770","0.0-2.0-4.0-0.29","5dccb82a76eab294aa4837ff","A3","batch1","spm_show_trial_num","null","<p class=block-text>Trial 54 out of 60</p>","null","","","","","","","","","","","","","","","","","","","","","","","","","",""
"","","","","","image-button-response","112","1260681","0.0-2.0-4.0-1.29","5dccb82a76eab294aa4837ff","A3","batch1","spm_respsonse","54907.20000000298","img/question_5_6.jpeg","5","mat_54","5","0","0","54907.20000000298","","","","","","","","","","","","","","","","","","","","",""
"","","","","","html-keyboard-response","113","1261737","0.0-2.0-4.0-0.30","5dccb82a76eab294aa4837ff","A3","batch1","spm_show_trial_num","null","<p class=block-text>Trial 55 out of 60</p>","null","","","","","","","","","","","","","","","","","","","","","","","","","",""
"","","","","","image-button-response","114","1294370","0.0-2.0-4.0-1.30","5dccb82a76eab294aa4837ff","A3","batch1","spm_respsonse","32627.59999999404","img/question_5_7.jpeg","6","mat_55","1","0","0","32627.59999999404","","","","","","","","","","","","","","","","","","","","",""
"","","","","","html-keyboard-response","115","1295425","0.0-2.0-4.0-0.31","5dccb82a76eab294aa4837ff","A3","batch1","spm_show_trial_num","null","<p class=block-text>Trial 56 out of 60</p>","null","","","","","","","","","","","","","","","","","","","","","","","","","",""
"","","","","","image-button-response","116","1328530","0.0-2.0-4.0-1.31","5dccb82a76eab294aa4837ff","A3","batch1","spm_respsonse","33100.89999999851","img/question_5_8.jpeg","4","mat_56","6","0","0","33100.89999999851","","","","","","","","","","","","","","","","","","","","",""
"","","","","","html-keyboard-response","117","1329582","0.0-2.0-4.0-0.32","5dccb82a76eab294aa4837ff","A3","batch1","spm_show_trial_num","null","<p class=block-text>Trial 57 out of 60</p>","null","","","","","","","","","","","","","","","","","","","","","","","","","",""
"","","","","","image-button-response","118","1351130","0.0-2.0-4.0-1.32","5dccb82a76eab294aa4837ff","A3","batch1","spm_respsonse","21543.70000000298","img/question_5_9.jpeg","3","mat_57","3","0","0","21543.70000000298","","","","","","","","","","","","","","","","","","","","",""
"","","","","","html-keyboard-response","119","1352182","0.0-2.0-4.0-0.33","5dccb82a76eab294aa4837ff","A3","batch1","spm_show_trial_num","null","<p class=block-text>Trial 58 out of 60</p>","null","","","","","","","","","","","","","","","","","","","","","","","","","",""
"","","","","","image-button-response","120","1373225","0.0-2.0-4.0-1.33","5dccb82a76eab294aa4837ff","A3","batch1","spm_respsonse","21039.60000000149","img/question_5_10.jpeg","7","mat_58","2","0","0","21039.60000000149","","","","","","","","","","","","","","","","","","","","",""
"","","","","","html-keyboard-response","121","1374278","0.0-2.0-4.0-0.34","5dccb82a76eab294aa4837ff","A3","batch1","spm_show_trial_num","null","<p class=block-text>Trial 59 out of 60</p>","null","","","","","","","","","","","","","","","","","","","","","","","","","",""
"","","","","","image-button-response","122","1387490","0.0-2.0-4.0-1.34","5dccb82a76eab294aa4837ff","A3","batch1","spm_respsonse","13207.69999999553","img/question_5_11.jpeg","7","mat_59","4","0","0","13207.69999999553","","","","","","","","","","","","","","","","","","","","",""
"","","","","","html-keyboard-response","123","1388542","0.0-2.0-4.0-0.35","5dccb82a76eab294aa4837ff","A3","batch1","spm_show_trial_num","null","<p class=block-text>Trial 60 out of 60</p>","null","","","","","","","","","","","","","","","","","","","","","","","","","",""
"","","","","","image-button-response","124","1405745","0.0-2.0-4.0-1.35","5dccb82a76eab294aa4837ff","A3","batch1","spm_respsonse","17199.60000000149","img/question_5_12.jpeg","3","mat_60","5","0","0","17199.60000000149","","","","","","","","","","","","","","","","","","","","",""
"","","","","","html-button-response","125","1408561","0.0-2.0-5.0","5dccb82a76eab294aa4837ff","A3","batch1","spm_goodbye","2561.2999999970198","<p class= block-text>This concludes the Standard Progressive Matrix game. Thank you for your responses!<br> When you are ready, click the button continue</p>","0","","","","","","","","","","","","","","","","","","","","","","","","","",""
"true","","","","","fullscreen","126","1412814","0.0-3.0-0.0","5dccb82a76eab294aa4837ff","A3","batch1","","","","","","","","","","","","","","","","","","","","","","","","","","","","","",""
"","","","","","instructions","127","1442113","0.0-3.0-1.0-0.0","5dccb82a76eab294aa4837ff","A3","batch1","","29297.5","","","","","","","","[{""page_index"":0,""viewing_time"":20561.29999999702},{""page_index"":1,""viewing_time"":8735.70000000298}]","","","","","","","","","","","","","","","","","","","",""
"","","","","","html-button-response","128","1443769","0.0-3.0-1.0-1.0-0.0","5dccb82a76eab294aa4837ff","A3","batch1","pattern_enter_quiz","1654.5","<p class=block-text> Let's answer a few questions <br>","0","","","","","","","","","","","","","","","","","","","","","","","","","",""
"","","","","","html-button-response","129","1446273","0.0-3.0-1.0-1.0-1.0","5dccb82a76eab294aa4837ff","A3","batch1","pattern_quiz","2501.60000000149","<p class = block-text>True or False: You will have as much time as you want to make each choice. <br></p>","0","","","false","","","","","","","","","","","","","","","","","","","","","","",""
"","","","","","html-button-response","130","1448153","0.0-3.0-1.0-1.0-2.0","5dccb82a76eab294aa4837ff","A3","batch1","pattern_quiz_feedback","1877.8999999985099","<p class = block-text>Incorrect. Remember, You should make your choice as fast as you can.</p>","0","","","","","","","","","","","","","","","","","","","","","","","","","",""
"","","","","","html-button-response","131","1452329","0.0-3.0-1.0-1.0-3.0","5dccb82a76eab294aa4837ff","A3","batch1","pattern_quiz","4174.39999999851","<p class = block-text>True or False: You will look for 4 pieces in black or white color connected in a row either horizontally, vertically or diagonally. <br></p>","0","","","true","","","","","","","","","","","","","","","","","","","","","","",""
"","","","","","html-button-response","132","1453553","0.0-3.0-1.0-1.0-4.0","5dccb82a76eab294aa4837ff","A3","batch1","pattern_quiz_feedback","1221.8999999985099","<p class = block-text>Correct! </p>","0","","","","","","","","","","","","","","","","","","","","","","","","","",""
"","","","","","html-button-response","133","1455321","0.0-3.0-1.0-2.0-0.0","5dccb82a76eab294aa4837ff","A3","batch1","","1765.6000000014901","<p class = block-text>You made too many incorrect choices.</p><p class = block-text>You will now repeat the instruction and quiz</p>","0","","","","","","","","","","","","","","","","","","","","","","","","","",""
"","","","","","instructions","134","1457481","0.0-3.0-1.1-0.1","5dccb82a76eab294aa4837ff","A3","batch1","","2158.6999999955297","","","","","","","","[{""page_index"":0,""viewing_time"":1478.3999999985099},{""page_index"":1,""viewing_time"":680}]","","","","","","","","","","","","","","","","","","","",""
"","","","","","html-button-response","135","1459104","0.0-3.0-1.1-1.1-0.1","5dccb82a76eab294aa4837ff","A3","batch1","pattern_enter_quiz","1622.5","<p class=block-text> Let's answer a few questions <br>","0","","","","","","","","","","","","","","","","","","","","","","","","","",""
"","","","","","html-button-response","136","1462161","0.0-3.0-1.1-1.1-1.1","5dccb82a76eab294aa4837ff","A3","batch1","pattern_quiz","3054.5","<p class = block-text>True or False: You will have as much time as you want to make each choice. <br></p>","1","","","true","","","","","","","","","","","","","","","","","","","","","","",""
"","","","","","html-button-response","137","1463304","0.0-3.0-1.1-1.1-2.1","5dccb82a76eab294aa4837ff","A3","batch1","pattern_quiz_feedback","1141.3999999985099","<p class = block-text>Correct! You should make your choice <strong> as fast as you can</strong>.</p>","0","","","","","","","","","","","","","","","","","","","","","","","","","",""
"","","","","","html-button-response","138","1464897","0.0-3.0-1.1-1.1-3.1","5dccb82a76eab294aa4837ff","A3","batch1","pattern_quiz","1591","<p class = block-text>True or False: You will look for 4 pieces in black or white color connected in a row either horizontally, vertically or diagonally. <br></p>","0","","","true","","","","","","","","","","","","","","","","","","","","","","",""
"","","","","","html-button-response","139","1465656","0.0-3.0-1.1-1.1-4.1","5dccb82a76eab294aa4837ff","A3","batch1","pattern_quiz_feedback","758","<p class = block-text>Correct! </p>","0","","","","","","","","","","","","","","","","","","","","","","","","","",""
"","","","","","html-button-response","140","1468752","0.0-3.0-2.0","5dccb82a76eab294aa4837ff","A3","batch1","pattern_enter_practice","3094.60000000149","<p class=block-text> Now that you've understood the game, let's do a few practice trials before we start!<br> <br>","0","","","","","","","","","","","","","","","","","","","","","","","","","",""
"","","","","","image-keyboard-response","141","1472184","0.0-3.0-3.0-0.0","5dccb82a76eab294aa4837ff","A3","batch1","pattern_practice","3427.5","stim/prac_yes_16_ver_w1.png","f","","f","true","","","","","","","","","","","","","","","","","","","","","","",""
"","","","","","html-keyboard-response","142","1473204","0.0-3.0-3.0-1.0","5dccb82a76eab294aa4837ff","A3","batch1","pattern_feedback","null","<p style=""font-size:30px;color:green;"">Correct!</p>","null","","","","","","","","","","","","","","","","","","","","","","","","","",""
"","","","","","image-keyboard-response","143","1474342","0.0-3.0-3.0-0.1","5dccb82a76eab294aa4837ff","A3","batch1","pattern_practice","1136.3000000044703","stim/prac_no_18_1.png","j","","j","true","","","","","","","","","","","","","","","","","","","","","","",""
"","","","","","html-keyboard-response","144","1475371","0.0-3.0-3.0-1.1","5dccb82a76eab294aa4837ff","A3","batch1","pattern_feedback","null","<p style=""font-size:30px;color:green;"">Correct!</p>","null","","","","","","","","","","","","","","","","","","","","","","","","","",""
"","","","","","image-keyboard-response","145","1477442","0.0-3.0-3.0-0.2","5dccb82a76eab294aa4837ff","A3","batch1","pattern_practice","2068.60000000149","stim/prac_no_16_1.png","j","","j","true","","","","","","","","","","","","","","","","","","","","","","",""
"","","","","","html-keyboard-response","146","1478455","0.0-3.0-3.0-1.2","5dccb82a76eab294aa4837ff","A3","batch1","pattern_feedback","null","<p style=""font-size:30px;color:green;"">Correct!</p>","null","","","","","","","","","","","","","","","","","","","","","","","","","",""
"","","","","","image-keyboard-response","147","1479326","0.0-3.0-3.0-0.3","5dccb82a76eab294aa4837ff","A3","batch1","pattern_practice","868.1000000014901","stim/prac_yes_20_dia_b1.png","f","","f","true","","","","","","","","","","","","","","","","","","","","","","",""
"","","","","","html-keyboard-response","148","1480353","0.0-3.0-3.0-1.3","5dccb82a76eab294aa4837ff","A3","batch1","pattern_feedback","null","<p style=""font-size:30px;color:green;"">Correct!</p>","null","","","","","","","","","","","","","","","","","","","","","","","","","",""
"","","","","","image-keyboard-response","149","1481371","0.0-3.0-3.0-0.4","5dccb82a76eab294aa4837ff","A3","batch1","pattern_practice","1015.1999999955297","stim/prac_yes_18_hor_w1.png","f","","f","true","","","","","","","","","","","","","","","","","","","","","","",""
"","","","","","html-keyboard-response","150","1482402","0.0-3.0-3.0-1.4","5dccb82a76eab294aa4837ff","A3","batch1","pattern_feedback","null","<p style=""font-size:30px;color:green;"">Correct!</p>","null","","","","","","","","","","","","","","","","","","","","","","","","","",""
"","","","","","html-button-response","151","1488464","0.0-3.0-4.0","5dccb82a76eab294aa4837ff","A3","batch1","pattern_enter_official_trials","6059.70000000298","<p class=block-text> Good job! You are done with practice trials!<br>
        You responded correctly on 100% of the trials.<br>
        Press the button below to start official trials. Now you won't see any feedback about your response</p>","0","","","","","","","","","","","","","","","","","","","","","","","","","",""
"","","","","","html-keyboard-response","152","1489282","0.0-3.0-5.0-0.0","5dccb82a76eab294aa4837ff","A3","batch1","pattern_show_trial_num","null","<p class=block-text>Trial 1 out of 78</p>","null","","","","","","","","","","","","","","","","","","","","","","","","","",""
"","","","","","image-keyboard-response","153","1492518","0.0-3.0-5.0-1.0","5dccb82a76eab294aa4837ff","A3","batch1","pattern_response","3232.39999999851","stim/no_47_1_b.png","j","pattern_27","j","true","","","","3232.39999999851","true","1","","","","","","","","","","","","","","","","",""
"","","","","","html-keyboard-response","154","1493831","0.0-3.0-5.0-0.1","5dccb82a76eab294aa4837ff","A3","batch1","pattern_show_trial_num","null","<p class=block-text>Trial 2 out of 78</p>","null","","","","","","","","","","","","","","","","","","","","","","","","","",""
"","","","","","image-keyboard-response","155","1495046","0.0-3.0-5.0-1.1","5dccb82a76eab294aa4837ff","A3","batch1","pattern_response","1211.8999999985099","stim/yes_37_hor_w1_w.png","f","pattern_60","f","true","","","","1211.8999999985099","true","2","","","","","","","","","","","","","","","","",""
"","","","","","html-keyboard-response","156","1496364","0.0-3.0-5.0-0.2","5dccb82a76eab294aa4837ff","A3","batch1","pattern_show_trial_num","null","<p class=block-text>Trial 3 out of 78</p>","null","","","","","","","","","","","","","","","","","","","","","","","","","",""
"","","","","","image-keyboard-response","157","1497930","0.0-3.0-5.0-1.2","5dccb82a76eab294aa4837ff","A3","batch1","pattern_response","1562.7000000029802","stim/yes_33_dia_w1_w.png","f","pattern_56","f","true","","","","1562.7000000029802","true","3","","","","","","","","","","","","","","","","",""
"","","","","","html-keyboard-response","158","1499247","0.0-3.0-5.0-0.3","5dccb82a76eab294aa4837ff","A3","batch1","pattern_show_trial_num","null","<p class=block-text>Trial 4 out of 78</p>","null","","","","","","","","","","","","","","","","","","","","","","","","","",""
"","","","","","image-keyboard-response","159","1500986","0.0-3.0-5.0-1.3","5dccb82a76eab294aa4837ff","A3","batch1","pattern_response","1736.2999999970198","stim/yes_51_dia_b1.png","f","pattern_72","f","true","","","","1736.2999999970198","true","4","","","","","","","","","","","","","","","","",""
"","","","","","html-keyboard-response","160","1502313","0.0-3.0-5.0-0.4","5dccb82a76eab294aa4837ff","A3","batch1","pattern_show_trial_num","null","<p class=block-text>Trial 5 out of 78</p>","null","","","","","","","","","","","","","","","","","","","","","","","","","",""
"","","","","","image-keyboard-response","161","1504425","0.0-3.0-5.0-1.4","5dccb82a76eab294aa4837ff","A3","batch1","pattern_response","2108.1999999955297","stim/yes_63_dia_b1.png","f","pattern_78","f","true","","","","2108.1999999955297","true","5","","","","","","","","","","","","","","","","",""
"","","","","","html-keyboard-response","162","1505746","0.0-3.0-5.0-0.5","5dccb82a76eab294aa4837ff","A3","batch1","pattern_show_trial_num","null","<p class=block-text>Trial 6 out of 78</p>","null","","","","","","","","","","","","","","","","","","","","","","","","","",""
"","","","","","image-keyboard-response","163","1506623","0.0-3.0-5.0-1.5","5dccb82a76eab294aa4837ff","A3","batch1","pattern_response","873.6000000014901","stim/yes_46_ver_b1_b.png","f","pattern_68","f","true","","","","873.6000000014901","true","6","","","","","","","","","","","","","","","","",""
"","","","","","html-keyboard-response","164","1507946","0.0-3.0-5.0-0.6","5dccb82a76eab294aa4837ff","A3","batch1","pattern_show_trial_num","null","<p class=block-text>Trial 7 out of 78</p>","null","","","","","","","","","","","","","","","","","","","","","","","","","",""
"","","","","","image-keyboard-response","165","1509388","0.0-3.0-5.0-1.6","5dccb82a76eab294aa4837ff","A3","batch1","pattern_response","1439.7000000029802","stim/no_43_2_b.png","j","pattern_23","j","true","","","","1439.7000000029802","true","7","","","","","","","","","","","","","","","","",""
"","","","","","html-keyboard-response","166","1510709","0.0-3.0-5.0-0.7","5dccb82a76eab294aa4837ff","A3","batch1","pattern_show_trial_num","null","<p class=block-text>Trial 8 out of 78</p>","null","","","","","","","","","","","","","","","","","","","","","","","","","",""
"","","","","","image-keyboard-response","167","1512080","0.0-3.0-5.0-1.7","5dccb82a76eab294aa4837ff","A3","batch1","pattern_response","1367.7000000029802","stim/no_18_1_b.png","j","pattern_05","j","true","","","","1367.7000000029802","true","8","","","","","","","","","","","","","","","","",""
"","","","","","html-keyboard-response","168","1513395","0.0-3.0-5.0-0.8","5dccb82a76eab294aa4837ff","A3","batch1","pattern_show_trial_num","null","<p class=block-text>Trial 9 out of 78</p>","null","","","","","","","","","","","","","","","","","","","","","","","","","",""
"","","","","","image-keyboard-response","169","1517255","0.0-3.0-5.0-1.8","5dccb82a76eab294aa4837ff","A3","batch1","pattern_response","3857.2000000029802","stim/no_67_1.png","j","pattern_39","j","true","","","","3857.2000000029802","true","9","","","","","","","","","","","","","","","","",""
"","","","","","html-keyboard-response","170","1518578","0.0-3.0-5.0-0.9","5dccb82a76eab294aa4837ff","A3","batch1","pattern_show_trial_num","null","<p class=block-text>Trial 10 out of 78</p>","null","","","","","","","","","","","","","","","","","","","","","","","","","",""
"","","","","","image-keyboard-response","171","1521442","0.0-3.0-5.0-1.9","5dccb82a76eab294aa4837ff","A3","batch1","pattern_response","2861.4000000059605","stim/no_53_1_b.png","j","pattern_33","j","true","","","","2861.4000000059605","true","10","","","","","","","","","","","","","","","","",""
"","","","","","html-keyboard-response","172","1522760","0.0-3.0-5.0-0.10","5dccb82a76eab294aa4837ff","A3","batch1","pattern_show_trial_num","null","<p class=block-text>Trial 11 out of 78</p>","null","","","","","","","","","","","","","","","","","","","","","","","","","",""
"","","","","","image-keyboard-response","173","1525343","0.0-3.0-5.0-1.10","5dccb82a76eab294aa4837ff","A3","batch1","pattern_response","2579.3000000044703","stim/no_22_1_b.png","j","pattern_07","j","true","","","","2579.3000000044703","true","11","","","","","","","","","","","","","","","","",""
"","","","","","html-keyboard-response","174","1526659","0.0-3.0-5.0-0.11","5dccb82a76eab294aa4837ff","A3","batch1","pattern_show_trial_num","null","<p class=block-text>Trial 12 out of 78</p>","null","","","","","","","","","","","","","","","","","","","","","","","","","",""
"","","","","","image-keyboard-response","175","1528257","0.0-3.0-5.0-1.11","5dccb82a76eab294aa4837ff","A3","batch1","pattern_response","1595","stim/no_12_1.png","j","pattern_01","j","true","","","","1595","true","12","","","","","","","","","","","","","","","","",""
"","","","","","html-keyboard-response","176","1529576","0.0-3.0-5.0-0.12","5dccb82a76eab294aa4837ff","A3","batch1","pattern_show_trial_num","null","<p class=block-text>Trial 13 out of 78</p>","null","","","","","","","","","","","","","","","","","","","","","","","","","",""
"","","","","","image-keyboard-response","177","1532303","0.0-3.0-5.0-1.12","5dccb82a76eab294aa4837ff","A3","batch1","pattern_response","2724.2999999970198","stim/no_28_2.png","j","pattern_11","j","true","","","","2724.2999999970198","true","13","","","","","","","","","","","","","","","","",""
"","","","","","html-keyboard-response","178","1533625","0.0-3.0-5.0-0.13","5dccb82a76eab294aa4837ff","A3","batch1","pattern_show_trial_num","null","<p class=block-text>Trial 14 out of 78</p>","null","","","","","","","","","","","","","","","","","","","","","","","","","",""
"","","","","","image-keyboard-response","179","1534449","0.0-3.0-5.0-1.13","5dccb82a76eab294aa4837ff","A3","batch1","pattern_response","821","stim/yes_30_ver_b1_b.png","f","pattern_54","f","true","","","","821","true","14","","","","","","","","","","","","","","","","",""
"","","","","","html-keyboard-response","180","1535775","0.0-3.0-5.0-0.14","5dccb82a76eab294aa4837ff","A3","batch1","pattern_show_trial_num","null","<p class=block-text>Trial 15 out of 78</p>","null","","","","","","","","","","","","","","","","","","","","","","","","","",""
"","","","","","image-keyboard-response","181","1537148","0.0-3.0-5.0-1.14","5dccb82a76eab294aa4837ff","A3","batch1","pattern_response","1369.8999999985099","stim/no_15_1_w.png","j","pattern_03","j","true","","","","1369.8999999985099","true","15","","","","","","","","","","","","","","","","",""
"","","","","","html-keyboard-response","182","1538474","0.0-3.0-5.0-0.15","5dccb82a76eab294aa4837ff","A3","batch1","pattern_show_trial_num","null","<p class=block-text>Trial 16 out of 78</p>","null","","","","","","","","","","","","","","","","","","","","","","","","","",""
"","","","","","image-keyboard-response","183","1539232","0.0-3.0-5.0-1.15","5dccb82a76eab294aa4837ff","A3","batch1","pattern_response","755.3999999985099","stim/yes_17_ver_b1_b.png","f","pattern_46","f","true","","","","755.3999999985099","true","16","","","","","","","","","","","","","","","","",""
"","","","","","html-keyboard-response","184","1540546","0.0-3.0-5.0-0.16","5dccb82a76eab294aa4837ff","A3","batch1","pattern_show_trial_num","null","<p class=block-text>Trial 17 out of 78</p>","null","","","","","","","","","","","","","","","","","","","","","","","","","",""
"","","","","","image-keyboard-response","185","1541400","0.0-3.0-5.0-1.16","5dccb82a76eab294aa4837ff","A3","batch1","pattern_response","851","stim/yes_12_hor_w1_w.png","f","pattern_42","f","true","","","","851","true","17","","","","","","","","","","","","","","","","",""
"","","","","","html-keyboard-response","186","1542723","0.0-3.0-5.0-0.17","5dccb82a76eab294aa4837ff","A3","batch1","pattern_show_trial_num","null","<p class=block-text>Trial 18 out of 78</p>","null","","","","","","","","","","","","","","","","","","","","","","","","","",""
"","","","","","image-keyboard-response","187","1544414","0.0-3.0-5.0-1.17","5dccb82a76eab294aa4837ff","A3","batch1","pattern_response","1688.1000000014901","stim/yes_23_ver_b1.png","f","pattern_48","f","true","","","","1688.1000000014901","true","18","","","","","","","","","","","","","","","","",""
"","","","","","html-keyboard-response","188","1545740","0.0-3.0-5.0-0.18","5dccb82a76eab294aa4837ff","A3","batch1","pattern_show_trial_num","null","<p class=block-text>Trial 19 out of 78</p>","null","","","","","","","","","","","","","","","","","","","","","","","","","",""
"","","","","","image-keyboard-response","189","1548562","0.0-3.0-5.0-1.18","5dccb82a76eab294aa4837ff","A3","batch1","pattern_response","2819.7000000029802","stim/no_37_2_w.png","j","pattern_19","j","true","","","","2819.7000000029802","true","19","","","","","","","","","","","","","","","","",""
"","","","","","html-keyboard-response","190","1549890","0.0-3.0-5.0-0.19","5dccb82a76eab294aa4837ff","A3","batch1","pattern_show_trial_num","null","<p class=block-text>Trial 20 out of 78</p>","null","","","","","","","","","","","","","","","","","","","","","","","","","",""
"","","","","","image-keyboard-response","191","1552810","0.0-3.0-5.0-1.19","5dccb82a76eab294aa4837ff","A3","batch1","pattern_response","2916.89999999851","stim/yes_53_ver_b1_b.png","j","pattern_74","f","false","","","","2916.89999999851","false","19","","","","","","","","","","","","","","","","",""
"","","","","","html-keyboard-response","192","1554122","0.0-3.0-5.0-0.20","5dccb82a76eab294aa4837ff","A3","batch1","pattern_show_trial_num","null","<p class=block-text>Trial 21 out of 78</p>","null","","","","","","","","","","","","","","","","","","","","","","","","","",""
"","","","","","image-keyboard-response","193","1555326","0.0-3.0-5.0-1.20","5dccb82a76eab294aa4837ff","A3","batch1","pattern_response","1200.5","stim/yes_36_ver_w1_w.png","f","pattern_58","f","true","","","","1200.5","true","20","","","","","","","","","","","","","","","","",""
"","","","","","html-keyboard-response","194","1556655","0.0-3.0-5.0-0.21","5dccb82a76eab294aa4837ff","A3","batch1","pattern_show_trial_num","null","<p class=block-text>Trial 22 out of 78</p>","null","","","","","","","","","","","","","","","","","","","","","","","","","",""
"","","","","","image-keyboard-response","195","1558971","0.0-3.0-5.0-1.21","5dccb82a76eab294aa4837ff","A3","batch1","pattern_response","2313.2999999970198","stim/no_36_1_b.png","j","pattern_17","j","true","","","","2313.2999999970198","true","21","","","","","","","","","","","","","","","","",""
"","","","","","html-keyboard-response","196","1560288","0.0-3.0-5.0-0.22","5dccb82a76eab294aa4837ff","A3","batch1","pattern_show_trial_num","null","<p class=block-text>Trial 23 out of 78</p>","null","","","","","","","","","","","","","","","","","","","","","","","","","",""
"","","","","","image-keyboard-response","197","1564318","0.0-3.0-5.0-1.22","5dccb82a76eab294aa4837ff","A3","batch1","pattern_response","4027.10000000149","stim/no_49_2_b.png","j","pattern_29","j","true","","","","4027.10000000149","true","22","","","","","","","","","","","","","","","","",""
"","","","","","html-keyboard-response","198","1565638","0.0-3.0-5.0-0.23","5dccb82a76eab294aa4837ff","A3","batch1","pattern_show_trial_num","null","<p class=block-text>Trial 24 out of 78</p>","null","","","","","","","","","","","","","","","","","","","","","","","","","",""
"","","","","","image-keyboard-response","199","1568779","0.0-3.0-5.0-1.23","5dccb82a76eab294aa4837ff","A3","batch1","pattern_response","3137.5","stim/yes_44_ver_w1_w.png","j","pattern_66","f","false","","","","3137.5","false","22","","","","","","","","","","","","","","","","",""
"","","","","","html-keyboard-response","200","1570103","0.0-3.0-5.0-0.24","5dccb82a76eab294aa4837ff","A3","batch1","pattern_show_trial_num","null","<p class=block-text>Trial 25 out of 78</p>","null","","","","","","","","","","","","","","","","","","","","","","","","","",""
"","","","","","image-keyboard-response","201","1574293","0.0-3.0-5.0-1.24","5dccb82a76eab294aa4837ff","A3","batch1","pattern_response","4186.20000000298","stim/no_45_1_w.png","j","pattern_25","j","true","","","","4186.20000000298","true","23","","","","","","","","","","","","","","","","",""
"","","","","","html-keyboard-response","202","1575620","0.0-3.0-5.0-0.25","5dccb82a76eab294aa4837ff","A3","batch1","pattern_show_trial_num","null","<p class=block-text>Trial 26 out of 78</p>","null","","","","","","","","","","","","","","","","","","","","","","","","","",""
"","","","","","image-keyboard-response","203","1579006","0.0-3.0-5.0-1.25","5dccb82a76eab294aa4837ff","A3","batch1","pattern_response","3383.1999999955297","stim/yes_58_dia_w1_w.png","j","pattern_76","f","false","","","","3383.1999999955297","false","23","","","","","","","","","","","","","","","","",""
"","","","","","html-keyboard-response","204","1580319","0.0-3.0-5.0-0.26","5dccb82a76eab294aa4837ff","A3","batch1","pattern_show_trial_num","null","<p class=block-text>Trial 27 out of 78</p>","null","","","","","","","","","","","","","","","","","","","","","","","","","",""
"","","","","","image-keyboard-response","205","1581543","0.0-3.0-5.0-1.26","5dccb82a76eab294aa4837ff","A3","batch1","pattern_response","1219.8000000044703","stim/yes_70_ver_b1.png","f","pattern_80","f","true","","","","1219.8000000044703","true","24","","","","","","","","","","","","","","","","",""
"","","","","","html-keyboard-response","206","1582871","0.0-3.0-5.0-0.27","5dccb82a76eab294aa4837ff","A3","batch1","pattern_show_trial_num","null","<p class=block-text>Trial 28 out of 78</p>","null","","","","","","","","","","","","","","","","","","","","","","","","","",""
"","","","","","image-keyboard-response","207","1586370","0.0-3.0-5.0-1.27","5dccb82a76eab294aa4837ff","A3","batch1","pattern_response","3496.89999999851","stim/yes_42_dia_w1_w.png","j","pattern_64","f","false","","","","3496.89999999851","false","24","","","","","","","","","","","","","","","","",""
"","","","","","html-keyboard-response","208","1587685","0.0-3.0-5.0-0.28","5dccb82a76eab294aa4837ff","A3","batch1","pattern_show_trial_num","null","<p class=block-text>Trial 29 out of 78</p>","null","","","","","","","","","","","","","","","","","","","","","","","","","",""
"","","","","","image-keyboard-response","209","1591275","0.0-3.0-5.0-1.28","5dccb82a76eab294aa4837ff","A3","batch1","pattern_response","3586.2999999970198","stim/no_51_1.png","j","pattern_31","j","true","","","","3586.2999999970198","true","25","","","","","","","","","","","","","","","","",""
"","","","","","html-keyboard-response","210","1592601","0.0-3.0-5.0-0.29","5dccb82a76eab294aa4837ff","A3","batch1","pattern_show_trial_num","null","<p class=block-text>Trial 30 out of 78</p>","null","","","","","","","","","","","","","","","","","","","","","","","","","",""
"","","","","","image-keyboard-response","211","1594741","0.0-3.0-5.0-1.29","5dccb82a76eab294aa4837ff","A3","batch1","pattern_response","2136.5999999940395","stim/no_25_1_b.png","j","pattern_09","j","true","","","","2136.5999999940395","true","26","","","","","","","","","","","","","","","","",""
"","","","","","html-keyboard-response","212","1596069","0.0-3.0-5.0-0.30","5dccb82a76eab294aa4837ff","A3","batch1","pattern_show_trial_num","null","<p class=block-text>Trial 31 out of 78</p>","null","","","","","","","","","","","","","","","","","","","","","","","","","",""
"","","","","","image-keyboard-response","213","1596888","0.0-3.0-5.0-1.30","5dccb82a76eab294aa4837ff","A3","batch1","pattern_response","816.6000000014901","stim/yes_29_hor_b1_b.png","f","pattern_52","f","true","","","","816.6000000014901","true","27","","","","","","","","","","","","","","","","",""
"","","","","","html-keyboard-response","214","1598218","0.0-3.0-5.0-0.31","5dccb82a76eab294aa4837ff","A3","batch1","pattern_show_trial_num","null","<p class=block-text>Trial 32 out of 78</p>","null","","","","","","","","","","","","","","","","","","","","","","","","","",""
"","","","","","image-keyboard-response","215","1599006","0.0-3.0-5.0-1.31","5dccb82a76eab294aa4837ff","A3","batch1","pattern_response","784.9000000059605","stim/yes_15_dia_b1u_b.png","f","pattern_44","f","true","","","","784.9000000059605","true","28","","","","","","","","","","","","","","","","",""
"","","","","","html-keyboard-response","216","1600331","0.0-3.0-5.0-0.32","5dccb82a76eab294aa4837ff","A3","batch1","pattern_show_trial_num","null","<p class=block-text>Trial 33 out of 78</p>","null","","","","","","","","","","","","","","","","","","","","","","","","","",""
"","","","","","image-keyboard-response","217","1601714","0.0-3.0-5.0-1.32","5dccb82a76eab294aa4837ff","A3","batch1","pattern_response","1379.5","stim/yes_39_hor_w1_w.png","j","pattern_62","f","false","","","","1379.5","false","28","","","","","","","","","","","","","","","","",""
"","","","","","html-keyboard-response","218","1603034","0.0-3.0-5.0-0.33","5dccb82a76eab294aa4837ff","A3","batch1","pattern_show_trial_num","null","<p class=block-text>Trial 34 out of 78</p>","null","","","","","","","","","","","","","","","","","","","","","","","","","",""
"","","","","","image-keyboard-response","219","1604535","0.0-3.0-5.0-1.33","5dccb82a76eab294aa4837ff","A3","batch1","pattern_response","1497.6999999955297","stim/yes_49_hor_w1_b.png","f","pattern_70","f","true","","","","1497.6999999955297","true","29","","","","","","","","","","","","","","","","",""
"","","","","","html-keyboard-response","220","1605849","0.0-3.0-5.0-0.34","5dccb82a76eab294aa4837ff","A3","batch1","pattern_show_trial_num","null","<p class=block-text>Trial 35 out of 78</p>","null","","","","","","","","","","","","","","","","","","","","","","","","","",""
"","","","","","image-keyboard-response","221","1608028","0.0-3.0-5.0-1.34","5dccb82a76eab294aa4837ff","A3","batch1","pattern_response","2176.2999999970198","stim/no_30_1_b.png","j","pattern_13","j","true","","","","2176.2999999970198","true","30","","","","","","","","","","","","","","","","",""
"","","","","","html-keyboard-response","222","1609349","0.0-3.0-5.0-0.35","5dccb82a76eab294aa4837ff","A3","batch1","pattern_show_trial_num","null","<p class=block-text>Trial 36 out of 78</p>","null","","","","","","","","","","","","","","","","","","","","","","","","","",""
"","","","","","image-keyboard-response","223","1613054","0.0-3.0-5.0-1.35","5dccb82a76eab294aa4837ff","A3","batch1","pattern_response","3701.8000000044703","stim/no_58_1_w.png","j","pattern_35","j","true","","","","3701.8000000044703","true","31","","","","","","","","","","","","","","","","",""
"","","","","","html-keyboard-response","224","1614382","0.0-3.0-5.0-0.36","5dccb82a76eab294aa4837ff","A3","batch1","pattern_show_trial_num","null","<p class=block-text>Trial 37 out of 78</p>","null","","","","","","","","","","","","","","","","","","","","","","","","","",""
"","","","","","image-keyboard-response","225","1617125","0.0-3.0-5.0-1.36","5dccb82a76eab294aa4837ff","A3","batch1","pattern_response","2740.3000000044703","stim/no_39_1_w.png","j","pattern_21","j","true","","","","2740.3000000044703","true","32","","","","","","","","","","","","","","","","",""
"","","","","","html-keyboard-response","226","1618449","0.0-3.0-5.0-0.37","5dccb82a76eab294aa4837ff","A3","batch1","pattern_show_trial_num","null","<p class=block-text>Trial 38 out of 78</p>","null","","","","","","","","","","","","","","","","","","","","","","","","","",""
"","","","","","image-keyboard-response","227","1620980","0.0-3.0-5.0-1.37","5dccb82a76eab294aa4837ff","A3","batch1","pattern_response","2528.5","stim/no_33_1_b.png","j","pattern_15","j","true","","","","2528.5","true","33","","","","","","","","","","","","","","","","",""
"","","","","","html-keyboard-response","228","1622297","0.0-3.0-5.0-0.38","5dccb82a76eab294aa4837ff","A3","batch1","pattern_show_trial_num","null","<p class=block-text>Trial 39 out of 78</p>","null","","","","","","","","","","","","","","","","","","","","","","","","","",""
"","","","","","image-keyboard-response","229","1623551","0.0-3.0-5.0-1.38","5dccb82a76eab294aa4837ff","A3","batch1","pattern_response","1250.7000000029802","stim/yes_26_dia_w2_w.png","f","pattern_50","f","true","","","","1250.7000000029802","true","34","","","","","","","","","","","","","","","","",""
"","","","","","image-keyboard-response","230","1626647","0.0-3.0-6.0","5dccb82a76eab294aa4837ff","A3","batch1","attention_check","2578.10000000149","stim/empty_board.png","j","","j","true","","","","","","","500","[""f"",""j""]","","","","","","","","","","","","","","",""
"","","","","","html-keyboard-response","231","1627464","0.0-3.0-7.0-0.0","5dccb82a76eab294aa4837ff","A3","batch1","pattern_show_trial_num","null","<p class=block-text>Trial 40 out of 78</p>","null","","","","","","","","","","","","","","","","","","","","","","","","","",""
"","","","","","image-keyboard-response","232","1629578","0.0-3.0-7.0-1.0","5dccb82a76eab294aa4837ff","A3","batch1","pattern_response","2111.2000000029802","stim/yes_43_ver_w1_w.png","f","pattern_65","f","true","","","","2111.2000000029802","true","35","","","","","","","","","","","","","","","","",""
"","","","","","html-keyboard-response","233","1630889","0.0-3.0-7.0-0.1","5dccb82a76eab294aa4837ff","A3","batch1","pattern_show_trial_num","null","<p class=block-text>Trial 41 out of 78</p>","null","","","","","","","","","","","","","","","","","","","","","","","","","",""
"","","","","","image-keyboard-response","234","1633181","0.0-3.0-7.0-1.1","5dccb82a76eab294aa4837ff","A3","batch1","pattern_response","2289.2000000029802","stim/yes_31_hor_b1.png","f","pattern_55","f","true","","","","2289.2000000029802","true","36","","","","","","","","","","","","","","","","",""
"","","","","","html-keyboard-response","235","1634496","0.0-3.0-7.0-0.2","5dccb82a76eab294aa4837ff","A3","batch1","pattern_show_trial_num","null","<p class=block-text>Trial 42 out of 78</p>","null","","","","","","","","","","","","","","","","","","","","","","","","","",""
"","","","","","image-keyboard-response","236","1636922","0.0-3.0-7.0-1.2","5dccb82a76eab294aa4837ff","A3","batch1","pattern_response","2423.3000000044703","stim/no_48_1_w.png","j","pattern_28","j","true","","","","2423.3000000044703","true","37","","","","","","","","","","","","","","","","",""
"","","","","","html-keyboard-response","237","1638246","0.0-3.0-7.0-0.3","5dccb82a76eab294aa4837ff","A3","batch1","pattern_show_trial_num","null","<p class=block-text>Trial 43 out of 78</p>","null","","","","","","","","","","","","","","","","","","","","","","","","","",""
"","","","","","image-keyboard-response","238","1639086","0.0-3.0-7.0-1.3","5dccb82a76eab294aa4837ff","A3","batch1","pattern_response","837.7000000029802","stim/yes_29_ver_w1.png","f","pattern_53","f","true","","","","837.7000000029802","true","38","","","","","","","","","","","","","","","","",""
"","","","","","html-keyboard-response","239","1640412","0.0-3.0-7.0-0.4","5dccb82a76eab294aa4837ff","A3","batch1","pattern_show_trial_num","null","<p class=block-text>Trial 44 out of 78</p>","null","","","","","","","","","","","","","","","","","","","","","","","","","",""
"","","","","","image-keyboard-response","240","1643171","0.0-3.0-7.0-1.4","5dccb82a76eab294aa4837ff","A3","batch1","pattern_response","2759.39999999851","stim/no_62_1_w.png","j","pattern_36","j","true","","","","2759.39999999851","true","39","","","","","","","","","","","","","","","","",""
"","","","","","html-keyboard-response","241","1644494","0.0-3.0-7.0-0.5","5dccb82a76eab294aa4837ff","A3","batch1","pattern_show_trial_num","null","<p class=block-text>Trial 45 out of 78</p>","null","","","","","","","","","","","","","","","","","","","","","","","","","",""
"","","","","","image-keyboard-response","242","1649006","0.0-3.0-7.0-1.5","5dccb82a76eab294aa4837ff","A3","batch1","pattern_response","4509.19999999553","stim/no_65_1_b.png","j","pattern_38","j","true","","","","4509.19999999553","true","40","","","","","","","","","","","","","","","","",""
"","","","","","html-keyboard-response","243","1650324","0.0-3.0-7.0-0.6","5dccb82a76eab294aa4837ff","A3","batch1","pattern_show_trial_num","null","<p class=block-text>Trial 46 out of 78</p>","null","","","","","","","","","","","","","","","","","","","","","","","","","",""
"","","","","","image-keyboard-response","244","1653161","0.0-3.0-7.0-1.6","5dccb82a76eab294aa4837ff","A3","batch1","pattern_response","2833.2999999970198","stim/no_44_1.png","j","pattern_24","j","true","","","","2833.2999999970198","true","41","","","","","","","","","","","","","","","","",""
"","","","","","html-keyboard-response","245","1654490","0.0-3.0-7.0-0.7","5dccb82a76eab294aa4837ff","A3","batch1","pattern_show_trial_num","null","<p class=block-text>Trial 47 out of 78</p>","null","","","","","","","","","","","","","","","","","","","","","","","","","",""
"","","","","","image-keyboard-response","246","1655804","0.0-3.0-7.0-1.7","5dccb82a76eab294aa4837ff","A3","batch1","pattern_response","1309.9000000059605","stim/no_13_2_b.png","j","pattern_02","j","true","","","","1309.9000000059605","true","42","","","","","","","","","","","","","","","","",""
"","","","","","html-keyboard-response","247","1657123","0.0-3.0-7.0-0.8","5dccb82a76eab294aa4837ff","A3","batch1","pattern_show_trial_num","null","<p class=block-text>Trial 48 out of 78</p>","null","","","","","","","","","","","","","","","","","","","","","","","","","",""
"","","","","","image-keyboard-response","248","1661079","0.0-3.0-7.0-1.8","5dccb82a76eab294aa4837ff","A3","batch1","pattern_response","3952.89999999851","stim/no_52_1.png","j","pattern_32","j","true","","","","3952.89999999851","true","43","","","","","","","","","","","","","","","","",""
"","","","","","html-keyboard-response","249","1662405","0.0-3.0-7.0-0.9","5dccb82a76eab294aa4837ff","A3","batch1","pattern_show_trial_num","null","<p class=block-text>Trial 49 out of 78</p>","null","","","","","","","","","","","","","","","","","","","","","","","","","",""
"","","","","","image-keyboard-response","250","1663953","0.0-3.0-7.0-1.9","5dccb82a76eab294aa4837ff","A3","batch1","pattern_response","1544.6000000014901","stim/yes_35_dia_b1.png","f","pattern_57","f","true","","","","1544.6000000014901","true","44","","","","","","","","","","","","","","","","",""
"","","","","","html-keyboard-response","251","1665272","0.0-3.0-7.0-0.10","5dccb82a76eab294aa4837ff","A3","batch1","pattern_show_trial_num","null","<p class=block-text>Trial 50 out of 78</p>","null","","","","","","","","","","","","","","","","","","","","","","","","","",""
"","","","","","image-keyboard-response","252","1667745","0.0-3.0-7.0-1.10","5dccb82a76eab294aa4837ff","A3","batch1","pattern_response","2469.1999999955297","stim/no_50_1.png","j","pattern_30","j","true","","","","2469.1999999955297","true","45","","","","","","","","","","","","","","","","",""
"","","","","","html-keyboard-response","253","1669072","0.0-3.0-7.0-0.11","5dccb82a76eab294aa4837ff","A3","batch1","pattern_show_trial_num","null","<p class=block-text>Trial 51 out of 78</p>","null","","","","","","","","","","","","","","","","","","","","","","","","","",""
"","","","","","image-keyboard-response","254","1671692","0.0-3.0-7.0-1.11","5dccb82a76eab294aa4837ff","A3","batch1","pattern_response","2616.7999999970198","stim/yes_40_dia_b1_b.png","f","pattern_63","f","true","","","","2616.7999999970198","true","46","","","","","","","","","","","","","","","","",""
"","","","","","html-keyboard-response","255","1673021","0.0-3.0-7.0-0.12","5dccb82a76eab294aa4837ff","A3","batch1","pattern_show_trial_num","null","<p class=block-text>Trial 52 out of 78</p>","null","","","","","","","","","","","","","","","","","","","","","","","","","",""
"","","","","","image-keyboard-response","256","1674476","0.0-3.0-7.0-1.12","5dccb82a76eab294aa4837ff","A3","batch1","pattern_response","1452","stim/no_26_1_w.png","j","pattern_10","j","true","","","","1452","true","47","","","","","","","","","","","","","","","","",""
"","","","","","html-keyboard-response","257","1675802","0.0-3.0-7.0-0.13","5dccb82a76eab294aa4837ff","A3","batch1","pattern_show_trial_num","null","<p class=block-text>Trial 53 out of 78</p>","null","","","","","","","","","","","","","","","","","","","","","","","","","",""
"","","","","","image-keyboard-response","258","1678648","0.0-3.0-7.0-1.13","5dccb82a76eab294aa4837ff","A3","batch1","pattern_response","2843.89999999851","stim/no_70_2.png","j","pattern_40","j","true","","","","2843.89999999851","true","48","","","","","","","","","","","","","","","","",""
"","","","","","html-keyboard-response","259","1679971","0.0-3.0-7.0-0.14","5dccb82a76eab294aa4837ff","A3","batch1","pattern_show_trial_num","null","<p class=block-text>Trial 54 out of 78</p>","null","","","","","","","","","","","","","","","","","","","","","","","","","",""
"","","","","","image-keyboard-response","260","1682612","0.0-3.0-7.0-1.14","5dccb82a76eab294aa4837ff","A3","batch1","pattern_response","2638.4000000059605","stim/yes_37_dia_w1.png","j","pattern_59","f","false","","","","2638.4000000059605","false","48","","","","","","","","","","","","","","","","",""
"","","","","","html-keyboard-response","261","1683936","0.0-3.0-7.0-0.15","5dccb82a76eab294aa4837ff","A3","batch1","pattern_show_trial_num","null","<p class=block-text>Trial 55 out of 78</p>","null","","","","","","","","","","","","","","","","","","","","","","","","","",""
"","","","","","image-keyboard-response","262","1686194","0.0-3.0-7.0-1.15","5dccb82a76eab294aa4837ff","A3","batch1","pattern_response","2254.39999999851","stim/no_38_1_b.png","j","pattern_20","j","true","","","","2254.39999999851","true","49","","","","","","","","","","","","","","","","",""
"","","","","","html-keyboard-response","263","1687519","0.0-3.0-7.0-0.16","5dccb82a76eab294aa4837ff","A3","batch1","pattern_show_trial_num","null","<p class=block-text>Trial 56 out of 78</p>","null","","","","","","","","","","","","","","","","","","","","","","","","","",""
"","","","","","image-keyboard-response","264","1689988","0.0-3.0-7.0-1.16","5dccb82a76eab294aa4837ff","A3","batch1","pattern_response","2465.39999999851","stim/no_55_1_w.png","j","pattern_34","j","true","","","","2465.39999999851","true","50","","","","","","","","","","","","","","","","",""
"","","","","","html-keyboard-response","265","1691302","0.0-3.0-7.0-0.17","5dccb82a76eab294aa4837ff","A3","batch1","pattern_show_trial_num","null","<p class=block-text>Trial 57 out of 78</p>","null","","","","","","","","","","","","","","","","","","","","","","","","","",""
"","","","","","image-keyboard-response","266","1693619","0.0-3.0-7.0-1.17","5dccb82a76eab294aa4837ff","A3","batch1","pattern_response","2314.1999999955297","stim/yes_50_dia_w1.png","j","pattern_71","f","false","","","","2314.1999999955297","false","50","","","","","","","","","","","","","","","","",""
"","","","","","html-keyboard-response","267","1694935","0.0-3.0-7.0-0.18","5dccb82a76eab294aa4837ff","A3","batch1","pattern_show_trial_num","null","<p class=block-text>Trial 58 out of 78</p>","null","","","","","","","","","","","","","","","","","","","","","","","","","",""
"","","","","","image-keyboard-response","268","1696042","0.0-3.0-7.0-1.18","5dccb82a76eab294aa4837ff","A3","batch1","pattern_response","1103.7999999970198","stim/no_20_1_w.png","j","pattern_06","j","true","","","","1103.7999999970198","true","51","","","","","","","","","","","","","","","","",""
"","","","","","html-keyboard-response","269","1697367","0.0-3.0-7.0-0.19","5dccb82a76eab294aa4837ff","A3","batch1","pattern_show_trial_num","null","<p class=block-text>Trial 59 out of 78</p>","null","","","","","","","","","","","","","","","","","","","","","","","","","",""
"","","","","","image-keyboard-response","270","1698264","0.0-3.0-7.0-1.19","5dccb82a76eab294aa4837ff","A3","batch1","pattern_response","894.0999999940395","stim/yes_45_hor_b2_b.png","f","pattern_67","f","true","","","","894.0999999940395","true","52","","","","","","","","","","","","","","","","",""
"","","","","","html-keyboard-response","271","1699584","0.0-3.0-7.0-0.20","5dccb82a76eab294aa4837ff","A3","batch1","pattern_show_trial_num","null","<p class=block-text>Trial 60 out of 78</p>","null","","","","","","","","","","","","","","","","","","","","","","","","","",""
"","","","","","image-keyboard-response","272","1700254","0.0-3.0-7.0-1.20","5dccb82a76eab294aa4837ff","A3","batch1","pattern_response","667.5999999940395","stim/yes_14_hor_b1_w.png","f","pattern_43","f","true","","","","667.5999999940395","true","53","","","","","","","","","","","","","","","","",""
"","","","","","html-keyboard-response","273","1701583","0.0-3.0-7.0-0.21","5dccb82a76eab294aa4837ff","A3","batch1","pattern_show_trial_num","null","<p class=block-text>Trial 61 out of 78</p>","null","","","","","","","","","","","","","","","","","","","","","","","","","",""
"","","","","","image-keyboard-response","274","1702697","0.0-3.0-7.0-1.21","5dccb82a76eab294aa4837ff","A3","batch1","pattern_response","1110.6000000014901","stim/no_29_1_b.png","j","pattern_12","j","true","","","","1110.6000000014901","true","54","","","","","","","","","","","","","","","","",""
"","","","","","html-keyboard-response","275","1704020","0.0-3.0-7.0-0.22","5dccb82a76eab294aa4837ff","A3","batch1","pattern_show_trial_num","null","<p class=block-text>Trial 62 out of 78</p>","null","","","","","","","","","","","","","","","","","","","","","","","","","",""
"","","","","","image-keyboard-response","276","1705139","0.0-3.0-7.0-1.22","5dccb82a76eab294aa4837ff","A3","batch1","pattern_response","1116.5","stim/yes_25_hor_b1_b.png","f","pattern_49","f","true","","","","1116.5","true","55","","","","","","","","","","","","","","","","",""
"","","","","","html-keyboard-response","277","1706453","0.0-3.0-7.0-0.23","5dccb82a76eab294aa4837ff","A3","batch1","pattern_show_trial_num","null","<p class=block-text>Trial 63 out of 78</p>","null","","","","","","","","","","","","","","","","","","","","","","","","","",""
"","","","","","image-keyboard-response","278","1708875","0.0-3.0-7.0-1.23","5dccb82a76eab294aa4837ff","A3","batch1","pattern_response","2419.39999999851","stim/no_46_1_b.png","j","pattern_26","j","true","","","","2419.39999999851","true","56","","","","","","","","","","","","","","","","",""
"","","","","","html-keyboard-response","279","1710202","0.0-3.0-7.0-0.24","5dccb82a76eab294aa4837ff","A3","batch1","pattern_show_trial_num","null","<p class=block-text>Trial 64 out of 78</p>","null","","","","","","","","","","","","","","","","","","","","","","","","","",""
"","","","","","image-keyboard-response","280","1711823","0.0-3.0-7.0-1.24","5dccb82a76eab294aa4837ff","A3","batch1","pattern_response","1618","stim/no_32_1_w.png","j","pattern_14","j","true","","","","1618","true","57","","","","","","","","","","","","","","","","",""
"","","","","","html-keyboard-response","281","1713152","0.0-3.0-7.0-0.25","5dccb82a76eab294aa4837ff","A3","batch1","pattern_show_trial_num","null","<p class=block-text>Trial 65 out of 78</p>","null","","","","","","","","","","","","","","","","","","","","","","","","","",""
"","","","","","image-keyboard-response","282","1714282","0.0-3.0-7.0-1.25","5dccb82a76eab294aa4837ff","A3","batch1","pattern_response","1126.6000000014901","stim/yes_28_ver_b1.png","f","pattern_51","f","true","","","","1126.6000000014901","true","58","","","","","","","","","","","","","","","","",""
"","","","","","html-keyboard-response","283","1715602","0.0-3.0-7.0-0.26","5dccb82a76eab294aa4837ff","A3","batch1","pattern_show_trial_num","null","<p class=block-text>Trial 66 out of 78</p>","null","","","","","","","","","","","","","","","","","","","","","","","","","",""
"","","","","","image-keyboard-response","284","1716989","0.0-3.0-7.0-1.26","5dccb82a76eab294aa4837ff","A3","batch1","pattern_response","1384.5","stim/yes_17_dia_w1.png","f","pattern_45","f","true","","","","1384.5","true","59","","","","","","","","","","","","","","","","",""
"","","","","","html-keyboard-response","285","1718318","0.0-3.0-7.0-0.27","5dccb82a76eab294aa4837ff","A3","batch1","pattern_show_trial_num","null","<p class=block-text>Trial 67 out of 78</p>","null","","","","","","","","","","","","","","","","","","","","","","","","","",""
"","","","","","image-keyboard-response","286","1720047","0.0-3.0-7.0-1.27","5dccb82a76eab294aa4837ff","A3","batch1","pattern_response","1726.1000000014901","stim/no_23_1.png","j","pattern_08","j","true","","","","1726.1000000014901","true","60","","","","","","","","","","","","","","","","",""
"","","","","","html-keyboard-response","287","1721351","0.0-3.0-7.0-0.28","5dccb82a76eab294aa4837ff","A3","batch1","pattern_show_trial_num","null","<p class=block-text>Trial 68 out of 78</p>","null","","","","","","","","","","","","","","","","","","","","","","","","","",""
"","","","","","image-keyboard-response","288","1724229","0.0-3.0-7.0-1.28","5dccb82a76eab294aa4837ff","A3","batch1","pattern_response","2874.89999999851","stim/yes_48_dia_w1_w.png","j","pattern_69","f","false","","","","2874.89999999851","false","60","","","","","","","","","","","","","","","","",""
"","","","","","html-keyboard-response","289","1725551","0.0-3.0-7.0-0.29","5dccb82a76eab294aa4837ff","A3","batch1","pattern_show_trial_num","null","<p class=block-text>Trial 69 out of 78</p>","null","","","","","","","","","","","","","","","","","","","","","","","","","",""
"","","","","","image-keyboard-response","290","1727391","0.0-3.0-7.0-1.29","5dccb82a76eab294aa4837ff","A3","batch1","pattern_response","1836.4000000059605","stim/no_34_1_b.png","j","pattern_16","j","true","","","","1836.4000000059605","true","61","","","","","","","","","","","","","","","","",""
"","","","","","html-keyboard-response","291","1728716","0.0-3.0-7.0-0.30","5dccb82a76eab294aa4837ff","A3","batch1","pattern_show_trial_num","null","<p class=block-text>Trial 70 out of 78</p>","null","","","","","","","","","","","","","","","","","","","","","","","","","",""
"","","","","","image-keyboard-response","292","1730008","0.0-3.0-7.0-1.30","5dccb82a76eab294aa4837ff","A3","batch1","pattern_response","1289.1000000014901","stim/yes_60_ver_b1_b.png","f","pattern_77","f","true","","","","1289.1000000014901","true","62","","","","","","","","","","","","","","","","",""
"","","","","","html-keyboard-response","293","1731332","0.0-3.0-7.0-0.31","5dccb82a76eab294aa4837ff","A3","batch1","pattern_show_trial_num","null","<p class=block-text>Trial 71 out of 78</p>","null","","","","","","","","","","","","","","","","","","","","","","","","","",""
"","","","","","image-keyboard-response","294","1733249","0.0-3.0-7.0-1.31","5dccb82a76eab294aa4837ff","A3","batch1","pattern_response","1913.7999999970198","stim/yes_38_hor_b1_b.png","f","pattern_61","f","true","","","","1913.7999999970198","true","63","","","","","","","","","","","","","","","","",""
"","","","","","html-keyboard-response","295","1734565","0.0-3.0-7.0-0.32","5dccb82a76eab294aa4837ff","A3","batch1","pattern_show_trial_num","null","<p class=block-text>Trial 72 out of 78</p>","null","","","","","","","","","","","","","","","","","","","","","","","","","",""
"","","","","","image-keyboard-response","296","1735998","0.0-3.0-7.0-1.32","5dccb82a76eab294aa4837ff","A3","batch1","pattern_response","1430.2999999970198","stim/no_17_1_w.png","j","pattern_04","j","true","","","","1430.2999999970198","true","64","","","","","","","","","","","","","","","","",""
"","","","","","html-keyboard-response","297","1737317","0.0-3.0-7.0-0.33","5dccb82a76eab294aa4837ff","A3","batch1","pattern_show_trial_num","null","<p class=block-text>Trial 73 out of 78</p>","null","","","","","","","","","","","","","","","","","","","","","","","","","",""
"","","","","","image-keyboard-response","298","1739996","0.0-3.0-7.0-1.33","5dccb82a76eab294aa4837ff","A3","batch1","pattern_response","2676.60000000149","stim/yes_55_hor_w1_w.png","f","pattern_75","f","true","","","","2676.60000000149","true","65","","","","","","","","","","","","","","","","",""
"","","","","","html-keyboard-response","299","1741314","0.0-3.0-7.0-0.34","5dccb82a76eab294aa4837ff","A3","batch1","pattern_show_trial_num","null","<p class=block-text>Trial 74 out of 78</p>","null","","","","","","","","","","","","","","","","","","","","","","","","","",""
"","","","","","image-keyboard-response","300","1742200","0.0-3.0-7.0-1.34","5dccb82a76eab294aa4837ff","A3","batch1","pattern_response","882.6999999955297","stim/yes_22_ver_w1.png","f","pattern_47","f","true","","","","882.6999999955297","true","66","","","","","","","","","","","","","","","","",""
"","","","","","html-keyboard-response","301","1743513","0.0-3.0-7.0-0.35","5dccb82a76eab294aa4837ff","A3","batch1","pattern_show_trial_num","null","<p class=block-text>Trial 75 out of 78</p>","null","","","","","","","","","","","","","","","","","","","","","","","","","",""
"","","","","","image-keyboard-response","302","1744429","0.0-3.0-7.0-1.35","5dccb82a76eab294aa4837ff","A3","batch1","pattern_response","913.3000000044703","stim/yes_52_ver_w1.png","f","pattern_73","f","true","","","","913.3000000044703","true","67","","","","","","","","","","","","","","","","",""
"","","","","","html-keyboard-response","303","1745747","0.0-3.0-7.0-0.36","5dccb82a76eab294aa4837ff","A3","batch1","pattern_show_trial_num","null","<p class=block-text>Trial 76 out of 78</p>","null","","","","","","","","","","","","","","","","","","","","","","","","","",""
"","","","","","image-keyboard-response","304","1747823","0.0-3.0-7.0-1.36","5dccb82a76eab294aa4837ff","A3","batch1","pattern_response","2073.89999999851","stim/no_42_1_w.png","j","pattern_22","j","true","","","","2073.89999999851","true","68","","","","","","","","","","","","","","","","",""
"","","","","","html-keyboard-response","305","1749146","0.0-3.0-7.0-0.37","5dccb82a76eab294aa4837ff","A3","batch1","pattern_show_trial_num","null","<p class=block-text>Trial 77 out of 78</p>","null","","","","","","","","","","","","","","","","","","","","","","","","","",""
"","","","","","image-keyboard-response","306","1753965","0.0-3.0-7.0-1.37","5dccb82a76eab294aa4837ff","A3","batch1","pattern_response","4815.79999999702","stim/yes_67_hor_b1.png","f","pattern_79","f","true","","","","4815.79999999702","true","69","","","","","","","","","","","","","","","","",""
"","","","","","html-keyboard-response","307","1755279","0.0-3.0-7.0-0.38","5dccb82a76eab294aa4837ff","A3","batch1","pattern_show_trial_num","null","<p class=block-text>Trial 78 out of 78</p>","null","","","","","","","","","","","","","","","","","","","","","","","","","",""
"","","","","","image-keyboard-response","308","1757790","0.0-3.0-7.0-1.38","5dccb82a76eab294aa4837ff","A3","batch1","pattern_response","2507.3000000044703","stim/no_36_2_w.png","j","pattern_18","j","true","","","","2507.3000000044703","true","70","","","","","","","","","","","","","","","","",""
"","","","","","html-button-response","309","1763000","0.0-3.0-8.0","5dccb82a76eab294aa4837ff","A3","batch1","","4694.5999999940395","<p class = block-text>This concludes the 4-in-a-row detection game.Thank you for your responses!<br>
            You responded correctly on 90% of the trials.<br>
            When you are ready, press ""Continue"" button to continue </p>","0","","","","","","","","","","","","","","","","","","","","","","","","","",""
"true","","","","","fullscreen","310","1765615","0.0-4.0-0.0","5dccb82a76eab294aa4837ff","A3","batch1","","","","","","","","","","","","","","","","","","","","","","","","","","","","","",""
"","","","","","instructions","311","1876352","0.0-4.0-1.0-0.0-0.0","5dccb82a76eab294aa4837ff","A3","batch1","tol-instructions","110736.20000000298","","","","","","","","[{""page_index"":0,""viewing_time"":31960},{""page_index"":1,""viewing_time"":20511.80000000447},{""page_index"":2,""viewing_time"":8344},{""page_index"":3,""viewing_time"":23448.19999999553},{""page_index"":4,""viewing_time"":8247.70000000298},{""page_index"":5,""viewing_time"":13871.89999999851},{""page_index"":6,""viewing_time"":4352.20000000298}]","","","","","","","","","","","","","","","","","","","",""
"","","","","","html-button-response","312","1877384","0.0-4.0-1.0-1.0-0.0","5dccb82a76eab294aa4837ff","A3","batch1","tol_enter_quiz","1030.3999999985099","<p class=block-text> Let's answer a few questions <br>","0","","","","","","","","","","","","","","","","","","","","","","","","","",""
"","","","","","html-button-response","313","1881808","0.0-4.0-1.0-1.0-1.0","5dccb82a76eab294aa4837ff","A3","batch1","tol_quiz","4422.29999999702","<p class = block-text>True or False: You can only move the ball on top of a peg. <br></p>","0","","","true","","","","","","","","","","","","","","","","","","","","","","",""
"","","","","","html-button-response","314","1883144","0.0-4.0-1.0-1.0-2.0","5dccb82a76eab294aa4837ff","A3","batch1","tol_quiz_feedback","1333.8999999985099","<p class = block-text>Correct! You can only move the ball on top of a peg.</p>","0","","","","","","","","","","","","","","","","","","","","","","","","","",""
"","","","","","html-button-response","315","1888415","0.0-4.0-1.0-1.0-3.0","5dccb82a76eab294aa4837ff","A3","batch1","tol_quiz","5270.39999999851","<p class = block-text>True or False: You should try to match your board with the target board with fewest moves possible. <br></p>","0","","","true","","","","","","","","","","","","","","","","","","","","","","",""
"","","","","","html-button-response","316","1889464","0.0-4.0-1.0-1.0-4.0","5dccb82a76eab294aa4837ff","A3","batch1","tol_quiz_feedback","1046.2999999970198","<p class = block-text>Correct! </p>","0","","","","","","","","","","","","","","","","","","","","","","","","","",""
"","","","","","html-button-response","317","1891696","0.0-4.0-2.0","5dccb82a76eab294aa4837ff","A3","batch1","","2230.1999999955297","<p class=block-text> Now that you've understood the game, let's practice a few easier examples before we start!<br> <br>","0","","","","","","","","","","","","","","","","","","","","","","","","","",""
"","","","","","single-stim-button","318","1894913","0.0-4.0-3.0-0.0","5dccb82a76eab294aa4837ff","A3","batch1","tol_practice","3215","","","","","","","","","","","","","","tol_peg_2","3215","3215","0","[[1,2,0],[0,0],[0]]","1","[[1,2,0],[0,0],[3]]","practice","3215","","","","","",""
"","","","","","single-stim-button","319","1896272","0.0-4.0-3.0-1.0","5dccb82a76eab294aa4837ff","A3","batch1","tol_practice","1356","","","","","","","","","","","","","","tol_peg_3","1356","1356","0","[[1,2,0],[0,0],[3]]","1","[[1,2,0],[0,0],[3]]","practice","1356","","","","","",""
"","","","","","poldrack-single-stim","320","1897278","0.0-4.0-4.0","5dccb82a76eab294aa4837ff","A3","batch1","tol_feedback","-1","","","","","true","","","","","","","","","","1000","1000","500","","","","","","-1","none","true","","0",""
"","","","","","single-stim-button","321","1900336","0.0-4.0-5.0-0.0","5dccb82a76eab294aa4837ff","A3","batch1","tol_practice","3056","","","","","","","","","","","","","","tol_peg_1","3056","3056","0","[[1,0,0],[3,0],[0]]","2","[[0,0,0],[3,1],[2]]","practice","3056","","","","","",""
"","","","","","single-stim-button","322","1902080","0.0-4.0-5.0-1.0","5dccb82a76eab294aa4837ff","A3","batch1","tol_practice","1742","","","","","","","","","","","","","","tol_peg_3","1742","1742","0","[[1,0,0],[3,0],[2]]","2","[[0,0,0],[3,1],[2]]","practice","1742","","","","","",""
"","","","","","single-stim-button","323","1903808","0.0-4.0-5.1-0.1","5dccb82a76eab294aa4837ff","A3","batch1","tol_practice","1726","","","","","","","","","","","","","","tol_peg_1","1726","1726","0","[[0,0,0],[3,0],[2]]","3","[[0,0,0],[3,1],[2]]","practice","1726","","","","","",""
"","","","","","single-stim-button","324","1904936","0.0-4.0-5.1-1.1","5dccb82a76eab294aa4837ff","A3","batch1","tol_practice","1126","","","","","","","","","","","","","","tol_peg_2","1126","1126","0","[[0,0,0],[3,1],[2]]","3","[[0,0,0],[3,1],[2]]","practice","1126","","","","","",""
"","","","","","poldrack-single-stim","325","1905939","0.0-4.0-6.0","5dccb82a76eab294aa4837ff","A3","batch1","tol_feedback","-1","","","","","true","","","","","","","","","","1000","1000","500","","","","","","-1","none","true","","0",""
"","","","","","single-stim-button","326","1909864","0.0-4.0-7.0-0.0","5dccb82a76eab294aa4837ff","A3","batch1","tol_practice","3923","","","","","","","","","","","","","","tol_peg_2","3923","3923","0","[[1,2,0],[0,0],[0]]","4","[[1,0,0],[2,0],[3]]","practice","3923","","","","","",""
"","","","","","single-stim-button","327","1910520","0.0-4.0-7.0-1.0","5dccb82a76eab294aa4837ff","A3","batch1","tol_practice","654","","","","","","","","","","","","","","tol_peg_3","654","654","0","[[1,2,0],[0,0],[3]]","4","[[1,0,0],[2,0],[3]]","practice","654","","","","","",""
"","","","","","single-stim-button","328","1911272","0.0-4.0-7.1-0.1","5dccb82a76eab294aa4837ff","A3","batch1","tol_practice","750","","","","","","","","","","","","","","tol_peg_1","750","750","0","[[1,0,0],[0,0],[3]]","5","[[1,0,0],[2,0],[3]]","practice","750","","","","","",""
"","","","","","single-stim-button","329","1911999","0.0-4.0-7.1-1.1","5dccb82a76eab294aa4837ff","A3","batch1","tol_practice","726","","","","","","","","","","","","","","tol_peg_2","726","726","0","[[1,0,0],[2,0],[3]]","5","[[1,0,0],[2,0],[3]]","practice","726","","","","","",""
"","","","","","poldrack-single-stim","330","1913002","0.0-4.0-8.0","5dccb82a76eab294aa4837ff","A3","batch1","tol_feedback","-1","","","","","true","","","","","","","","","","1000","1000","500","","","","","","-1","none","true","","0",""
"","","","","","html-button-response","331","1915496","0.0-4.0-9.0","5dccb82a76eab294aa4837ff","A3","batch1","tol_instruction","2492","<div class = centerbox><p class = center-block-text>Great job! You are done with practice trials<br>You are about to start official trials.<br> <br> Problem <strong>1</strong> out of 25 problems</p></div>","0","","","","","","","","","","","","","","","","","","","","","","","","","",""
"","","","","","single-stim-button","332","1920984","0.0-4.0-10.0-0.0","5dccb82a76eab294aa4837ff","A3","batch1","tol_tohand","4482","","","","","","","","","","","","","","tol_peg_2","4482","4482","0","[[1,2,0],[0,0],[0]]","1","[[1,3,0],[2,0],[0]]","0","0","","","","","","3"
"","","","","","single-stim-button","333","1925711","0.0-4.0-10.0-1.0","5dccb82a76eab294aa4837ff","A3","batch1","tol_toboard","4726","","","","","","","","","","","","","","tol_peg_3","4726","4726","0","[[1,2,0],[0,0],[3]]","1","[[1,3,0],[2,0],[0]]","0","0","","","","","","3"
"","","","","","single-stim-button","334","1926600","0.0-4.0-10.1-0.1","5dccb82a76eab294aa4837ff","A3","batch1","tol_tohand","886","","","","","","","","","","","","","","tol_peg_1","886","886","0","[[1,0,0],[0,0],[3]]","2","[[1,3,0],[2,0],[0]]","0","0","","","","","","3"
"","","","","","single-stim-button","335","1927664","0.0-4.0-10.1-1.1","5dccb82a76eab294aa4837ff","A3","batch1","tol_toboard","1062","","","","","","","","","","","","","","tol_peg_2","1062","1062","0","[[1,0,0],[2,0],[3]]","2","[[1,3,0],[2,0],[0]]","0","0","","","","","","3"
"","","","","","single-stim-button","336","1928408","0.0-4.0-10.2-0.2","5dccb82a76eab294aa4837ff","A3","batch1","tol_tohand","742","","","","","","","","","","","","","","tol_peg_3","742","742","0","[[1,0,0],[2,0],[0]]","3","[[1,3,0],[2,0],[0]]","0","0","","","","","","3"
"","","","","","single-stim-button","337","1929328","0.0-4.0-10.2-1.2","5dccb82a76eab294aa4837ff","A3","batch1","tol_toboard","918","","","","","","","","","","","","","","tol_peg_1","918","918","0","[[1,3,0],[2,0],[0]]","3","[[1,3,0],[2,0],[0]]","0","0","","","","","","3"
"","","","","","poldrack-single-stim","338","1930330","0.0-4.0-11.0","5dccb82a76eab294aa4837ff","A3","batch1","tol_feedback","-1","","","","","true","","","","","","","","","","1000","1000","500","","","","","","-1","none","true","4482","6110",""
"","","","","","html-button-response","339","1931551","0.0-4.0-12.0","5dccb82a76eab294aa4837ff","A3","batch1","tol_trial_num","1219.5","<div class = centerbox><p class = center-block-text>problem <strong>2</strong> out of 25 problems</p></div>","0","","","","","","","","","","","","","","","","","","","","","","","","","",""
"","","","","","single-stim-button","340","1940159","0.0-4.0-13.0-0.0","5dccb82a76eab294aa4837ff","A3","batch1","tol_tohand","8606","","","","","","","","","","","","","","tol_peg_1","8606","8606","0","[[1,0,0],[3,0],[0]]","1","[[2,1,3],[0,0],[0]]","1","0","","","","","","5"
"","","","","","single-stim-button","341","1943248","0.0-4.0-13.0-1.0","5dccb82a76eab294aa4837ff","A3","batch1","tol_toboard","3086","","","","","","","","","","","","","","tol_peg_3","3086","3086","0","[[1,0,0],[3,0],[2]]","1","[[2,1,3],[0,0],[0]]","1","0","","","","","","5"
"","","","","","single-stim-button","342","1944400","0.0-4.0-13.1-0.1","5dccb82a76eab294aa4837ff","A3","batch1","tol_tohand","1150","","","","","","","","","","","","","","tol_peg_1","1150","1150","0","[[0,0,0],[3,0],[2]]","2","[[2,1,3],[0,0],[0]]","1","0","","","","","","5"
"","","","","","single-stim-button","343","1945240","0.0-4.0-13.1-1.1","5dccb82a76eab294aa4837ff","A3","batch1","tol_toboard","838","","","","","","","","","","","","","","tol_peg_2","838","838","0","[[0,0,0],[3,1],[2]]","2","[[2,1,3],[0,0],[0]]","1","0","","","","","","5"
"","","","","","single-stim-button","344","1946624","0.0-4.0-13.2-0.2","5dccb82a76eab294aa4837ff","A3","batch1","tol_tohand","1383","","","","","","","","","","","","","","tol_peg_2","1383","1383","0","[[0,0,0],[3,0],[2]]","3","[[2,1,3],[0,0],[0]]","1","0","","","","","","5"
"","","","","","single-stim-button","345","1949776","0.0-4.0-13.2-1.2","5dccb82a76eab294aa4837ff","A3","batch1","tol_toboard","3151","","","","","","","","","","","","","","tol_peg_2","3151","3151","0","[[0,0,0],[3,1],[2]]","3","[[2,1,3],[0,0],[0]]","1","0","","","","","","5"
