"success","timeout","failed_images","failed_audio","failed_video","trial_type","trial_index","time_elapsed","internal_node_id","subject_id","study_id","session_id","view_history","rt","stimulus","response","task","correct","answer","item","fiar_detect_rt","fiar_detect_correct","total_correct_fiar_detect","post_trial_gap","choices","spm_correct","spm_rt","mouse_click","stim_duration","block_duration","timing_post_trial","current_position","tol_num_moves_made","tol_target","tol_problem_id","tol_rt","key_press","possible_responses","tol_correct","preplanning","tol_rt_per_trial","tol_min_moves"
"true","false","[]","[]","[]","preload","0","1621","0.0-0.0","5dd0440659b1b01317872cf0","F1","batch6","","","","","","","","","","","","","","","","","","","","","","","","","","","","","",""
"true","","","","","fullscreen","1","11170","0.0-1.0-0.0","5dd0440659b1b01317872cf0","F1","batch6","","","","","","","","","","","","","","","","","","","","","","","","","","","","","",""
"true","","","","","fullscreen","2","14028","0.0-2.0-0.0","5dd0440659b1b01317872cf0","F1","batch6","","","","","","","","","","","","","","","","","","","","","","","","","","","","","",""
"","","","","","instructions","3","40034","0.0-2.0-1.0-0.0","5dd0440659b1b01317872cf0","F1","batch6","[{""page_index"":0,""viewing_time"":7891.5},{""page_index"":1,""viewing_time"":10454},{""page_index"":0,""viewing_time"":1321.8999999761581},{""page_index"":1,""viewing_time"":6339}]","26006.599999964237","","","","","","","","","","","","","","","","","","","","","","","","","","","",""
"","","","","","html-button-response","4","41051","0.0-2.0-1.0-1.0-0.0","5dd0440659b1b01317872cf0","F1","batch6","","1016.5","<p class=block-text> Let's answer a few questions <br>","0","pattern_enter_quiz","","","","","","","","","","","","","","","","","","","","","","","","",""
"","","","","","html-button-response","5","43969","0.0-2.0-1.0-1.0-1.0","5dd0440659b1b01317872cf0","F1","batch6","","2917.400000035763","<p class = block-text>True or False: You will have as much time as you want to make each choice. <br></p>","1","pattern_quiz","true","","","","","","","","","","","","","","","","","","","","","","","",""
"","","","","","html-button-response","6","45780","0.0-2.0-1.0-1.0-2.0","5dd0440659b1b01317872cf0","F1","batch6","","1810.300000011921","<p class = block-text>Correct! You should make your choice <strong> as fast as you can</strong>.</p>","0","pattern_quiz_feedback","","","","","","","","","","","","","","","","","","","","","","","","",""
"","","","","","html-button-response","7","49938","0.0-2.0-1.0-1.0-3.0","5dd0440659b1b01317872cf0","F1","batch6","","4157.400000035763","<p class = block-text>True or False: You will look for 4 pieces in black or white color connected in a row either horizontally, vertically or diagonally. <br></p>","0","pattern_quiz","true","","","","","","","","","","","","","","","","","","","","","","","",""
"","","","","","html-button-response","8","50741","0.0-2.0-1.0-1.0-4.0","5dd0440659b1b01317872cf0","F1","batch6","","802.5","<p class = block-text>Correct! </p>","0","pattern_quiz_feedback","","","","","","","","","","","","","","","","","","","","","","","","",""
"","","","","","html-button-response","9","52662","0.0-2.0-2.0","5dd0440659b1b01317872cf0","F1","batch6","","1920.199999988079","<p class=block-text> Now that you've understood the game, let's do a few practice trials before we start!<br> <br>","0","pattern_enter_practice","","","","","","","","","","","","","","","","","","","","","","","","",""
"","","","","","image-keyboard-response","10","53776","0.0-2.0-3.0-0.0","5dd0440659b1b01317872cf0","F1","batch6","","1112.4000000357628","stim/prac_no_18_1.png","j","pattern_practice","true","j","","","","","","","","","","","","","","","","","","","","","","",""
"","","","","","html-keyboard-response","11","54783","0.0-2.0-3.0-1.0","5dd0440659b1b01317872cf0","F1","batch6","","null","<p style=""font-size:30px;color:green;"">Correct!</p>","null","pattern_feedback","","","","","","","","","","","","","","","","","","","","","","","","",""
"","","","","","image-keyboard-response","12","55541","0.0-2.0-3.0-0.1","5dd0440659b1b01317872cf0","F1","batch6","","757.5","stim/prac_yes_18_hor_w1.png","f","pattern_practice","true","f","","","","","","","","","","","","","","","","","","","","","","",""
"","","","","","html-keyboard-response","13","56555","0.0-2.0-3.0-1.1","5dd0440659b1b01317872cf0","F1","batch6","","null","<p style=""font-size:30px;color:green;"">Correct!</p>","null","pattern_feedback","","","","","","","","","","","","","","","","","","","","","","","","",""
"","","","","","image-keyboard-response","14","57873","0.0-2.0-3.0-0.2","5dd0440659b1b01317872cf0","F1","batch6","","1317","stim/prac_no_16_1.png","j","pattern_practice","true","j","","","","","","","","","","","","","","","","","","","","","","",""
"","","","","","html-keyboard-response","15","58878","0.0-2.0-3.0-1.2","5dd0440659b1b01317872cf0","F1","batch6","","null","<p style=""font-size:30px;color:green;"">Correct!</p>","null","pattern_feedback","","","","","","","","","","","","","","","","","","","","","","","","",""
"","","","","","image-keyboard-response","16","59826","0.0-2.0-3.0-0.3","5dd0440659b1b01317872cf0","F1","batch6","","948.1000000238419","stim/prac_yes_20_dia_b1.png","f","pattern_practice","true","f","","","","","","","","","","","","","","","","","","","","","","",""
"","","","","","html-keyboard-response","17","60852","0.0-2.0-3.0-1.3","5dd0440659b1b01317872cf0","F1","batch6","","null","<p style=""font-size:30px;color:green;"">Correct!</p>","null","pattern_feedback","","","","","","","","","","","","","","","","","","","","","","","","",""
"","","","","","image-keyboard-response","18","61655","0.0-2.0-3.0-0.4","5dd0440659b1b01317872cf0","F1","batch6","","802.1999999880791","stim/prac_yes_16_ver_w1.png","f","pattern_practice","true","f","","","","","","","","","","","","","","","","","","","","","","",""
"","","","","","html-keyboard-response","19","62673","0.0-2.0-3.0-1.4","5dd0440659b1b01317872cf0","F1","batch6","","null","<p style=""font-size:30px;color:green;"">Correct!</p>","null","pattern_feedback","","","","","","","","","","","","","","","","","","","","","","","","",""
"","","","","","html-button-response","20","65155","0.0-2.0-4.0","5dd0440659b1b01317872cf0","F1","batch6","","2481.400000035763","<p class=block-text> Good job! You are done with practice trials!<br>
        You responded correctly on 100% of the trials.<br>
        Press the button below to start official trials. Now you won't see any feedback about your response</p>","0","pattern_enter_official_trials","","","","","","","","","","","","","","","","","","","","","","","","",""
"","","","","","html-keyboard-response","21","65967","0.0-2.0-5.0-0.0","5dd0440659b1b01317872cf0","F1","batch6","","null","<p class=block-text>Trial 1 out of 78</p>","null","pattern_show_trial_num","","","","","","","","","","","","","","","","","","","","","","","","",""
"","","","","","image-keyboard-response","22","67705","0.0-2.0-5.0-1.0","5dd0440659b1b01317872cf0","F1","batch6","","1736.699999988079","stim/yes_44_ver_w1_w.png","j","pattern_response","false","f","pattern_66","1736.699999988079","false","0","","","","","","","","","","","","","","","","","","",""
"","","","","","html-keyboard-response","23","69014","0.0-2.0-5.0-0.1","5dd0440659b1b01317872cf0","F1","batch6","","null","<p class=block-text>Trial 2 out of 78</p>","null","pattern_show_trial_num","","","","","","","","","","","","","","","","","","","","","","","","",""
"","","","","","image-keyboard-response","24","69848","0.0-2.0-5.0-1.1","5dd0440659b1b01317872cf0","F1","batch6","","832.6999999880791","stim/yes_39_hor_w1_w.png","f","pattern_response","true","f","pattern_62","832.6999999880791","true","1","","","","","","","","","","","","","","","","","","",""
"","","","","","html-keyboard-response","25","71166","0.0-2.0-5.0-0.2","5dd0440659b1b01317872cf0","F1","batch6","","null","<p class=block-text>Trial 3 out of 78</p>","null","pattern_show_trial_num","","","","","","","","","","","","","","","","","","","","","","","","",""
"","","","","","image-keyboard-response","26","72684","0.0-2.0-5.0-1.2","5dd0440659b1b01317872cf0","F1","batch6","","1516.0999999642372","stim/yes_51_dia_b1.png","f","pattern_response","true","f","pattern_72","1516.0999999642372","true","2","","","","","","","","","","","","","","","","","","",""
"","","","","","html-keyboard-response","27","73998","0.0-2.0-5.0-0.3","5dd0440659b1b01317872cf0","F1","batch6","","null","<p class=block-text>Trial 4 out of 78</p>","null","pattern_show_trial_num","","","","","","","","","","","","","","","","","","","","","","","","",""
"","","","","","image-keyboard-response","28","75961","0.0-2.0-5.0-1.3","5dd0440659b1b01317872cf0","F1","batch6","","1961.800000011921","stim/yes_36_ver_w1_w.png","f","pattern_response","true","f","pattern_58","1961.800000011921","true","3","","","","","","","","","","","","","","","","","","",""
"","","","","","html-keyboard-response","29","77265","0.0-2.0-5.0-0.4","5dd0440659b1b01317872cf0","F1","batch6","","null","<p class=block-text>Trial 5 out of 78</p>","null","pattern_show_trial_num","","","","","","","","","","","","","","","","","","","","","","","","",""
"","","","","","image-keyboard-response","30","78294","0.0-2.0-5.0-1.4","5dd0440659b1b01317872cf0","F1","batch6","","1027.699999988079","stim/yes_30_ver_b1_b.png","f","pattern_response","true","f","pattern_54","1027.699999988079","true","4","","","","","","","","","","","","","","","","","","",""
"","","","","","html-keyboard-response","31","79599","0.0-2.0-5.0-0.5","5dd0440659b1b01317872cf0","F1","batch6","","null","<p class=block-text>Trial 6 out of 78</p>","null","pattern_show_trial_num","","","","","","","","","","","","","","","","","","","","","","","","",""
"","","","","","image-keyboard-response","32","80310","0.0-2.0-5.0-1.5","5dd0440659b1b01317872cf0","F1","batch6","","709.5","stim/yes_12_hor_w1_w.png","f","pattern_response","true","f","pattern_42","709.5","true","5","","","","","","","","","","","","","","","","","","",""
"","","","","","html-keyboard-response","33","81632","0.0-2.0-5.0-0.6","5dd0440659b1b01317872cf0","F1","batch6","","null","<p class=block-text>Trial 7 out of 78</p>","null","pattern_show_trial_num","","","","","","","","","","","","","","","","","","","","","","","","",""
"","","","","","image-keyboard-response","34","82579","0.0-2.0-5.0-1.6","5dd0440659b1b01317872cf0","F1","batch6","","945.6000000238419","stim/yes_23_ver_b1.png","f","pattern_response","true","f","pattern_48","945.6000000238419","true","6","","","","","","","","","","","","","","","","","","",""
"","","","","","html-keyboard-response","35","83888","0.0-2.0-5.0-0.7","5dd0440659b1b01317872cf0","F1","batch6","","null","<p class=block-text>Trial 8 out of 78</p>","null","pattern_show_trial_num","","","","","","","","","","","","","","","","","","","","","","","","",""
"","","","","","image-keyboard-response","36","85037","0.0-2.0-5.0-1.7","5dd0440659b1b01317872cf0","F1","batch6","","1147.800000011921","stim/no_15_1_w.png","j","pattern_response","true","j","pattern_03","1147.800000011921","true","7","","","","","","","","","","","","","","","","","","",""
"","","","","","html-keyboard-response","37","86344","0.0-2.0-5.0-0.8","5dd0440659b1b01317872cf0","F1","batch6","","null","<p class=block-text>Trial 9 out of 78</p>","null","pattern_show_trial_num","","","","","","","","","","","","","","","","","","","","","","","","",""
"","","","","","image-keyboard-response","38","86991","0.0-2.0-5.0-1.8","5dd0440659b1b01317872cf0","F1","batch6","","646.1000000238419","stim/yes_15_dia_b1u_b.png","f","pattern_response","true","f","pattern_44","646.1000000238419","true","8","","","","","","","","","","","","","","","","","","",""
"","","","","","html-keyboard-response","39","88305","0.0-2.0-5.0-0.9","5dd0440659b1b01317872cf0","F1","batch6","","null","<p class=block-text>Trial 10 out of 78</p>","null","pattern_show_trial_num","","","","","","","","","","","","","","","","","","","","","","","","",""
"","","","","","image-keyboard-response","40","89007","0.0-2.0-5.0-1.9","5dd0440659b1b01317872cf0","F1","batch6","","701.1999999880791","stim/yes_17_ver_b1_b.png","f","pattern_response","true","f","pattern_46","701.1999999880791","true","9","","","","","","","","","","","","","","","","","","",""
"","","","","","html-keyboard-response","41","90323","0.0-2.0-5.0-0.10","5dd0440659b1b01317872cf0","F1","batch6","","null","<p class=block-text>Trial 11 out of 78</p>","null","pattern_show_trial_num","","","","","","","","","","","","","","","","","","","","","","","","",""
"","","","","","image-keyboard-response","42","91717","0.0-2.0-5.0-1.10","5dd0440659b1b01317872cf0","F1","batch6","","1393.7000000476837","stim/no_25_1_b.png","j","pattern_response","true","j","pattern_09","1393.7000000476837","true","10","","","","","","","","","","","","","","","","","","",""
"","","","","","html-keyboard-response","43","93026","0.0-2.0-5.0-0.11","5dd0440659b1b01317872cf0","F1","batch6","","null","<p class=block-text>Trial 12 out of 78</p>","null","pattern_show_trial_num","","","","","","","","","","","","","","","","","","","","","","","","",""
"","","","","","image-keyboard-response","44","95688","0.0-2.0-5.0-1.11","5dd0440659b1b01317872cf0","F1","batch6","","2661","stim/yes_58_dia_w1_w.png","j","pattern_response","false","f","pattern_76","2661","false","10","","","","","","","","","","","","","","","","","","",""
"","","","","","html-keyboard-response","45","97008","0.0-2.0-5.0-0.12","5dd0440659b1b01317872cf0","F1","batch6","","null","<p class=block-text>Trial 13 out of 78</p>","null","pattern_show_trial_num","","","","","","","","","","","","","","","","","","","","","","","","",""
"","","","","","image-keyboard-response","46","99533","0.0-2.0-5.0-1.12","5dd0440659b1b01317872cf0","F1","batch6","","2524.2000000476837","stim/no_67_1.png","j","pattern_response","true","j","pattern_39","2524.2000000476837","true","11","","","","","","","","","","","","","","","","","","",""
"","","","","","html-keyboard-response","47","100846","0.0-2.0-5.0-0.13","5dd0440659b1b01317872cf0","F1","batch6","","null","<p class=block-text>Trial 14 out of 78</p>","null","pattern_show_trial_num","","","","","","","","","","","","","","","","","","","","","","","","",""
"","","","","","image-keyboard-response","48","103188","0.0-2.0-5.0-1.13","5dd0440659b1b01317872cf0","F1","batch6","","2341","stim/yes_70_ver_b1.png","f","pattern_response","true","f","pattern_80","2341","true","12","","","","","","","","","","","","","","","","","","",""
"","","","","","html-keyboard-response","49","104494","0.0-2.0-5.0-0.14","5dd0440659b1b01317872cf0","F1","batch6","","null","<p class=block-text>Trial 15 out of 78</p>","null","pattern_show_trial_num","","","","","","","","","","","","","","","","","","","","","","","","",""
"","","","","","image-keyboard-response","50","107348","0.0-2.0-5.0-1.14","5dd0440659b1b01317872cf0","F1","batch6","","2853.099999964237","stim/no_58_1_w.png","j","pattern_response","true","j","pattern_35","2853.099999964237","true","13","","","","","","","","","","","","","","","","","","",""
"","","","","","html-keyboard-response","51","108653","0.0-2.0-5.0-0.15","5dd0440659b1b01317872cf0","F1","batch6","","null","<p class=block-text>Trial 16 out of 78</p>","null","pattern_show_trial_num","","","","","","","","","","","","","","","","","","","","","","","","",""
"","","","","","image-keyboard-response","52","111759","0.0-2.0-5.0-1.15","5dd0440659b1b01317872cf0","F1","batch6","","3104.800000011921","stim/no_49_2_b.png","j","pattern_response","true","j","pattern_29","3104.800000011921","true","14","","","","","","","","","","","","","","","","","","",""
"","","","","","html-keyboard-response","53","113074","0.0-2.0-5.0-0.16","5dd0440659b1b01317872cf0","F1","batch6","","null","<p class=block-text>Trial 17 out of 78</p>","null","pattern_show_trial_num","","","","","","","","","","","","","","","","","","","","","","","","",""
"","","","","","image-keyboard-response","54","113839","0.0-2.0-5.0-1.16","5dd0440659b1b01317872cf0","F1","batch6","","764","stim/no_12_1.png","f","pattern_response","false","j","pattern_01","764","false","14","","","","","","","","","","","","","","","","","","",""
"","","","","","html-keyboard-response","55","115147","0.0-2.0-5.0-0.17","5dd0440659b1b01317872cf0","F1","batch6","","null","<p class=block-text>Trial 18 out of 78</p>","null","pattern_show_trial_num","","","","","","","","","","","","","","","","","","","","","","","","",""
"","","","","","image-keyboard-response","56","116486","0.0-2.0-5.0-1.17","5dd0440659b1b01317872cf0","F1","batch6","","1338","stim/yes_63_dia_b1.png","f","pattern_response","true","f","pattern_78","1338","true","15","","","","","","","","","","","","","","","","","","",""
"","","","","","html-keyboard-response","57","117817","0.0-2.0-5.0-0.18","5dd0440659b1b01317872cf0","F1","batch6","","null","<p class=block-text>Trial 19 out of 78</p>","null","pattern_show_trial_num","","","","","","","","","","","","","","","","","","","","","","","","",""
"","","","","","image-keyboard-response","58","119575","0.0-2.0-5.0-1.18","5dd0440659b1b01317872cf0","F1","batch6","","1757.6000000238419","stim/no_28_2.png","j","pattern_response","true","j","pattern_11","1757.6000000238419","true","16","","","","","","","","","","","","","","","","","","",""
"","","","","","html-keyboard-response","59","120895","0.0-2.0-5.0-0.19","5dd0440659b1b01317872cf0","F1","batch6","","null","<p class=block-text>Trial 20 out of 78</p>","null","pattern_show_trial_num","","","","","","","","","","","","","","","","","","","","","","","","",""
"","","","","","image-keyboard-response","60","123482","0.0-2.0-5.0-1.19","5dd0440659b1b01317872cf0","F1","batch6","","2586","stim/no_51_1.png","j","pattern_response","true","j","pattern_31","2586","true","17","","","","","","","","","","","","","","","","","","",""
"","","","","","html-keyboard-response","61","124797","0.0-2.0-5.0-0.20","5dd0440659b1b01317872cf0","F1","batch6","","null","<p class=block-text>Trial 21 out of 78</p>","null","pattern_show_trial_num","","","","","","","","","","","","","","","","","","","","","","","","",""
"","","","","","image-keyboard-response","62","127894","0.0-2.0-5.0-1.20","5dd0440659b1b01317872cf0","F1","batch6","","3095.7999999523163","stim/no_39_1_w.png","j","pattern_response","true","j","pattern_21","3095.7999999523163","true","18","","","","","","","","","","","","","","","","","","",""
"","","","","","html-keyboard-response","63","129210","0.0-2.0-5.0-0.21","5dd0440659b1b01317872cf0","F1","batch6","","null","<p class=block-text>Trial 22 out of 78</p>","null","pattern_show_trial_num","","","","","","","","","","","","","","","","","","","","","","","","",""
"","","","","","image-keyboard-response","64","131990","0.0-2.0-5.0-1.21","5dd0440659b1b01317872cf0","F1","batch6","","2779.199999988079","stim/no_47_1_b.png","j","pattern_response","true","j","pattern_27","2779.199999988079","true","19","","","","","","","","","","","","","","","","","","",""
"","","","","","html-keyboard-response","65","133319","0.0-2.0-5.0-0.22","5dd0440659b1b01317872cf0","F1","batch6","","null","<p class=block-text>Trial 23 out of 78</p>","null","pattern_show_trial_num","","","","","","","","","","","","","","","","","","","","","","","","",""
"","","","","","image-keyboard-response","66","134890","0.0-2.0-5.0-1.22","5dd0440659b1b01317872cf0","F1","batch6","","1569.7999999523163","stim/yes_26_dia_w2_w.png","f","pattern_response","true","f","pattern_50","1569.7999999523163","true","20","","","","","","","","","","","","","","","","","","",""
"","","","","","html-keyboard-response","67","136209","0.0-2.0-5.0-0.23","5dd0440659b1b01317872cf0","F1","batch6","","null","<p class=block-text>Trial 24 out of 78</p>","null","pattern_show_trial_num","","","","","","","","","","","","","","","","","","","","","","","","",""
"","","","","","image-keyboard-response","68","138356","0.0-2.0-5.0-1.23","5dd0440659b1b01317872cf0","F1","batch6","","2146.100000023842","stim/yes_42_dia_w1_w.png","j","pattern_response","false","f","pattern_64","2146.100000023842","false","20","","","","","","","","","","","","","","","","","","",""
"","","","","","html-keyboard-response","69","139674","0.0-2.0-5.0-0.24","5dd0440659b1b01317872cf0","F1","batch6","","null","<p class=block-text>Trial 25 out of 78</p>","null","pattern_show_trial_num","","","","","","","","","","","","","","","","","","","","","","","","",""
"","","","","","image-keyboard-response","70","143271","0.0-2.0-5.0-1.24","5dd0440659b1b01317872cf0","F1","batch6","","3597","stim/yes_49_hor_w1_b.png","f","pattern_response","true","f","pattern_70","3597","true","21","","","","","","","","","","","","","","","","","","",""
"","","","","","html-keyboard-response","71","144578","0.0-2.0-5.0-0.25","5dd0440659b1b01317872cf0","F1","batch6","","null","<p class=block-text>Trial 26 out of 78</p>","null","pattern_show_trial_num","","","","","","","","","","","","","","","","","","","","","","","","",""
"","","","","","image-keyboard-response","72","146171","0.0-2.0-5.0-1.25","5dd0440659b1b01317872cf0","F1","batch6","","1591.699999988079","stim/yes_33_dia_w1_w.png","f","pattern_response","true","f","pattern_56","1591.699999988079","true","22","","","","","","","","","","","","","","","","","","",""
"","","","","","html-keyboard-response","73","147486","0.0-2.0-5.0-0.26","5dd0440659b1b01317872cf0","F1","batch6","","null","<p class=block-text>Trial 27 out of 78</p>","null","pattern_show_trial_num","","","","","","","","","","","","","","","","","","","","","","","","",""
"","","","","","image-keyboard-response","74","148250","0.0-2.0-5.0-1.26","5dd0440659b1b01317872cf0","F1","batch6","","763.5","stim/yes_29_hor_b1_b.png","f","pattern_response","true","f","pattern_52","763.5","true","23","","","","","","","","","","","","","","","","","","",""
"","","","","","html-keyboard-response","75","149555","0.0-2.0-5.0-0.27","5dd0440659b1b01317872cf0","F1","batch6","","null","<p class=block-text>Trial 28 out of 78</p>","null","pattern_show_trial_num","","","","","","","","","","","","","","","","","","","","","","","","",""
"","","","","","image-keyboard-response","76","151024","0.0-2.0-5.0-1.27","5dd0440659b1b01317872cf0","F1","batch6","","1467.8999999761581","stim/no_18_1_b.png","j","pattern_response","true","j","pattern_05","1467.8999999761581","true","24","","","","","","","","","","","","","","","","","","",""
"","","","","","html-keyboard-response","77","152339","0.0-2.0-5.0-0.28","5dd0440659b1b01317872cf0","F1","batch6","","null","<p class=block-text>Trial 29 out of 78</p>","null","pattern_show_trial_num","","","","","","","","","","","","","","","","","","","","","","","","",""
"","","","","","image-keyboard-response","78","154678","0.0-2.0-5.0-1.28","5dd0440659b1b01317872cf0","F1","batch6","","2337.899999976158","stim/no_45_1_w.png","j","pattern_response","true","j","pattern_25","2337.899999976158","true","25","","","","","","","","","","","","","","","","","","",""
"","","","","","html-keyboard-response","79","155989","0.0-2.0-5.0-0.29","5dd0440659b1b01317872cf0","F1","batch6","","null","<p class=block-text>Trial 30 out of 78</p>","null","pattern_show_trial_num","","","","","","","","","","","","","","","","","","","","","","","","",""
"","","","","","image-keyboard-response","80","159282","0.0-2.0-5.0-1.29","5dd0440659b1b01317872cf0","F1","batch6","","3292.5","stim/yes_46_ver_b1_b.png","f","pattern_response","true","f","pattern_68","3292.5","true","26","","","","","","","","","","","","","","","","","","",""
"","","","","","html-keyboard-response","81","160590","0.0-2.0-5.0-0.30","5dd0440659b1b01317872cf0","F1","batch6","","null","<p class=block-text>Trial 31 out of 78</p>","null","pattern_show_trial_num","","","","","","","","","","","","","","","","","","","","","","","","",""
"","","","","","image-keyboard-response","82","163125","0.0-2.0-5.0-1.30","5dd0440659b1b01317872cf0","F1","batch6","","2533.300000011921","stim/no_33_1_b.png","j","pattern_response","true","j","pattern_15","2533.300000011921","true","27","","","","","","","","","","","","","","","","","","",""
"","","","","","html-keyboard-response","83","164431","0.0-2.0-5.0-0.31","5dd0440659b1b01317872cf0","F1","batch6","","null","<p class=block-text>Trial 32 out of 78</p>","null","pattern_show_trial_num","","","","","","","","","","","","","","","","","","","","","","","","",""
"","","","","","image-keyboard-response","84","166590","0.0-2.0-5.0-1.31","5dd0440659b1b01317872cf0","F1","batch6","","2158.599999964237","stim/no_30_1_b.png","j","pattern_response","true","j","pattern_13","2158.599999964237","true","28","","","","","","","","","","","","","","","","","","",""
"","","","","","html-keyboard-response","85","167910","0.0-2.0-5.0-0.32","5dd0440659b1b01317872cf0","F1","batch6","","null","<p class=block-text>Trial 33 out of 78</p>","null","pattern_show_trial_num","","","","","","","","","","","","","","","","","","","","","","","","",""
"","","","","","image-keyboard-response","86","171633","0.0-2.0-5.0-1.32","5dd0440659b1b01317872cf0","F1","batch6","","3720.800000011921","stim/no_53_1_b.png","j","pattern_response","true","j","pattern_33","3720.800000011921","true","29","","","","","","","","","","","","","","","","","","",""
"","","","","","html-keyboard-response","87","172945","0.0-2.0-5.0-0.33","5dd0440659b1b01317872cf0","F1","batch6","","null","<p class=block-text>Trial 34 out of 78</p>","null","pattern_show_trial_num","","","","","","","","","","","","","","","","","","","","","","","","",""
"","","","","","image-keyboard-response","88","175478","0.0-2.0-5.0-1.33","5dd0440659b1b01317872cf0","F1","batch6","","2532","stim/no_37_2_w.png","j","pattern_response","true","j","pattern_19","2532","true","30","","","","","","","","","","","","","","","","","","",""
"","","","","","html-keyboard-response","89","176793","0.0-2.0-5.0-0.34","5dd0440659b1b01317872cf0","F1","batch6","","null","<p class=block-text>Trial 35 out of 78</p>","null","pattern_show_trial_num","","","","","","","","","","","","","","","","","","","","","","","","",""
"","","","","","image-keyboard-response","90","178629","0.0-2.0-5.0-1.34","5dd0440659b1b01317872cf0","F1","batch6","","1834.9000000357628","stim/yes_37_hor_w1_w.png","f","pattern_response","true","f","pattern_60","1834.9000000357628","true","31","","","","","","","","","","","","","","","","","","",""
"","","","","","html-keyboard-response","91","179944","0.0-2.0-5.0-0.35","5dd0440659b1b01317872cf0","F1","batch6","","null","<p class=block-text>Trial 36 out of 78</p>","null","pattern_show_trial_num","","","","","","","","","","","","","","","","","","","","","","","","",""
"","","","","","image-keyboard-response","92","182663","0.0-2.0-5.0-1.35","5dd0440659b1b01317872cf0","F1","batch6","","2718.099999964237","stim/no_43_2_b.png","j","pattern_response","true","j","pattern_23","2718.099999964237","true","32","","","","","","","","","","","","","","","","","","",""
"","","","","","html-keyboard-response","93","183970","0.0-2.0-5.0-0.36","5dd0440659b1b01317872cf0","F1","batch6","","null","<p class=block-text>Trial 37 out of 78</p>","null","pattern_show_trial_num","","","","","","","","","","","","","","","","","","","","","","","","",""
"","","","","","image-keyboard-response","94","185499","0.0-2.0-5.0-1.36","5dd0440659b1b01317872cf0","F1","batch6","","1527.699999988079","stim/no_22_1_b.png","j","pattern_response","true","j","pattern_07","1527.699999988079","true","33","","","","","","","","","","","","","","","","","","",""
"","","","","","html-keyboard-response","95","186815","0.0-2.0-5.0-0.37","5dd0440659b1b01317872cf0","F1","batch6","","null","<p class=block-text>Trial 38 out of 78</p>","null","pattern_show_trial_num","","","","","","","","","","","","","","","","","","","","","","","","",""
"","","","","","image-keyboard-response","96","189029","0.0-2.0-5.0-1.37","5dd0440659b1b01317872cf0","F1","batch6","","2212.600000023842","stim/yes_53_ver_b1_b.png","f","pattern_response","true","f","pattern_74","2212.600000023842","true","34","","","","","","","","","","","","","","","","","","",""
"","","","","","html-keyboard-response","97","190333","0.0-2.0-5.0-0.38","5dd0440659b1b01317872cf0","F1","batch6","","null","<p class=block-text>Trial 39 out of 78</p>","null","pattern_show_trial_num","","","","","","","","","","","","","","","","","","","","","","","","",""
"","","","","","image-keyboard-response","98","193503","0.0-2.0-5.0-1.38","5dd0440659b1b01317872cf0","F1","batch6","","3168.300000011921","stim/no_36_1_b.png","j","pattern_response","true","j","pattern_17","3168.300000011921","true","35","","","","","","","","","","","","","","","","","","",""
"","","","","","image-keyboard-response","99","196401","0.0-2.0-6.0","5dd0440659b1b01317872cf0","F1","batch6","","2393.7999999523163","stim/empty_board.png","j","attention_check","true","j","","","","","500","[""f"",""j""]","","","","","","","","","","","","","","","","",""
"","","","","","html-keyboard-response","100","197208","0.0-2.0-7.0-0.0","5dd0440659b1b01317872cf0","F1","batch6","","null","<p class=block-text>Trial 40 out of 78</p>","null","pattern_show_trial_num","","","","","","","","","","","","","","","","","","","","","","","","",""
"","","","","","image-keyboard-response","101","200499","0.0-2.0-7.0-1.0","5dd0440659b1b01317872cf0","F1","batch6","","3290.699999988079","stim/no_42_1_w.png","j","pattern_response","true","j","pattern_22","3290.699999988079","true","36","","","","","","","","","","","","","","","","","","",""
"","","","","","html-keyboard-response","102","201814","0.0-2.0-7.0-0.1","5dd0440659b1b01317872cf0","F1","batch6","","null","<p class=block-text>Trial 41 out of 78</p>","null","pattern_show_trial_num","","","","","","","","","","","","","","","","","","","","","","","","",""
"","","","","","image-keyboard-response","103","206549","0.0-2.0-7.0-1.1","5dd0440659b1b01317872cf0","F1","batch6","","4734.100000023842","stim/no_70_2.png","j","pattern_response","true","j","pattern_40","4734.100000023842","true","37","","","","","","","","","","","","","","","","","","",""
"","","","","","html-keyboard-response","104","207866","0.0-2.0-7.0-0.2","5dd0440659b1b01317872cf0","F1","batch6","","null","<p class=block-text>Trial 42 out of 78</p>","null","pattern_show_trial_num","","","","","","","","","","","","","","","","","","","","","","","","",""
"","","","","","image-keyboard-response","105","210646","0.0-2.0-7.0-1.2","5dd0440659b1b01317872cf0","F1","batch6","","2779.099999964237","stim/no_20_1_w.png","j","pattern_response","true","j","pattern_06","2779.099999964237","true","38","","","","","","","","","","","","","","","","","","",""
"","","","","","html-keyboard-response","106","211956","0.0-2.0-7.0-0.3","5dd0440659b1b01317872cf0","F1","batch6","","null","<p class=block-text>Trial 43 out of 78</p>","null","pattern_show_trial_num","","","","","","","","","","","","","","","","","","","","","","","","",""
"","","","","","image-keyboard-response","107","214553","0.0-2.0-7.0-1.3","5dd0440659b1b01317872cf0","F1","batch6","","2595.5","stim/yes_55_hor_w1_w.png","f","pattern_response","true","f","pattern_75","2595.5","true","39","","","","","","","","","","","","","","","","","","",""
"","","","","","html-keyboard-response","108","215866","0.0-2.0-7.0-0.4","5dd0440659b1b01317872cf0","F1","batch6","","null","<p class=block-text>Trial 44 out of 78</p>","null","pattern_show_trial_num","","","","","","","","","","","","","","","","","","","","","","","","",""
"","","","","","image-keyboard-response","109","217137","0.0-2.0-7.0-1.4","5dd0440659b1b01317872cf0","F1","batch6","","1269.9000000357628","stim/yes_14_hor_b1_w.png","f","pattern_response","true","f","pattern_43","1269.9000000357628","true","40","","","","","","","","","","","","","","","","","","",""
"","","","","","html-keyboard-response","110","218450","0.0-2.0-7.0-0.5","5dd0440659b1b01317872cf0","F1","batch6","","null","<p class=block-text>Trial 45 out of 78</p>","null","pattern_show_trial_num","","","","","","","","","","","","","","","","","","","","","","","","",""
"","","","","","image-keyboard-response","111","223818","0.0-2.0-7.0-1.5","5dd0440659b1b01317872cf0","F1","batch6","","5367.5","stim/no_23_1.png","j","pattern_response","true","j","pattern_08","5367.5","true","41","","","","","","","","","","","","","","","","","","",""
"","","","","","html-keyboard-response","112","225122","0.0-2.0-7.0-0.6","5dd0440659b1b01317872cf0","F1","batch6","","null","<p class=block-text>Trial 46 out of 78</p>","null","pattern_show_trial_num","","","","","","","","","","","","","","","","","","","","","","","","",""
"","","","","","image-keyboard-response","113","229553","0.0-2.0-7.0-1.6","5dd0440659b1b01317872cf0","F1","batch6","","4430.600000023842","stim/no_62_1_w.png","j","pattern_response","true","j","pattern_36","4430.600000023842","true","42","","","","","","","","","","","","","","","","","","",""
"","","","","","html-keyboard-response","114","230860","0.0-2.0-7.0-0.7","5dd0440659b1b01317872cf0","F1","batch6","","null","<p class=block-text>Trial 47 out of 78</p>","null","pattern_show_trial_num","","","","","","","","","","","","","","","","","","","","","","","","",""
"","","","","","image-keyboard-response","115","232137","0.0-2.0-7.0-1.7","5dd0440659b1b01317872cf0","F1","batch6","","1275.800000011921","stim/yes_25_hor_b1_b.png","f","pattern_response","true","f","pattern_49","1275.800000011921","true","43","","","","","","","","","","","","","","","","","","",""
"","","","","","html-keyboard-response","116","233442","0.0-2.0-7.0-0.8","5dd0440659b1b01317872cf0","F1","batch6","","null","<p class=block-text>Trial 48 out of 78</p>","null","pattern_show_trial_num","","","","","","","","","","","","","","","","","","","","","","","","",""
"","","","","","image-keyboard-response","117","234910","0.0-2.0-7.0-1.8","5dd0440659b1b01317872cf0","F1","batch6","","1467.199999988079","stim/yes_29_ver_w1.png","j","pattern_response","false","f","pattern_53","1467.199999988079","false","43","","","","","","","","","","","","","","","","","","",""
"","","","","","html-keyboard-response","118","236226","0.0-2.0-7.0-0.9","5dd0440659b1b01317872cf0","F1","batch6","","null","<p class=block-text>Trial 49 out of 78</p>","null","pattern_show_trial_num","","","","","","","","","","","","","","","","","","","","","","","","",""
"","","","","","image-keyboard-response","119","237116","0.0-2.0-7.0-1.9","5dd0440659b1b01317872cf0","F1","batch6","","888.5999999642372","stim/yes_38_hor_b1_b.png","j","pattern_response","false","f","pattern_61","888.5999999642372","false","43","","","","","","","","","","","","","","","","","","",""
"","","","","","html-keyboard-response","120","238424","0.0-2.0-7.0-0.10","5dd0440659b1b01317872cf0","F1","batch6","","null","<p class=block-text>Trial 50 out of 78</p>","null","pattern_show_trial_num","","","","","","","","","","","","","","","","","","","","","","","","",""
"","","","","","image-keyboard-response","121","241087","0.0-2.0-7.0-1.10","5dd0440659b1b01317872cf0","F1","batch6","","2662.300000011921","stim/yes_45_hor_b2_b.png","f","pattern_response","true","f","pattern_67","2662.300000011921","true","44","","","","","","","","","","","","","","","","","","",""
"","","","","","html-keyboard-response","122","242401","0.0-2.0-7.0-0.11","5dd0440659b1b01317872cf0","F1","batch6","","null","<p class=block-text>Trial 51 out of 78</p>","null","pattern_show_trial_num","","","","","","","","","","","","","","","","","","","","","","","","",""
"","","","","","image-keyboard-response","123","245183","0.0-2.0-7.0-1.11","5dd0440659b1b01317872cf0","F1","batch6","","2781.5","stim/no_29_1_b.png","j","pattern_response","true","j","pattern_12","2781.5","true","45","","","","","","","","","","","","","","","","","","",""
"","","","","","html-keyboard-response","124","246495","0.0-2.0-7.0-0.12","5dd0440659b1b01317872cf0","F1","batch6","","null","<p class=block-text>Trial 52 out of 78</p>","null","pattern_show_trial_num","","","","","","","","","","","","","","","","","","","","","","","","",""
"","","","","","image-keyboard-response","125","247452","0.0-2.0-7.0-1.12","5dd0440659b1b01317872cf0","F1","batch6","","956.3000000119209","stim/yes_67_hor_b1.png","f","pattern_response","true","f","pattern_79","956.3000000119209","true","46","","","","","","","","","","","","","","","","","","",""
"","","","","","html-keyboard-response","126","248770","0.0-2.0-7.0-0.13","5dd0440659b1b01317872cf0","F1","batch6","","null","<p class=block-text>Trial 53 out of 78</p>","null","pattern_show_trial_num","","","","","","","","","","","","","","","","","","","","","","","","",""
"","","","","","image-keyboard-response","127","250225","0.0-2.0-7.0-1.13","5dd0440659b1b01317872cf0","F1","batch6","","1454.5999999642372","stim/yes_52_ver_w1.png","f","pattern_response","true","f","pattern_73","1454.5999999642372","true","47","","","","","","","","","","","","","","","","","","",""
"","","","","","html-keyboard-response","128","251543","0.0-2.0-7.0-0.14","5dd0440659b1b01317872cf0","F1","batch6","","null","<p class=block-text>Trial 54 out of 78</p>","null","pattern_show_trial_num","","","","","","","","","","","","","","","","","","","","","","","","",""
"","","","","","image-keyboard-response","129","254133","0.0-2.0-7.0-1.14","5dd0440659b1b01317872cf0","F1","batch6","","2589.899999976158","stim/no_26_1_w.png","j","pattern_response","true","j","pattern_10","2589.899999976158","true","48","","","","","","","","","","","","","","","","","","",""
"","","","","","html-keyboard-response","130","255442","0.0-2.0-7.0-0.15","5dd0440659b1b01317872cf0","F1","batch6","","null","<p class=block-text>Trial 55 out of 78</p>","null","pattern_show_trial_num","","","","","","","","","","","","","","","","","","","","","","","","",""
"","","","","","image-keyboard-response","131","256465","0.0-2.0-7.0-1.15","5dd0440659b1b01317872cf0","F1","batch6","","1022.1999999880791","stim/yes_31_hor_b1.png","f","pattern_response","true","f","pattern_55","1022.1999999880791","true","49","","","","","","","","","","","","","","","","","","",""
"","","","","","html-keyboard-response","132","257772","0.0-2.0-7.0-0.16","5dd0440659b1b01317872cf0","F1","batch6","","null","<p class=block-text>Trial 56 out of 78</p>","null","pattern_show_trial_num","","","","","","","","","","","","","","","","","","","","","","","","",""
"","","","","","image-keyboard-response","133","258608","0.0-2.0-7.0-1.16","5dd0440659b1b01317872cf0","F1","batch6","","835.3000000119209","stim/yes_22_ver_w1.png","f","pattern_response","true","f","pattern_47","835.3000000119209","true","50","","","","","","","","","","","","","","","","","","",""
"","","","","","html-keyboard-response","134","259915","0.0-2.0-7.0-0.17","5dd0440659b1b01317872cf0","F1","batch6","","null","<p class=block-text>Trial 57 out of 78</p>","null","pattern_show_trial_num","","","","","","","","","","","","","","","","","","","","","","","","",""
"","","","","","image-keyboard-response","135","260941","0.0-2.0-7.0-1.17","5dd0440659b1b01317872cf0","F1","batch6","","1025.199999988079","stim/yes_35_dia_b1.png","f","pattern_response","true","f","pattern_57","1025.199999988079","true","51","","","","","","","","","","","","","","","","","","",""
"","","","","","html-keyboard-response","136","262256","0.0-2.0-7.0-0.18","5dd0440659b1b01317872cf0","F1","batch6","","null","<p class=block-text>Trial 58 out of 78</p>","null","pattern_show_trial_num","","","","","","","","","","","","","","","","","","","","","","","","",""
"","","","","","image-keyboard-response","137","263083","0.0-2.0-7.0-1.18","5dd0440659b1b01317872cf0","F1","batch6","","826","stim/yes_28_ver_b1.png","f","pattern_response","true","f","pattern_51","826","true","52","","","","","","","","","","","","","","","","","","",""
"","","","","","html-keyboard-response","138","264388","0.0-2.0-7.0-0.19","5dd0440659b1b01317872cf0","F1","batch6","","null","<p class=block-text>Trial 59 out of 78</p>","null","pattern_show_trial_num","","","","","","","","","","","","","","","","","","","","","","","","",""
"","","","","","image-keyboard-response","139","267936","0.0-2.0-7.0-1.19","5dd0440659b1b01317872cf0","F1","batch6","","3546.5","stim/no_36_2_w.png","j","pattern_response","true","j","pattern_18","3546.5","true","53","","","","","","","","","","","","","","","","","","",""
"","","","","","html-keyboard-response","140","269244","0.0-2.0-7.0-0.20","5dd0440659b1b01317872cf0","F1","batch6","","null","<p class=block-text>Trial 60 out of 78</p>","null","pattern_show_trial_num","","","","","","","","","","","","","","","","","","","","","","","","",""
"","","","","","image-keyboard-response","141","270771","0.0-2.0-7.0-1.20","5dd0440659b1b01317872cf0","F1","batch6","","1527","stim/no_13_2_b.png","j","pattern_response","true","j","pattern_02","1527","true","54","","","","","","","","","","","","","","","","","","",""
"","","","","","html-keyboard-response","142","272102","0.0-2.0-7.0-0.21","5dd0440659b1b01317872cf0","F1","batch6","","null","<p class=block-text>Trial 61 out of 78</p>","null","pattern_show_trial_num","","","","","","","","","","","","","","","","","","","","","","","","",""
"","","","","","image-keyboard-response","143","274175","0.0-2.0-7.0-1.21","5dd0440659b1b01317872cf0","F1","batch6","","2073.2000000476837","stim/yes_17_dia_w1.png","f","pattern_response","true","f","pattern_45","2073.2000000476837","true","55","","","","","","","","","","","","","","","","","","",""
"","","","","","html-keyboard-response","144","275488","0.0-2.0-7.0-0.22","5dd0440659b1b01317872cf0","F1","batch6","","null","<p class=block-text>Trial 62 out of 78</p>","null","pattern_show_trial_num","","","","","","","","","","","","","","","","","","","","","","","","",""
"","","","","","image-keyboard-response","145","279344","0.0-2.0-7.0-1.22","5dd0440659b1b01317872cf0","F1","batch6","","3854.899999976158","stim/no_65_1_b.png","j","pattern_response","true","j","pattern_38","3854.899999976158","true","56","","","","","","","","","","","","","","","","","","",""
"","","","","","html-keyboard-response","146","280664","0.0-2.0-7.0-0.23","5dd0440659b1b01317872cf0","F1","batch6","","null","<p class=block-text>Trial 63 out of 78</p>","null","pattern_show_trial_num","","","","","","","","","","","","","","","","","","","","","","","","",""
"","","","","","image-keyboard-response","147","282999","0.0-2.0-7.0-1.23","5dd0440659b1b01317872cf0","F1","batch6","","2333.2000000476837","stim/yes_40_dia_b1_b.png","j","pattern_response","false","f","pattern_63","2333.2000000476837","false","56","","","","","","","","","","","","","","","","","","",""
"","","","","","html-keyboard-response","148","284308","0.0-2.0-7.0-0.24","5dd0440659b1b01317872cf0","F1","batch6","","null","<p class=block-text>Trial 64 out of 78</p>","null","pattern_show_trial_num","","","","","","","","","","","","","","","","","","","","","","","","",""
"","","","","","image-keyboard-response","149","287095","0.0-2.0-7.0-1.24","5dd0440659b1b01317872cf0","F1","batch6","","2787.399999976158","stim/no_55_1_w.png","j","pattern_response","true","j","pattern_34","2787.399999976158","true","57","","","","","","","","","","","","","","","","","","",""
"","","","","","html-keyboard-response","150","288399","0.0-2.0-7.0-0.25","5dd0440659b1b01317872cf0","F1","batch6","","null","<p class=block-text>Trial 65 out of 78</p>","null","pattern_show_trial_num","","","","","","","","","","","","","","","","","","","","","","","","",""
"","","","","","image-keyboard-response","151","292201","0.0-2.0-7.0-1.25","5dd0440659b1b01317872cf0","F1","batch6","","3800.2999999523163","stim/yes_48_dia_w1_w.png","j","pattern_response","false","f","pattern_69","3800.2999999523163","false","57","","","","","","","","","","","","","","","","","","",""
"","","","","","html-keyboard-response","152","293516","0.0-2.0-7.0-0.26","5dd0440659b1b01317872cf0","F1","batch6","","null","<p class=block-text>Trial 66 out of 78</p>","null","pattern_show_trial_num","","","","","","","","","","","","","","","","","","","","","","","","",""
"","","","","","image-keyboard-response","153","296297","0.0-2.0-7.0-1.26","5dd0440659b1b01317872cf0","F1","batch6","","2780.800000011921","stim/yes_60_ver_b1_b.png","f","pattern_response","true","f","pattern_77","2780.800000011921","true","58","","","","","","","","","","","","","","","","","","",""
"","","","","","html-keyboard-response","154","297609","0.0-2.0-7.0-0.27","5dd0440659b1b01317872cf0","F1","batch6","","null","<p class=block-text>Trial 67 out of 78</p>","null","pattern_show_trial_num","","","","","","","","","","","","","","","","","","","","","","","","",""
"","","","","","image-keyboard-response","155","300456","0.0-2.0-7.0-1.27","5dd0440659b1b01317872cf0","F1","batch6","","2847.100000023842","stim/yes_50_dia_w1.png","j","pattern_response","false","f","pattern_71","2847.100000023842","false","58","","","","","","","","","","","","","","","","","","",""
"","","","","","html-keyboard-response","156","301771","0.0-2.0-7.0-0.28","5dd0440659b1b01317872cf0","F1","batch6","","null","<p class=block-text>Trial 68 out of 78</p>","null","pattern_show_trial_num","","","","","","","","","","","","","","","","","","","","","","","","",""
"","","","","","image-keyboard-response","157","303735","0.0-2.0-7.0-1.28","5dd0440659b1b01317872cf0","F1","batch6","","1963.0999999642372","stim/yes_43_ver_w1_w.png","f","pattern_response","true","f","pattern_65","1963.0999999642372","true","59","","","","","","","","","","","","","","","","","","",""
"","","","","","html-keyboard-response","158","305051","0.0-2.0-7.0-0.29","5dd0440659b1b01317872cf0","F1","batch6","","null","<p class=block-text>Trial 69 out of 78</p>","null","pattern_show_trial_num","","","","","","","","","","","","","","","","","","","","","","","","",""
"","","","","","image-keyboard-response","159","308336","0.0-2.0-7.0-1.29","5dd0440659b1b01317872cf0","F1","batch6","","3284","stim/no_46_1_b.png","j","pattern_response","true","j","pattern_26","3284","true","60","","","","","","","","","","","","","","","","","","",""
"","","","","","html-keyboard-response","160","309653","0.0-2.0-7.0-0.30","5dd0440659b1b01317872cf0","F1","batch6","","null","<p class=block-text>Trial 70 out of 78</p>","null","pattern_show_trial_num","","","","","","","","","","","","","","","","","","","","","","","","",""
"","","","","","image-keyboard-response","161","311613","0.0-2.0-7.0-1.30","5dd0440659b1b01317872cf0","F1","batch6","","1958.9000000357628","stim/no_32_1_w.png","j","pattern_response","true","j","pattern_14","1958.9000000357628","true","61","","","","","","","","","","","","","","","","","","",""
"","","","","","html-keyboard-response","162","312921","0.0-2.0-7.0-0.31","5dd0440659b1b01317872cf0","F1","batch6","","null","<p class=block-text>Trial 71 out of 78</p>","null","pattern_show_trial_num","","","","","","","","","","","","","","","","","","","","","","","","",""
"","","","","","image-keyboard-response","163","316467","0.0-2.0-7.0-1.31","5dd0440659b1b01317872cf0","F1","batch6","","3545.699999988079","stim/no_38_1_b.png","j","pattern_response","true","j","pattern_20","3545.699999988079","true","62","","","","","","","","","","","","","","","","","","",""
"","","","","","html-keyboard-response","164","317779","0.0-2.0-7.0-0.32","5dd0440659b1b01317872cf0","F1","batch6","","null","<p class=block-text>Trial 72 out of 78</p>","null","pattern_show_trial_num","","","","","","","","","","","","","","","","","","","","","","","","",""
"","","","","","image-keyboard-response","165","319301","0.0-2.0-7.0-1.32","5dd0440659b1b01317872cf0","F1","batch6","","1522.199999988079","stim/no_17_1_w.png","j","pattern_response","true","j","pattern_04","1522.199999988079","true","63","","","","","","","","","","","","","","","","","","",""
"","","","","","html-keyboard-response","166","320610","0.0-2.0-7.0-0.33","5dd0440659b1b01317872cf0","F1","batch6","","null","<p class=block-text>Trial 73 out of 78</p>","null","pattern_show_trial_num","","","","","","","","","","","","","","","","","","","","","","","","",""
"","","","","","image-keyboard-response","167","324028","0.0-2.0-7.0-1.33","5dd0440659b1b01317872cf0","F1","batch6","","3417.699999988079","stim/yes_37_dia_w1.png","j","pattern_response","false","f","pattern_59","3417.699999988079","false","63","","","","","","","","","","","","","","","","","","",""
"","","","","","html-keyboard-response","168","325341","0.0-2.0-7.0-0.34","5dd0440659b1b01317872cf0","F1","batch6","","null","<p class=block-text>Trial 74 out of 78</p>","null","pattern_show_trial_num","","","","","","","","","","","","","","","","","","","","","","","","",""
"","","","","","image-keyboard-response","169","328250","0.0-2.0-7.0-1.34","5dd0440659b1b01317872cf0","F1","batch6","","2908.900000035763","stim/no_50_1.png","j","pattern_response","true","j","pattern_30","2908.900000035763","true","64","","","","","","","","","","","","","","","","","","",""
"","","","","","html-keyboard-response","170","329566","0.0-2.0-7.0-0.35","5dd0440659b1b01317872cf0","F1","batch6","","null","<p class=block-text>Trial 75 out of 78</p>","null","pattern_show_trial_num","","","","","","","","","","","","","","","","","","","","","","","","",""
"","","","","","image-keyboard-response","171","333103","0.0-2.0-7.0-1.35","5dd0440659b1b01317872cf0","F1","batch6","","3536.600000023842","stim/no_44_1.png","j","pattern_response","true","j","pattern_24","3536.600000023842","true","65","","","","","","","","","","","","","","","","","","",""
"","","","","","html-keyboard-response","172","334422","0.0-2.0-7.0-0.36","5dd0440659b1b01317872cf0","F1","batch6","","null","<p class=block-text>Trial 76 out of 78</p>","null","pattern_show_trial_num","","","","","","","","","","","","","","","","","","","","","","","","",""
"","","","","","image-keyboard-response","173","336948","0.0-2.0-7.0-1.36","5dd0440659b1b01317872cf0","F1","batch6","","2525.100000023842","stim/no_48_1_w.png","j","pattern_response","true","j","pattern_28","2525.100000023842","true","66","","","","","","","","","","","","","","","","","","",""
"","","","","","html-keyboard-response","174","338263","0.0-2.0-7.0-0.37","5dd0440659b1b01317872cf0","F1","batch6","","null","<p class=block-text>Trial 77 out of 78</p>","null","pattern_show_trial_num","","","","","","","","","","","","","","","","","","","","","","","","",""
"","","","","","image-keyboard-response","175","341044","0.0-2.0-7.0-1.37","5dd0440659b1b01317872cf0","F1","batch6","","2781.099999964237","stim/no_34_1_b.png","j","pattern_response","true","j","pattern_16","2781.099999964237","true","67","","","","","","","","","","","","","","","","","","",""
"","","","","","html-keyboard-response","176","342361","0.0-2.0-7.0-0.38","5dd0440659b1b01317872cf0","F1","batch6","","null","<p class=block-text>Trial 78 out of 78</p>","null","pattern_show_trial_num","","","","","","","","","","","","","","","","","","","","","","","","",""
"","","","","","image-keyboard-response","177","345456","0.0-2.0-7.0-1.38","5dd0440659b1b01317872cf0","F1","batch6","","3094.7999999523163","stim/no_52_1.png","j","pattern_response","true","j","pattern_32","3094.7999999523163","true","68","","","","","","","","","","","","","","","","","","",""
"","","","","","html-button-response","178","350469","0.0-2.0-8.0","5dd0440659b1b01317872cf0","F1","batch6","","4507.599999964237","<p class = block-text>This concludes the 4-in-a-row detection game.Thank you for your responses!<br>
            You responded correctly on 87% of the trials.<br>
            When you are ready, press ""Continue"" button to continue </p>","0","","","","","","","","","","","","","","","","","","","","","","","","","",""
"true","","","","","fullscreen","179","418951","0.0-3.0-0.0","5dd0440659b1b01317872cf0","F1","batch6","","","","","spm_fullscreen","","","","","","","","","","","","","","","","","","","","","","","","",""
"","","","","","html-button-response","180","434951","0.0-3.0-1.0","5dd0440659b1b01317872cf0","F1","batch6","","16000.099999964237","<p class = block-text><b>Instructions</b> <br>This is a widely used intelligence test in research. <br>In this test, a figure with a missing piece will be presented.<br>Below the figure are alternative pieces to complete the figure, only one of which is correct.<br> Different figures might involve different principles for obtaining the missing piece<br>Your job is to select the most logical piece to complete the figure.</p>","0","","","","","","","","","","","","","","","","","","","","","","","","","",""
"","","","","","html-keyboard-response","181","435758","0.0-3.0-2.0-0.0","5dd0440659b1b01317872cf0","F1","batch6","","null","<p class=block-text>Trial 1 out of 60</p>","null","spm_show_trial_num","","","","","","","","","","","","","","","","","","","","","","","","",""
"","","","","","image-button-response","182","442053","0.0-3.0-2.0-1.0","5dd0440659b1b01317872cf0","F1","batch6","","6293.400000035763","img/question_1_1.jpeg","5","spm_respsonse","0","4","mat_01","","","","","","0","6293.400000035763","","","","","","","","","","","","","","",""
"","","","","","html-keyboard-response","183","443119","0.0-3.0-2.0-0.1","5dd0440659b1b01317872cf0","F1","batch6","","null","<p class=block-text>Trial 2 out of 60</p>","null","spm_show_trial_num","","","","","","","","","","","","","","","","","","","","","","","","",""
"","","","","","image-button-response","184","446520","0.0-3.0-2.0-1.1","5dd0440659b1b01317872cf0","F1","batch6","","3399.899999976158","img/question_1_2.jpeg","4","spm_respsonse","1","5","mat_02","","","","","","1","3399.899999976158","","","","","","","","","","","","","","",""
"","","","","","html-keyboard-response","185","447578","0.0-3.0-2.0-0.2","5dd0440659b1b01317872cf0","F1","batch6","","null","<p class=block-text>Trial 3 out of 60</p>","null","spm_show_trial_num","","","","","","","","","","","","","","","","","","","","","","","","",""
"","","","","","image-button-response","186","450705","0.0-3.0-2.0-1.2","5dd0440659b1b01317872cf0","F1","batch6","","3126.800000011921","img/question_1_3.jpeg","0","spm_respsonse","1","1","mat_03","","","","","","1","3126.800000011921","","","","","","","","","","","","","","",""
"","","","","","html-keyboard-response","187","451770","0.0-3.0-2.0-0.3","5dd0440659b1b01317872cf0","F1","batch6","","null","<p class=block-text>Trial 4 out of 60</p>","null","spm_show_trial_num","","","","","","","","","","","","","","","","","","","","","","","","",""
"","","","","","image-button-response","188","454220","0.0-3.0-2.0-1.3","5dd0440659b1b01317872cf0","F1","batch6","","2449.199999988079","img/question_1_4.jpeg","1","spm_respsonse","1","2","mat_04","","","","","","1","2449.199999988079","","","","","","","","","","","","","","",""
"","","","","","html-keyboard-response","189","455275","0.0-3.0-2.0-0.4","5dd0440659b1b01317872cf0","F1","batch6","","null","<p class=block-text>Trial 5 out of 60</p>","null","spm_show_trial_num","","","","","","","","","","","","","","","","","","","","","","","","",""
"","","","","","image-button-response","190","459000","0.0-3.0-2.0-1.4","5dd0440659b1b01317872cf0","F1","batch6","","3723.699999988079","img/question_1_5.jpeg","5","spm_respsonse","1","6","mat_05","","","","","","1","3723.699999988079","","","","","","","","","","","","","","",""
"","","","","","html-keyboard-response","191","460055","0.0-3.0-2.0-0.5","5dd0440659b1b01317872cf0","F1","batch6","","null","<p class=block-text>Trial 6 out of 60</p>","null","spm_show_trial_num","","","","","","","","","","","","","","","","","","","","","","","","",""
"","","","","","image-button-response","192","465450","0.0-3.0-2.0-1.5","5dd0440659b1b01317872cf0","F1","batch6","","5394","img/question_1_6.jpeg","2","spm_respsonse","1","3","mat_06","","","","","","1","5394","","","","","","","","","","","","","","",""
"","","","","","html-keyboard-response","193","466513","0.0-3.0-2.0-0.6","5dd0440659b1b01317872cf0","F1","batch6","","null","<p class=block-text>Trial 7 out of 60</p>","null","spm_show_trial_num","","","","","","","","","","","","","","","","","","","","","","","","",""
"","","","","","image-button-response","194","469639","0.0-3.0-2.0-1.6","5dd0440659b1b01317872cf0","F1","batch6","","3124.400000035763","img/question_1_7.jpeg","5","spm_respsonse","1","6","mat_07","","","","","","1","3124.400000035763","","","","","","","","","","","","","","",""
"","","","","","html-keyboard-response","195","470700","0.0-3.0-2.0-0.7","5dd0440659b1b01317872cf0","F1","batch6","","null","<p class=block-text>Trial 8 out of 60</p>","null","spm_show_trial_num","","","","","","","","","","","","","","","","","","","","","","","","",""
"","","","","","image-button-response","196","476132","0.0-3.0-2.0-1.7","5dd0440659b1b01317872cf0","F1","batch6","","5431","img/question_1_8.jpeg","1","spm_respsonse","1","2","mat_08","","","","","","1","5431","","","","","","","","","","","","","","",""
"","","","","","html-keyboard-response","197","477197","0.0-3.0-2.0-0.8","5dd0440659b1b01317872cf0","F1","batch6","","null","<p class=block-text>Trial 9 out of 60</p>","null","spm_show_trial_num","","","","","","","","","","","","","","","","","","","","","","","","",""
"","","","","","image-button-response","198","481743","0.0-3.0-2.0-1.8","5dd0440659b1b01317872cf0","F1","batch6","","4544.699999988079","img/question_1_9.jpeg","0","spm_respsonse","1","1","mat_09","","","","","","1","4544.699999988079","","","","","","","","","","","","","","",""
"","","","","","html-keyboard-response","199","482800","0.0-3.0-2.0-0.9","5dd0440659b1b01317872cf0","F1","batch6","","null","<p class=block-text>Trial 10 out of 60</p>","null","spm_show_trial_num","","","","","","","","","","","","","","","","","","","","","","","","",""
"","","","","","image-button-response","200","488095","0.0-3.0-2.0-1.9","5dd0440659b1b01317872cf0","F1","batch6","","5294.399999976158","img/question_1_10.jpeg","2","spm_respsonse","1","3","mat_10","","","","","","1","5294.399999976158","","","","","","","","","","","","","","",""
"","","","","","html-keyboard-response","201","489148","0.0-3.0-2.0-0.10","5dd0440659b1b01317872cf0","F1","batch6","","null","<p class=block-text>Trial 11 out of 60</p>","null","spm_show_trial_num","","","","","","","","","","","","","","","","","","","","","","","","",""
"","","","","","image-button-response","202","497794","0.0-3.0-2.0-1.10","5dd0440659b1b01317872cf0","F1","batch6","","8645","img/question_1_11.jpeg","3","spm_respsonse","1","4","mat_11","","","","","","1","8645","","","","","","","","","","","","","","",""
"","","","","","html-keyboard-response","203","498845","0.0-3.0-2.0-0.11","5dd0440659b1b01317872cf0","F1","batch6","","null","<p class=block-text>Trial 12 out of 60</p>","null","spm_show_trial_num","","","","","","","","","","","","","","","","","","","","","","","","",""
"","","","","","image-button-response","204","510481","0.0-3.0-2.0-1.11","5dd0440659b1b01317872cf0","F1","batch6","","11634.800000011921","img/question_1_12.jpeg","5","spm_respsonse","0","5","mat_12","","","","","","0","11634.800000011921","","","","","","","","","","","","","","",""
"","","","","","html-keyboard-response","205","511537","0.0-3.0-2.0-0.12","5dd0440659b1b01317872cf0","F1","batch6","","null","<p class=block-text>Trial 13 out of 60</p>","null","spm_show_trial_num","","","","","","","","","","","","","","","","","","","","","","","","",""
"","","","","","image-button-response","206","513458","0.0-3.0-2.0-1.12","5dd0440659b1b01317872cf0","F1","batch6","","1919.5999999642372","img/question_2_1.jpeg","1","spm_respsonse","1","2","mat_13","","","","","","1","1919.5999999642372","","","","","","","","","","","","","","",""
"","","","","","html-keyboard-response","207","514510","0.0-3.0-2.0-0.13","5dd0440659b1b01317872cf0","F1","batch6","","null","<p class=block-text>Trial 14 out of 60</p>","null","spm_show_trial_num","","","","","","","","","","","","","","","","","","","","","","","","",""
"","","","","","image-button-response","208","519209","0.0-3.0-2.0-1.13","5dd0440659b1b01317872cf0","F1","batch6","","4697.899999976158","img/question_2_2.jpeg","5","spm_respsonse","1","6","mat_14","","","","","","1","4697.899999976158","","","","","","","","","","","","","","",""
"","","","","","html-keyboard-response","209","520260","0.0-3.0-2.0-0.14","5dd0440659b1b01317872cf0","F1","batch6","","null","<p class=block-text>Trial 15 out of 60</p>","null","spm_show_trial_num","","","","","","","","","","","","","","","","","","","","","","","","",""
"","","","","","image-button-response","210","523923","0.0-3.0-2.0-1.14","5dd0440659b1b01317872cf0","F1","batch6","","3662","img/question_2_3.jpeg","0","spm_respsonse","1","1","mat_15","","","","","","1","3662","","","","","","","","","","","","","","",""
"","","","","","html-keyboard-response","211","524975","0.0-3.0-2.0-0.15","5dd0440659b1b01317872cf0","F1","batch6","","null","<p class=block-text>Trial 16 out of 60</p>","null","spm_show_trial_num","","","","","","","","","","","","","","","","","","","","","","","","",""
"","","","","","image-button-response","212","528240","0.0-3.0-2.0-1.15","5dd0440659b1b01317872cf0","F1","batch6","","3263.800000011921","img/question_2_4.jpeg","1","spm_respsonse","1","2","mat_16","","","","","","1","3263.800000011921","","","","","","","","","","","","","","",""
"","","","","","html-keyboard-response","213","529291","0.0-3.0-2.0-0.16","5dd0440659b1b01317872cf0","F1","batch6","","null","<p class=block-text>Trial 17 out of 60</p>","null","spm_show_trial_num","","","","","","","","","","","","","","","","","","","","","","","","",""
"","","","","","image-button-response","214","532980","0.0-3.0-2.0-1.16","5dd0440659b1b01317872cf0","F1","batch6","","3687.300000011921","img/question_2_5.jpeg","0","spm_respsonse","1","1","mat_17","","","","","","1","3687.300000011921","","","","","","","","","","","","","","",""
"","","","","","html-keyboard-response","215","534037","0.0-3.0-2.0-0.17","5dd0440659b1b01317872cf0","F1","batch6","","null","<p class=block-text>Trial 18 out of 60</p>","null","spm_show_trial_num","","","","","","","","","","","","","","","","","","","","","","","","",""
"","","","","","image-button-response","216","538537","0.0-3.0-2.0-1.17","5dd0440659b1b01317872cf0","F1","batch6","","4499.600000023842","img/question_2_6.jpeg","2","spm_respsonse","1","3","mat_18","","","","","","1","4499.600000023842","","","","","","","","","","","","","","",""
"","","","","","html-keyboard-response","217","539603","0.0-3.0-2.0-0.18","5dd0440659b1b01317872cf0","F1","batch6","","null","<p class=block-text>Trial 19 out of 60</p>","null","spm_show_trial_num","","","","","","","","","","","","","","","","","","","","","","","","",""
"","","","","","image-button-response","218","544031","0.0-3.0-2.0-1.18","5dd0440659b1b01317872cf0","F1","batch6","","4427.199999988079","img/question_2_7.jpeg","4","spm_respsonse","1","5","mat_19","","","","","","1","4427.199999988079","","","","","","","","","","","","","","",""
"","","","","","html-keyboard-response","219","545083","0.0-3.0-2.0-0.19","5dd0440659b1b01317872cf0","F1","batch6","","null","<p class=block-text>Trial 20 out of 60</p>","null","spm_show_trial_num","","","","","","","","","","","","","","","","","","","","","","","","",""
"","","","","","image-button-response","220","553403","0.0-3.0-2.0-1.19","5dd0440659b1b01317872cf0","F1","batch6","","8319.300000011921","img/question_2_8.jpeg","4","spm_respsonse","0","6","mat_20","","","","","","0","8319.300000011921","","","","","","","","","","","","","","",""
"","","","","","html-keyboard-response","221","554454","0.0-3.0-2.0-0.20","5dd0440659b1b01317872cf0","F1","batch6","","null","<p class=block-text>Trial 21 out of 60</p>","null","spm_show_trial_num","","","","","","","","","","","","","","","","","","","","","","","","",""
"","","","","","image-button-response","222","558181","0.0-3.0-2.0-1.20","5dd0440659b1b01317872cf0","F1","batch6","","3725.7000000476837","img/question_2_9.jpeg","3","spm_respsonse","1","4","mat_21","","","","","","1","3725.7000000476837","","","","","","","","","","","","","","",""
"","","","","","html-keyboard-response","223","559236","0.0-3.0-2.0-0.21","5dd0440659b1b01317872cf0","F1","batch6","","null","<p class=block-text>Trial 22 out of 60</p>","null","spm_show_trial_num","","","","","","","","","","","","","","","","","","","","","","","","",""
"","","","","","image-button-response","224","564991","0.0-3.0-2.0-1.21","5dd0440659b1b01317872cf0","F1","batch6","","5753.699999988079","img/question_2_10.jpeg","2","spm_respsonse","1","3","mat_22","","","","","","1","5753.699999988079","","","","","","","","","","","","","","",""
"","","","","","html-keyboard-response","225","566048","0.0-3.0-2.0-0.22","5dd0440659b1b01317872cf0","F1","batch6","","null","<p class=block-text>Trial 23 out of 60</p>","null","spm_show_trial_num","","","","","","","","","","","","","","","","","","","","","","","","",""
"","","","","","image-button-response","226","570763","0.0-3.0-2.0-1.22","5dd0440659b1b01317872cf0","F1","batch6","","4713.5","img/question_2_11.jpeg","3","spm_respsonse","1","4","mat_23","","","","","","1","4713.5","","","","","","","","","","","","","","",""
"","","","","","html-keyboard-response","227","571817","0.0-3.0-2.0-0.23","5dd0440659b1b01317872cf0","F1","batch6","","null","<p class=block-text>Trial 24 out of 60</p>","null","spm_show_trial_num","","","","","","","","","","","","","","","","","","","","","","","","",""
"","","","","","image-button-response","228","593462","0.0-3.0-2.0-1.23","5dd0440659b1b01317872cf0","F1","batch6","","21643.5","img/question_2_12.jpeg","4","spm_respsonse","1","5","mat_24","","","","","","1","21643.5","","","","","","","","","","","","","","",""
"","","","","","html-button-response","229","595336","0.0-3.0-3.0","5dd0440659b1b01317872cf0","F1","batch6","","1621.699999988079","<p class = block-text>Attention check: Please choose 1<br></p>","0","attention_check","true","","","","","","","","","","","","","","","","","","","","","","","",""
"","","","","","html-keyboard-response","230","596137","0.0-3.0-4.0-0.0","5dd0440659b1b01317872cf0","F1","batch6","","null","<p class=block-text>Trial 25 out of 60</p>","null","spm_show_trial_num","","","","","","","","","","","","","","","","","","","","","","","","",""
"","","","","","image-button-response","231","598783","0.0-3.0-4.0-1.0","5dd0440659b1b01317872cf0","F1","batch6","","2645.100000023842","img/question_3_1.jpeg","7","spm_respsonse","1","8","mat_25","","","","","","1","2645.100000023842","","","","","","","","","","","","","","",""
"","","","","","html-keyboard-response","232","599847","0.0-3.0-4.0-0.1","5dd0440659b1b01317872cf0","F1","batch6","","null","<p class=block-text>Trial 26 out of 60</p>","null","spm_show_trial_num","","","","","","","","","","","","","","","","","","","","","","","","",""
"","","","","","image-button-response","233","606108","0.0-3.0-4.0-1.1","5dd0440659b1b01317872cf0","F1","batch6","","6259.900000035763","img/question_3_2.jpeg","1","spm_respsonse","1","2","mat_26","","","","","","1","6259.900000035763","","","","","","","","","","","","","","",""
"","","","","","html-keyboard-response","234","607170","0.0-3.0-4.0-0.2","5dd0440659b1b01317872cf0","F1","batch6","","null","<p class=block-text>Trial 27 out of 60</p>","null","spm_show_trial_num","","","","","","","","","","","","","","","","","","","","","","","","",""
"","","","","","image-button-response","235","623808","0.0-3.0-4.0-1.2","5dd0440659b1b01317872cf0","F1","batch6","","16636.899999976158","img/question_3_3.jpeg","2","spm_respsonse","1","3","mat_27","","","","","","1","16636.899999976158","","","","","","","","","","","","","","",""
"","","","","","html-keyboard-response","236","624860","0.0-3.0-4.0-0.3","5dd0440659b1b01317872cf0","F1","batch6","","null","<p class=block-text>Trial 28 out of 60</p>","null","spm_show_trial_num","","","","","","","","","","","","","","","","","","","","","","","","",""
"","","","","","image-button-response","237","636285","0.0-3.0-4.0-1.3","5dd0440659b1b01317872cf0","F1","batch6","","11424.399999976158","img/question_3_4.jpeg","7","spm_respsonse","1","8","mat_28","","","","","","1","11424.399999976158","","","","","","","","","","","","","","",""
"","","","","","html-keyboard-response","238","637346","0.0-3.0-4.0-0.4","5dd0440659b1b01317872cf0","F1","batch6","","null","<p class=block-text>Trial 29 out of 60</p>","null","spm_show_trial_num","","","","","","","","","","","","","","","","","","","","","","","","",""
"","","","","","image-button-response","239","645741","0.0-3.0-4.0-1.4","5dd0440659b1b01317872cf0","F1","batch6","","8393.599999964237","img/question_3_5.jpeg","6","spm_respsonse","1","7","mat_29","","","","","","1","8393.599999964237","","","","","","","","","","","","","","",""
"","","","","","html-keyboard-response","240","646791","0.0-3.0-4.0-0.5","5dd0440659b1b01317872cf0","F1","batch6","","null","<p class=block-text>Trial 30 out of 60</p>","null","spm_show_trial_num","","","","","","","","","","","","","","","","","","","","","","","","",""
"","","","","","image-button-response","241","654801","0.0-3.0-4.0-1.5","5dd0440659b1b01317872cf0","F1","batch6","","8008.600000023842","img/question_3_6.jpeg","7","spm_respsonse","0","4","mat_30","","","","","","0","8008.600000023842","","","","","","","","","","","","","","",""
"","","","","","html-keyboard-response","242","655855","0.0-3.0-4.0-0.6","5dd0440659b1b01317872cf0","F1","batch6","","null","<p class=block-text>Trial 31 out of 60</p>","null","spm_show_trial_num","","","","","","","","","","","","","","","","","","","","","","","","",""
"","","","","","image-button-response","243","678999","0.0-3.0-4.0-1.6","5dd0440659b1b01317872cf0","F1","batch6","","23144.200000047684","img/question_3_7.jpeg","4","spm_respsonse","1","5","mat_31","","","","","","1","23144.200000047684","","","","","","","","","","","","","","",""
"","","","","","html-keyboard-response","244","680059","0.0-3.0-4.0-0.7","5dd0440659b1b01317872cf0","F1","batch6","","null","<p class=block-text>Trial 32 out of 60</p>","null","spm_show_trial_num","","","","","","","","","","","","","","","","","","","","","","","","",""
"","","","","","image-button-response","245","699255","0.0-3.0-4.0-1.7","5dd0440659b1b01317872cf0","F1","batch6","","19194.80000001192","img/question_3_8.jpeg","6","spm_respsonse","0","1","mat_32","","","","","","0","19194.80000001192","","","","","","","","","","","","","","",""
"","","","","","html-keyboard-response","246","700322","0.0-3.0-4.0-0.8","5dd0440659b1b01317872cf0","F1","batch6","","null","<p class=block-text>Trial 33 out of 60</p>","null","spm_show_trial_num","","","","","","","","","","","","","","","","","","","","","","","","",""
"","","","","","image-button-response","247","724609","0.0-3.0-4.0-1.8","5dd0440659b1b01317872cf0","F1","batch6","","24286.30000001192","img/question_3_9.jpeg","5","spm_respsonse","0","7","mat_33","","","","","","0","24286.30000001192","","","","","","","","","","","","","","",""
"","","","","","html-keyboard-response","248","725677","0.0-3.0-4.0-0.9","5dd0440659b1b01317872cf0","F1","batch6","","null","<p class=block-text>Trial 34 out of 60</p>","null","spm_show_trial_num","","","","","","","","","","","","","","","","","","","","","","","","",""
"","","","","","image-button-response","249","734816","0.0-3.0-4.0-1.9","5dd0440659b1b01317872cf0","F1","batch6","","9138.300000011921","img/question_3_10.jpeg","3","spm_respsonse","0","6","mat_34","","","","","","0","9138.300000011921","","","","","","","","","","","","","","",""
"","","","","","html-keyboard-response","250","735871","0.0-3.0-4.0-0.10","5dd0440659b1b01317872cf0","F1","batch6","","null","<p class=block-text>Trial 35 out of 60</p>","null","spm_show_trial_num","","","","","","","","","","","","","","","","","","","","","","","","",""
"","","","","","image-button-response","251","748004","0.0-3.0-4.0-1.10","5dd0440659b1b01317872cf0","F1","batch6","","12131.100000023842","img/question_3_11.jpeg","4","spm_respsonse","0","1","mat_35","","","","","","0","12131.100000023842","","","","","","","","","","","","","","",""
"","","","","","html-keyboard-response","252","749067","0.0-3.0-4.0-0.11","5dd0440659b1b01317872cf0","F1","batch6","","null","<p class=block-text>Trial 36 out of 60</p>","null","spm_show_trial_num","","","","","","","","","","","","","","","","","","","","","","","","",""
"","","","","","image-button-response","253","760739","0.0-3.0-4.0-1.11","5dd0440659b1b01317872cf0","F1","batch6","","11671.800000011921","img/question_3_12.jpeg","7","spm_respsonse","0","2","mat_36","","","","","","0","11671.800000011921","","","","","","","","","","","","","","",""
"","","","","","html-keyboard-response","254","761802","0.0-3.0-4.0-0.12","5dd0440659b1b01317872cf0","F1","batch6","","null","<p class=block-text>Trial 37 out of 60</p>","null","spm_show_trial_num","","","","","","","","","","","","","","","","","","","","","","","","",""
"","","","","","image-button-response","255","766525","0.0-3.0-4.0-1.12","5dd0440659b1b01317872cf0","F1","batch6","","4722.800000011921","img/question_4_1.jpeg","2","spm_respsonse","1","3","mat_37","","","","","","1","4722.800000011921","","","","","","","","","","","","","","",""
"","","","","","html-keyboard-response","256","767594","0.0-3.0-4.0-0.13","5dd0440659b1b01317872cf0","F1","batch6","","null","<p class=block-text>Trial 38 out of 60</p>","null","spm_show_trial_num","","","","","","","","","","","","","","","","","","","","","","","","",""
"","","","","","image-button-response","257","773199","0.0-3.0-4.0-1.13","5dd0440659b1b01317872cf0","F1","batch6","","5604.800000011921","img/question_4_2.jpeg","3","spm_respsonse","1","4","mat_38","","","","","","1","5604.800000011921","","","","","","","","","","","","","","",""
"","","","","","html-keyboard-response","258","774261","0.0-3.0-4.0-0.14","5dd0440659b1b01317872cf0","F1","batch6","","null","<p class=block-text>Trial 39 out of 60</p>","null","spm_show_trial_num","","","","","","","","","","","","","","","","","","","","","","","","",""
"","","","","","image-button-response","259","792443","0.0-3.0-4.0-1.14","5dd0440659b1b01317872cf0","F1","batch6","","18181.30000001192","img/question_4_3.jpeg","2","spm_respsonse","1","3","mat_39","","","","","","1","18181.30000001192","","","","","","","","","","","","","","",""
"","","","","","html-keyboard-response","260","793512","0.0-3.0-4.0-0.15","5dd0440659b1b01317872cf0","F1","batch6","","null","<p class=block-text>Trial 40 out of 60</p>","null","spm_show_trial_num","","","","","","","","","","","","","","","","","","","","","","","","",""
"","","","","","image-button-response","261","803054","0.0-3.0-4.0-1.15","5dd0440659b1b01317872cf0","F1","batch6","","9541.5","img/question_4_4.jpeg","6","spm_respsonse","1","7","mat_40","","","","","","1","9541.5","","","","","","","","","","","","","","",""
"","","","","","html-keyboard-response","262","804117","0.0-3.0-4.0-0.16","5dd0440659b1b01317872cf0","F1","batch6","","null","<p class=block-text>Trial 41 out of 60</p>","null","spm_show_trial_num","","","","","","","","","","","","","","","","","","","","","","","","",""
"","","","","","image-button-response","263","823632","0.0-3.0-4.0-1.16","5dd0440659b1b01317872cf0","F1","batch6","","19512.30000001192","img/question_4_5.jpeg","7","spm_respsonse","1","8","mat_41","","","","","","1","19512.30000001192","","","","","","","","","","","","","","",""
"","","","","","html-keyboard-response","264","824694","0.0-3.0-4.0-0.17","5dd0440659b1b01317872cf0","F1","batch6","","null","<p class=block-text>Trial 42 out of 60</p>","null","spm_show_trial_num","","","","","","","","","","","","","","","","","","","","","","","","",""
"","","","","","image-button-response","265","886344","0.0-3.0-4.0-1.17","5dd0440659b1b01317872cf0","F1","batch6","","61649.19999998808","img/question_4_6.jpeg","2","spm_respsonse","0","6","mat_42","","","","","","0","61649.19999998808","","","","","","","","","","","","","","",""
"","","","","","html-keyboard-response","266","887408","0.0-3.0-4.0-0.18","5dd0440659b1b01317872cf0","F1","batch6","","null","<p class=block-text>Trial 43 out of 60</p>","null","spm_show_trial_num","","","","","","","","","","","","","","","","","","","","","","","","",""
"","","","","","image-button-response","267","899772","0.0-3.0-4.0-1.18","5dd0440659b1b01317872cf0","F1","batch6","","12362.699999988079","img/question_4_7.jpeg","3","spm_respsonse","0","5","mat_43","","","","","","0","12362.699999988079","","","","","","","","","","","","","","",""
"","","","","","html-keyboard-response","268","900834","0.0-3.0-4.0-0.19","5dd0440659b1b01317872cf0","F1","batch6","","null","<p class=block-text>Trial 44 out of 60</p>","null","spm_show_trial_num","","","","","","","","","","","","","","","","","","","","","","","","",""
"","","","","","image-button-response","269","911919","0.0-3.0-4.0-1.19","5dd0440659b1b01317872cf0","F1","batch6","","11083.800000011921","img/question_4_8.jpeg","4","spm_respsonse","0","4","mat_44","","","","","","0","11083.800000011921","","","","","","","","","","","","","","",""
"","","","","","html-keyboard-response","270","912979","0.0-3.0-4.0-0.20","5dd0440659b1b01317872cf0","F1","batch6","","null","<p class=block-text>Trial 45 out of 60</p>","null","spm_show_trial_num","","","","","","","","","","","","","","","","","","","","","","","","",""
"","","","","","image-button-response","271","925203","0.0-3.0-4.0-1.20","5dd0440659b1b01317872cf0","F1","batch6","","12223.100000023842","img/question_4_9.jpeg","0","spm_respsonse","1","1","mat_45","","","","","","1","12223.100000023842","","","","","","","","","","","","","","",""
"","","","","","html-keyboard-response","272","926255","0.0-3.0-4.0-0.21","5dd0440659b1b01317872cf0","F1","batch6","","null","<p class=block-text>Trial 46 out of 60</p>","null","spm_show_trial_num","","","","","","","","","","","","","","","","","","","","","","","","",""
"","","","","","image-button-response","273","931830","0.0-3.0-4.0-1.21","5dd0440659b1b01317872cf0","F1","batch6","","5574.900000035763","img/question_4_10.jpeg","5","spm_respsonse","0","2","mat_46","","","","","","0","5574.900000035763","","","","","","","","","","","","","","",""
"","","","","","html-keyboard-response","274","932882","0.0-3.0-4.0-0.22","5dd0440659b1b01317872cf0","F1","batch6","","null","<p class=block-text>Trial 47 out of 60</p>","null","spm_show_trial_num","","","","","","","","","","","","","","","","","","","","","","","","",""
"","","","","","image-button-response","275","933802","0.0-3.0-4.0-1.22","5dd0440659b1b01317872cf0","F1","batch6","","918.5","img/question_4_11.jpeg","2","spm_respsonse","0","5","mat_47","","","","","","0","918.5","","","","","","","","","","","","","","",""
"","","","","","html-keyboard-response","276","934853","0.0-3.0-4.0-0.23","5dd0440659b1b01317872cf0","F1","batch6","","null","<p class=block-text>Trial 48 out of 60</p>","null","spm_show_trial_num","","","","","","","","","","","","","","","","","","","","","","","","",""
"","","","","","image-button-response","277","936654","0.0-3.0-4.0-1.23","5dd0440659b1b01317872cf0","F1","batch6","","1799.699999988079","img/question_4_12.jpeg","6","spm_respsonse","0","6","mat_48","","","","","","0","1799.699999988079","","","","","","","","","","","","","","",""
"","","","","","html-keyboard-response","278","937705","0.0-3.0-4.0-0.24","5dd0440659b1b01317872cf0","F1","batch6","","null","<p class=block-text>Trial 49 out of 60</p>","null","spm_show_trial_num","","","","","","","","","","","","","","","","","","","","","","","","",""
"","","","","","image-button-response","279","939868","0.0-3.0-4.0-1.24","5dd0440659b1b01317872cf0","F1","batch6","","2162.100000023842","img/question_5_1.jpeg","0","spm_respsonse","0","7","mat_49","","","","","","0","2162.100000023842","","","","","","","","","","","","","","",""
"","","","","","html-keyboard-response","280","940919","0.0-3.0-4.0-0.25","5dd0440659b1b01317872cf0","F1","batch6","","null","<p class=block-text>Trial 50 out of 60</p>","null","spm_show_trial_num","","","","","","","","","","","","","","","","","","","","","","","","",""
"","","","","","image-button-response","281","962908","0.0-3.0-4.0-1.25","5dd0440659b1b01317872cf0","F1","batch6","","21988.600000023842","img/question_5_2.jpeg","3","spm_respsonse","0","6","mat_50","","","","","","0","21988.600000023842","","","","","","","","","","","","","","",""
"","","","","","html-keyboard-response","282","963965","0.0-3.0-4.0-0.26","5dd0440659b1b01317872cf0","F1","batch6","","null","<p class=block-text>Trial 51 out of 60</p>","null","spm_show_trial_num","","","","","","","","","","","","","","","","","","","","","","","","",""
"","","","","","image-button-response","283","966569","0.0-3.0-4.0-1.26","5dd0440659b1b01317872cf0","F1","batch6","","2603.600000023842","img/question_5_3.jpeg","0","spm_respsonse","0","8","mat_51","","","","","","0","2603.600000023842","","","","","","","","","","","","","","",""
"","","","","","html-keyboard-response","284","967634","0.0-3.0-4.0-0.27","5dd0440659b1b01317872cf0","F1","batch6","","null","<p class=block-text>Trial 52 out of 60</p>","null","spm_show_trial_num","","","","","","","","","","","","","","","","","","","","","","","","",""
"","","","","","image-button-response","285","977267","0.0-3.0-4.0-1.27","5dd0440659b1b01317872cf0","F1","batch6","","9629.900000035763","img/question_5_4.jpeg","1","spm_respsonse","1","2","mat_52","","","","","","1","9629.900000035763","","","","","","","","","","","","","","",""
"","","","","","html-keyboard-response","286","978337","0.0-3.0-4.0-0.28","5dd0440659b1b01317872cf0","F1","batch6","","null","<p class=block-text>Trial 53 out of 60</p>","null","spm_show_trial_num","","","","","","","","","","","","","","","","","","","","","","","","",""
"","","","","","image-button-response","287","981607","0.0-3.0-4.0-1.28","5dd0440659b1b01317872cf0","F1","batch6","","3268.600000023842","img/question_5_5.jpeg","2","spm_respsonse","0","1","mat_53","","","","","","0","3268.600000023842","","","","","","","","","","","","","","",""
"","","","","","html-keyboard-response","288","982673","0.0-3.0-4.0-0.29","5dd0440659b1b01317872cf0","F1","batch6","","null","<p class=block-text>Trial 54 out of 60</p>","null","spm_show_trial_num","","","","","","","","","","","","","","","","","","","","","","","","",""
"","","","","","image-button-response","289","988085","0.0-3.0-4.0-1.29","5dd0440659b1b01317872cf0","F1","batch6","","5411.599999964237","img/question_5_6.jpeg","6","spm_respsonse","0","5","mat_54","","","","","","0","5411.599999964237","","","","","","","","","","","","","","",""
"","","","","","html-keyboard-response","290","989137","0.0-3.0-4.0-0.30","5dd0440659b1b01317872cf0","F1","batch6","","null","<p class=block-text>Trial 55 out of 60</p>","null","spm_show_trial_num","","","","","","","","","","","","","","","","","","","","","","","","",""
"","","","","","image-button-response","291","999026","0.0-3.0-4.0-1.30","5dd0440659b1b01317872cf0","F1","batch6","","9888.5","img/question_5_7.jpeg","7","spm_respsonse","0","1","mat_55","","","","","","0","9888.5","","","","","","","","","","","","","","",""
"","","","","","html-keyboard-response","292","1000092","0.0-3.0-4.0-0.31","5dd0440659b1b01317872cf0","F1","batch6","","null","<p class=block-text>Trial 56 out of 60</p>","null","spm_show_trial_num","","","","","","","","","","","","","","","","","","","","","","","","",""
"","","","","","image-button-response","293","1003572","0.0-3.0-4.0-1.31","5dd0440659b1b01317872cf0","F1","batch6","","3478.5","img/question_5_8.jpeg","7","spm_respsonse","0","6","mat_56","","","","","","0","3478.5","","","","","","","","","","","","","","",""
"","","","","","html-keyboard-response","294","1004623","0.0-3.0-4.0-0.32","5dd0440659b1b01317872cf0","F1","batch6","","null","<p class=block-text>Trial 57 out of 60</p>","null","spm_show_trial_num","","","","","","","","","","","","","","","","","","","","","","","","",""
"","","","","","image-button-response","295","1009329","0.0-3.0-4.0-1.32","5dd0440659b1b01317872cf0","F1","batch6","","4704.699999988079","img/question_5_9.jpeg","3","spm_respsonse","0","3","mat_57","","","","","","0","4704.699999988079","","","","","","","","","","","","","","",""
"","","","","","html-keyboard-response","296","1010392","0.0-3.0-4.0-0.33","5dd0440659b1b01317872cf0","F1","batch6","","null","<p class=block-text>Trial 58 out of 60</p>","null","spm_show_trial_num","","","","","","","","","","","","","","","","","","","","","","","","",""
"","","","","","image-button-response","297","1015270","0.0-3.0-4.0-1.33","5dd0440659b1b01317872cf0","F1","batch6","","4876.099999964237","img/question_5_10.jpeg","0","spm_respsonse","0","2","mat_58","","","","","","0","4876.099999964237","","","","","","","","","","","","","","",""
"","","","","","html-keyboard-response","298","1016342","0.0-3.0-4.0-0.34","5dd0440659b1b01317872cf0","F1","batch6","","null","<p class=block-text>Trial 59 out of 60</p>","null","spm_show_trial_num","","","","","","","","","","","","","","","","","","","","","","","","",""
"","","","","","image-button-response","299","1023622","0.0-3.0-4.0-1.34","5dd0440659b1b01317872cf0","F1","batch6","","7278.099999964237","img/question_5_11.jpeg","4","spm_respsonse","0","4","mat_59","","","","","","0","7278.099999964237","","","","","","","","","","","","","","",""
"","","","","","html-keyboard-response","300","1024686","0.0-3.0-4.0-0.35","5dd0440659b1b01317872cf0","F1","batch6","","null","<p class=block-text>Trial 60 out of 60</p>","null","spm_show_trial_num","","","","","","","","","","","","","","","","","","","","","","","","",""
"","","","","","image-button-response","301","1027489","0.0-3.0-4.0-1.35","5dd0440659b1b01317872cf0","F1","batch6","","2801.2999999523163","img/question_5_12.jpeg","1","spm_respsonse","0","5","mat_60","","","","","","0","2801.2999999523163","","","","","","","","","","","","","","",""
"","","","","","html-button-response","302","1029262","0.0-3.0-5.0","5dd0440659b1b01317872cf0","F1","batch6","","1522","<p class= block-text>This concludes the Standard Progressive Matrix game. Thank you for your responses!<br> When you are ready, click the button continue</p>","0","spm_goodbye","","","","","","","","","","","","","","","","","","","","","","","","",""
"true","","","","","fullscreen","303","1106457","0.0-4.0-0.0","5dd0440659b1b01317872cf0","F1","batch6","","","","","","","","","","","","","","","","","","","","","","","","","","","","","",""
"","","","","","instructions","304","1192702","0.0-4.0-1.0-0.0-0.0","5dd0440659b1b01317872cf0","F1","batch6","[{""page_index"":0,""viewing_time"":49092.200000047684},{""page_index"":1,""viewing_time"":23776.799999952316},{""page_index"":2,""viewing_time"":5028.200000047684},{""page_index"":3,""viewing_time"":1291},{""page_index"":4,""viewing_time"":664.0999999642372},{""page_index"":5,""viewing_time"":5426},{""page_index"":6,""viewing_time"":966.1000000238419}]","86244.5","","","tol-instructions","","","","","","","","","","","","","","","","","","","","","","","","",""
"","","","","","html-button-response","305","1196587","0.0-4.0-1.0-1.0-0.0","5dd0440659b1b01317872cf0","F1","batch6","","3884.199999988079","<p class=block-text> Let's answer a few questions <br>","0","tol_enter_quiz","","","","","","","","","","","","","","","","","","","","","","","","",""
"","","","","","html-button-response","306","1199912","0.0-4.0-1.0-1.0-1.0","5dd0440659b1b01317872cf0","F1","batch6","","3324.599999964237","<p class = block-text>True or False: You can only move the ball on top of a peg. <br></p>","1","tol_quiz","false","","","","","","","","","","","","","","","","","","","","","","","",""
"","","","","","html-button-response","307","1202304","0.0-4.0-1.0-1.0-2.0","5dd0440659b1b01317872cf0","F1","batch6","","2391","<p class = block-text>Incorrect. Remember, you can only move the ball on top of a peg.</p>","0","tol_quiz_feedback","","","","","","","","","","","","","","","","","","","","","","","","",""
"","","","","","html-button-response","308","1204450","0.0-4.0-1.0-1.0-3.0","5dd0440659b1b01317872cf0","F1","batch6","","2145.5","<p class = block-text>True or False: You should try to match your board with the target board with fewest moves possible. <br></p>","0","tol_quiz","true","","","","","","","","","","","","","","","","","","","","","","","",""
"","","","","","html-button-response","309","1209427","0.0-4.0-1.0-1.0-4.0","5dd0440659b1b01317872cf0","F1","batch6","","4976.400000035763","<p class = block-text>Correct! </p>","0","tol_quiz_feedback","","","","","","","","","","","","","","","","","","","","","","","","",""
"","","","","","html-button-response","310","1212253","0.0-4.0-1.0-2.0-0.0","5dd0440659b1b01317872cf0","F1","batch6","","2825.2000000476837","<p class = block-text>You made too many incorrect choices.</p><p class = block-text>You will now repeat the instructions and quiz</p>","0","","","","","","","","","","","","","","","","","","","","","","","","","",""
"","","","","","instructions","311","1216977","0.0-4.0-1.1-0.1-0.1","5dd0440659b1b01317872cf0","F1","batch6","[{""page_index"":0,""viewing_time"":941.3999999761581},{""page_index"":1,""viewing_time"":520.9000000357628},{""page_index"":2,""viewing_time"":498},{""page_index"":3,""viewing_time"":404},{""page_index"":4,""viewing_time"":420.89999997615814},{""page_index"":5,""viewing_time"":506.10000002384186},{""page_index"":6,""viewing_time"":1432}]","4723.399999976158","","","tol-instructions","","","","","","","","","","","","","","","","","","","","","","","","",""
"","","","","","html-button-response","312","1218286","0.0-4.0-1.1-1.1-0.1","5dd0440659b1b01317872cf0","F1","batch6","","1308.5999999642372","<p class=block-text> Let's answer a few questions <br>","0","tol_enter_quiz","","","","","","","","","","","","","","","","","","","","","","","","",""
"","","","","","html-button-response","313","1220193","0.0-4.0-1.1-1.1-1.1","5dd0440659b1b01317872cf0","F1","batch6","","1906.5","<p class = block-text>True or False: You can only move the ball on top of a peg. <br></p>","0","tol_quiz","true","","","","","","","","","","","","","","","","","","","","","","","",""
"","","","","","html-button-response","314","1221010","0.0-4.0-1.1-1.1-2.1","5dd0440659b1b01317872cf0","F1","batch6","","816.3999999761581","<p class = block-text>Correct! You can only move the ball on top of a peg.</p>","0","tol_quiz_feedback","","","","","","","","","","","","","","","","","","","","","","","","",""
"","","","","","html-button-response","315","1223085","0.0-4.0-1.1-1.1-3.1","5dd0440659b1b01317872cf0","F1","batch6","","2074.399999976158","<p class = block-text>True or False: You should try to match your board with the target board with fewest moves possible. <br></p>","0","tol_quiz","true","","","","","","","","","","","","","","","","","","","","","","","",""
"","","","","","html-button-response","316","1224462","0.0-4.0-1.1-1.1-4.1","5dd0440659b1b01317872cf0","F1","batch6","","1376.7000000476837","<p class = block-text>Correct! </p>","0","tol_quiz_feedback","","","","","","","","","","","","","","","","","","","","","","","","",""
"","","","","","html-button-response","317","1233572","0.0-4.0-2.0","5dd0440659b1b01317872cf0","F1","batch6","","9109.699999988079","<p class=block-text> Now that you've understood the game, let's practice a few easier examples before we start!<br> <br>","0","","","","","","","","","","","","","","","","","","","","","","","","","",""
"","","","","","single-stim-button","318","1238803","0.0-4.0-3.0-0.0","5dd0440659b1b01317872cf0","F1","batch6","","5229","","","tol_practice","","","","","","","","","","","tol_peg_2","5229","5229","0","[[1,2,0],[0,0],[0]]","1","[[1,2,0],[0,0],[3]]","practice","5229","","","","","",""
"","","","","","single-stim-button","319","1239876","0.0-4.0-3.0-1.0","5dd0440659b1b01317872cf0","F1","batch6","","1073","","","tol_practice","","","","","","","","","","","tol_peg_3","1073","1073","0","[[1,2,0],[0,0],[3]]","1","[[1,2,0],[0,0],[3]]","practice","1073","","","","","",""
"","","","","","poldrack-single-stim","320","1240877","0.0-4.0-4.0","5dd0440659b1b01317872cf0","F1","batch6","","-1","","","tol_feedback","true","","","","","","","","","","","1000","1000","500","","","","","","-1","none","true","","0",""
"","","","","","single-stim-button","321","1242976","0.0-4.0-5.0-0.0","5dd0440659b1b01317872cf0","F1","batch6","","2099","","","tol_practice","","","","","","","","","","","tol_peg_1","2099","2099","0","[[1,0,0],[3,0],[0]]","2","[[0,0,0],[3,1],[2]]","practice","2099","","","","","",""
"","","","","","single-stim-button","322","1244118","0.0-4.0-5.0-1.0","5dd0440659b1b01317872cf0","F1","batch6","","1142","","","tol_practice","","","","","","","","","","","tol_peg_3","1142","1142","0","[[1,0,0],[3,0],[2]]","2","[[0,0,0],[3,1],[2]]","practice","1142","","","","","",""
"","","","","","single-stim-button","323","1244873","0.0-4.0-5.1-0.1","5dd0440659b1b01317872cf0","F1","batch6","","755","","","tol_practice","","","","","","","","","","","tol_peg_1","755","755","0","[[0,0,0],[3,0],[2]]","3","[[0,0,0],[3,1],[2]]","practice","755","","","","","",""
"","","","","","single-stim-button","324","1245445","0.0-4.0-5.1-1.1","5dd0440659b1b01317872cf0","F1","batch6","","572","","","tol_practice","","","","","","","","","","","tol_peg_2","572","572","0","[[0,0,0],[3,1],[2]]","3","[[0,0,0],[3,1],[2]]","practice","572","","","","","",""
"","","","","","poldrack-single-stim","325","1246451","0.0-4.0-6.0","5dd0440659b1b01317872cf0","F1","batch6","","-1","","","tol_feedback","true","","","","","","","","","","","1000","1000","500","","","","","","-1","none","true","","0",""
"","","","","","single-stim-button","326","1249091","0.0-4.0-7.0-0.0","5dd0440659b1b01317872cf0","F1","batch6","","2639","","","tol_practice","","","","","","","","","","","tol_peg_2","2639","2639","0","[[1,2,0],[0,0],[0]]","4","[[1,0,0],[2,0],[3]]","practice","2639","","","","","",""
"","","","","","single-stim-button","327","1249814","0.0-4.0-7.0-1.0","5dd0440659b1b01317872cf0","F1","batch6","","723","","","tol_practice","","","","","","","","","","","tol_peg_3","723","723","0","[[1,2,0],[0,0],[3]]","4","[[1,0,0],[2,0],[3]]","practice","723","","","","","",""
"","","","","","single-stim-button","328","1250264","0.0-4.0-7.1-0.1","5dd0440659b1b01317872cf0","F1","batch6","","450","","","tol_practice","","","","","","","","","","","tol_peg_1","450","450","0","[[1,0,0],[0,0],[3]]","5","[[1,0,0],[2,0],[3]]","practice","450","","","","","",""
"","","","","","single-stim-button","329","1250661","0.0-4.0-7.1-1.1","5dd0440659b1b01317872cf0","F1","batch6","","397","","","tol_practice","","","","","","","","","","","tol_peg_2","397","397","0","[[1,0,0],[2,0],[3]]","5","[[1,0,0],[2,0],[3]]","practice","397","","","","","",""
"","","","","","poldrack-single-stim","330","1251662","0.0-4.0-8.0","5dd0440659b1b01317872cf0","F1","batch6","","-1","","","tol_feedback","true","","","","","","","","","","","1000","1000","500","","","","","","-1","none","true","","0",""
"","","","","","html-button-response","331","1256061","0.0-4.0-9.0","5dd0440659b1b01317872cf0","F1","batch6","","4398.399999976158","<div class = centerbox><p class = center-block-text>Great job! You are done with practice trials<br>You are about to start official trials.<br> <br> Problem <strong>1</strong> out of 25 problems</p></div>","0","tol_instruction","","","","","","","","","","","","","","","","","","","","","","","","",""
"","","","","","single-stim-button","332","1266897","0.0-4.0-10.0-0.0","5dd0440659b1b01317872cf0","F1","batch6","","9827","","","tol_tohand","","","","","","","","","","","tol_peg_1","9827","9827","0","[[1,0,0],[3,0],[0]]","1","[[1,3,0],[2,0],[0]]","0","0","","","","","","3"
"","","","","","single-stim-button","333","1267523","0.0-4.0-10.0-1.0","5dd0440659b1b01317872cf0","F1","batch6","","626","","","tol_toboard","","","","","","","","","","","tol_peg_3","626","626","0","[[1,0,0],[3,0],[2]]","1","[[1,3,0],[2,0],[0]]","0","0","","","","","","3"
"","","","","","single-stim-button","334","1268027","0.0-4.0-10.1-0.1","5dd0440659b1b01317872cf0","F1","batch6","","504","","","tol_tohand","","","","","","","","","","","tol_peg_2","504","504","0","[[1,0,0],[0,0],[2]]","2","[[1,3,0],[2,0],[0]]","0","0","","","","","","3"
"","","","","","single-stim-button","335","1268416","0.0-4.0-10.1-1.1","5dd0440659b1b01317872cf0","F1","batch6","","389","","","tol_toboard","","","","","","","","","","","tol_peg_1","389","389","0","[[1,3,0],[0,0],[2]]","2","[[1,3,0],[2,0],[0]]","0","0","","","","","","3"
"","","","","","single-stim-button","336","1269846","0.0-4.0-10.2-0.2","5dd0440659b1b01317872cf0","F1","batch6","","1430","","","tol_tohand","","","","","","","","","","","tol_peg_3","1430","1430","0","[[1,3,0],[0,0],[0]]","3","[[1,3,0],[2,0],[0]]","0","0","","","","","","3"
"","","","","","single-stim-button","337","1270377","0.0-4.0-10.2-1.2","5dd0440659b1b01317872cf0","F1","batch6","","531","","","tol_toboard","","","","","","","","","","","tol_peg_2","531","531","0","[[1,3,0],[2,0],[0]]","3","[[1,3,0],[2,0],[0]]","0","0","","","","","","3"
"","","","","","poldrack-single-stim","338","1271379","0.0-4.0-11.0","5dd0440659b1b01317872cf0","F1","batch6","","-1","","","tol_feedback","true","","","","","","","","","","","1000","1000","500","","","","","","-1","none","true","9827","11761",""
"","","","","","html-button-response","339","1272328","0.0-4.0-12.0","5dd0440659b1b01317872cf0","F1","batch6","","948.6999999880791","<div class = centerbox><p class = center-block-text>problem <strong>2</strong> out of 25 problems</p></div>","0","tol_trial_num","","","","","","","","","","","","","","","","","","","","","","","","",""
"","","","","","single-stim-button","340","1274530","0.0-4.0-13.0-0.0","5dd0440659b1b01317872cf0","F1","batch6","","2202","","","tol_tohand","","","","","","","","","","","tol_peg_1","2202","2202","0","[[1,0,0],[3,0],[0]]","1","[[2,1,3],[0,0],[0]]","1","0","","","","","","5"
"","","","","","single-stim-button","341","1275799","0.0-4.0-13.0-1.0","5dd0440659b1b01317872cf0","F1","batch6","","1269","","","tol_toboard","","","","","","","","","","","tol_peg_3","1269","1269","0","[[1,0,0],[3,0],[2]]","1","[[2,1,3],[0,0],[0]]","1","0","","","","","","5"
"","","","","","single-stim-button","342","1276409","0.0-4.0-13.1-0.1","5dd0440659b1b01317872cf0","F1","batch6","","610","","","tol_tohand","","","","","","","","","","","tol_peg_1","610","610","0","[[0,0,0],[3,0],[2]]","2","[[2,1,3],[0,0],[0]]","1","0","","","","","","5"
"","","","","","single-stim-button","343","1281313","0.0-4.0-13.1-1.1","5dd0440659b1b01317872cf0","F1","batch6","","4904","","","tol_toboard","","","","","","","","","","","tol_peg_2","4904","4904","0","[[0,0,0],[3,1],[2]]","2","[[2,1,3],[0,0],[0]]","1","0","","","","","","5"
"","","","","","single-stim-button","344","1282099","0.0-4.0-13.2-0.2","5dd0440659b1b01317872cf0","F1","batch6","","786","","","tol_tohand","","","","","","","","","","","tol_peg_3","786","786","0","[[0,0,0],[3,1],[0]]","3","[[2,1,3],[0,0],[0]]","1","0","","","","","","5"
"","","","","","single-stim-button","345","1282667","0.0-4.0-13.2-1.2","5dd0440659b1b01317872cf0","F1","batch6","","568","","","tol_toboard","","","","","","","","","","","tol_peg_1","568","568","0","[[2,0,0],[3,1],[0]]","3","[[2,1,3],[0,0],[0]]","1","0","","","","","","5"
