"success","timeout","failed_images","failed_audio","failed_video","trial_type","trial_index","time_elapsed","internal_node_id","subject_id","study_id","session_id","view_history","rt","stimulus","response","task","correct","answer","item","fiar_detect_rt","fiar_detect_correct","total_correct_fiar_detect","post_trial_gap","choices","mouse_click","stim_duration","block_duration","timing_post_trial","current_position","tol_num_moves_made","tol_target","tol_problem_id","tol_rt","key_press","possible_responses","tol_correct","preplanning","tol_rt_per_trial","tol_min_moves","spm_correct","spm_rt"
"true","false","[]","[]","[]","preload","0","1069","0.0-0.0","5dd1919051c6d2208e27fbc1","F1","batch6","","","","","","","","","","","","","","","","","","","","","","","","","","","","","",""
"true","","","","","fullscreen","1","12349","0.0-1.0-0.0","5dd1919051c6d2208e27fbc1","F1","batch6","","","","","","","","","","","","","","","","","","","","","","","","","","","","","",""
"true","","","","","fullscreen","2","21991","0.0-2.0-0.0","5dd1919051c6d2208e27fbc1","F1","batch6","","","","","","","","","","","","","","","","","","","","","","","","","","","","","",""
"","","","","","instructions","3","65904","0.0-2.0-1.0-0.0","5dd1919051c6d2208e27fbc1","F1","batch6","[{""page_index"":0,""viewing_time"":18110.400000000373},{""page_index"":1,""viewing_time"":25801.900000000373}]","43912.5","","","","","","","","","","","","","","","","","","","","","","","","","","","",""
"","","","","","html-button-response","4","68242","0.0-2.0-1.0-1.0-0.0","5dd1919051c6d2208e27fbc1","F1","batch6","","2337.300000000745","<p class=block-text> Let's answer a few questions <br>","0","pattern_enter_quiz","","","","","","","","","","","","","","","","","","","","","","","","",""
"","","","","","html-button-response","5","73584","0.0-2.0-1.0-1.0-1.0","5dd1919051c6d2208e27fbc1","F1","batch6","","5341","<p class = block-text>True or False: You will have as much time as you want to make each choice. <br></p>","1","pattern_quiz","true","","","","","","","","","","","","","","","","","","","","","","","",""
"","","","","","html-button-response","6","76142","0.0-2.0-1.0-1.0-2.0","5dd1919051c6d2208e27fbc1","F1","batch6","","2557.0999999996275","<p class = block-text>Correct! You should make your choice <strong> as fast as you can</strong>.</p>","0","pattern_quiz_feedback","","","","","","","","","","","","","","","","","","","","","","","","",""
"","","","","","html-button-response","7","81898","0.0-2.0-1.0-1.0-3.0","5dd1919051c6d2208e27fbc1","F1","batch6","","5755.4000000003725","<p class = block-text>True or False: You will look for 4 pieces in black or white color connected in a row either horizontally, vertically or diagonally. <br></p>","0","pattern_quiz","true","","","","","","","","","","","","","","","","","","","","","","","",""
"","","","","","html-button-response","8","83442","0.0-2.0-1.0-1.0-4.0","5dd1919051c6d2208e27fbc1","F1","batch6","","1543.800000000745","<p class = block-text>Correct! </p>","0","pattern_quiz_feedback","","","","","","","","","","","","","","","","","","","","","","","","",""
"","","","","","html-button-response","9","86776","0.0-2.0-2.0","5dd1919051c6d2208e27fbc1","F1","batch6","","3332.4000000003725","<p class=block-text> Now that you've understood the game, let's do a few practice trials before we start!<br> <br>","0","pattern_enter_practice","","","","","","","","","","","","","","","","","","","","","","","","",""
"","","","","","image-keyboard-response","10","89553","0.0-2.0-3.0-0.0","5dd1919051c6d2208e27fbc1","F1","batch6","","2774.9000000003725","stim/prac_yes_18_hor_w1.png","f","pattern_practice","true","f","","","","","","","","","","","","","","","","","","","","","","",""
"","","","","","html-keyboard-response","11","90576","0.0-2.0-3.0-1.0","5dd1919051c6d2208e27fbc1","F1","batch6","","null","<p style=""font-size:30px;color:green;"">Correct!</p>","null","pattern_feedback","","","","","","","","","","","","","","","","","","","","","","","","",""
"","","","","","image-keyboard-response","12","92622","0.0-2.0-3.0-0.1","5dd1919051c6d2208e27fbc1","F1","batch6","","2045.0999999996275","stim/prac_no_16_1.png","j","pattern_practice","true","j","","","","","","","","","","","","","","","","","","","","","","",""
"","","","","","html-keyboard-response","13","93645","0.0-2.0-3.0-1.1","5dd1919051c6d2208e27fbc1","F1","batch6","","null","<p style=""font-size:30px;color:green;"">Correct!</p>","null","pattern_feedback","","","","","","","","","","","","","","","","","","","","","","","","",""
"","","","","","image-keyboard-response","14","95678","0.0-2.0-3.0-0.2","5dd1919051c6d2208e27fbc1","F1","batch6","","2032.4000000003725","stim/prac_yes_20_dia_b1.png","f","pattern_practice","true","f","","","","","","","","","","","","","","","","","","","","","","",""
"","","","","","html-keyboard-response","15","96700","0.0-2.0-3.0-1.2","5dd1919051c6d2208e27fbc1","F1","batch6","","null","<p style=""font-size:30px;color:green;"">Correct!</p>","null","pattern_feedback","","","","","","","","","","","","","","","","","","","","","","","","",""
"","","","","","image-keyboard-response","16","99198","0.0-2.0-3.0-0.3","5dd1919051c6d2208e27fbc1","F1","batch6","","2497.5999999996275","stim/prac_no_18_1.png","j","pattern_practice","true","j","","","","","","","","","","","","","","","","","","","","","","",""
"","","","","","html-keyboard-response","17","100215","0.0-2.0-3.0-1.3","5dd1919051c6d2208e27fbc1","F1","batch6","","null","<p style=""font-size:30px;color:green;"">Correct!</p>","null","pattern_feedback","","","","","","","","","","","","","","","","","","","","","","","","",""
"","","","","","image-keyboard-response","18","101318","0.0-2.0-3.0-0.4","5dd1919051c6d2208e27fbc1","F1","batch6","","1102.2999999988824","stim/prac_yes_16_ver_w1.png","f","pattern_practice","true","f","","","","","","","","","","","","","","","","","","","","","","",""
"","","","","","html-keyboard-response","19","102346","0.0-2.0-3.0-1.4","5dd1919051c6d2208e27fbc1","F1","batch6","","null","<p style=""font-size:30px;color:green;"">Correct!</p>","null","pattern_feedback","","","","","","","","","","","","","","","","","","","","","","","","",""
"","","","","","html-button-response","20","127908","0.0-2.0-4.0","5dd1919051c6d2208e27fbc1","F1","batch6","","25561.700000001118","<p class=block-text> Good job! You are done with practice trials!<br>
        You responded correctly on 100% of the trials.<br>
        Press the button below to start official trials. Now you won't see any feedback about your response</p>","0","pattern_enter_official_trials","","","","","","","","","","","","","","","","","","","","","","","","",""
"","","","","","html-keyboard-response","21","128719","0.0-2.0-5.0-0.0","5dd1919051c6d2208e27fbc1","F1","batch6","","null","<p class=block-text>Trial 1 out of 78</p>","null","pattern_show_trial_num","","","","","","","","","","","","","","","","","","","","","","","","",""
"","","","","","image-keyboard-response","22","130006","0.0-2.0-5.0-1.0","5dd1919051c6d2208e27fbc1","F1","batch6","","1285.5999999996275","stim/yes_46_ver_b1_b.png","f","pattern_response","true","f","pattern_68","1285.5999999996275","true","1","","","","","","","","","","","","","","","","","","",""
"","","","","","html-keyboard-response","23","131308","0.0-2.0-5.0-0.1","5dd1919051c6d2208e27fbc1","F1","batch6","","null","<p class=block-text>Trial 2 out of 78</p>","null","pattern_show_trial_num","","","","","","","","","","","","","","","","","","","","","","","","",""
"","","","","","image-keyboard-response","24","132182","0.0-2.0-5.0-1.1","5dd1919051c6d2208e27fbc1","F1","batch6","","873.3999999985099","stim/yes_17_ver_b1_b.png","f","pattern_response","true","f","pattern_46","873.3999999985099","true","2","","","","","","","","","","","","","","","","","","",""
"","","","","","html-keyboard-response","25","133489","0.0-2.0-5.0-0.2","5dd1919051c6d2208e27fbc1","F1","batch6","","null","<p class=block-text>Trial 3 out of 78</p>","null","pattern_show_trial_num","","","","","","","","","","","","","","","","","","","","","","","","",""
"","","","","","image-keyboard-response","26","135686","0.0-2.0-5.0-1.2","5dd1919051c6d2208e27fbc1","F1","batch6","","2196.5","stim/no_36_1_b.png","j","pattern_response","true","j","pattern_17","2196.5","true","3","","","","","","","","","","","","","","","","","","",""
"","","","","","html-keyboard-response","27","136987","0.0-2.0-5.0-0.3","5dd1919051c6d2208e27fbc1","F1","batch6","","null","<p class=block-text>Trial 4 out of 78</p>","null","pattern_show_trial_num","","","","","","","","","","","","","","","","","","","","","","","","",""
"","","","","","image-keyboard-response","28","138102","0.0-2.0-5.0-1.3","5dd1919051c6d2208e27fbc1","F1","batch6","","1113.8999999985099","stim/no_12_1.png","j","pattern_response","true","j","pattern_01","1113.8999999985099","true","4","","","","","","","","","","","","","","","","","","",""
"","","","","","html-keyboard-response","29","139415","0.0-2.0-5.0-0.4","5dd1919051c6d2208e27fbc1","F1","batch6","","null","<p class=block-text>Trial 5 out of 78</p>","null","pattern_show_trial_num","","","","","","","","","","","","","","","","","","","","","","","","",""
"","","","","","image-keyboard-response","30","140982","0.0-2.0-5.0-1.4","5dd1919051c6d2208e27fbc1","F1","batch6","","1565.9000000003725","stim/yes_23_ver_b1.png","f","pattern_response","true","f","pattern_48","1565.9000000003725","true","5","","","","","","","","","","","","","","","","","","",""
"","","","","","html-keyboard-response","31","142290","0.0-2.0-5.0-0.5","5dd1919051c6d2208e27fbc1","F1","batch6","","null","<p class=block-text>Trial 6 out of 78</p>","null","pattern_show_trial_num","","","","","","","","","","","","","","","","","","","","","","","","",""
"","","","","","image-keyboard-response","32","143486","0.0-2.0-5.0-1.5","5dd1919051c6d2208e27fbc1","F1","batch6","","1194.699999999255","stim/yes_42_dia_w1_w.png","f","pattern_response","true","f","pattern_64","1194.699999999255","true","6","","","","","","","","","","","","","","","","","","",""
"","","","","","html-keyboard-response","33","144798","0.0-2.0-5.0-0.6","5dd1919051c6d2208e27fbc1","F1","batch6","","null","<p class=block-text>Trial 7 out of 78</p>","null","pattern_show_trial_num","","","","","","","","","","","","","","","","","","","","","","","","",""
"","","","","","image-keyboard-response","34","148134","0.0-2.0-5.0-1.6","5dd1919051c6d2208e27fbc1","F1","batch6","","3335.10000000149","stim/yes_44_ver_w1_w.png","f","pattern_response","true","f","pattern_66","3335.10000000149","true","7","","","","","","","","","","","","","","","","","","",""
"","","","","","html-keyboard-response","35","149441","0.0-2.0-5.0-0.7","5dd1919051c6d2208e27fbc1","F1","batch6","","null","<p class=block-text>Trial 8 out of 78</p>","null","pattern_show_trial_num","","","","","","","","","","","","","","","","","","","","","","","","",""
"","","","","","image-keyboard-response","36","151286","0.0-2.0-5.0-1.7","5dd1919051c6d2208e27fbc1","F1","batch6","","1844","stim/no_22_1_b.png","j","pattern_response","true","j","pattern_07","1844","true","8","","","","","","","","","","","","","","","","","","",""
"","","","","","html-keyboard-response","37","152606","0.0-2.0-5.0-0.8","5dd1919051c6d2208e27fbc1","F1","batch6","","null","<p class=block-text>Trial 9 out of 78</p>","null","pattern_show_trial_num","","","","","","","","","","","","","","","","","","","","","","","","",""
"","","","","","image-keyboard-response","38","155390","0.0-2.0-5.0-1.8","5dd1919051c6d2208e27fbc1","F1","batch6","","2782.5999999996275","stim/no_30_1_b.png","j","pattern_response","true","j","pattern_13","2782.5999999996275","true","9","","","","","","","","","","","","","","","","","","",""
"","","","","","html-keyboard-response","39","156706","0.0-2.0-5.0-0.9","5dd1919051c6d2208e27fbc1","F1","batch6","","null","<p class=block-text>Trial 10 out of 78</p>","null","pattern_show_trial_num","","","","","","","","","","","","","","","","","","","","","","","","",""
"","","","","","image-keyboard-response","40","158997","0.0-2.0-5.0-1.9","5dd1919051c6d2208e27fbc1","F1","batch6","","2290.0999999996275","stim/no_18_1_b.png","j","pattern_response","true","j","pattern_05","2290.0999999996275","true","10","","","","","","","","","","","","","","","","","","",""
"","","","","","html-keyboard-response","41","160300","0.0-2.0-5.0-0.10","5dd1919051c6d2208e27fbc1","F1","batch6","","null","<p class=block-text>Trial 11 out of 78</p>","null","pattern_show_trial_num","","","","","","","","","","","","","","","","","","","","","","","","",""
"","","","","","image-keyboard-response","42","164253","0.0-2.0-5.0-1.10","5dd1919051c6d2208e27fbc1","F1","batch6","","3952.699999999255","stim/no_47_1_b.png","j","pattern_response","true","j","pattern_27","3952.699999999255","true","11","","","","","","","","","","","","","","","","","","",""
"","","","","","html-keyboard-response","43","165570","0.0-2.0-5.0-0.11","5dd1919051c6d2208e27fbc1","F1","batch6","","null","<p class=block-text>Trial 12 out of 78</p>","null","pattern_show_trial_num","","","","","","","","","","","","","","","","","","","","","","","","",""
"","","","","","image-keyboard-response","44","168773","0.0-2.0-5.0-1.11","5dd1919051c6d2208e27fbc1","F1","batch6","","3202.4000000003725","stim/no_33_1_b.png","j","pattern_response","true","j","pattern_15","3202.4000000003725","true","12","","","","","","","","","","","","","","","","","","",""
"","","","","","html-keyboard-response","45","170082","0.0-2.0-5.0-0.12","5dd1919051c6d2208e27fbc1","F1","batch6","","null","<p class=block-text>Trial 13 out of 78</p>","null","pattern_show_trial_num","","","","","","","","","","","","","","","","","","","","","","","","",""
"","","","","","image-keyboard-response","46","172334","0.0-2.0-5.0-1.12","5dd1919051c6d2208e27fbc1","F1","batch6","","2250.7999999988824","stim/yes_53_ver_b1_b.png","f","pattern_response","true","f","pattern_74","2250.7999999988824","true","13","","","","","","","","","","","","","","","","","","",""
"","","","","","html-keyboard-response","47","173641","0.0-2.0-5.0-0.13","5dd1919051c6d2208e27fbc1","F1","batch6","","null","<p class=block-text>Trial 14 out of 78</p>","null","pattern_show_trial_num","","","","","","","","","","","","","","","","","","","","","","","","",""
"","","","","","image-keyboard-response","48","176526","0.0-2.0-5.0-1.13","5dd1919051c6d2208e27fbc1","F1","batch6","","2883.699999999255","stim/no_28_2.png","j","pattern_response","true","j","pattern_11","2883.699999999255","true","14","","","","","","","","","","","","","","","","","","",""
"","","","","","html-keyboard-response","49","177844","0.0-2.0-5.0-0.14","5dd1919051c6d2208e27fbc1","F1","batch6","","null","<p class=block-text>Trial 15 out of 78</p>","null","pattern_show_trial_num","","","","","","","","","","","","","","","","","","","","","","","","",""
"","","","","","image-keyboard-response","50","181190","0.0-2.0-5.0-1.14","5dd1919051c6d2208e27fbc1","F1","batch6","","3344.9000000003725","stim/no_39_1_w.png","j","pattern_response","true","j","pattern_21","3344.9000000003725","true","15","","","","","","","","","","","","","","","","","","",""
"","","","","","html-keyboard-response","51","182510","0.0-2.0-5.0-0.15","5dd1919051c6d2208e27fbc1","F1","batch6","","null","<p class=block-text>Trial 16 out of 78</p>","null","pattern_show_trial_num","","","","","","","","","","","","","","","","","","","","","","","","",""
"","","","","","image-keyboard-response","52","185950","0.0-2.0-5.0-1.15","5dd1919051c6d2208e27fbc1","F1","batch6","","3439","stim/no_37_2_w.png","j","pattern_response","true","j","pattern_19","3439","true","16","","","","","","","","","","","","","","","","","","",""
"","","","","","html-keyboard-response","53","187278","0.0-2.0-5.0-0.16","5dd1919051c6d2208e27fbc1","F1","batch6","","null","<p class=block-text>Trial 17 out of 78</p>","null","pattern_show_trial_num","","","","","","","","","","","","","","","","","","","","","","","","",""
"","","","","","image-keyboard-response","54","193846","0.0-2.0-5.0-1.16","5dd1919051c6d2208e27fbc1","F1","batch6","","6566.800000000745","stim/no_51_1.png","j","pattern_response","true","j","pattern_31","6566.800000000745","true","17","","","","","","","","","","","","","","","","","","",""
"","","","","","html-keyboard-response","55","195168","0.0-2.0-5.0-0.17","5dd1919051c6d2208e27fbc1","F1","batch6","","null","<p class=block-text>Trial 18 out of 78</p>","null","pattern_show_trial_num","","","","","","","","","","","","","","","","","","","","","","","","",""
"","","","","","image-keyboard-response","56","199750","0.0-2.0-5.0-1.17","5dd1919051c6d2208e27fbc1","F1","batch6","","4581.199999999255","stim/no_58_1_w.png","j","pattern_response","true","j","pattern_35","4581.199999999255","true","18","","","","","","","","","","","","","","","","","","",""
"","","","","","html-keyboard-response","57","201063","0.0-2.0-5.0-0.18","5dd1919051c6d2208e27fbc1","F1","batch6","","null","<p class=block-text>Trial 19 out of 78</p>","null","pattern_show_trial_num","","","","","","","","","","","","","","","","","","","","","","","","",""
"","","","","","image-keyboard-response","58","203286","0.0-2.0-5.0-1.18","5dd1919051c6d2208e27fbc1","F1","batch6","","2221.2999999988824","stim/yes_36_ver_w1_w.png","f","pattern_response","true","f","pattern_58","2221.2999999988824","true","19","","","","","","","","","","","","","","","","","","",""
"","","","","","html-keyboard-response","59","204599","0.0-2.0-5.0-0.19","5dd1919051c6d2208e27fbc1","F1","batch6","","null","<p class=block-text>Trial 20 out of 78</p>","null","pattern_show_trial_num","","","","","","","","","","","","","","","","","","","","","","","","",""
"","","","","","image-keyboard-response","60","205590","0.0-2.0-5.0-1.19","5dd1919051c6d2208e27fbc1","F1","batch6","","990.1999999992549","stim/yes_39_hor_w1_w.png","f","pattern_response","true","f","pattern_62","990.1999999992549","true","20","","","","","","","","","","","","","","","","","","",""
"","","","","","html-keyboard-response","61","206904","0.0-2.0-5.0-0.20","5dd1919051c6d2208e27fbc1","F1","batch6","","null","<p class=block-text>Trial 21 out of 78</p>","null","pattern_show_trial_num","","","","","","","","","","","","","","","","","","","","","","","","",""
"","","","","","image-keyboard-response","62","209030","0.0-2.0-5.0-1.20","5dd1919051c6d2208e27fbc1","F1","batch6","","2125.39999999851","stim/yes_26_dia_w2_w.png","j","pattern_response","false","f","pattern_50","2125.39999999851","false","20","","","","","","","","","","","","","","","","","","",""
"","","","","","html-keyboard-response","63","210334","0.0-2.0-5.0-0.21","5dd1919051c6d2208e27fbc1","F1","batch6","","null","<p class=block-text>Trial 22 out of 78</p>","null","pattern_show_trial_num","","","","","","","","","","","","","","","","","","","","","","","","",""
"","","","","","image-keyboard-response","64","215654","0.0-2.0-5.0-1.21","5dd1919051c6d2208e27fbc1","F1","batch6","","5318.799999998882","stim/yes_58_dia_w1_w.png","j","pattern_response","false","f","pattern_76","5318.799999998882","false","20","","","","","","","","","","","","","","","","","","",""
"","","","","","html-keyboard-response","65","216977","0.0-2.0-5.0-0.22","5dd1919051c6d2208e27fbc1","F1","batch6","","null","<p class=block-text>Trial 23 out of 78</p>","null","pattern_show_trial_num","","","","","","","","","","","","","","","","","","","","","","","","",""
"","","","","","image-keyboard-response","66","218654","0.0-2.0-5.0-1.22","5dd1919051c6d2208e27fbc1","F1","batch6","","1675.9000000003725","stim/yes_51_dia_b1.png","f","pattern_response","true","f","pattern_72","1675.9000000003725","true","21","","","","","","","","","","","","","","","","","","",""
"","","","","","html-keyboard-response","67","219971","0.0-2.0-5.0-0.23","5dd1919051c6d2208e27fbc1","F1","batch6","","null","<p class=block-text>Trial 24 out of 78</p>","null","pattern_show_trial_num","","","","","","","","","","","","","","","","","","","","","","","","",""
"","","","","","image-keyboard-response","68","220918","0.0-2.0-5.0-1.23","5dd1919051c6d2208e27fbc1","F1","batch6","","946.0999999996275","stim/yes_29_hor_b1_b.png","f","pattern_response","true","f","pattern_52","946.0999999996275","true","22","","","","","","","","","","","","","","","","","","",""
"","","","","","html-keyboard-response","69","222227","0.0-2.0-5.0-0.24","5dd1919051c6d2208e27fbc1","F1","batch6","","null","<p class=block-text>Trial 25 out of 78</p>","null","pattern_show_trial_num","","","","","","","","","","","","","","","","","","","","","","","","",""
"","","","","","image-keyboard-response","70","223526","0.0-2.0-5.0-1.24","5dd1919051c6d2208e27fbc1","F1","batch6","","1298.4000000003725","stim/no_15_1_w.png","j","pattern_response","true","j","pattern_03","1298.4000000003725","true","23","","","","","","","","","","","","","","","","","","",""
"","","","","","html-keyboard-response","71","224839","0.0-2.0-5.0-0.25","5dd1919051c6d2208e27fbc1","F1","batch6","","null","<p class=block-text>Trial 26 out of 78</p>","null","pattern_show_trial_num","","","","","","","","","","","","","","","","","","","","","","","","",""
"","","","","","image-keyboard-response","72","225774","0.0-2.0-5.0-1.25","5dd1919051c6d2208e27fbc1","F1","batch6","","933.6999999992549","stim/yes_15_dia_b1u_b.png","f","pattern_response","true","f","pattern_44","933.6999999992549","true","24","","","","","","","","","","","","","","","","","","",""
"","","","","","html-keyboard-response","73","227095","0.0-2.0-5.0-0.26","5dd1919051c6d2208e27fbc1","F1","batch6","","null","<p class=block-text>Trial 27 out of 78</p>","null","pattern_show_trial_num","","","","","","","","","","","","","","","","","","","","","","","","",""
"","","","","","image-keyboard-response","74","228630","0.0-2.0-5.0-1.26","5dd1919051c6d2208e27fbc1","F1","batch6","","1534.199999999255","stim/yes_37_hor_w1_w.png","f","pattern_response","true","f","pattern_60","1534.199999999255","true","25","","","","","","","","","","","","","","","","","","",""
"","","","","","html-keyboard-response","75","229945","0.0-2.0-5.0-0.27","5dd1919051c6d2208e27fbc1","F1","batch6","","null","<p class=block-text>Trial 28 out of 78</p>","null","pattern_show_trial_num","","","","","","","","","","","","","","","","","","","","","","","","",""
"","","","","","image-keyboard-response","76","233862","0.0-2.0-5.0-1.27","5dd1919051c6d2208e27fbc1","F1","batch6","","3916","stim/no_49_2_b.png","j","pattern_response","true","j","pattern_29","3916","true","26","","","","","","","","","","","","","","","","","","",""
"","","","","","html-keyboard-response","77","235180","0.0-2.0-5.0-0.28","5dd1919051c6d2208e27fbc1","F1","batch6","","null","<p class=block-text>Trial 29 out of 78</p>","null","pattern_show_trial_num","","","","","","","","","","","","","","","","","","","","","","","","",""
"","","","","","image-keyboard-response","78","236222","0.0-2.0-5.0-1.28","5dd1919051c6d2208e27fbc1","F1","batch6","","1041.2000000011176","stim/yes_30_ver_b1_b.png","f","pattern_response","true","f","pattern_54","1041.2000000011176","true","27","","","","","","","","","","","","","","","","","","",""
"","","","","","html-keyboard-response","79","237531","0.0-2.0-5.0-0.29","5dd1919051c6d2208e27fbc1","F1","batch6","","null","<p class=block-text>Trial 30 out of 78</p>","null","pattern_show_trial_num","","","","","","","","","","","","","","","","","","","","","","","","",""
"","","","","","image-keyboard-response","80","241614","0.0-2.0-5.0-1.29","5dd1919051c6d2208e27fbc1","F1","batch6","","4081.699999999255","stim/yes_63_dia_b1.png","j","pattern_response","false","f","pattern_78","4081.699999999255","false","27","","","","","","","","","","","","","","","","","","",""
"","","","","","html-keyboard-response","81","242935","0.0-2.0-5.0-0.30","5dd1919051c6d2208e27fbc1","F1","batch6","","null","<p class=block-text>Trial 31 out of 78</p>","null","pattern_show_trial_num","","","","","","","","","","","","","","","","","","","","","","","","",""
"","","","","","image-keyboard-response","82","245054","0.0-2.0-5.0-1.30","5dd1919051c6d2208e27fbc1","F1","batch6","","2117.800000000745","stim/no_25_1_b.png","j","pattern_response","true","j","pattern_09","2117.800000000745","true","28","","","","","","","","","","","","","","","","","","",""
"","","","","","html-keyboard-response","83","246358","0.0-2.0-5.0-0.31","5dd1919051c6d2208e27fbc1","F1","batch6","","null","<p class=block-text>Trial 32 out of 78</p>","null","pattern_show_trial_num","","","","","","","","","","","","","","","","","","","","","","","","",""
"","","","","","image-keyboard-response","84","249982","0.0-2.0-5.0-1.31","5dd1919051c6d2208e27fbc1","F1","batch6","","3623.199999999255","stim/no_43_2_b.png","j","pattern_response","true","j","pattern_23","3623.199999999255","true","29","","","","","","","","","","","","","","","","","","",""
"","","","","","html-keyboard-response","85","251308","0.0-2.0-5.0-0.32","5dd1919051c6d2208e27fbc1","F1","batch6","","null","<p class=block-text>Trial 33 out of 78</p>","null","pattern_show_trial_num","","","","","","","","","","","","","","","","","","","","","","","","",""
"","","","","","image-keyboard-response","86","254454","0.0-2.0-5.0-1.32","5dd1919051c6d2208e27fbc1","F1","batch6","","3144.9000000003725","stim/yes_33_dia_w1_w.png","f","pattern_response","true","f","pattern_56","3144.9000000003725","true","30","","","","","","","","","","","","","","","","","","",""
"","","","","","html-keyboard-response","87","255769","0.0-2.0-5.0-0.33","5dd1919051c6d2208e27fbc1","F1","batch6","","null","<p class=block-text>Trial 34 out of 78</p>","null","pattern_show_trial_num","","","","","","","","","","","","","","","","","","","","","","","","",""
"","","","","","image-keyboard-response","88","260742","0.0-2.0-5.0-1.33","5dd1919051c6d2208e27fbc1","F1","batch6","","4972.199999999255","stim/no_67_1.png","j","pattern_response","true","j","pattern_39","4972.199999999255","true","31","","","","","","","","","","","","","","","","","","",""
"","","","","","html-keyboard-response","89","262061","0.0-2.0-5.0-0.34","5dd1919051c6d2208e27fbc1","F1","batch6","","null","<p class=block-text>Trial 35 out of 78</p>","null","pattern_show_trial_num","","","","","","","","","","","","","","","","","","","","","","","","",""
"","","","","","image-keyboard-response","90","263614","0.0-2.0-5.0-1.34","5dd1919051c6d2208e27fbc1","F1","batch6","","1551.699999999255","stim/yes_49_hor_w1_b.png","f","pattern_response","true","f","pattern_70","1551.699999999255","true","32","","","","","","","","","","","","","","","","","","",""
"","","","","","html-keyboard-response","91","264921","0.0-2.0-5.0-0.35","5dd1919051c6d2208e27fbc1","F1","batch6","","null","<p class=block-text>Trial 36 out of 78</p>","null","pattern_show_trial_num","","","","","","","","","","","","","","","","","","","","","","","","",""
"","","","","","image-keyboard-response","92","269814","0.0-2.0-5.0-1.35","5dd1919051c6d2208e27fbc1","F1","batch6","","4891.699999999255","stim/yes_70_ver_b1.png","j","pattern_response","false","f","pattern_80","4891.699999999255","false","32","","","","","","","","","","","","","","","","","","",""
"","","","","","html-keyboard-response","93","271138","0.0-2.0-5.0-0.36","5dd1919051c6d2208e27fbc1","F1","batch6","","null","<p class=block-text>Trial 37 out of 78</p>","null","pattern_show_trial_num","","","","","","","","","","","","","","","","","","","","","","","","",""
"","","","","","image-keyboard-response","94","275253","0.0-2.0-5.0-1.36","5dd1919051c6d2208e27fbc1","F1","batch6","","4114.800000000745","stim/no_45_1_w.png","j","pattern_response","true","j","pattern_25","4114.800000000745","true","33","","","","","","","","","","","","","","","","","","",""
"","","","","","html-keyboard-response","95","276566","0.0-2.0-5.0-0.37","5dd1919051c6d2208e27fbc1","F1","batch6","","null","<p class=block-text>Trial 38 out of 78</p>","null","pattern_show_trial_num","","","","","","","","","","","","","","","","","","","","","","","","",""
"","","","","","image-keyboard-response","96","277526","0.0-2.0-5.0-1.37","5dd1919051c6d2208e27fbc1","F1","batch6","","958.1999999992549","stim/yes_12_hor_w1_w.png","f","pattern_response","true","f","pattern_42","958.1999999992549","true","34","","","","","","","","","","","","","","","","","","",""
"","","","","","html-keyboard-response","97","278841","0.0-2.0-5.0-0.38","5dd1919051c6d2208e27fbc1","F1","batch6","","null","<p class=block-text>Trial 39 out of 78</p>","null","pattern_show_trial_num","","","","","","","","","","","","","","","","","","","","","","","","",""
"","","","","","image-keyboard-response","98","283174","0.0-2.0-5.0-1.38","5dd1919051c6d2208e27fbc1","F1","batch6","","4332.199999999255","stim/no_53_1_b.png","j","pattern_response","true","j","pattern_33","4332.199999999255","true","35","","","","","","","","","","","","","","","","","","",""
"","","","","","image-keyboard-response","99","286646","0.0-2.0-6.0","5dd1919051c6d2208e27fbc1","F1","batch6","","2969.7999999988824","stim/empty_board.png","j","attention_check","true","j","","","","","500","[""f"",""j""]","","","","","","","","","","","","","","","","",""
"","","","","","html-keyboard-response","100","287461","0.0-2.0-7.0-0.0","5dd1919051c6d2208e27fbc1","F1","batch6","","null","<p class=block-text>Trial 40 out of 78</p>","null","pattern_show_trial_num","","","","","","","","","","","","","","","","","","","","","","","","",""
"","","","","","image-keyboard-response","101","291278","0.0-2.0-7.0-1.0","5dd1919051c6d2208e27fbc1","F1","batch6","","3815.5","stim/yes_28_ver_b1.png","f","pattern_response","true","f","pattern_51","3815.5","true","36","","","","","","","","","","","","","","","","","","",""
"","","","","","html-keyboard-response","102","292579","0.0-2.0-7.0-0.1","5dd1919051c6d2208e27fbc1","F1","batch6","","null","<p class=block-text>Trial 41 out of 78</p>","null","pattern_show_trial_num","","","","","","","","","","","","","","","","","","","","","","","","",""
"","","","","","image-keyboard-response","103","294734","0.0-2.0-7.0-1.1","5dd1919051c6d2208e27fbc1","F1","batch6","","2154.199999999255","stim/yes_52_ver_w1.png","f","pattern_response","true","f","pattern_73","2154.199999999255","true","37","","","","","","","","","","","","","","","","","","",""
"","","","","","html-keyboard-response","104","296043","0.0-2.0-7.0-0.2","5dd1919051c6d2208e27fbc1","F1","batch6","","null","<p class=block-text>Trial 42 out of 78</p>","null","pattern_show_trial_num","","","","","","","","","","","","","","","","","","","","","","","","",""
"","","","","","image-keyboard-response","105","298541","0.0-2.0-7.0-1.2","5dd1919051c6d2208e27fbc1","F1","batch6","","2496.9000000003725","stim/no_34_1_b.png","j","pattern_response","true","j","pattern_16","2496.9000000003725","true","38","","","","","","","","","","","","","","","","","","",""
"","","","","","html-keyboard-response","106","299856","0.0-2.0-7.0-0.3","5dd1919051c6d2208e27fbc1","F1","batch6","","null","<p class=block-text>Trial 43 out of 78</p>","null","pattern_show_trial_num","","","","","","","","","","","","","","","","","","","","","","","","",""
"","","","","","image-keyboard-response","107","303190","0.0-2.0-7.0-1.3","5dd1919051c6d2208e27fbc1","F1","batch6","","3332.4000000003725","stim/no_32_1_w.png","j","pattern_response","true","j","pattern_14","3332.4000000003725","true","39","","","","","","","","","","","","","","","","","","",""
"","","","","","html-keyboard-response","108","304495","0.0-2.0-7.0-0.4","5dd1919051c6d2208e27fbc1","F1","batch6","","null","<p class=block-text>Trial 44 out of 78</p>","null","pattern_show_trial_num","","","","","","","","","","","","","","","","","","","","","","","","",""
"","","","","","image-keyboard-response","109","309190","0.0-2.0-7.0-1.4","5dd1919051c6d2208e27fbc1","F1","batch6","","4694","stim/yes_50_dia_w1.png","f","pattern_response","true","f","pattern_71","4694","true","40","","","","","","","","","","","","","","","","","","",""
"","","","","","html-keyboard-response","110","310521","0.0-2.0-7.0-0.5","5dd1919051c6d2208e27fbc1","F1","batch6","","null","<p class=block-text>Trial 45 out of 78</p>","null","pattern_show_trial_num","","","","","","","","","","","","","","","","","","","","","","","","",""
"","","","","","image-keyboard-response","111","311678","0.0-2.0-7.0-1.5","5dd1919051c6d2208e27fbc1","F1","batch6","","1156.5999999996275","stim/yes_14_hor_b1_w.png","f","pattern_response","true","f","pattern_43","1156.5999999996275","true","41","","","","","","","","","","","","","","","","","","",""
"","","","","","html-keyboard-response","112","313010","0.0-2.0-7.0-0.6","5dd1919051c6d2208e27fbc1","F1","batch6","","null","<p class=block-text>Trial 46 out of 78</p>","null","pattern_show_trial_num","","","","","","","","","","","","","","","","","","","","","","","","",""
"","","","","","image-keyboard-response","113","317526","0.0-2.0-7.0-1.6","5dd1919051c6d2208e27fbc1","F1","batch6","","4515.0999999996275","stim/no_42_1_w.png","j","pattern_response","true","j","pattern_22","4515.0999999996275","true","42","","","","","","","","","","","","","","","","","","",""
"","","","","","html-keyboard-response","114","318831","0.0-2.0-7.0-0.7","5dd1919051c6d2208e27fbc1","F1","batch6","","null","<p class=block-text>Trial 47 out of 78</p>","null","pattern_show_trial_num","","","","","","","","","","","","","","","","","","","","","","","","",""
"","","","","","image-keyboard-response","115","319814","0.0-2.0-7.0-1.7","5dd1919051c6d2208e27fbc1","F1","batch6","","982.6000000014901","stim/yes_22_ver_w1.png","f","pattern_response","true","f","pattern_47","982.6000000014901","true","43","","","","","","","","","","","","","","","","","","",""
"","","","","","html-keyboard-response","116","321131","0.0-2.0-7.0-0.8","5dd1919051c6d2208e27fbc1","F1","batch6","","null","<p class=block-text>Trial 48 out of 78</p>","null","pattern_show_trial_num","","","","","","","","","","","","","","","","","","","","","","","","",""
"","","","","","image-keyboard-response","117","322942","0.0-2.0-7.0-1.8","5dd1919051c6d2208e27fbc1","F1","batch6","","1810.3999999985099","stim/yes_45_hor_b2_b.png","f","pattern_response","true","f","pattern_67","1810.3999999985099","true","44","","","","","","","","","","","","","","","","","","",""
"","","","","","html-keyboard-response","118","324267","0.0-2.0-7.0-0.9","5dd1919051c6d2208e27fbc1","F1","batch6","","null","<p class=block-text>Trial 49 out of 78</p>","null","pattern_show_trial_num","","","","","","","","","","","","","","","","","","","","","","","","",""
"","","","","","image-keyboard-response","119","326566","0.0-2.0-7.0-1.9","5dd1919051c6d2208e27fbc1","F1","batch6","","2298.10000000149","stim/no_23_1.png","j","pattern_response","true","j","pattern_08","2298.10000000149","true","45","","","","","","","","","","","","","","","","","","",""
"","","","","","html-keyboard-response","120","327894","0.0-2.0-7.0-0.10","5dd1919051c6d2208e27fbc1","F1","batch6","","null","<p class=block-text>Trial 50 out of 78</p>","null","pattern_show_trial_num","","","","","","","","","","","","","","","","","","","","","","","","",""
"","","","","","image-keyboard-response","121","329574","0.0-2.0-7.0-1.10","5dd1919051c6d2208e27fbc1","F1","batch6","","1679","stim/no_13_2_b.png","j","pattern_response","true","j","pattern_02","1679","true","46","","","","","","","","","","","","","","","","","","",""
"","","","","","html-keyboard-response","122","330897","0.0-2.0-7.0-0.11","5dd1919051c6d2208e27fbc1","F1","batch6","","null","<p class=block-text>Trial 51 out of 78</p>","null","pattern_show_trial_num","","","","","","","","","","","","","","","","","","","","","","","","",""
"","","","","","image-keyboard-response","123","334686","0.0-2.0-7.0-1.11","5dd1919051c6d2208e27fbc1","F1","batch6","","3788.5999999996275","stim/no_38_1_b.png","j","pattern_response","true","j","pattern_20","3788.5999999996275","true","47","","","","","","","","","","","","","","","","","","",""
"","","","","","html-keyboard-response","124","335999","0.0-2.0-7.0-0.12","5dd1919051c6d2208e27fbc1","F1","batch6","","null","<p class=block-text>Trial 52 out of 78</p>","null","pattern_show_trial_num","","","","","","","","","","","","","","","","","","","","","","","","",""
"","","","","","image-keyboard-response","125","341446","0.0-2.0-7.0-1.12","5dd1919051c6d2208e27fbc1","F1","batch6","","5446","stim/no_70_2.png","j","pattern_response","true","j","pattern_40","5446","true","48","","","","","","","","","","","","","","","","","","",""
"","","","","","html-keyboard-response","126","342759","0.0-2.0-7.0-0.13","5dd1919051c6d2208e27fbc1","F1","batch6","","null","<p class=block-text>Trial 53 out of 78</p>","null","pattern_show_trial_num","","","","","","","","","","","","","","","","","","","","","","","","",""
"","","","","","image-keyboard-response","127","346950","0.0-2.0-7.0-1.13","5dd1919051c6d2208e27fbc1","F1","batch6","","4190.299999998882","stim/yes_48_dia_w1_w.png","f","pattern_response","true","f","pattern_69","4190.299999998882","true","49","","","","","","","","","","","","","","","","","","",""
"","","","","","html-keyboard-response","128","348268","0.0-2.0-7.0-0.14","5dd1919051c6d2208e27fbc1","F1","batch6","","null","<p class=block-text>Trial 54 out of 78</p>","null","pattern_show_trial_num","","","","","","","","","","","","","","","","","","","","","","","","",""
"","","","","","image-keyboard-response","129","350566","0.0-2.0-7.0-1.14","5dd1919051c6d2208e27fbc1","F1","batch6","","2297.699999999255","stim/no_17_1_w.png","j","pattern_response","true","j","pattern_04","2297.699999999255","true","50","","","","","","","","","","","","","","","","","","",""
"","","","","","html-keyboard-response","130","351875","0.0-2.0-7.0-0.15","5dd1919051c6d2208e27fbc1","F1","batch6","","null","<p class=block-text>Trial 55 out of 78</p>","null","pattern_show_trial_num","","","","","","","","","","","","","","","","","","","","","","","","",""
"","","","","","image-keyboard-response","131","353790","0.0-2.0-7.0-1.15","5dd1919051c6d2208e27fbc1","F1","batch6","","1914.5999999996275","stim/no_20_1_w.png","j","pattern_response","true","j","pattern_06","1914.5999999996275","true","51","","","","","","","","","","","","","","","","","","",""
"","","","","","html-keyboard-response","132","355113","0.0-2.0-7.0-0.16","5dd1919051c6d2208e27fbc1","F1","batch6","","null","<p class=block-text>Trial 56 out of 78</p>","null","pattern_show_trial_num","","","","","","","","","","","","","","","","","","","","","","","","",""
"","","","","","image-keyboard-response","133","357110","0.0-2.0-7.0-1.16","5dd1919051c6d2208e27fbc1","F1","batch6","","1996","stim/yes_40_dia_b1_b.png","f","pattern_response","true","f","pattern_63","1996","true","52","","","","","","","","","","","","","","","","","","",""
"","","","","","html-keyboard-response","134","358422","0.0-2.0-7.0-0.17","5dd1919051c6d2208e27fbc1","F1","batch6","","null","<p class=block-text>Trial 57 out of 78</p>","null","pattern_show_trial_num","","","","","","","","","","","","","","","","","","","","","","","","",""
"","","","","","image-keyboard-response","135","363078","0.0-2.0-7.0-1.17","5dd1919051c6d2208e27fbc1","F1","batch6","","4655.4000000003725","stim/no_46_1_b.png","j","pattern_response","true","j","pattern_26","4655.4000000003725","true","53","","","","","","","","","","","","","","","","","","",""
"","","","","","html-keyboard-response","136","364380","0.0-2.0-7.0-0.18","5dd1919051c6d2208e27fbc1","F1","batch6","","null","<p class=block-text>Trial 58 out of 78</p>","null","pattern_show_trial_num","","","","","","","","","","","","","","","","","","","","","","","","",""
"","","","","","image-keyboard-response","137","368550","0.0-2.0-7.0-1.18","5dd1919051c6d2208e27fbc1","F1","batch6","","4169.200000001118","stim/no_29_1_b.png","j","pattern_response","true","j","pattern_12","4169.200000001118","true","54","","","","","","","","","","","","","","","","","","",""
"","","","","","html-keyboard-response","138","369864","0.0-2.0-7.0-0.19","5dd1919051c6d2208e27fbc1","F1","batch6","","null","<p class=block-text>Trial 59 out of 78</p>","null","pattern_show_trial_num","","","","","","","","","","","","","","","","","","","","","","","","",""
"","","","","","image-keyboard-response","139","371038","0.0-2.0-7.0-1.19","5dd1919051c6d2208e27fbc1","F1","batch6","","1173.0999999996275","stim/yes_25_hor_b1_b.png","f","pattern_response","true","f","pattern_49","1173.0999999996275","true","55","","","","","","","","","","","","","","","","","","",""
"","","","","","html-keyboard-response","140","372353","0.0-2.0-7.0-0.20","5dd1919051c6d2208e27fbc1","F1","batch6","","null","<p class=block-text>Trial 60 out of 78</p>","null","pattern_show_trial_num","","","","","","","","","","","","","","","","","","","","","","","","",""
"","","","","","image-keyboard-response","141","376222","0.0-2.0-7.0-1.20","5dd1919051c6d2208e27fbc1","F1","batch6","","3867.9000000003725","stim/no_52_1.png","j","pattern_response","true","j","pattern_32","3867.9000000003725","true","56","","","","","","","","","","","","","","","","","","",""
"","","","","","html-keyboard-response","142","377538","0.0-2.0-7.0-0.21","5dd1919051c6d2208e27fbc1","F1","batch6","","null","<p class=block-text>Trial 61 out of 78</p>","null","pattern_show_trial_num","","","","","","","","","","","","","","","","","","","","","","","","",""
"","","","","","image-keyboard-response","143","382766","0.0-2.0-7.0-1.21","5dd1919051c6d2208e27fbc1","F1","batch6","","5227.5","stim/yes_37_dia_w1.png","f","pattern_response","true","f","pattern_59","5227.5","true","57","","","","","","","","","","","","","","","","","","",""
"","","","","","html-keyboard-response","144","384075","0.0-2.0-7.0-0.22","5dd1919051c6d2208e27fbc1","F1","batch6","","null","<p class=block-text>Trial 62 out of 78</p>","null","pattern_show_trial_num","","","","","","","","","","","","","","","","","","","","","","","","",""
"","","","","","image-keyboard-response","145","385262","0.0-2.0-7.0-1.22","5dd1919051c6d2208e27fbc1","F1","batch6","","1186.199999999255","stim/yes_55_hor_w1_w.png","f","pattern_response","true","f","pattern_75","1186.199999999255","true","58","","","","","","","","","","","","","","","","","","",""
"","","","","","html-keyboard-response","146","386572","0.0-2.0-7.0-0.23","5dd1919051c6d2208e27fbc1","F1","batch6","","null","<p class=block-text>Trial 63 out of 78</p>","null","pattern_show_trial_num","","","","","","","","","","","","","","","","","","","","","","","","",""
"","","","","","image-keyboard-response","147","391766","0.0-2.0-7.0-1.23","5dd1919051c6d2208e27fbc1","F1","batch6","","5193.0999999996275","stim/yes_67_hor_b1.png","f","pattern_response","true","f","pattern_79","5193.0999999996275","true","59","","","","","","","","","","","","","","","","","","",""
"","","","","","html-keyboard-response","148","393070","0.0-2.0-7.0-0.24","5dd1919051c6d2208e27fbc1","F1","batch6","","null","<p class=block-text>Trial 64 out of 78</p>","null","pattern_show_trial_num","","","","","","","","","","","","","","","","","","","","","","","","",""
"","","","","","image-keyboard-response","149","395582","0.0-2.0-7.0-1.24","5dd1919051c6d2208e27fbc1","F1","batch6","","2511.5","stim/no_26_1_w.png","j","pattern_response","true","j","pattern_10","2511.5","true","60","","","","","","","","","","","","","","","","","","",""
"","","","","","html-keyboard-response","150","396897","0.0-2.0-7.0-0.25","5dd1919051c6d2208e27fbc1","F1","batch6","","null","<p class=block-text>Trial 65 out of 78</p>","null","pattern_show_trial_num","","","","","","","","","","","","","","","","","","","","","","","","",""
"","","","","","image-keyboard-response","151","403510","0.0-2.0-7.0-1.25","5dd1919051c6d2208e27fbc1","F1","batch6","","6612.4000000003725","stim/yes_60_ver_b1_b.png","f","pattern_response","true","f","pattern_77","6612.4000000003725","true","61","","","","","","","","","","","","","","","","","","",""
"","","","","","html-keyboard-response","152","404812","0.0-2.0-7.0-0.26","5dd1919051c6d2208e27fbc1","F1","batch6","","null","<p class=block-text>Trial 66 out of 78</p>","null","pattern_show_trial_num","","","","","","","","","","","","","","","","","","","","","","","","",""
"","","","","","image-keyboard-response","153","409526","0.0-2.0-7.0-1.26","5dd1919051c6d2208e27fbc1","F1","batch6","","4713.0999999996275","stim/yes_29_ver_w1.png","j","pattern_response","false","f","pattern_53","4713.0999999996275","false","61","","","","","","","","","","","","","","","","","","",""
"","","","","","html-keyboard-response","154","410831","0.0-2.0-7.0-0.27","5dd1919051c6d2208e27fbc1","F1","batch6","","null","<p class=block-text>Trial 67 out of 78</p>","null","pattern_show_trial_num","","","","","","","","","","","","","","","","","","","","","","","","",""
"","","","","","image-keyboard-response","155","414126","0.0-2.0-7.0-1.27","5dd1919051c6d2208e27fbc1","F1","batch6","","3293.9000000003725","stim/yes_31_hor_b1.png","f","pattern_response","true","f","pattern_55","3293.9000000003725","true","62","","","","","","","","","","","","","","","","","","",""
"","","","","","html-keyboard-response","156","415450","0.0-2.0-7.0-0.28","5dd1919051c6d2208e27fbc1","F1","batch6","","null","<p class=block-text>Trial 68 out of 78</p>","null","pattern_show_trial_num","","","","","","","","","","","","","","","","","","","","","","","","",""
"","","","","","image-keyboard-response","157","417334","0.0-2.0-7.0-1.28","5dd1919051c6d2208e27fbc1","F1","batch6","","1883.0999999996275","stim/yes_17_dia_w1.png","f","pattern_response","true","f","pattern_45","1883.0999999996275","true","63","","","","","","","","","","","","","","","","","","",""
"","","","","","html-keyboard-response","158","418664","0.0-2.0-7.0-0.29","5dd1919051c6d2208e27fbc1","F1","batch6","","null","<p class=block-text>Trial 69 out of 78</p>","null","pattern_show_trial_num","","","","","","","","","","","","","","","","","","","","","","","","",""
"","","","","","image-keyboard-response","159","424230","0.0-2.0-7.0-1.29","5dd1919051c6d2208e27fbc1","F1","batch6","","5564.700000001118","stim/no_44_1.png","j","pattern_response","true","j","pattern_24","5564.700000001118","true","64","","","","","","","","","","","","","","","","","","",""
"","","","","","html-keyboard-response","160","425554","0.0-2.0-7.0-0.30","5dd1919051c6d2208e27fbc1","F1","batch6","","null","<p class=block-text>Trial 70 out of 78</p>","null","pattern_show_trial_num","","","","","","","","","","","","","","","","","","","","","","","","",""
"","","","","","image-keyboard-response","161","426872","0.0-2.0-7.0-1.30","5dd1919051c6d2208e27fbc1","F1","batch6","","1315","stim/yes_38_hor_b1_b.png","f","pattern_response","true","f","pattern_61","1315","true","65","","","","","","","","","","","","","","","","","","",""
"","","","","","html-keyboard-response","162","428201","0.0-2.0-7.0-0.31","5dd1919051c6d2208e27fbc1","F1","batch6","","null","<p class=block-text>Trial 71 out of 78</p>","null","pattern_show_trial_num","","","","","","","","","","","","","","","","","","","","","","","","",""
"","","","","","image-keyboard-response","163","433230","0.0-2.0-7.0-1.31","5dd1919051c6d2208e27fbc1","F1","batch6","","5028.5","stim/yes_43_ver_w1_w.png","j","pattern_response","false","f","pattern_65","5028.5","false","65","","","","","","","","","","","","","","","","","","",""
"","","","","","html-keyboard-response","164","434550","0.0-2.0-7.0-0.32","5dd1919051c6d2208e27fbc1","F1","batch6","","null","<p class=block-text>Trial 72 out of 78</p>","null","pattern_show_trial_num","","","","","","","","","","","","","","","","","","","","","","","","",""
"","","","","","image-keyboard-response","165","438774","0.0-2.0-7.0-1.32","5dd1919051c6d2208e27fbc1","F1","batch6","","4223.5","stim/no_36_2_w.png","j","pattern_response","true","j","pattern_18","4223.5","true","66","","","","","","","","","","","","","","","","","","",""
"","","","","","html-keyboard-response","166","440093","0.0-2.0-7.0-0.33","5dd1919051c6d2208e27fbc1","F1","batch6","","null","<p class=block-text>Trial 73 out of 78</p>","null","pattern_show_trial_num","","","","","","","","","","","","","","","","","","","","","","","","",""
"","","","","","image-keyboard-response","167","444702","0.0-2.0-7.0-1.33","5dd1919051c6d2208e27fbc1","F1","batch6","","4607.300000000745","stim/yes_35_dia_b1.png","f","pattern_response","true","f","pattern_57","4607.300000000745","true","67","","","","","","","","","","","","","","","","","","",""
"","","","","","html-keyboard-response","168","446018","0.0-2.0-7.0-0.34","5dd1919051c6d2208e27fbc1","F1","batch6","","null","<p class=block-text>Trial 74 out of 78</p>","null","pattern_show_trial_num","","","","","","","","","","","","","","","","","","","","","","","","",""
"","","","","","image-keyboard-response","169","454166","0.0-2.0-7.0-1.34","5dd1919051c6d2208e27fbc1","F1","batch6","","8147.5","stim/no_62_1_w.png","j","pattern_response","true","j","pattern_36","8147.5","true","68","","","","","","","","","","","","","","","","","","",""
"","","","","","html-keyboard-response","170","455475","0.0-2.0-7.0-0.35","5dd1919051c6d2208e27fbc1","F1","batch6","","null","<p class=block-text>Trial 75 out of 78</p>","null","pattern_show_trial_num","","","","","","","","","","","","","","","","","","","","","","","","",""
"","","","","","image-keyboard-response","171","461062","0.0-2.0-7.0-1.35","5dd1919051c6d2208e27fbc1","F1","batch6","","5585.699999999255","stim/no_48_1_w.png","j","pattern_response","true","j","pattern_28","5585.699999999255","true","69","","","","","","","","","","","","","","","","","","",""
"","","","","","html-keyboard-response","172","462369","0.0-2.0-7.0-0.36","5dd1919051c6d2208e27fbc1","F1","batch6","","null","<p class=block-text>Trial 76 out of 78</p>","null","pattern_show_trial_num","","","","","","","","","","","","","","","","","","","","","","","","",""
"","","","","","image-keyboard-response","173","469118","0.0-2.0-7.0-1.36","5dd1919051c6d2208e27fbc1","F1","batch6","","6748","stim/no_50_1.png","j","pattern_response","true","j","pattern_30","6748","true","70","","","","","","","","","","","","","","","","","","",""
"","","","","","html-keyboard-response","174","470432","0.0-2.0-7.0-0.37","5dd1919051c6d2208e27fbc1","F1","batch6","","null","<p class=block-text>Trial 77 out of 78</p>","null","pattern_show_trial_num","","","","","","","","","","","","","","","","","","","","","","","","",""
"","","","","","image-keyboard-response","175","478078","0.0-2.0-7.0-1.37","5dd1919051c6d2208e27fbc1","F1","batch6","","7644.89999999851","stim/no_65_1_b.png","j","pattern_response","true","j","pattern_38","7644.89999999851","true","71","","","","","","","","","","","","","","","","","","",""
"","","","","","html-keyboard-response","176","479389","0.0-2.0-7.0-0.38","5dd1919051c6d2208e27fbc1","F1","batch6","","null","<p class=block-text>Trial 78 out of 78</p>","null","pattern_show_trial_num","","","","","","","","","","","","","","","","","","","","","","","","",""
"","","","","","image-keyboard-response","177","486382","0.0-2.0-7.0-1.38","5dd1919051c6d2208e27fbc1","F1","batch6","","6991.89999999851","stim/no_55_1_w.png","j","pattern_response","true","j","pattern_34","6991.89999999851","true","72","","","","","","","","","","","","","","","","","","",""
"","","","","","html-button-response","178","496106","0.0-2.0-8.0","5dd1919051c6d2208e27fbc1","F1","batch6","","9218.39999999851","<p class = block-text>This concludes the 4-in-a-row detection game.Thank you for your responses!<br>
            You responded correctly on 92% of the trials.<br>
            When you are ready, press ""Continue"" button to continue </p>","0","","","","","","","","","","","","","","","","","","","","","","","","","",""
"true","","","","","fullscreen","179","500326","0.0-3.0-0.0","5dd1919051c6d2208e27fbc1","F1","batch6","","","","","","","","","","","","","","","","","","","","","","","","","","","","","",""
"","","","","","instructions","180","581694","0.0-3.0-1.0-0.0-0.0","5dd1919051c6d2208e27fbc1","F1","batch6","[{""page_index"":0,""viewing_time"":15770.799999998882},{""page_index"":1,""viewing_time"":12501.900000000373},{""page_index"":2,""viewing_time"":8738},{""page_index"":3,""viewing_time"":10462.099999999627},{""page_index"":4,""viewing_time"":9999.800000000745},{""page_index"":5,""viewing_time"":19346.299999998882},{""page_index"":6,""viewing_time"":4547.60000000149}]","81366.79999999888","","","tol-instructions","","","","","","","","","","","","","","","","","","","","","","","","",""
"","","","","","html-button-response","181","583758","0.0-3.0-1.0-1.0-0.0","5dd1919051c6d2208e27fbc1","F1","batch6","","2063.5","<p class=block-text> Let's answer a few questions <br>","0","tol_enter_quiz","","","","","","","","","","","","","","","","","","","","","","","","",""
"","","","","","html-button-response","182","594448","0.0-3.0-1.0-1.0-1.0","5dd1919051c6d2208e27fbc1","F1","batch6","","10689.200000001118","<p class = block-text>True or False: You can only move the ball on top of a peg. <br></p>","0","tol_quiz","true","","","","","","","","","","","","","","","","","","","","","","","",""
"","","","","","html-button-response","183","597514","0.0-3.0-1.0-1.0-2.0","5dd1919051c6d2208e27fbc1","F1","batch6","","3065.39999999851","<p class = block-text>Correct! You can only move the ball on top of a peg.</p>","0","tol_quiz_feedback","","","","","","","","","","","","","","","","","","","","","","","","",""
"","","","","","html-button-response","184","601272","0.0-3.0-1.0-1.0-3.0","5dd1919051c6d2208e27fbc1","F1","batch6","","3757.5999999996275","<p class = block-text>True or False: You should try to match your board with the target board with fewest moves possible. <br></p>","0","tol_quiz","true","","","","","","","","","","","","","","","","","","","","","","","",""
"","","","","","html-button-response","185","602680","0.0-3.0-1.0-1.0-4.0","5dd1919051c6d2208e27fbc1","F1","batch6","","1407.2999999988824","<p class = block-text>Correct! </p>","0","tol_quiz_feedback","","","","","","","","","","","","","","","","","","","","","","","","",""
"","","","","","html-button-response","186","605220","0.0-3.0-2.0","5dd1919051c6d2208e27fbc1","F1","batch6","","2539","<p class=block-text> Now that you've understood the game, let's practice a few easier examples before we start!<br> <br>","0","","","","","","","","","","","","","","","","","","","","","","","","","",""
"","","","","","single-stim-button","187","609096","0.0-3.0-3.0-0.0","5dd1919051c6d2208e27fbc1","F1","batch6","","3875","","","tol_practice","","","","","","","","","tol_peg_2","3875","3875","0","[[1,2,0],[0,0],[0]]","1","[[1,2,0],[0,0],[3]]","practice","3875","","","","","","","",""
"","","","","","single-stim-button","188","610912","0.0-3.0-3.0-1.0","5dd1919051c6d2208e27fbc1","F1","batch6","","1815","","","tol_practice","","","","","","","","","tol_peg_3","1815","1815","0","[[1,2,0],[0,0],[3]]","1","[[1,2,0],[0,0],[3]]","practice","1815","","","","","","","",""
"","","","","","poldrack-single-stim","189","611914","0.0-3.0-4.0","5dd1919051c6d2208e27fbc1","F1","batch6","","-1","","","tol_feedback","true","","","","","","","","","1000","1000","500","","","","","","-1","none","true","","0","","",""
"","","","","","single-stim-button","190","615414","0.0-3.0-5.0-0.0","5dd1919051c6d2208e27fbc1","F1","batch6","","3500","","","tol_practice","","","","","","","","","tol_peg_2","3500","3500","0","[[1,2,0],[0,0],[0]]","2","[[0,0,0],[3,1],[2]]","practice","3500","","","","","","","",""
"","","","","","single-stim-button","191","617855","0.0-3.0-5.0-1.0","5dd1919051c6d2208e27fbc1","F1","batch6","","2440","","","tol_practice","","","","","","","","","tol_peg_2","2440","2440","0","[[1,2,0],[3,0],[0]]","2","[[0,0,0],[3,1],[2]]","practice","2440","","","","","","","",""
"","","","","","single-stim-button","192","619746","0.0-3.0-5.1-0.1","5dd1919051c6d2208e27fbc1","F1","batch6","","1891","","","tol_practice","","","","","","","","","tol_peg_1","1891","1891","0","[[1,0,0],[3,0],[0]]","3","[[0,0,0],[3,1],[2]]","practice","1891","","","","","","","",""
"","","","","","single-stim-button","193","620968","0.0-3.0-5.1-1.1","5dd1919051c6d2208e27fbc1","F1","batch6","","1222","","","tol_practice","","","","","","","","","tol_peg_3","1222","1222","0","[[1,0,0],[3,0],[2]]","3","[[0,0,0],[3,1],[2]]","practice","1222","","","","","","","",""
"","","","","","single-stim-button","194","622749","0.0-3.0-5.2-0.2","5dd1919051c6d2208e27fbc1","F1","batch6","","1780","","","tol_practice","","","","","","","","","tol_peg_1","1780","1780","0","[[0,0,0],[3,0],[2]]","4","[[0,0,0],[3,1],[2]]","practice","1780","","","","","","","",""
"","","","","","single-stim-button","195","623554","0.0-3.0-5.2-1.2","5dd1919051c6d2208e27fbc1","F1","batch6","","805","","","tol_practice","","","","","","","","","tol_peg_2","805","805","0","[[0,0,0],[3,1],[2]]","4","[[0,0,0],[3,1],[2]]","practice","805","","","","","","","",""
"","","","","","poldrack-single-stim","196","624555","0.0-3.0-6.0","5dd1919051c6d2208e27fbc1","F1","batch6","","-1","","","tol_feedback","true","","","","","","","","","1000","1000","500","","","","","","-1","none","true","","0","","",""
"","","","","","single-stim-button","197","627792","0.0-3.0-7.0-0.0","5dd1919051c6d2208e27fbc1","F1","batch6","","3237","","","tol_practice","","","","","","","","","tol_peg_2","3237","3237","0","[[1,2,0],[0,0],[0]]","5","[[1,0,0],[2,0],[3]]","practice","3237","","","","","","","",""
"","","","","","single-stim-button","198","629065","0.0-3.0-7.0-1.0","5dd1919051c6d2208e27fbc1","F1","batch6","","1273","","","tol_practice","","","","","","","","","tol_peg_1","1273","1273","0","[[1,2,3],[0,0],[0]]","5","[[1,0,0],[2,0],[3]]","practice","1273","","","","","","","",""
"","","","","","single-stim-button","199","631534","0.0-3.0-7.1-0.1","5dd1919051c6d2208e27fbc1","F1","batch6","","2468","","","tol_practice","","","","","","","","","tol_peg_1","2468","2468","0","[[1,2,0],[0,0],[0]]","6","[[1,0,0],[2,0],[3]]","practice","2468","","","","","","","",""
"","","","","","single-stim-button","200","632688","0.0-3.0-7.1-1.1","5dd1919051c6d2208e27fbc1","F1","batch6","","1154","","","tol_practice","","","","","","","","","tol_peg_3","1154","1154","0","[[1,2,0],[0,0],[3]]","6","[[1,0,0],[2,0],[3]]","practice","1154","","","","","","","",""
"","","","","","single-stim-button","201","633798","0.0-3.0-7.2-0.2","5dd1919051c6d2208e27fbc1","F1","batch6","","1110","","","tol_practice","","","","","","","","","tol_peg_1","1110","1110","0","[[1,0,0],[0,0],[3]]","7","[[1,0,0],[2,0],[3]]","practice","1110","","","","","","","",""
"","","","","","single-stim-button","202","634732","0.0-3.0-7.2-1.2","5dd1919051c6d2208e27fbc1","F1","batch6","","934","","","tol_practice","","","","","","","","","tol_peg_2","934","934","0","[[1,0,0],[2,0],[3]]","7","[[1,0,0],[2,0],[3]]","practice","934","","","","","","","",""
"","","","","","poldrack-single-stim","203","635733","0.0-3.0-8.0","5dd1919051c6d2208e27fbc1","F1","batch6","","-1","","","tol_feedback","true","","","","","","","","","1000","1000","500","","","","","","-1","none","true","","0","","",""
"","","","","","html-button-response","204","649832","0.0-3.0-9.0","5dd1919051c6d2208e27fbc1","F1","batch6","","14097.800000000745","<div class = centerbox><p class = center-block-text>Great job! You are done with practice trials<br>You are about to start official trials.<br> <br> Problem <strong>1</strong> out of 25 problems</p></div>","0","tol_instruction","","","","","","","","","","","","","","","","","","","","","","","","",""
"","","","","","single-stim-button","205","656450","0.0-3.0-10.0-0.0","5dd1919051c6d2208e27fbc1","F1","batch6","","5617","","","tol_tohand","","","","","","","","","tol_peg_1","5617","5617","0","[[1,0,0],[3,0],[0]]","1","[[1,3,0],[2,0],[0]]","0","0","","","","","","3","",""
"","","","","","single-stim-button","206","658328","0.0-3.0-10.0-1.0","5dd1919051c6d2208e27fbc1","F1","batch6","","1878","","","tol_toboard","","","","","","","","","tol_peg_3","1878","1878","0","[[1,0,0],[3,0],[2]]","1","[[1,3,0],[2,0],[0]]","0","0","","","","","","3","",""
"","","","","","single-stim-button","207","659132","0.0-3.0-10.1-0.1","5dd1919051c6d2208e27fbc1","F1","batch6","","803","","","tol_tohand","","","","","","","","","tol_peg_2","803","803","0","[[1,0,0],[0,0],[2]]","2","[[1,3,0],[2,0],[0]]","0","0","","","","","","3","",""
"","","","","","single-stim-button","208","660800","0.0-3.0-10.1-1.1","5dd1919051c6d2208e27fbc1","F1","batch6","","1668","","","tol_toboard","","","","","","","","","tol_peg_1","1668","1668","0","[[1,3,0],[0,0],[2]]","2","[[1,3,0],[2,0],[0]]","0","0","","","","","","3","",""
"","","","","","single-stim-button","209","662409","0.0-3.0-10.2-0.2","5dd1919051c6d2208e27fbc1","F1","batch6","","1609","","","tol_tohand","","","","","","","","","tol_peg_3","1609","1609","0","[[1,3,0],[0,0],[0]]","3","[[1,3,0],[2,0],[0]]","0","0","","","","","","3","",""
"","","","","","single-stim-button","210","663564","0.0-3.0-10.2-1.2","5dd1919051c6d2208e27fbc1","F1","batch6","","1155","","","tol_toboard","","","","","","","","","tol_peg_2","1155","1155","0","[[1,3,0],[2,0],[0]]","3","[[1,3,0],[2,0],[0]]","0","0","","","","","","3","",""
"","","","","","poldrack-single-stim","211","664566","0.0-3.0-11.0","5dd1919051c6d2208e27fbc1","F1","batch6","","-1","","","tol_feedback","true","","","","","","","","","1000","1000","500","","","","","","-1","none","true","5617","8029","","",""
"","","","","","html-button-response","212","666220","0.0-3.0-12.0","5dd1919051c6d2208e27fbc1","F1","batch6","","1653.5","<div class = centerbox><p class = center-block-text>problem <strong>2</strong> out of 25 problems</p></div>","0","tol_trial_num","","","","","","","","","","","","","","","","","","","","","","","","",""
"","","","","","single-stim-button","213","669958","0.0-3.0-13.0-0.0","5dd1919051c6d2208e27fbc1","F1","batch6","","3738","","","tol_tohand","","","","","","","","","tol_peg_2","3738","3738","0","[[1,2,0],[0,0],[0]]","1","[[2,1,3],[0,0],[0]]","1","0","","","","","","5","",""
"","","","","","single-stim-button","214","674324","0.0-3.0-13.0-1.0","5dd1919051c6d2208e27fbc1","F1","batch6","","4366","","","tol_toboard","","","","","","","","","tol_peg_3","4366","4366","0","[[1,2,0],[0,0],[3]]","1","[[2,1,3],[0,0],[0]]","1","0","","","","","","5","",""
"","","","","","single-stim-button","215","676563","0.0-3.0-13.1-0.1","5dd1919051c6d2208e27fbc1","F1","batch6","","2239","","","tol_tohand","","","","","","","","","tol_peg_1","2239","2239","0","[[1,0,0],[0,0],[3]]","2","[[2,1,3],[0,0],[0]]","1","0","","","","","","5","",""
"","","","","","single-stim-button","216","678091","0.0-3.0-13.1-1.1","5dd1919051c6d2208e27fbc1","F1","batch6","","1527","","","tol_toboard","","","","","","","","","tol_peg_2","1527","1527","0","[[1,0,0],[2,0],[3]]","2","[[2,1,3],[0,0],[0]]","1","0","","","","","","5","",""
"","","","","","single-stim-button","217","682250","0.0-3.0-13.2-0.2","5dd1919051c6d2208e27fbc1","F1","batch6","","4159","","","tol_tohand","","","","","","","","","tol_peg_1","4159","4159","0","[[0,0,0],[2,0],[3]]","3","[[2,1,3],[0,0],[0]]","1","0","","","","","","5","",""
"","","","","","single-stim-button","218","691714","0.0-3.0-13.2-1.2","5dd1919051c6d2208e27fbc1","F1","batch6","","9464","","","tol_toboard","","","","","","","","","tol_peg_2","9464","9464","0","[[0,0,0],[2,1],[3]]","3","[[2,1,3],[0,0],[0]]","1","0","","","","","","5","",""
"","","","","","single-stim-button","219","697596","0.0-3.0-13.3-0.3","5dd1919051c6d2208e27fbc1","F1","batch6","","5882","","","tol_tohand","","","","","","","","","tol_peg_2","5882","5882","0","[[0,0,0],[2,0],[3]]","4","[[2,1,3],[0,0],[0]]","1","0","","","","","","5","",""
"","","","","","single-stim-button","220","699674","0.0-3.0-13.3-1.3","5dd1919051c6d2208e27fbc1","F1","batch6","","2077","","","tol_toboard","","","","","","","","","tol_peg_2","2077","2077","0","[[0,0,0],[2,1],[3]]","4","[[2,1,3],[0,0],[0]]","1","0","","","","","","5","",""
"","","","","","single-stim-button","221","705086","0.0-3.0-13.4-0.4","5dd1919051c6d2208e27fbc1","F1","batch6","","5412","","","tol_tohand","","","","","","","","","tol_peg_2","5412","5412","0","[[0,0,0],[2,0],[3]]","5","[[2,1,3],[0,0],[0]]","1","0","","","","","","5","",""
"","","","","","single-stim-button","222","707015","0.0-3.0-13.4-1.4","5dd1919051c6d2208e27fbc1","F1","batch6","","1929","","","tol_toboard","","","","","","","","","tol_peg_1","1929","1929","0","[[1,0,0],[2,0],[3]]","5","[[2,1,3],[0,0],[0]]","1","0","","","","","","5","",""
"","","","","","single-stim-button","223","708472","0.0-3.0-13.5-0.5","5dd1919051c6d2208e27fbc1","F1","batch6","","1455","","","tol_tohand","","","","","","","","","tol_peg_3","1455","1455","0","[[1,0,0],[2,0],[0]]","6","[[2,1,3],[0,0],[0]]","1","0","","","","","","5","",""
"","","","","","single-stim-button","224","713360","0.0-3.0-13.5-1.5","5dd1919051c6d2208e27fbc1","F1","batch6","","4888","","","tol_toboard","","","","","","","","","tol_peg_1","4888","4888","0","[[1,3,0],[2,0],[0]]","6","[[2,1,3],[0,0],[0]]","1","0","","","","","","5","",""
"","","","","","single-stim-button","225","714428","0.0-3.0-13.6-0.6","5dd1919051c6d2208e27fbc1","F1","batch6","","1068","","","tol_tohand","","","","","","","","","tol_peg_2","1068","1068","0","[[1,3,0],[0,0],[0]]","7","[[2,1,3],[0,0],[0]]","1","0","","","","","","5","",""
"","","","","","single-stim-button","226","715525","0.0-3.0-13.6-1.6","5dd1919051c6d2208e27fbc1","F1","batch6","","1097","","","tol_toboard","","","","","","","","","tol_peg_3","1097","1097","0","[[1,3,0],[0,0],[2]]","7","[[2,1,3],[0,0],[0]]","1","0","","","","","","5","",""
"","","","","","single-stim-button","227","716614","0.0-3.0-13.7-0.7","5dd1919051c6d2208e27fbc1","F1","batch6","","1089","","","tol_tohand","","","","","","","","","tol_peg_1","1089","1089","0","[[1,0,0],[0,0],[2]]","8","[[2,1,3],[0,0],[0]]","1","0","","","","","","5","",""
"","","","","","single-stim-button","228","717660","0.0-3.0-13.7-1.7","5dd1919051c6d2208e27fbc1","F1","batch6","","1046","","","tol_toboard","","","","","","","","","tol_peg_2","1046","1046","0","[[1,0,0],[3,0],[2]]","8","[[2,1,3],[0,0],[0]]","1","0","","","","","","5","",""
"","","","","","single-stim-button","229","718940","0.0-3.0-13.8-0.8","5dd1919051c6d2208e27fbc1","F1","batch6","","1279","","","tol_tohand","","","","","","","","","tol_peg_1","1279","1279","0","[[0,0,0],[3,0],[2]]","9","[[2,1,3],[0,0],[0]]","1","0","","","","","","5","",""
"","","","","","single-stim-button","230","725166","0.0-3.0-13.8-1.8","5dd1919051c6d2208e27fbc1","F1","batch6","","6225","","","tol_toboard","","","","","","","","","tol_peg_2","6225","6225","0","[[0,0,0],[3,1],[2]]","9","[[2,1,3],[0,0],[0]]","1","0","","","","","","5","",""
"","","","","","single-stim-button","231","732186","0.0-3.0-13.9-0.9","5dd1919051c6d2208e27fbc1","F1","batch6","","7020","","","tol_tohand","","","","","","","","","tol_peg_2","7020","7020","0","[[0,0,0],[3,0],[2]]","10","[[2,1,3],[0,0],[0]]","1","0","","","","","","5","",""
"","","","","","single-stim-button","232","734254","0.0-3.0-13.9-1.9","5dd1919051c6d2208e27fbc1","F1","batch6","","2068","","","tol_toboard","","","","","","","","","tol_peg_1","2068","2068","0","[[1,0,0],[3,0],[2]]","10","[[2,1,3],[0,0],[0]]","1","0","","","","","","5","",""
"","","","","","single-stim-button","233","735202","0.0-3.0-13.10-0.10","5dd1919051c6d2208e27fbc1","F1","batch6","","947","","","tol_tohand","","","","","","","","","tol_peg_2","947","947","0","[[1,0,0],[0,0],[2]]","11","[[2,1,3],[0,0],[0]]","1","0","","","","","","5","",""
"","","","","","single-stim-button","234","736362","0.0-3.0-13.10-1.10","5dd1919051c6d2208e27fbc1","F1","batch6","","1160","","","tol_toboard","","","","","","","","","tol_peg_1","1160","1160","0","[[1,3,0],[0,0],[2]]","11","[[2,1,3],[0,0],[0]]","1","0","","","","","","5","",""
"","","","","","single-stim-button","235","737605","0.0-3.0-13.11-0.11","5dd1919051c6d2208e27fbc1","F1","batch6","","1241","","","tol_tohand","","","","","","","","","tol_peg_3","1241","1241","0","[[1,3,0],[0,0],[0]]","12","[[2,1,3],[0,0],[0]]","1","0","","","","","","5","",""
"","","","","","single-stim-button","236","738697","0.0-3.0-13.11-1.11","5dd1919051c6d2208e27fbc1","F1","batch6","","1092","","","tol_toboard","","","","","","","","","tol_peg_2","1092","1092","0","[[1,3,0],[2,0],[0]]","12","[[2,1,3],[0,0],[0]]","1","0","","","","","","5","",""
"","","","","","single-stim-button","237","739618","0.0-3.0-13.12-0.12","5dd1919051c6d2208e27fbc1","F1","batch6","","920","","","tol_tohand","","","","","","","","","tol_peg_1","920","920","0","[[1,0,0],[2,0],[0]]","13","[[2,1,3],[0,0],[0]]","1","0","","","","","","5","",""
"","","","","","single-stim-button","238","744204","0.0-3.0-13.12-1.12","5dd1919051c6d2208e27fbc1","F1","batch6","","4586","","","tol_toboard","","","","","","","","","tol_peg_3","4586","4586","0","[[1,0,0],[2,0],[3]]","13","[[2,1,3],[0,0],[0]]","1","0","","","","","","5","",""
"","","","","","single-stim-button","239","745260","0.0-3.0-13.13-0.13","5dd1919051c6d2208e27fbc1","F1","batch6","","1055","","","tol_tohand","","","","","","","","","tol_peg_1","1055","1055","0","[[0,0,0],[2,0],[3]]","14","[[2,1,3],[0,0],[0]]","1","0","","","","","","5","",""
"","","","","","single-stim-button","240","754584","0.0-3.0-13.13-1.13","5dd1919051c6d2208e27fbc1","F1","batch6","","9324","","","tol_toboard","","","","","","","","","tol_peg_1","9324","9324","0","[[1,0,0],[2,0],[3]]","14","[[2,1,3],[0,0],[0]]","1","0","","","","","","5","",""
"","","","","","single-stim-button","241","756141","0.0-3.0-13.14-0.14","5dd1919051c6d2208e27fbc1","F1","batch6","","1557","","","tol_tohand","","","","","","","","","tol_peg_2","1557","1557","0","[[1,0,0],[0,0],[3]]","15","[[2,1,3],[0,0],[0]]","1","0","","","","","","5","",""
"","","","","","single-stim-button","242","759172","0.0-3.0-13.14-1.14","5dd1919051c6d2208e27fbc1","F1","batch6","","3031","","","tol_toboard","","","","","","","","","tol_peg_1","3031","3031","0","[[1,2,0],[0,0],[3]]","15","[[2,1,3],[0,0],[0]]","1","0","","","","","","5","",""
"","","","","","single-stim-button","243","760129","0.0-3.0-13.15-0.15","5dd1919051c6d2208e27fbc1","F1","batch6","","957","","","tol_tohand","","","","","","","","","tol_peg_3","957","957","0","[[1,2,0],[0,0],[0]]","16","[[2,1,3],[0,0],[0]]","1","0","","","","","","5","",""
"","","","","","single-stim-button","244","761232","0.0-3.0-13.15-1.15","5dd1919051c6d2208e27fbc1","F1","batch6","","1103","","","tol_toboard","","","","","","","","","tol_peg_2","1103","1103","0","[[1,2,0],[3,0],[0]]","16","[[2,1,3],[0,0],[0]]","1","0","","","","","","5","",""
"","","","","","single-stim-button","245","762350","0.0-3.0-13.16-0.16","5dd1919051c6d2208e27fbc1","F1","batch6","","1117","","","tol_tohand","","","","","","","","","tol_peg_1","1117","1117","0","[[1,0,0],[3,0],[0]]","17","[[2,1,3],[0,0],[0]]","1","0","","","","","","5","",""
"","","","","","single-stim-button","246","765455","0.0-3.0-13.16-1.16","5dd1919051c6d2208e27fbc1","F1","batch6","","3104","","","tol_toboard","","","","","","","","","tol_peg_3","3104","3104","0","[[1,0,0],[3,0],[2]]","17","[[2,1,3],[0,0],[0]]","1","0","","","","","","5","",""
"","","","","","single-stim-button","247","766340","0.0-3.0-13.17-0.17","5dd1919051c6d2208e27fbc1","F1","batch6","","885","","","tol_tohand","","","","","","","","","tol_peg_1","885","885","0","[[0,0,0],[3,0],[2]]","18","[[2,1,3],[0,0],[0]]","1","0","","","","","","5","",""
"","","","","","single-stim-button","248","767428","0.0-3.0-13.17-1.17","5dd1919051c6d2208e27fbc1","F1","batch6","","1088","","","tol_toboard","","","","","","","","","tol_peg_2","1088","1088","0","[[0,0,0],[3,1],[2]]","18","[[2,1,3],[0,0],[0]]","1","0","","","","","","5","",""
"","","","","","single-stim-button","249","768403","0.0-3.0-13.18-0.18","5dd1919051c6d2208e27fbc1","F1","batch6","","974","","","tol_tohand","","","","","","","","","tol_peg_3","974","974","0","[[0,0,0],[3,1],[0]]","19","[[2,1,3],[0,0],[0]]","1","0","","","","","","5","",""
"","","","","","single-stim-button","250","769202","0.0-3.0-13.18-1.18","5dd1919051c6d2208e27fbc1","F1","batch6","","799","","","tol_toboard","","","","","","","","","tol_peg_1","799","799","0","[[2,0,0],[3,1],[0]]","19","[[2,1,3],[0,0],[0]]","1","0","","","","","","5","",""
"","","","","","single-stim-button","251","770125","0.0-3.0-13.19-0.19","5dd1919051c6d2208e27fbc1","F1","batch6","","922","","","tol_tohand","","","","","","","","","tol_peg_2","922","922","0","[[2,0,0],[3,0],[0]]","20","[[2,1,3],[0,0],[0]]","1","0","","","","","","5","",""
"","","","","","single-stim-button","252","771734","0.0-3.0-13.19-1.19","5dd1919051c6d2208e27fbc1","F1","batch6","","1609","","","tol_toboard","","","","","","","","","tol_peg_1","1609","1609","0","[[2,1,0],[3,0],[0]]","20","[[2,1,3],[0,0],[0]]","1","0","","","","","","5","",""
"","","","","","single-stim-button","253","772550","0.0-3.0-13.20-0.20","5dd1919051c6d2208e27fbc1","F1","batch6","","815","","","tol_tohand","","","","","","","","","tol_peg_2","815","815","0","[[2,1,0],[0,0],[0]]","21","[[2,1,3],[0,0],[0]]","1","0","","","","","","5","",""
"","","","","","single-stim-button","254","773712","0.0-3.0-13.20-1.20","5dd1919051c6d2208e27fbc1","F1","batch6","","1161","","","tol_toboard","","","","","","","","","tol_peg_1","1161","1161","0","[[2,1,3],[0,0],[0]]","21","[[2,1,3],[0,0],[0]]","1","0","","","","","","5","",""
"","","","","","poldrack-single-stim","255","774713","0.0-3.0-14.0","5dd1919051c6d2208e27fbc1","F1","batch6","","-1","","","tol_feedback","true","","","","","","","","","1000","1000","500","","","","","","-1","none","true","3738","44731","","",""
"","","","","","html-button-response","256","777330","0.0-3.0-15.0","5dd1919051c6d2208e27fbc1","F1","batch6","","2616.2999999988824","<div class = centerbox><p class = center-block-text>problem <strong>3</strong> out of 25 problems</p></div>","0","tol_trial_num","","","","","","","","","","","","","","","","","","","","","","","","",""
"","","","","","single-stim-button","257","781920","0.0-3.0-16.0-0.0","5dd1919051c6d2208e27fbc1","F1","batch6","","4590","","","tol_tohand","","","","","","","","","tol_peg_1","4590","4590","0","[[2,0,0],[0,0],[1]]","1","[[1,2,0],[3,0],[0]]","2","0","","","","","","4","",""
"","","","","","single-stim-button","258","783158","0.0-3.0-16.0-1.0","5dd1919051c6d2208e27fbc1","F1","batch6","","1237","","","tol_toboard","","","","","","","","","tol_peg_2","1237","1237","0","[[2,0,0],[3,0],[1]]","1","[[1,2,0],[3,0],[0]]","2","0","","","","","","4","",""
"","","","","","single-stim-button","259","785616","0.0-3.0-16.1-0.1","5dd1919051c6d2208e27fbc1","F1","batch6","","2458","","","tol_tohand","","","","","","","","","tol_peg_1","2458","2458","0","[[0,0,0],[3,0],[1]]","2","[[1,2,0],[3,0],[0]]","2","0","","","","","","4","",""
"","","","","","single-stim-button","260","786494","0.0-3.0-16.1-1.1","5dd1919051c6d2208e27fbc1","F1","batch6","","877","","","tol_toboard","","","","","","","","","tol_peg_2","877","877","0","[[0,0,0],[3,2],[1]]","2","[[1,2,0],[3,0],[0]]","2","0","","","","","","4","",""
"","","","","","single-stim-button","261","787632","0.0-3.0-16.2-0.2","5dd1919051c6d2208e27fbc1","F1","batch6","","1137","","","tol_tohand","","","","","","","","","tol_peg_3","1137","1137","0","[[0,0,0],[3,2],[0]]","3","[[1,2,0],[3,0],[0]]","2","0","","","","","","4","",""
"","","","","","single-stim-button","262","789259","0.0-3.0-16.2-1.2","5dd1919051c6d2208e27fbc1","F1","batch6","","1627","","","tol_toboard","","","","","","","","","tol_peg_1","1627","1627","0","[[1,0,0],[3,2],[0]]","3","[[1,2,0],[3,0],[0]]","2","0","","","","","","4","",""
"","","","","","single-stim-button","263","790013","0.0-3.0-16.3-0.3","5dd1919051c6d2208e27fbc1","F1","batch6","","754","","","tol_tohand","","","","","","","","","tol_peg_2","754","754","0","[[1,0,0],[3,0],[0]]","4","[[1,2,0],[3,0],[0]]","2","0","","","","","","4","",""
"","","","","","single-stim-button","264","791417","0.0-3.0-16.3-1.3","5dd1919051c6d2208e27fbc1","F1","batch6","","1404","","","tol_toboard","","","","","","","","","tol_peg_1","1404","1404","0","[[1,2,0],[3,0],[0]]","4","[[1,2,0],[3,0],[0]]","2","0","","","","","","4","",""
"","","","","","poldrack-single-stim","265","792417","0.0-3.0-17.0","5dd1919051c6d2208e27fbc1","F1","batch6","","-1","","","tol_feedback","true","","","","","","","","","1000","1000","500","","","","","","-1","none","true","4590","8939","","",""
"","","","","","html-button-response","266","793742","0.0-3.0-18.0","5dd1919051c6d2208e27fbc1","F1","batch6","","1324.199999999255","<div class = centerbox><p class = center-block-text>problem <strong>4</strong> out of 25 problems</p></div>","0","tol_trial_num","","","","","","","","","","","","","","","","","","","","","","","","",""
"","","","","","single-stim-button","267","798406","0.0-3.0-19.0-0.0","5dd1919051c6d2208e27fbc1","F1","batch6","","4664","","","tol_tohand","","","","","","","","","tol_peg_2","4664","4664","0","[[3,0,0],[2,0],[0]]","1","[[3,0,0],[1,0],[2]]","3","0","","","","","","3","",""
"","","","","","single-stim-button","268","799376","0.0-3.0-19.0-1.0","5dd1919051c6d2208e27fbc1","F1","batch6","","970","","","tol_toboard","","","","","","","","","tol_peg_1","970","970","0","[[3,1,0],[2,0],[0]]","1","[[3,0,0],[1,0],[2]]","3","0","","","","","","3","",""
"","","","","","single-stim-button","269","800282","0.0-3.0-19.1-0.1","5dd1919051c6d2208e27fbc1","F1","batch6","","906","","","tol_tohand","","","","","","","","","tol_peg_2","906","906","0","[[3,1,0],[0,0],[0]]","2","[[3,0,0],[1,0],[2]]","3","0","","","","","","3","",""
"","","","","","single-stim-button","270","801408","0.0-3.0-19.1-1.1","5dd1919051c6d2208e27fbc1","F1","batch6","","1126","","","tol_toboard","","","","","","","","","tol_peg_3","1126","1126","0","[[3,1,0],[0,0],[2]]","2","[[3,0,0],[1,0],[2]]","3","0","","","","","","3","",""
"","","","","","single-stim-button","271","802460","0.0-3.0-19.2-0.2","5dd1919051c6d2208e27fbc1","F1","batch6","","1052","","","tol_tohand","","","","","","","","","tol_peg_1","1052","1052","0","[[3,0,0],[0,0],[2]]","3","[[3,0,0],[1,0],[2]]","3","0","","","","","","3","",""
"","","","","","single-stim-button","272","803378","0.0-3.0-19.2-1.2","5dd1919051c6d2208e27fbc1","F1","batch6","","918","","","tol_toboard","","","","","","","","","tol_peg_2","918","918","0","[[3,0,0],[1,0],[2]]","3","[[3,0,0],[1,0],[2]]","3","0","","","","","","3","",""
"","","","","","poldrack-single-stim","273","804379","0.0-3.0-20.0","5dd1919051c6d2208e27fbc1","F1","batch6","","-1","","","tol_feedback","true","","","","","","","","","1000","1000","500","","","","","","-1","none","true","4664","6622","","",""
"","","","","","html-button-response","274","806810","0.0-3.0-21.0","5dd1919051c6d2208e27fbc1","F1","batch6","","2430.5999999996275","<div class = centerbox><p class = center-block-text>problem <strong>5</strong> out of 25 problems</p></div>","0","tol_trial_num","","","","","","","","","","","","","","","","","","","","","","","","",""
"","","","","","single-stim-button","275","823506","0.0-3.0-22.0-0.0","5dd1919051c6d2208e27fbc1","F1","batch6","","16696","","","tol_tohand","","","","","","","","","tol_peg_3","16696","16696","0","[[1,0,0],[2,0],[0]]","1","[[0,0,0],[1,2],[3]]","4","0","","","","","","7","",""
"","","","","","single-stim-button","276","826672","0.0-3.0-22.0-1.0","5dd1919051c6d2208e27fbc1","F1","batch6","","3166","","","tol_toboard","","","","","","","","","tol_peg_1","3166","3166","0","[[1,3,0],[2,0],[0]]","1","[[0,0,0],[1,2],[3]]","4","0","","","","","","7","",""
"","","","","","single-stim-button","277","827741","0.0-3.0-22.1-0.1","5dd1919051c6d2208e27fbc1","F1","batch6","","1069","","","tol_tohand","","","","","","","","","tol_peg_2","1069","1069","0","[[1,3,0],[0,0],[0]]","2","[[0,0,0],[1,2],[3]]","4","0","","","","","","7","",""
"","","","","","single-stim-button","278","830428","0.0-3.0-22.1-1.1","5dd1919051c6d2208e27fbc1","F1","batch6","","2687","","","tol_toboard","","","","","","","","","tol_peg_3","2687","2687","0","[[1,3,0],[0,0],[2]]","2","[[0,0,0],[1,2],[3]]","4","0","","","","","","7","",""
"","","","","","single-stim-button","279","832457","0.0-3.0-22.2-0.2","5dd1919051c6d2208e27fbc1","F1","batch6","","2029","","","tol_tohand","","","","","","","","","tol_peg_1","2029","2029","0","[[1,0,0],[0,0],[2]]","3","[[0,0,0],[1,2],[3]]","4","0","","","","","","7","",""
"","","","","","single-stim-button","280","835873","0.0-3.0-22.2-1.2","5dd1919051c6d2208e27fbc1","F1","batch6","","3416","","","tol_toboard","","","","","","","","","tol_peg_2","3416","3416","0","[[1,0,0],[3,0],[2]]","3","[[0,0,0],[1,2],[3]]","4","0","","","","","","7","",""
"","","","","","single-stim-button","281","836596","0.0-3.0-22.3-0.3","5dd1919051c6d2208e27fbc1","F1","batch6","","722","","","tol_tohand","","","","","","","","","tol_peg_1","722","722","0","[[0,0,0],[3,0],[2]]","4","[[0,0,0],[1,2],[3]]","4","0","","","","","","7","",""
"","","","","","single-stim-button","282","837883","0.0-3.0-22.3-1.3","5dd1919051c6d2208e27fbc1","F1","batch6","","1287","","","tol_toboard","","","","","","","","","tol_peg_2","1287","1287","0","[[0,0,0],[3,1],[2]]","4","[[0,0,0],[1,2],[3]]","4","0","","","","","","7","",""
"","","","","","single-stim-button","283","839552","0.0-3.0-22.4-0.4","5dd1919051c6d2208e27fbc1","F1","batch6","","1669","","","tol_tohand","","","","","","","","","tol_peg_2","1669","1669","0","[[0,0,0],[3,0],[2]]","5","[[0,0,0],[1,2],[3]]","4","0","","","","","","7","",""
"","","","","","single-stim-button","284","845972","0.0-3.0-22.4-1.4","5dd1919051c6d2208e27fbc1","F1","batch6","","6419","","","tol_toboard","","","","","","","","","tol_peg_1","6419","6419","0","[[1,0,0],[3,0],[2]]","5","[[0,0,0],[1,2],[3]]","4","0","","","","","","7","",""
"","","","","","single-stim-button","285","847148","0.0-3.0-22.5-0.5","5dd1919051c6d2208e27fbc1","F1","batch6","","1176","","","tol_tohand","","","","","","","","","tol_peg_3","1176","1176","0","[[1,0,0],[3,0],[0]]","6","[[0,0,0],[1,2],[3]]","4","0","","","","","","7","",""
"","","","","","single-stim-button","286","848034","0.0-3.0-22.5-1.5","5dd1919051c6d2208e27fbc1","F1","batch6","","886","","","tol_toboard","","","","","","","","","tol_peg_2","886","886","0","[[1,0,0],[3,2],[0]]","6","[[0,0,0],[1,2],[3]]","4","0","","","","","","7","",""
"","","","","","single-stim-button","287","850071","0.0-3.0-22.6-0.6","5dd1919051c6d2208e27fbc1","F1","batch6","","2037","","","tol_tohand","","","","","","","","","tol_peg_1","2037","2037","0","[[0,0,0],[3,2],[0]]","7","[[0,0,0],[1,2],[3]]","4","0","","","","","","7","",""
"","","","","","single-stim-button","288","850950","0.0-3.0-22.6-1.6","5dd1919051c6d2208e27fbc1","F1","batch6","","878","","","tol_toboard","","","","","","","","","tol_peg_3","878","878","0","[[0,0,0],[3,2],[1]]","7","[[0,0,0],[1,2],[3]]","4","0","","","","","","7","",""
"","","","","","single-stim-button","289","854790","0.0-3.0-22.7-0.7","5dd1919051c6d2208e27fbc1","F1","batch6","","3840","","","tol_tohand","","","","","","","","","tol_peg_2","3840","3840","0","[[0,0,0],[3,0],[1]]","8","[[0,0,0],[1,2],[3]]","4","0","","","","","","7","",""
"","","","","","single-stim-button","290","856878","0.0-3.0-22.7-1.7","5dd1919051c6d2208e27fbc1","F1","batch6","","2088","","","tol_toboard","","","","","","","","","tol_peg_1","2088","2088","0","[[2,0,0],[3,0],[1]]","8","[[0,0,0],[1,2],[3]]","4","0","","","","","","7","",""
"","","","","","single-stim-button","291","857846","0.0-3.0-22.8-0.8","5dd1919051c6d2208e27fbc1","F1","batch6","","967","","","tol_tohand","","","","","","","","","tol_peg_2","967","967","0","[[2,0,0],[0,0],[1]]","9","[[0,0,0],[1,2],[3]]","4","0","","","","","","7","",""
"","","","","","single-stim-button","292","858852","0.0-3.0-22.8-1.8","5dd1919051c6d2208e27fbc1","F1","batch6","","1006","","","tol_toboard","","","","","","","","","tol_peg_1","1006","1006","0","[[2,3,0],[0,0],[1]]","9","[[0,0,0],[1,2],[3]]","4","0","","","","","","7","",""
"","","","","","single-stim-button","293","859705","0.0-3.0-22.9-0.9","5dd1919051c6d2208e27fbc1","F1","batch6","","852","","","tol_tohand","","","","","","","","","tol_peg_3","852","852","0","[[2,3,0],[0,0],[0]]","10","[[0,0,0],[1,2],[3]]","4","0","","","","","","7","",""
"","","","","","single-stim-button","294","860578","0.0-3.0-22.9-1.9","5dd1919051c6d2208e27fbc1","F1","batch6","","872","","","tol_toboard","","","","","","","","","tol_peg_2","872","872","0","[[2,3,0],[1,0],[0]]","10","[[0,0,0],[1,2],[3]]","4","0","","","","","","7","",""
"","","","","","single-stim-button","295","861418","0.0-3.0-22.10-0.10","5dd1919051c6d2208e27fbc1","F1","batch6","","840","","","tol_tohand","","","","","","","","","tol_peg_1","840","840","0","[[2,0,0],[1,0],[0]]","11","[[0,0,0],[1,2],[3]]","4","0","","","","","","7","",""
"","","","","","single-stim-button","296","862656","0.0-3.0-22.10-1.10","5dd1919051c6d2208e27fbc1","F1","batch6","","1238","","","tol_toboard","","","","","","","","","tol_peg_3","1238","1238","0","[[2,0,0],[1,0],[3]]","11","[[0,0,0],[1,2],[3]]","4","0","","","","","","7","",""
"","","","","","single-stim-button","297","863514","0.0-3.0-22.11-0.11","5dd1919051c6d2208e27fbc1","F1","batch6","","857","","","tol_tohand","","","","","","","","","tol_peg_1","857","857","0","[[0,0,0],[1,0],[3]]","12","[[0,0,0],[1,2],[3]]","4","0","","","","","","7","",""
"","","","","","single-stim-button","298","864611","0.0-3.0-22.11-1.11","5dd1919051c6d2208e27fbc1","F1","batch6","","1097","","","tol_toboard","","","","","","","","","tol_peg_2","1097","1097","0","[[0,0,0],[1,2],[3]]","12","[[0,0,0],[1,2],[3]]","4","0","","","","","","7","",""
"","","","","","poldrack-single-stim","299","865612","0.0-3.0-23.0","5dd1919051c6d2208e27fbc1","F1","batch6","","-1","","","tol_feedback","true","","","","","","","","","1000","1000","500","","","","","","-1","none","true","16696","32754","","",""
"","","","","","html-button-response","300","867190","0.0-3.0-24.0","5dd1919051c6d2208e27fbc1","F1","batch6","","1577.7999999988824","<div class = centerbox><p class = center-block-text>problem <strong>6</strong> out of 25 problems</p></div>","0","tol_trial_num","","","","","","","","","","","","","","","","","","","","","","","","",""
"","","","","","single-stim-button","301","871406","0.0-3.0-25.0-0.0","5dd1919051c6d2208e27fbc1","F1","batch6","","4215","","","tol_tohand","","","","","","","","","tol_peg_2","4215","4215","0","[[0,0,0],[1,0],[3]]","1","[[1,0,0],[2,3],[0]]","5","0","","","","","","6","",""
"","","","","","single-stim-button","302","876820","0.0-3.0-25.0-1.0","5dd1919051c6d2208e27fbc1","F1","batch6","","5413","","","tol_toboard","","","","","","","","","tol_peg_1","5413","5413","0","[[2,0,0],[1,0],[3]]","1","[[1,0,0],[2,3],[0]]","5","0","","","","","","6","",""
"","","","","","single-stim-button","303","877981","0.0-3.0-25.1-0.1","5dd1919051c6d2208e27fbc1","F1","batch6","","1160","","","tol_tohand","","","","","","","","","tol_peg_2","1160","1160","0","[[2,0,0],[0,0],[3]]","2","[[1,0,0],[2,3],[0]]","5","0","","","","","","6","",""
"","","","","","single-stim-button","304","881848","0.0-3.0-25.1-1.1","5dd1919051c6d2208e27fbc1","F1","batch6","","3867","","","tol_toboard","","","","","","","","","tol_peg_2","3867","3867","0","[[2,0,0],[1,0],[3]]","2","[[1,0,0],[2,3],[0]]","5","0","","","","","","6","",""
"","","","","","single-stim-button","305","882855","0.0-3.0-25.2-0.2","5dd1919051c6d2208e27fbc1","F1","batch6","","1006","","","tol_tohand","","","","","","","","","tol_peg_3","1006","1006","0","[[2,0,0],[1,0],[0]]","3","[[1,0,0],[2,3],[0]]","5","0","","","","","","6","",""
"","","","","","single-stim-button","306","886154","0.0-3.0-25.2-1.2","5dd1919051c6d2208e27fbc1","F1","batch6","","3299","","","tol_toboard","","","","","","","","","tol_peg_1","3299","3299","0","[[2,3,0],[1,0],[0]]","3","[[1,0,0],[2,3],[0]]","5","0","","","","","","6","",""
"","","","","","single-stim-button","307","887090","0.0-3.0-25.3-0.3","5dd1919051c6d2208e27fbc1","F1","batch6","","935","","","tol_tohand","","","","","","","","","tol_peg_2","935","935","0","[[2,3,0],[0,0],[0]]","4","[[1,0,0],[2,3],[0]]","5","0","","","","","","6","",""
"","","","","","single-stim-button","308","888365","0.0-3.0-25.3-1.3","5dd1919051c6d2208e27fbc1","F1","batch6","","1275","","","tol_toboard","","","","","","","","","tol_peg_3","1275","1275","0","[[2,3,0],[0,0],[1]]","4","[[1,0,0],[2,3],[0]]","5","0","","","","","","6","",""
"","","","","","single-stim-button","309","891604","0.0-3.0-25.4-0.4","5dd1919051c6d2208e27fbc1","F1","batch6","","3239","","","tol_tohand","","","","","","","","","tol_peg_1","3239","3239","0","[[2,0,0],[0,0],[1]]","5","[[1,0,0],[2,3],[0]]","5","0","","","","","","6","",""
"","","","","","single-stim-button","310","894634","0.0-3.0-25.4-1.4","5dd1919051c6d2208e27fbc1","F1","batch6","","3030","","","tol_toboard","","","","","","","","","tol_peg_2","3030","3030","0","[[2,0,0],[3,0],[1]]","5","[[1,0,0],[2,3],[0]]","5","0","","","","","","6","",""
"","","","","","single-stim-button","311","895292","0.0-3.0-25.5-0.5","5dd1919051c6d2208e27fbc1","F1","batch6","","658","","","tol_tohand","","","","","","","","","tol_peg_1","658","658","0","[[0,0,0],[3,0],[1]]","6","[[1,0,0],[2,3],[0]]","5","0","","","","","","6","",""
"","","","","","single-stim-button","312","895942","0.0-3.0-25.5-1.5","5dd1919051c6d2208e27fbc1","F1","batch6","","650","","","tol_toboard","","","","","","","","","tol_peg_2","650","650","0","[[0,0,0],[3,2],[1]]","6","[[1,0,0],[2,3],[0]]","5","0","","","","","","6","",""
"","","","","","single-stim-button","313","896722","0.0-3.0-25.6-0.6","5dd1919051c6d2208e27fbc1","F1","batch6","","779","","","tol_tohand","","","","","","","","","tol_peg_3","779","779","0","[[0,0,0],[3,2],[0]]","7","[[1,0,0],[2,3],[0]]","5","0","","","","","","6","",""
"","","","","","single-stim-button","314","898085","0.0-3.0-25.6-1.6","5dd1919051c6d2208e27fbc1","F1","batch6","","1362","","","tol_toboard","","","","","","","","","tol_peg_1","1362","1362","0","[[1,0,0],[3,2],[0]]","7","[[1,0,0],[2,3],[0]]","5","0","","","","","","6","",""
"","","","","","single-stim-button","315","898896","0.0-3.0-25.7-0.7","5dd1919051c6d2208e27fbc1","F1","batch6","","811","","","tol_tohand","","","","","","","","","tol_peg_2","811","811","0","[[1,0,0],[3,0],[0]]","8","[[1,0,0],[2,3],[0]]","5","0","","","","","","6","",""
"","","","","","single-stim-button","316","899960","0.0-3.0-25.7-1.7","5dd1919051c6d2208e27fbc1","F1","batch6","","1064","","","tol_toboard","","","","","","","","","tol_peg_3","1064","1064","0","[[1,0,0],[3,0],[2]]","8","[[1,0,0],[2,3],[0]]","5","0","","","","","","6","",""
"","","","","","single-stim-button","317","900755","0.0-3.0-25.8-0.8","5dd1919051c6d2208e27fbc1","F1","batch6","","794","","","tol_tohand","","","","","","","","","tol_peg_2","794","794","0","[[1,0,0],[0,0],[2]]","9","[[1,0,0],[2,3],[0]]","5","0","","","","","","6","",""
"","","","","","single-stim-button","318","901504","0.0-3.0-25.8-1.8","5dd1919051c6d2208e27fbc1","F1","batch6","","749","","","tol_toboard","","","","","","","","","tol_peg_1","749","749","0","[[1,3,0],[0,0],[2]]","9","[[1,0,0],[2,3],[0]]","5","0","","","","","","6","",""
"","","","","","single-stim-button","319","903059","0.0-3.0-25.9-0.9","5dd1919051c6d2208e27fbc1","F1","batch6","","1554","","","tol_tohand","","","","","","","","","tol_peg_3","1554","1554","0","[[1,3,0],[0,0],[0]]","10","[[1,0,0],[2,3],[0]]","5","0","","","","","","6","",""
"","","","","","single-stim-button","320","903700","0.0-3.0-25.9-1.9","5dd1919051c6d2208e27fbc1","F1","batch6","","640","","","tol_toboard","","","","","","","","","tol_peg_2","640","640","0","[[1,3,0],[2,0],[0]]","10","[[1,0,0],[2,3],[0]]","5","0","","","","","","6","",""
"","","","","","single-stim-button","321","904471","0.0-3.0-25.10-0.10","5dd1919051c6d2208e27fbc1","F1","batch6","","770","","","tol_tohand","","","","","","","","","tol_peg_1","770","770","0","[[1,0,0],[2,0],[0]]","11","[[1,0,0],[2,3],[0]]","5","0","","","","","","6","",""
"","","","","","single-stim-button","322","905274","0.0-3.0-25.10-1.10","5dd1919051c6d2208e27fbc1","F1","batch6","","803","","","tol_toboard","","","","","","","","","tol_peg_2","803","803","0","[[1,0,0],[2,3],[0]]","11","[[1,0,0],[2,3],[0]]","5","0","","","","","","6","",""
"","","","","","poldrack-single-stim","323","906275","0.0-3.0-26.0","5dd1919051c6d2208e27fbc1","F1","batch6","","-1","","","tol_feedback","true","","","","","","","","","1000","1000","500","","","","","","-1","none","true","4215","15921","","",""
"","","","","","html-button-response","324","907825","0.0-3.0-27.0","5dd1919051c6d2208e27fbc1","F1","batch6","","1549.199999999255","<div class = centerbox><p class = center-block-text>problem <strong>7</strong> out of 25 problems</p></div>","0","tol_trial_num","","","","","","","","","","","","","","","","","","","","","","","","",""
"","","","","","single-stim-button","325","911542","0.0-3.0-28.0-0.0","5dd1919051c6d2208e27fbc1","F1","batch6","","3717","","","tol_tohand","","","","","","","","","tol_peg_1","3717","3717","0","[[2,0,0],[0,0],[3]]","1","[[1,2,0],[3,0],[0]]","6","0","","","","","","5","",""
"","","","","","single-stim-button","326","912784","0.0-3.0-28.0-1.0","5dd1919051c6d2208e27fbc1","F1","batch6","","1241","","","tol_toboard","","","","","","","","","tol_peg_2","1241","1241","0","[[2,0,0],[1,0],[3]]","1","[[1,2,0],[3,0],[0]]","6","0","","","","","","5","",""
"","","","","","single-stim-button","327","913577","0.0-3.0-28.1-0.1","5dd1919051c6d2208e27fbc1","F1","batch6","","792","","","tol_tohand","","","","","","","","","tol_peg_1","792","792","0","[[0,0,0],[1,0],[3]]","2","[[1,2,0],[3,0],[0]]","6","0","","","","","","5","",""
"","","","","","single-stim-button","328","916412","0.0-3.0-28.1-1.1","5dd1919051c6d2208e27fbc1","F1","batch6","","2835","","","tol_toboard","","","","","","","","","tol_peg_1","2835","2835","0","[[2,0,0],[1,0],[3]]","2","[[1,2,0],[3,0],[0]]","6","0","","","","","","5","",""
"","","","","","single-stim-button","329","918343","0.0-3.0-28.2-0.2","5dd1919051c6d2208e27fbc1","F1","batch6","","1931","","","tol_tohand","","","","","","","","","tol_peg_3","1931","1931","0","[[2,0,0],[1,0],[0]]","3","[[1,2,0],[3,0],[0]]","6","0","","","","","","5","",""
"","","","","","single-stim-button","330","919228","0.0-3.0-28.2-1.2","5dd1919051c6d2208e27fbc1","F1","batch6","","885","","","tol_toboard","","","","","","","","","tol_peg_1","885","885","0","[[2,3,0],[1,0],[0]]","3","[[1,2,0],[3,0],[0]]","6","0","","","","","","5","",""
"","","","","","single-stim-button","331","920114","0.0-3.0-28.3-0.3","5dd1919051c6d2208e27fbc1","F1","batch6","","886","","","tol_tohand","","","","","","","","","tol_peg_2","886","886","0","[[2,3,0],[0,0],[0]]","4","[[1,2,0],[3,0],[0]]","6","0","","","","","","5","",""
"","","","","","single-stim-button","332","921062","0.0-3.0-28.3-1.3","5dd1919051c6d2208e27fbc1","F1","batch6","","948","","","tol_toboard","","","","","","","","","tol_peg_3","948","948","0","[[2,3,0],[0,0],[1]]","4","[[1,2,0],[3,0],[0]]","6","0","","","","","","5","",""
"","","","","","single-stim-button","333","922690","0.0-3.0-28.4-0.4","5dd1919051c6d2208e27fbc1","F1","batch6","","1628","","","tol_tohand","","","","","","","","","tol_peg_1","1628","1628","0","[[2,0,0],[0,0],[1]]","5","[[1,2,0],[3,0],[0]]","6","0","","","","","","5","",""
"","","","","","single-stim-button","334","923692","0.0-3.0-28.4-1.4","5dd1919051c6d2208e27fbc1","F1","batch6","","1002","","","tol_toboard","","","","","","","","","tol_peg_2","1002","1002","0","[[2,0,0],[3,0],[1]]","5","[[1,2,0],[3,0],[0]]","6","0","","","","","","5","",""
"","","","","","single-stim-button","335","924338","0.0-3.0-28.5-0.5","5dd1919051c6d2208e27fbc1","F1","batch6","","644","","","tol_tohand","","","","","","","","","tol_peg_1","644","644","0","[[0,0,0],[3,0],[1]]","6","[[1,2,0],[3,0],[0]]","6","0","","","","","","5","",""
"","","","","","single-stim-button","336","924954","0.0-3.0-28.5-1.5","5dd1919051c6d2208e27fbc1","F1","batch6","","615","","","tol_toboard","","","","","","","","","tol_peg_2","615","615","0","[[0,0,0],[3,2],[1]]","6","[[1,2,0],[3,0],[0]]","6","0","","","","","","5","",""
"","","","","","single-stim-button","337","925708","0.0-3.0-28.6-0.6","5dd1919051c6d2208e27fbc1","F1","batch6","","754","","","tol_tohand","","","","","","","","","tol_peg_3","754","754","0","[[0,0,0],[3,2],[0]]","7","[[1,2,0],[3,0],[0]]","6","0","","","","","","5","",""
"","","","","","single-stim-button","338","926424","0.0-3.0-28.6-1.6","5dd1919051c6d2208e27fbc1","F1","batch6","","716","","","tol_toboard","","","","","","","","","tol_peg_1","716","716","0","[[1,0,0],[3,2],[0]]","7","[[1,2,0],[3,0],[0]]","6","0","","","","","","5","",""
"","","","","","single-stim-button","339","927336","0.0-3.0-28.7-0.7","5dd1919051c6d2208e27fbc1","F1","batch6","","912","","","tol_tohand","","","","","","","","","tol_peg_2","912","912","0","[[1,0,0],[3,0],[0]]","8","[[1,2,0],[3,0],[0]]","6","0","","","","","","5","",""
"","","","","","single-stim-button","340","929294","0.0-3.0-28.7-1.7","5dd1919051c6d2208e27fbc1","F1","batch6","","1957","","","tol_toboard","","","","","","","","","tol_peg_1","1957","1957","0","[[1,2,0],[3,0],[0]]","8","[[1,2,0],[3,0],[0]]","6","0","","","","","","5","",""
"","","","","","poldrack-single-stim","341","930296","0.0-3.0-29.0","5dd1919051c6d2208e27fbc1","F1","batch6","","-1","","","tol_feedback","true","","","","","","","","","1000","1000","500","","","","","","-1","none","true","3717","11264","","",""
"","","","","","html-button-response","342","931978","0.0-3.0-30.0","5dd1919051c6d2208e27fbc1","F1","batch6","","1681.199999999255","<div class = centerbox><p class = center-block-text>problem <strong>8</strong> out of 25 problems</p></div>","0","tol_trial_num","","","","","","","","","","","","","","","","","","","","","","","","",""
"","","","","","single-stim-button","343","937912","0.0-3.0-31.0-0.0","5dd1919051c6d2208e27fbc1","F1","batch6","","5934","","","tol_tohand","","","","","","","","","tol_peg_3","5934","5934","0","[[0,0,0],[2,3],[0]]","1","[[1,2,0],[3,0],[0]]","7","0","","","","","","4","",""
"","","","","","single-stim-button","344","939054","0.0-3.0-31.0-1.0","5dd1919051c6d2208e27fbc1","F1","batch6","","1141","","","tol_toboard","","","","","","","","","tol_peg_1","1141","1141","0","[[1,0,0],[2,3],[0]]","1","[[1,2,0],[3,0],[0]]","7","0","","","","","","4","",""
"","","","","","single-stim-button","345","940434","0.0-3.0-31.1-0.1","5dd1919051c6d2208e27fbc1","F1","batch6","","1380","","","tol_tohand","","","","","","","","","tol_peg_2","1380","1380","0","[[1,0,0],[2,0],[0]]","2","[[1,2,0],[3,0],[0]]","7","0","","","","","","4","",""
"","","","","","single-stim-button","346","941228","0.0-3.0-31.1-1.1","5dd1919051c6d2208e27fbc1","F1","batch6","","794","","","tol_toboard","","","","","","","","","tol_peg_3","794","794","0","[[1,0,0],[2,0],[3]]","2","[[1,2,0],[3,0],[0]]","7","0","","","","","","4","",""
"","","","","","single-stim-button","347","942137","0.0-3.0-31.2-0.2","5dd1919051c6d2208e27fbc1","F1","batch6","","909","","","tol_tohand","","","","","","","","","tol_peg_2","909","909","0","[[1,0,0],[0,0],[3]]","3","[[1,2,0],[3,0],[0]]","7","0","","","","","","4","",""
"","","","","","single-stim-button","348","942993","0.0-3.0-31.2-1.2","5dd1919051c6d2208e27fbc1","F1","batch6","","855","","","tol_toboard","","","","","","","","","tol_peg_1","855","855","0","[[1,2,0],[0,0],[3]]","3","[[1,2,0],[3,0],[0]]","7","0","","","","","","4","",""
