"success","timeout","failed_images","failed_audio","failed_video","trial_type","trial_index","time_elapsed","internal_node_id","subject_id","study_id","session_id","view_history","rt","task","stimulus","response","correct","mouse_click","stim_duration","block_duration","timing_post_trial","current_position","tol_num_moves_made","tol_target","tol_problem_id","tol_rt","key_press","possible_responses","tol_correct","preplanning","tol_rt_per_trial","tol_min_moves","item","answer","spm_correct","spm_rt","fiar_detect_rt","fiar_detect_correct","total_correct_fiar_detect","post_trial_gap","choices"
"true","false","[]","[]","[]","preload","0","1005","0.0-0.0","5dd1a21340460e2103faf78c","D2","batch4","","","","","","","","","","","","","","","","","","","","","","","","","","","","","",""
"true","","","","","fullscreen","1","8892","0.0-1.0-0.0","5dd1a21340460e2103faf78c","D2","batch4","","","","","","","","","","","","","","","","","","","","","","","","","","","","","",""
"true","","","","","fullscreen","2","11655","0.0-2.0-0.0","5dd1a21340460e2103faf78c","D2","batch4","","","","","","","","","","","","","","","","","","","","","","","","","","","","","",""
"","","","","","instructions","3","54347","0.0-2.0-1.0-0.0-0.0","5dd1a21340460e2103faf78c","D2","batch4","[{""page_index"":0,""viewing_time"":7686.200000047684},{""page_index"":1,""viewing_time"":3275.2000000476837},{""page_index"":2,""viewing_time"":2700.5},{""page_index"":3,""viewing_time"":7810.5},{""page_index"":4,""viewing_time"":7664.400000095367},{""page_index"":5,""viewing_time"":11356.299999952316},{""page_index"":6,""viewing_time"":2197.899999856949}]","42691.10000014305","tol-instructions","","","","","","","","","","","","","","","","","","","","","","","","","","",""
"","","","","","html-button-response","4","55151","0.0-2.0-1.0-1.0-0.0","5dd1a21340460e2103faf78c","D2","batch4","","803.7000000476837","tol_enter_quiz","<p class=block-text> Let's answer a few questions <br>","0","","","","","","","","","","","","","","","","","","","","","","","","",""
"","","","","","html-button-response","5","63376","0.0-2.0-1.0-1.0-1.0","5dd1a21340460e2103faf78c","D2","batch4","","8223.400000095367","tol_quiz","<p class = block-text>True or False: You can only move the ball on top of a peg. <br></p>","0","true","","","","","","","","","","","","","","","","","","","","","","","",""
"","","","","","html-button-response","6","64519","0.0-2.0-1.0-1.0-2.0","5dd1a21340460e2103faf78c","D2","batch4","","1142","tol_quiz_feedback","<p class = block-text>Correct! You can only move the ball on top of a peg.</p>","0","","","","","","","","","","","","","","","","","","","","","","","","",""
"","","","","","html-button-response","7","67548","0.0-2.0-1.0-1.0-3.0","5dd1a21340460e2103faf78c","D2","batch4","","3028.2999999523163","tol_quiz","<p class = block-text>True or False: You should try to match your board with the target board with fewest moves possible. <br></p>","0","true","","","","","","","","","","","","","","","","","","","","","","","",""
"","","","","","html-button-response","8","68306","0.0-2.0-1.0-1.0-4.0","5dd1a21340460e2103faf78c","D2","batch4","","755.7000000476837","tol_quiz_feedback","<p class = block-text>Correct! </p>","0","","","","","","","","","","","","","","","","","","","","","","","","",""
"","","","","","html-button-response","9","69913","0.0-2.0-2.0","5dd1a21340460e2103faf78c","D2","batch4","","1606.2000000476837","","<p class=block-text> Now that you've understood the game, let's practice a few easier examples before we start!<br> <br>","0","","","","","","","","","","","","","","","","","","","","","","","","",""
"","","","","","single-stim-button","10","71993","0.0-2.0-3.0-0.0","5dd1a21340460e2103faf78c","D2","batch4","","2078","tol_practice","","","","tol_peg_2","2078","2078","0","[[1,2,0],[0,0],[0]]","1","[[1,2,0],[0,0],[3]]","practice","2078","","","","","","","","","","","","","","",""
"","","","","","single-stim-button","11","72772","0.0-2.0-3.0-1.0","5dd1a21340460e2103faf78c","D2","batch4","","779","tol_practice","","","","tol_peg_3","779","779","0","[[1,2,0],[0,0],[3]]","1","[[1,2,0],[0,0],[3]]","practice","779","","","","","","","","","","","","","","",""
"","","","","","poldrack-single-stim","12","73784","0.0-2.0-4.0","5dd1a21340460e2103faf78c","D2","batch4","","-1","tol_feedback","","","true","","1000","1000","500","","","","","","-1","none","true","","0","","","","","","","","","",""
"","","","","","single-stim-button","13","76954","0.0-2.0-5.0-0.0","5dd1a21340460e2103faf78c","D2","batch4","","3168","tol_practice","","","","tol_peg_1","3168","3168","0","[[1,0,0],[3,0],[0]]","2","[[0,0,0],[3,1],[2]]","practice","3168","","","","","","","","","","","","","","",""
"","","","","","single-stim-button","14","77625","0.0-2.0-5.0-1.0","5dd1a21340460e2103faf78c","D2","batch4","","671","tol_practice","","","","tol_peg_3","671","671","0","[[1,0,0],[3,0],[2]]","2","[[0,0,0],[3,1],[2]]","practice","671","","","","","","","","","","","","","","",""
"","","","","","single-stim-button","15","78221","0.0-2.0-5.1-0.1","5dd1a21340460e2103faf78c","D2","batch4","","594","tol_practice","","","","tol_peg_1","594","594","0","[[0,0,0],[3,0],[2]]","3","[[0,0,0],[3,1],[2]]","practice","594","","","","","","","","","","","","","","",""
"","","","","","single-stim-button","16","78650","0.0-2.0-5.1-1.1","5dd1a21340460e2103faf78c","D2","batch4","","428","tol_practice","","","","tol_peg_2","428","428","0","[[0,0,0],[3,1],[2]]","3","[[0,0,0],[3,1],[2]]","practice","428","","","","","","","","","","","","","","",""
"","","","","","poldrack-single-stim","17","79658","0.0-2.0-6.0","5dd1a21340460e2103faf78c","D2","batch4","","-1","tol_feedback","","","true","","1000","1000","500","","","","","","-1","none","true","","0","","","","","","","","","",""
"","","","","","single-stim-button","18","82607","0.0-2.0-7.0-0.0","5dd1a21340460e2103faf78c","D2","batch4","","2948","tol_practice","","","","tol_peg_2","2948","2948","0","[[1,2,0],[0,0],[0]]","4","[[1,0,0],[2,0],[3]]","practice","2948","","","","","","","","","","","","","","",""
"","","","","","single-stim-button","19","83254","0.0-2.0-7.0-1.0","5dd1a21340460e2103faf78c","D2","batch4","","647","tol_practice","","","","tol_peg_3","647","647","0","[[1,2,0],[0,0],[3]]","4","[[1,0,0],[2,0],[3]]","practice","647","","","","","","","","","","","","","","",""
"","","","","","single-stim-button","20","84000","0.0-2.0-7.1-0.1","5dd1a21340460e2103faf78c","D2","batch4","","746","tol_practice","","","","tol_peg_1","746","746","0","[[1,0,0],[0,0],[3]]","5","[[1,0,0],[2,0],[3]]","practice","746","","","","","","","","","","","","","","",""
"","","","","","single-stim-button","21","84462","0.0-2.0-7.1-1.1","5dd1a21340460e2103faf78c","D2","batch4","","462","tol_practice","","","","tol_peg_2","462","462","0","[[1,0,0],[2,0],[3]]","5","[[1,0,0],[2,0],[3]]","practice","462","","","","","","","","","","","","","","",""
"","","","","","poldrack-single-stim","22","85470","0.0-2.0-8.0","5dd1a21340460e2103faf78c","D2","batch4","","-1","tol_feedback","","","true","","1000","1000","500","","","","","","-1","none","true","","0","","","","","","","","","",""
"","","","","","html-button-response","23","87409","0.0-2.0-9.0","5dd1a21340460e2103faf78c","D2","batch4","","1936.5","tol_instruction","<div class = centerbox><p class = center-block-text>Great job! You are done with practice trials<br>You are about to start official trials.<br> <br> Problem <strong>1</strong> out of 25 problems</p></div>","0","","","","","","","","","","","","","","","","","","","","","","","","",""
"","","","","","single-stim-button","24","92450","0.0-2.0-10.0-0.0","5dd1a21340460e2103faf78c","D2","batch4","","4031","tol_tohand","","","","tol_peg_1","4031","4031","0","[[1,0,0],[3,0],[0]]","1","[[1,3,0],[2,0],[0]]","0","0","","","","","","3","","","","","","","","",""
"","","","","","single-stim-button","25","93100","0.0-2.0-10.0-1.0","5dd1a21340460e2103faf78c","D2","batch4","","650","tol_toboard","","","","tol_peg_3","650","650","0","[[1,0,0],[3,0],[2]]","1","[[1,3,0],[2,0],[0]]","0","0","","","","","","3","","","","","","","","",""
"","","","","","single-stim-button","26","93595","0.0-2.0-10.1-0.1","5dd1a21340460e2103faf78c","D2","batch4","","495","tol_tohand","","","","tol_peg_2","495","495","0","[[1,0,0],[0,0],[2]]","2","[[1,3,0],[2,0],[0]]","0","0","","","","","","3","","","","","","","","",""
"","","","","","single-stim-button","27","94312","0.0-2.0-10.1-1.1","5dd1a21340460e2103faf78c","D2","batch4","","717","tol_toboard","","","","tol_peg_1","717","717","0","[[1,3,0],[0,0],[2]]","2","[[1,3,0],[2,0],[0]]","0","0","","","","","","3","","","","","","","","",""
"","","","","","single-stim-button","28","95282","0.0-2.0-10.2-0.2","5dd1a21340460e2103faf78c","D2","batch4","","970","tol_tohand","","","","tol_peg_3","970","970","0","[[1,3,0],[0,0],[0]]","3","[[1,3,0],[2,0],[0]]","0","0","","","","","","3","","","","","","","","",""
"","","","","","single-stim-button","29","96038","0.0-2.0-10.2-1.2","5dd1a21340460e2103faf78c","D2","batch4","","755","tol_toboard","","","","tol_peg_2","755","755","0","[[1,3,0],[2,0],[0]]","3","[[1,3,0],[2,0],[0]]","0","0","","","","","","3","","","","","","","","",""
"","","","","","poldrack-single-stim","30","97045","0.0-2.0-11.0","5dd1a21340460e2103faf78c","D2","batch4","","-1","tol_feedback","","","true","","1000","1000","500","","","","","","-1","none","true","4031","5496","","","","","","","","","",""
"","","","","","html-button-response","31","98025","0.0-2.0-12.0","5dd1a21340460e2103faf78c","D2","batch4","","977.2000000476837","tol_trial_num","<div class = centerbox><p class = center-block-text>problem <strong>2</strong> out of 25 problems</p></div>","0","","","","","","","","","","","","","","","","","","","","","","","","",""
"","","","","","single-stim-button","32","101653","0.0-2.0-13.0-0.0","5dd1a21340460e2103faf78c","D2","batch4","","3628","tol_tohand","","","","tol_peg_1","3628","3628","0","[[1,0,0],[3,0],[0]]","1","[[2,1,3],[0,0],[0]]","1","0","","","","","","5","","","","","","","","",""
"","","","","","single-stim-button","33","102445","0.0-2.0-13.0-1.0","5dd1a21340460e2103faf78c","D2","batch4","","791","tol_toboard","","","","tol_peg_3","791","791","0","[[1,0,0],[3,0],[2]]","1","[[2,1,3],[0,0],[0]]","1","0","","","","","","5","","","","","","","","",""
"","","","","","single-stim-button","34","106311","0.0-2.0-13.1-0.1","5dd1a21340460e2103faf78c","D2","batch4","","3866","tol_tohand","","","","tol_peg_3","3866","3866","0","[[1,0,0],[3,0],[0]]","2","[[2,1,3],[0,0],[0]]","1","0","","","","","","5","","","","","","","","",""
"","","","","","single-stim-button","35","110912","0.0-2.0-13.1-1.1","5dd1a21340460e2103faf78c","D2","batch4","","4599","tol_toboard","","","","tol_peg_2","4599","4599","0","[[1,0,0],[3,2],[0]]","2","[[2,1,3],[0,0],[0]]","1","0","","","","","","5","","","","","","","","",""
"","","","","","single-stim-button","36","111587","0.0-2.0-13.2-0.2","5dd1a21340460e2103faf78c","D2","batch4","","674","tol_tohand","","","","tol_peg_1","674","674","0","[[0,0,0],[3,2],[0]]","3","[[2,1,3],[0,0],[0]]","1","0","","","","","","5","","","","","","","","",""
"","","","","","single-stim-button","37","112328","0.0-2.0-13.2-1.2","5dd1a21340460e2103faf78c","D2","batch4","","741","tol_toboard","","","","tol_peg_3","741","741","0","[[0,0,0],[3,2],[1]]","3","[[2,1,3],[0,0],[0]]","1","0","","","","","","5","","","","","","","","",""
"","","","","","single-stim-button","38","113091","0.0-2.0-13.3-0.3","5dd1a21340460e2103faf78c","D2","batch4","","761","tol_tohand","","","","tol_peg_2","761","761","0","[[0,0,0],[3,0],[1]]","4","[[2,1,3],[0,0],[0]]","1","0","","","","","","5","","","","","","","","",""
"","","","","","single-stim-button","39","113755","0.0-2.0-13.3-1.3","5dd1a21340460e2103faf78c","D2","batch4","","663","tol_toboard","","","","tol_peg_1","663","663","0","[[2,0,0],[3,0],[1]]","4","[[2,1,3],[0,0],[0]]","1","0","","","","","","5","","","","","","","","",""
"","","","","","single-stim-button","40","114508","0.0-2.0-13.4-0.4","5dd1a21340460e2103faf78c","D2","batch4","","752","tol_tohand","","","","tol_peg_3","752","752","0","[[2,0,0],[3,0],[0]]","5","[[2,1,3],[0,0],[0]]","1","0","","","","","","5","","","","","","","","",""
"","","","","","single-stim-button","41","115136","0.0-2.0-13.4-1.4","5dd1a21340460e2103faf78c","D2","batch4","","628","tol_toboard","","","","tol_peg_1","628","628","0","[[2,1,0],[3,0],[0]]","5","[[2,1,3],[0,0],[0]]","1","0","","","","","","5","","","","","","","","",""
"","","","","","single-stim-button","42","115557","0.0-2.0-13.5-0.5","5dd1a21340460e2103faf78c","D2","batch4","","420","tol_tohand","","","","tol_peg_2","420","420","0","[[2,1,0],[0,0],[0]]","6","[[2,1,3],[0,0],[0]]","1","0","","","","","","5","","","","","","","","",""
"","","","","","single-stim-button","43","115878","0.0-2.0-13.5-1.5","5dd1a21340460e2103faf78c","D2","batch4","","321","tol_toboard","","","","tol_peg_1","321","321","0","[[2,1,3],[0,0],[0]]","6","[[2,1,3],[0,0],[0]]","1","0","","","","","","5","","","","","","","","",""
"","","","","","poldrack-single-stim","44","116890","0.0-2.0-14.0","5dd1a21340460e2103faf78c","D2","batch4","","-1","tol_feedback","","","true","","1000","1000","500","","","","","","-1","none","true","3628","10101","","","","","","","","","",""
"","","","","","html-button-response","45","117786","0.0-2.0-15.0","5dd1a21340460e2103faf78c","D2","batch4","","893.8999998569489","tol_trial_num","<div class = centerbox><p class = center-block-text>problem <strong>3</strong> out of 25 problems</p></div>","0","","","","","","","","","","","","","","","","","","","","","","","","",""
"","","","","","single-stim-button","46","121808","0.0-2.0-16.0-0.0","5dd1a21340460e2103faf78c","D2","batch4","","4021","tol_tohand","","","","tol_peg_1","4021","4021","0","[[2,0,0],[0,0],[1]]","1","[[1,2,0],[3,0],[0]]","2","0","","","","","","4","","","","","","","","",""
"","","","","","single-stim-button","47","122836","0.0-2.0-16.0-1.0","5dd1a21340460e2103faf78c","D2","batch4","","1026","tol_toboard","","","","tol_peg_2","1026","1026","0","[[2,0,0],[3,0],[1]]","1","[[1,2,0],[3,0],[0]]","2","0","","","","","","4","","","","","","","","",""
"","","","","","single-stim-button","48","123836","0.0-2.0-16.1-0.1","5dd1a21340460e2103faf78c","D2","batch4","","998","tol_tohand","","","","tol_peg_1","998","998","0","[[0,0,0],[3,0],[1]]","2","[[1,2,0],[3,0],[0]]","2","0","","","","","","4","","","","","","","","",""
"","","","","","single-stim-button","49","125078","0.0-2.0-16.1-1.1","5dd1a21340460e2103faf78c","D2","batch4","","1241","tol_toboard","","","","tol_peg_1","1241","1241","0","[[2,0,0],[3,0],[1]]","2","[[1,2,0],[3,0],[0]]","2","0","","","","","","4","","","","","","","","",""
"","","","","","single-stim-button","50","126011","0.0-2.0-16.2-0.2","5dd1a21340460e2103faf78c","D2","batch4","","933","tol_tohand","","","","tol_peg_3","933","933","0","[[2,0,0],[3,0],[0]]","3","[[1,2,0],[3,0],[0]]","2","0","","","","","","4","","","","","","","","",""
"","","","","","single-stim-button","51","126336","0.0-2.0-16.2-1.2","5dd1a21340460e2103faf78c","D2","batch4","","325","tol_toboard","","","","tol_peg_2","325","325","0","[[2,0,0],[3,1],[0]]","3","[[1,2,0],[3,0],[0]]","2","0","","","","","","4","","","","","","","","",""
"","","","","","single-stim-button","52","126782","0.0-2.0-16.3-0.3","5dd1a21340460e2103faf78c","D2","batch4","","446","tol_tohand","","","","tol_peg_1","446","446","0","[[0,0,0],[3,1],[0]]","4","[[1,2,0],[3,0],[0]]","2","0","","","","","","4","","","","","","","","",""
"","","","","","single-stim-button","53","127596","0.0-2.0-16.3-1.3","5dd1a21340460e2103faf78c","D2","batch4","","813","tol_toboard","","","","tol_peg_3","813","813","0","[[0,0,0],[3,1],[2]]","4","[[1,2,0],[3,0],[0]]","2","0","","","","","","4","","","","","","","","",""
"","","","","","single-stim-button","54","128056","0.0-2.0-16.4-0.4","5dd1a21340460e2103faf78c","D2","batch4","","460","tol_tohand","","","","tol_peg_2","460","460","0","[[0,0,0],[3,0],[2]]","5","[[1,2,0],[3,0],[0]]","2","0","","","","","","4","","","","","","","","",""
"","","","","","single-stim-button","55","128628","0.0-2.0-16.4-1.4","5dd1a21340460e2103faf78c","D2","batch4","","570","tol_toboard","","","","tol_peg_1","570","570","0","[[1,0,0],[3,0],[2]]","5","[[1,2,0],[3,0],[0]]","2","0","","","","","","4","","","","","","","","",""
"","","","","","single-stim-button","56","130061","0.0-2.0-16.5-0.5","5dd1a21340460e2103faf78c","D2","batch4","","1433","tol_tohand","","","","tol_peg_3","1433","1433","0","[[1,0,0],[3,0],[0]]","6","[[1,2,0],[3,0],[0]]","2","0","","","","","","4","","","","","","","","",""
"","","","","","single-stim-button","57","130482","0.0-2.0-16.5-1.5","5dd1a21340460e2103faf78c","D2","batch4","","420","tol_toboard","","","","tol_peg_1","420","420","0","[[1,2,0],[3,0],[0]]","6","[[1,2,0],[3,0],[0]]","2","0","","","","","","4","","","","","","","","",""
"","","","","","poldrack-single-stim","58","131488","0.0-2.0-17.0","5dd1a21340460e2103faf78c","D2","batch4","","-1","tol_feedback","","","true","","1000","1000","500","","","","","","-1","none","true","4021","8291","","","","","","","","","",""
"","","","","","html-button-response","59","132044","0.0-2.0-18.0","5dd1a21340460e2103faf78c","D2","batch4","","554.0999999046326","tol_trial_num","<div class = centerbox><p class = center-block-text>problem <strong>4</strong> out of 25 problems</p></div>","0","","","","","","","","","","","","","","","","","","","","","","","","",""
"","","","","","single-stim-button","60","137004","0.0-2.0-19.0-0.0","5dd1a21340460e2103faf78c","D2","batch4","","4960","tol_tohand","","","","tol_peg_2","4960","4960","0","[[3,0,0],[2,0],[0]]","1","[[3,0,0],[1,0],[2]]","3","0","","","","","","3","","","","","","","","",""
"","","","","","single-stim-button","61","137573","0.0-2.0-19.0-1.0","5dd1a21340460e2103faf78c","D2","batch4","","568","tol_toboard","","","","tol_peg_1","568","568","0","[[3,1,0],[2,0],[0]]","1","[[3,0,0],[1,0],[2]]","3","0","","","","","","3","","","","","","","","",""
"","","","","","single-stim-button","62","138265","0.0-2.0-19.1-0.1","5dd1a21340460e2103faf78c","D2","batch4","","692","tol_tohand","","","","tol_peg_2","692","692","0","[[3,1,0],[0,0],[0]]","2","[[3,0,0],[1,0],[2]]","3","0","","","","","","3","","","","","","","","",""
"","","","","","single-stim-button","63","138802","0.0-2.0-19.1-1.1","5dd1a21340460e2103faf78c","D2","batch4","","537","tol_toboard","","","","tol_peg_3","537","537","0","[[3,1,0],[0,0],[2]]","2","[[3,0,0],[1,0],[2]]","3","0","","","","","","3","","","","","","","","",""
"","","","","","single-stim-button","64","139369","0.0-2.0-19.2-0.2","5dd1a21340460e2103faf78c","D2","batch4","","566","tol_tohand","","","","tol_peg_1","566","566","0","[[3,0,0],[0,0],[2]]","3","[[3,0,0],[1,0],[2]]","3","0","","","","","","3","","","","","","","","",""
"","","","","","single-stim-button","65","139823","0.0-2.0-19.2-1.2","5dd1a21340460e2103faf78c","D2","batch4","","454","tol_toboard","","","","tol_peg_2","454","454","0","[[3,0,0],[1,0],[2]]","3","[[3,0,0],[1,0],[2]]","3","0","","","","","","3","","","","","","","","",""
"","","","","","poldrack-single-stim","66","140829","0.0-2.0-20.0","5dd1a21340460e2103faf78c","D2","batch4","","-1","tol_feedback","","","true","","1000","1000","500","","","","","","-1","none","true","4960","6218","","","","","","","","","",""
"","","","","","html-button-response","67","141452","0.0-2.0-21.0","5dd1a21340460e2103faf78c","D2","batch4","","621.8000001907349","tol_trial_num","<div class = centerbox><p class = center-block-text>problem <strong>5</strong> out of 25 problems</p></div>","0","","","","","","","","","","","","","","","","","","","","","","","","",""
"","","","","","single-stim-button","68","150361","0.0-2.0-22.0-0.0","5dd1a21340460e2103faf78c","D2","batch4","","8909","tol_tohand","","","","tol_peg_1","8909","8909","0","[[0,0,0],[2,0],[3]]","1","[[0,0,0],[1,2],[3]]","4","0","","","","","","7","","","","","","","","",""
"","","","","","single-stim-button","69","150927","0.0-2.0-22.0-1.0","5dd1a21340460e2103faf78c","D2","batch4","","565","tol_toboard","","","","tol_peg_2","565","565","0","[[0,0,0],[2,1],[3]]","1","[[0,0,0],[1,2],[3]]","4","0","","","","","","7","","","","","","","","",""
"","","","","","single-stim-button","70","151323","0.0-2.0-22.1-0.1","5dd1a21340460e2103faf78c","D2","batch4","","396","tol_tohand","","","","tol_peg_3","396","396","0","[[0,0,0],[2,1],[0]]","2","[[0,0,0],[1,2],[3]]","4","0","","","","","","7","","","","","","","","",""
"","","","","","single-stim-button","71","151856","0.0-2.0-22.1-1.1","5dd1a21340460e2103faf78c","D2","batch4","","533","tol_toboard","","","","tol_peg_1","533","533","0","[[3,0,0],[2,1],[0]]","2","[[0,0,0],[1,2],[3]]","4","0","","","","","","7","","","","","","","","",""
"","","","","","single-stim-button","72","154077","0.0-2.0-22.2-0.2","5dd1a21340460e2103faf78c","D2","batch4","","2221","tol_tohand","","","","tol_peg_2","2221","2221","0","[[3,0,0],[2,0],[0]]","3","[[0,0,0],[1,2],[3]]","4","0","","","","","","7","","","","","","","","",""
"","","","","","single-stim-button","73","154697","0.0-2.0-22.2-1.2","5dd1a21340460e2103faf78c","D2","batch4","","620","tol_toboard","","","","tol_peg_3","620","620","0","[[3,0,0],[2,0],[1]]","3","[[0,0,0],[1,2],[3]]","4","0","","","","","","7","","","","","","","","",""
"","","","","","single-stim-button","74","155578","0.0-2.0-22.3-0.3","5dd1a21340460e2103faf78c","D2","batch4","","879","tol_tohand","","","","tol_peg_2","879","879","0","[[3,0,0],[0,0],[1]]","4","[[0,0,0],[1,2],[3]]","4","0","","","","","","7","","","","","","","","",""
"","","","","","single-stim-button","75","156411","0.0-2.0-22.3-1.3","5dd1a21340460e2103faf78c","D2","batch4","","833","tol_toboard","","","","tol_peg_1","833","833","0","[[3,2,0],[0,0],[1]]","4","[[0,0,0],[1,2],[3]]","4","0","","","","","","7","","","","","","","","",""
"","","","","","single-stim-button","76","157006","0.0-2.0-22.4-0.4","5dd1a21340460e2103faf78c","D2","batch4","","594","tol_tohand","","","","tol_peg_3","594","594","0","[[3,2,0],[0,0],[0]]","5","[[0,0,0],[1,2],[3]]","4","0","","","","","","7","","","","","","","","",""
"","","","","","single-stim-button","77","157364","0.0-2.0-22.4-1.4","5dd1a21340460e2103faf78c","D2","batch4","","358","tol_toboard","","","","tol_peg_2","358","358","0","[[3,2,0],[1,0],[0]]","5","[[0,0,0],[1,2],[3]]","4","0","","","","","","7","","","","","","","","",""
"","","","","","single-stim-button","78","158073","0.0-2.0-22.5-0.5","5dd1a21340460e2103faf78c","D2","batch4","","708","tol_tohand","","","","tol_peg_1","708","708","0","[[3,0,0],[1,0],[0]]","6","[[0,0,0],[1,2],[3]]","4","0","","","","","","7","","","","","","","","",""
"","","","","","single-stim-button","79","158535","0.0-2.0-22.5-1.5","5dd1a21340460e2103faf78c","D2","batch4","","462","tol_toboard","","","","tol_peg_2","462","462","0","[[3,0,0],[1,2],[0]]","6","[[0,0,0],[1,2],[3]]","4","0","","","","","","7","","","","","","","","",""
"","","","","","single-stim-button","80","159077","0.0-2.0-22.6-0.6","5dd1a21340460e2103faf78c","D2","batch4","","542","tol_tohand","","","","tol_peg_1","542","542","0","[[0,0,0],[1,2],[0]]","7","[[0,0,0],[1,2],[3]]","4","0","","","","","","7","","","","","","","","",""
"","","","","","single-stim-button","81","159689","0.0-2.0-22.6-1.6","5dd1a21340460e2103faf78c","D2","batch4","","612","tol_toboard","","","","tol_peg_3","612","612","0","[[0,0,0],[1,2],[3]]","7","[[0,0,0],[1,2],[3]]","4","0","","","","","","7","","","","","","","","",""
"","","","","","poldrack-single-stim","82","160694","0.0-2.0-23.0","5dd1a21340460e2103faf78c","D2","batch4","","-1","tol_feedback","","","true","","1000","1000","500","","","","","","-1","none","true","8909","14249","","","","","","","","","",""
"","","","","","html-button-response","83","161318","0.0-2.0-24.0","5dd1a21340460e2103faf78c","D2","batch4","","622.5999999046326","tol_trial_num","<div class = centerbox><p class = center-block-text>problem <strong>6</strong> out of 25 problems</p></div>","0","","","","","","","","","","","","","","","","","","","","","","","","",""
"","","","","","single-stim-button","84","169861","0.0-2.0-25.0-0.0","5dd1a21340460e2103faf78c","D2","batch4","","8541","tol_tohand","","","","tol_peg_2","8541","8541","0","[[0,0,0],[1,0],[3]]","1","[[1,0,0],[2,3],[0]]","5","0","","","","","","6","","","","","","","","",""
"","","","","","single-stim-button","85","170314","0.0-2.0-25.0-1.0","5dd1a21340460e2103faf78c","D2","batch4","","452","tol_toboard","","","","tol_peg_1","452","452","0","[[2,0,0],[1,0],[3]]","1","[[1,0,0],[2,3],[0]]","5","0","","","","","","6","","","","","","","","",""
"","","","","","single-stim-button","86","171084","0.0-2.0-25.1-0.1","5dd1a21340460e2103faf78c","D2","batch4","","770","tol_tohand","","","","tol_peg_2","770","770","0","[[2,0,0],[0,0],[3]]","2","[[1,0,0],[2,3],[0]]","5","0","","","","","","6","","","","","","","","",""
"","","","","","single-stim-button","87","171468","0.0-2.0-25.1-1.1","5dd1a21340460e2103faf78c","D2","batch4","","383","tol_toboard","","","","tol_peg_1","383","383","0","[[2,1,0],[0,0],[3]]","2","[[1,0,0],[2,3],[0]]","5","0","","","","","","6","","","","","","","","",""
"","","","","","single-stim-button","88","171960","0.0-2.0-25.2-0.2","5dd1a21340460e2103faf78c","D2","batch4","","492","tol_tohand","","","","tol_peg_3","492","492","0","[[2,1,0],[0,0],[0]]","3","[[1,0,0],[2,3],[0]]","5","0","","","","","","6","","","","","","","","",""
"","","","","","single-stim-button","89","172351","0.0-2.0-25.2-1.2","5dd1a21340460e2103faf78c","D2","batch4","","391","tol_toboard","","","","tol_peg_2","391","391","0","[[2,1,0],[3,0],[0]]","3","[[1,0,0],[2,3],[0]]","5","0","","","","","","6","","","","","","","","",""
"","","","","","single-stim-button","90","174844","0.0-2.0-25.3-0.3","5dd1a21340460e2103faf78c","D2","batch4","","2493","tol_tohand","","","","tol_peg_1","2493","2493","0","[[2,0,0],[3,0],[0]]","4","[[1,0,0],[2,3],[0]]","5","0","","","","","","6","","","","","","","","",""
"","","","","","single-stim-button","91","176252","0.0-2.0-25.3-1.3","5dd1a21340460e2103faf78c","D2","batch4","","1407","tol_toboard","","","","tol_peg_3","1407","1407","0","[[2,0,0],[3,0],[1]]","4","[[1,0,0],[2,3],[0]]","5","0","","","","","","6","","","","","","","","",""
"","","","","","single-stim-button","92","177426","0.0-2.0-25.4-0.4","5dd1a21340460e2103faf78c","D2","batch4","","1173","tol_tohand","","","","tol_peg_2","1173","1173","0","[[2,0,0],[0,0],[1]]","5","[[1,0,0],[2,3],[0]]","5","0","","","","","","6","","","","","","","","",""
"","","","","","single-stim-button","93","178202","0.0-2.0-25.4-1.4","5dd1a21340460e2103faf78c","D2","batch4","","776","tol_toboard","","","","tol_peg_2","776","776","0","[[2,0,0],[3,0],[1]]","5","[[1,0,0],[2,3],[0]]","5","0","","","","","","6","","","","","","","","",""
"","","","","","single-stim-button","94","178559","0.0-2.0-25.5-0.5","5dd1a21340460e2103faf78c","D2","batch4","","356","tol_tohand","","","","tol_peg_1","356","356","0","[[0,0,0],[3,0],[1]]","6","[[1,0,0],[2,3],[0]]","5","0","","","","","","6","","","","","","","","",""
"","","","","","single-stim-button","95","178910","0.0-2.0-25.5-1.5","5dd1a21340460e2103faf78c","D2","batch4","","349","tol_toboard","","","","tol_peg_2","349","349","0","[[0,0,0],[3,2],[1]]","6","[[1,0,0],[2,3],[0]]","5","0","","","","","","6","","","","","","","","",""
"","","","","","single-stim-button","96","179330","0.0-2.0-25.6-0.6","5dd1a21340460e2103faf78c","D2","batch4","","420","tol_tohand","","","","tol_peg_3","420","420","0","[[0,0,0],[3,2],[0]]","7","[[1,0,0],[2,3],[0]]","5","0","","","","","","6","","","","","","","","",""
"","","","","","single-stim-button","97","179838","0.0-2.0-25.6-1.6","5dd1a21340460e2103faf78c","D2","batch4","","508","tol_toboard","","","","tol_peg_1","508","508","0","[[1,0,0],[3,2],[0]]","7","[[1,0,0],[2,3],[0]]","5","0","","","","","","6","","","","","","","","",""
"","","","","","single-stim-button","98","182660","0.0-2.0-25.7-0.7","5dd1a21340460e2103faf78c","D2","batch4","","2821","tol_tohand","","","","tol_peg_2","2821","2821","0","[[1,0,0],[3,0],[0]]","8","[[1,0,0],[2,3],[0]]","5","0","","","","","","6","","","","","","","","",""
"","","","","","single-stim-button","99","184472","0.0-2.0-25.7-1.7","5dd1a21340460e2103faf78c","D2","batch4","","1810","tol_toboard","","","","tol_peg_3","1810","1810","0","[[1,0,0],[3,0],[2]]","8","[[1,0,0],[2,3],[0]]","5","0","","","","","","6","","","","","","","","",""
"","","","","","single-stim-button","100","184909","0.0-2.0-25.8-0.8","5dd1a21340460e2103faf78c","D2","batch4","","437","tol_tohand","","","","tol_peg_2","437","437","0","[[1,0,0],[0,0],[2]]","9","[[1,0,0],[2,3],[0]]","5","0","","","","","","6","","","","","","","","",""
"","","","","","single-stim-button","101","185322","0.0-2.0-25.8-1.8","5dd1a21340460e2103faf78c","D2","batch4","","411","tol_toboard","","","","tol_peg_1","411","411","0","[[1,3,0],[0,0],[2]]","9","[[1,0,0],[2,3],[0]]","5","0","","","","","","6","","","","","","","","",""
"","","","","","single-stim-button","102","185863","0.0-2.0-25.9-0.9","5dd1a21340460e2103faf78c","D2","batch4","","541","tol_tohand","","","","tol_peg_3","541","541","0","[[1,3,0],[0,0],[0]]","10","[[1,0,0],[2,3],[0]]","5","0","","","","","","6","","","","","","","","",""
"","","","","","single-stim-button","103","186413","0.0-2.0-25.9-1.9","5dd1a21340460e2103faf78c","D2","batch4","","549","tol_toboard","","","","tol_peg_2","549","549","0","[[1,3,0],[2,0],[0]]","10","[[1,0,0],[2,3],[0]]","5","0","","","","","","6","","","","","","","","",""
"","","","","","single-stim-button","104","186817","0.0-2.0-25.10-0.10","5dd1a21340460e2103faf78c","D2","batch4","","404","tol_tohand","","","","tol_peg_1","404","404","0","[[1,0,0],[2,0],[0]]","11","[[1,0,0],[2,3],[0]]","5","0","","","","","","6","","","","","","","","",""
"","","","","","single-stim-button","105","187184","0.0-2.0-25.10-1.10","5dd1a21340460e2103faf78c","D2","batch4","","367","tol_toboard","","","","tol_peg_2","367","367","0","[[1,0,0],[2,3],[0]]","11","[[1,0,0],[2,3],[0]]","5","0","","","","","","6","","","","","","","","",""
"","","","","","poldrack-single-stim","106","188187","0.0-2.0-26.0","5dd1a21340460e2103faf78c","D2","batch4","","-1","tol_feedback","","","true","","1000","1000","500","","","","","","-1","none","true","8541","18448","","","","","","","","","",""
"","","","","","html-button-response","107","189088","0.0-2.0-27.0","5dd1a21340460e2103faf78c","D2","batch4","","899.7999999523163","tol_trial_num","<div class = centerbox><p class = center-block-text>problem <strong>7</strong> out of 25 problems</p></div>","0","","","","","","","","","","","","","","","","","","","","","","","","",""
"","","","","","single-stim-button","108","216276","0.0-2.0-28.0-0.0","5dd1a21340460e2103faf78c","D2","batch4","","27187","tol_tohand","","","","tol_peg_3","27187","27187","0","[[2,1,0],[0,0],[0]]","1","[[1,2,0],[3,0],[0]]","6","0","","","","","","5","","","","","","","","",""
"","","","","","single-stim-button","109","216762","0.0-2.0-28.0-1.0","5dd1a21340460e2103faf78c","D2","batch4","","485","tol_toboard","","","","tol_peg_2","485","485","0","[[2,1,0],[3,0],[0]]","1","[[1,2,0],[3,0],[0]]","6","0","","","","","","5","","","","","","","","",""
"","","","","","single-stim-button","110","219518","0.0-2.0-28.1-0.1","5dd1a21340460e2103faf78c","D2","batch4","","2755","tol_tohand","","","","tol_peg_1","2755","2755","0","[[2,0,0],[3,0],[0]]","2","[[1,2,0],[3,0],[0]]","6","0","","","","","","5","","","","","","","","",""
"","","","","","single-stim-button","111","220279","0.0-2.0-28.1-1.1","5dd1a21340460e2103faf78c","D2","batch4","","760","tol_toboard","","","","tol_peg_3","760","760","0","[[2,0,0],[3,0],[1]]","2","[[1,2,0],[3,0],[0]]","6","0","","","","","","5","","","","","","","","",""
"","","","","","single-stim-button","112","220722","0.0-2.0-28.2-0.2","5dd1a21340460e2103faf78c","D2","batch4","","442","tol_tohand","","","","tol_peg_1","442","442","0","[[0,0,0],[3,0],[1]]","3","[[1,2,0],[3,0],[0]]","6","0","","","","","","5","","","","","","","","",""
"","","","","","single-stim-button","113","221070","0.0-2.0-28.2-1.2","5dd1a21340460e2103faf78c","D2","batch4","","348","tol_toboard","","","","tol_peg_2","348","348","0","[[0,0,0],[3,2],[1]]","3","[[1,2,0],[3,0],[0]]","6","0","","","","","","5","","","","","","","","",""
"","","","","","single-stim-button","114","221651","0.0-2.0-28.3-0.3","5dd1a21340460e2103faf78c","D2","batch4","","580","tol_tohand","","","","tol_peg_3","580","580","0","[[0,0,0],[3,2],[0]]","4","[[1,2,0],[3,0],[0]]","6","0","","","","","","5","","","","","","","","",""
"","","","","","single-stim-button","115","222071","0.0-2.0-28.3-1.3","5dd1a21340460e2103faf78c","D2","batch4","","420","tol_toboard","","","","tol_peg_1","420","420","0","[[1,0,0],[3,2],[0]]","4","[[1,2,0],[3,0],[0]]","6","0","","","","","","5","","","","","","","","",""
"","","","","","single-stim-button","116","222558","0.0-2.0-28.4-0.4","5dd1a21340460e2103faf78c","D2","batch4","","486","tol_tohand","","","","tol_peg_2","486","486","0","[[1,0,0],[3,0],[0]]","5","[[1,2,0],[3,0],[0]]","6","0","","","","","","5","","","","","","","","",""
"","","","","","single-stim-button","117","222932","0.0-2.0-28.4-1.4","5dd1a21340460e2103faf78c","D2","batch4","","373","tol_toboard","","","","tol_peg_1","373","373","0","[[1,2,0],[3,0],[0]]","5","[[1,2,0],[3,0],[0]]","6","0","","","","","","5","","","","","","","","",""
"","","","","","poldrack-single-stim","118","223939","0.0-2.0-29.0","5dd1a21340460e2103faf78c","D2","batch4","","-1","tol_feedback","","","true","","1000","1000","500","","","","","","-1","none","true","27187","31450","","","","","","","","","",""
"","","","","","html-button-response","119","225208","0.0-2.0-30.0","5dd1a21340460e2103faf78c","D2","batch4","","1267.2000000476837","tol_trial_num","<div class = centerbox><p class = center-block-text>problem <strong>8</strong> out of 25 problems</p></div>","0","","","","","","","","","","","","","","","","","","","","","","","","",""
"","","","","","single-stim-button","120","234838","0.0-2.0-31.0-0.0","5dd1a21340460e2103faf78c","D2","batch4","","9629","tol_tohand","","","","tol_peg_2","9629","9629","0","[[0,0,0],[2,0],[1]]","1","[[1,2,0],[3,0],[0]]","7","0","","","","","","4","","","","","","","","",""
"","","","","","single-stim-button","121","235534","0.0-2.0-31.0-1.0","5dd1a21340460e2103faf78c","D2","batch4","","694","tol_toboard","","","","tol_peg_1","694","694","0","[[3,0,0],[2,0],[1]]","1","[[1,2,0],[3,0],[0]]","7","0","","","","","","4","","","","","","","","",""
"","","","","","single-stim-button","122","236315","0.0-2.0-31.1-0.1","5dd1a21340460e2103faf78c","D2","batch4","","781","tol_tohand","","","","tol_peg_3","781","781","0","[[3,0,0],[2,0],[0]]","2","[[1,2,0],[3,0],[0]]","7","0","","","","","","4","","","","","","","","",""
"","","","","","single-stim-button","123","236682","0.0-2.0-31.1-1.1","5dd1a21340460e2103faf78c","D2","batch4","","366","tol_toboard","","","","tol_peg_2","366","366","0","[[3,0,0],[2,1],[0]]","2","[[1,2,0],[3,0],[0]]","7","0","","","","","","4","","","","","","","","",""
"","","","","","single-stim-button","124","237286","0.0-2.0-31.2-0.2","5dd1a21340460e2103faf78c","D2","batch4","","604","tol_tohand","","","","tol_peg_1","604","604","0","[[0,0,0],[2,1],[0]]","3","[[1,2,0],[3,0],[0]]","7","0","","","","","","4","","","","","","","","",""
"","","","","","single-stim-button","125","238003","0.0-2.0-31.2-1.2","5dd1a21340460e2103faf78c","D2","batch4","","717","tol_toboard","","","","tol_peg_3","717","717","0","[[0,0,0],[2,1],[3]]","3","[[1,2,0],[3,0],[0]]","7","0","","","","","","4","","","","","","","","",""
"","","","","","single-stim-button","126","238878","0.0-2.0-31.3-0.3","5dd1a21340460e2103faf78c","D2","batch4","","875","tol_tohand","","","","tol_peg_2","875","875","0","[[0,0,0],[2,0],[3]]","4","[[1,2,0],[3,0],[0]]","7","0","","","","","","4","","","","","","","","",""
"","","","","","single-stim-button","127","239220","0.0-2.0-31.3-1.3","5dd1a21340460e2103faf78c","D2","batch4","","340","tol_toboard","","","","tol_peg_1","340","340","0","[[1,0,0],[2,0],[3]]","4","[[1,2,0],[3,0],[0]]","7","0","","","","","","4","","","","","","","","",""
"","","","","","single-stim-button","128","239620","0.0-2.0-31.4-0.4","5dd1a21340460e2103faf78c","D2","batch4","","399","tol_tohand","","","","tol_peg_2","399","399","0","[[1,0,0],[0,0],[3]]","5","[[1,2,0],[3,0],[0]]","7","0","","","","","","4","","","","","","","","",""
"","","","","","single-stim-button","129","239970","0.0-2.0-31.4-1.4","5dd1a21340460e2103faf78c","D2","batch4","","349","tol_toboard","","","","tol_peg_1","349","349","0","[[1,2,0],[0,0],[3]]","5","[[1,2,0],[3,0],[0]]","7","0","","","","","","4","","","","","","","","",""
"","","","","","single-stim-button","130","241221","0.0-2.0-31.5-0.5","5dd1a21340460e2103faf78c","D2","batch4","","1251","tol_tohand","","","","tol_peg_3","1251","1251","0","[[1,2,0],[0,0],[0]]","6","[[1,2,0],[3,0],[0]]","7","0","","","","","","4","","","","","","","","",""
"","","","","","single-stim-button","131","241578","0.0-2.0-31.5-1.5","5dd1a21340460e2103faf78c","D2","batch4","","356","tol_toboard","","","","tol_peg_2","356","356","0","[[1,2,0],[3,0],[0]]","6","[[1,2,0],[3,0],[0]]","7","0","","","","","","4","","","","","","","","",""
"","","","","","poldrack-single-stim","132","242589","0.0-2.0-32.0","5dd1a21340460e2103faf78c","D2","batch4","","-1","tol_feedback","","","true","","1000","1000","500","","","","","","-1","none","true","9629","13539","","","","","","","","","",""
"","","","","","html-button-response","133","243249","0.0-2.0-33.0","5dd1a21340460e2103faf78c","D2","batch4","","657.7000000476837","tol_trial_num","<div class = centerbox><p class = center-block-text>problem <strong>9</strong> out of 25 problems</p></div>","0","","","","","","","","","","","","","","","","","","","","","","","","",""
"","","","","","single-stim-button","134","250971","0.0-2.0-34.0-0.0","5dd1a21340460e2103faf78c","D2","batch4","","7722","tol_tohand","","","","tol_peg_1","7722","7722","0","[[3,0,0],[0,0],[1]]","1","[[2,1,0],[3,0],[0]]","8","0","","","","","","6","","","","","","","","",""
"","","","","","single-stim-button","135","251587","0.0-2.0-34.0-1.0","5dd1a21340460e2103faf78c","D2","batch4","","615","tol_toboard","","","","tol_peg_2","615","615","0","[[3,0,0],[2,0],[1]]","1","[[2,1,0],[3,0],[0]]","8","0","","","","","","6","","","","","","","","",""
"","","","","","single-stim-button","136","253280","0.0-2.0-34.1-0.1","5dd1a21340460e2103faf78c","D2","batch4","","1692","tol_tohand","","","","tol_peg_1","1692","1692","0","[[0,0,0],[2,0],[1]]","2","[[2,1,0],[3,0],[0]]","8","0","","","","","","6","","","","","","","","",""
"","","","","","single-stim-button","137","253772","0.0-2.0-34.1-1.1","5dd1a21340460e2103faf78c","D2","batch4","","490","tol_toboard","","","","tol_peg_2","490","490","0","[[0,0,0],[2,3],[1]]","2","[[2,1,0],[3,0],[0]]","8","0","","","","","","6","","","","","","","","",""
"","","","","","single-stim-button","138","254242","0.0-2.0-34.2-0.2","5dd1a21340460e2103faf78c","D2","batch4","","468","tol_tohand","","","","tol_peg_3","468","468","0","[[0,0,0],[2,3],[0]]","3","[[2,1,0],[3,0],[0]]","8","0","","","","","","6","","","","","","","","",""
"","","","","","single-stim-button","139","254743","0.0-2.0-34.2-1.2","5dd1a21340460e2103faf78c","D2","batch4","","500","tol_toboard","","","","tol_peg_1","500","500","0","[[1,0,0],[2,3],[0]]","3","[[2,1,0],[3,0],[0]]","8","0","","","","","","6","","","","","","","","",""
"","","","","","single-stim-button","140","256381","0.0-2.0-34.3-0.3","5dd1a21340460e2103faf78c","D2","batch4","","1637","tol_tohand","","","","tol_peg_2","1637","1637","0","[[1,0,0],[2,0],[0]]","4","[[2,1,0],[3,0],[0]]","8","0","","","","","","6","","","","","","","","",""
"","","","","","single-stim-button","141","257050","0.0-2.0-34.3-1.3","5dd1a21340460e2103faf78c","D2","batch4","","667","tol_toboard","","","","tol_peg_3","667","667","0","[[1,0,0],[2,0],[3]]","4","[[2,1,0],[3,0],[0]]","8","0","","","","","","6","","","","","","","","",""
"","","","","","single-stim-button","142","259765","0.0-2.0-34.4-0.4","5dd1a21340460e2103faf78c","D2","batch4","","2714","tol_tohand","","","","tol_peg_2","2714","2714","0","[[1,0,0],[0,0],[3]]","5","[[2,1,0],[3,0],[0]]","8","0","","","","","","6","","","","","","","","",""
"","","","","","single-stim-button","143","260703","0.0-2.0-34.4-1.4","5dd1a21340460e2103faf78c","D2","batch4","","936","tol_toboard","","","","tol_peg_1","936","936","0","[[1,2,0],[0,0],[3]]","5","[[2,1,0],[3,0],[0]]","8","0","","","","","","6","","","","","","","","",""
"","","","","","single-stim-button","144","262027","0.0-2.0-34.5-0.5","5dd1a21340460e2103faf78c","D2","batch4","","1324","tol_tohand","","","","tol_peg_3","1324","1324","0","[[1,2,0],[0,0],[0]]","6","[[2,1,0],[3,0],[0]]","8","0","","","","","","6","","","","","","","","",""
"","","","","","single-stim-button","145","262528","0.0-2.0-34.5-1.5","5dd1a21340460e2103faf78c","D2","batch4","","499","tol_toboard","","","","tol_peg_2","499","499","0","[[1,2,0],[3,0],[0]]","6","[[2,1,0],[3,0],[0]]","8","0","","","","","","6","","","","","","","","",""
"","","","","","single-stim-button","146","263617","0.0-2.0-34.6-0.6","5dd1a21340460e2103faf78c","D2","batch4","","1089","tol_tohand","","","","tol_peg_1","1089","1089","0","[[1,0,0],[3,0],[0]]","7","[[2,1,0],[3,0],[0]]","8","0","","","","","","6","","","","","","","","",""
"","","","","","single-stim-button","147","264160","0.0-2.0-34.6-1.6","5dd1a21340460e2103faf78c","D2","batch4","","542","tol_toboard","","","","tol_peg_2","542","542","0","[[1,0,0],[3,2],[0]]","7","[[2,1,0],[3,0],[0]]","8","0","","","","","","6","","","","","","","","",""
"","","","","","single-stim-button","148","264673","0.0-2.0-34.7-0.7","5dd1a21340460e2103faf78c","D2","batch4","","511","tol_tohand","","","","tol_peg_1","511","511","0","[[0,0,0],[3,2],[0]]","8","[[2,1,0],[3,0],[0]]","8","0","","","","","","6","","","","","","","","",""
"","","","","","single-stim-button","149","265392","0.0-2.0-34.7-1.7","5dd1a21340460e2103faf78c","D2","batch4","","718","tol_toboard","","","","tol_peg_3","718","718","0","[[0,0,0],[3,2],[1]]","8","[[2,1,0],[3,0],[0]]","8","0","","","","","","6","","","","","","","","",""
"","","","","","single-stim-button","150","266022","0.0-2.0-34.8-0.8","5dd1a21340460e2103faf78c","D2","batch4","","630","tol_tohand","","","","tol_peg_2","630","630","0","[[0,0,0],[3,0],[1]]","9","[[2,1,0],[3,0],[0]]","8","0","","","","","","6","","","","","","","","",""
"","","","","","single-stim-button","151","266515","0.0-2.0-34.8-1.8","5dd1a21340460e2103faf78c","D2","batch4","","491","tol_toboard","","","","tol_peg_1","491","491","0","[[2,0,0],[3,0],[1]]","9","[[2,1,0],[3,0],[0]]","8","0","","","","","","6","","","","","","","","",""
"","","","","","single-stim-button","152","267094","0.0-2.0-34.9-0.9","5dd1a21340460e2103faf78c","D2","batch4","","578","tol_tohand","","","","tol_peg_3","578","578","0","[[2,0,0],[3,0],[0]]","10","[[2,1,0],[3,0],[0]]","8","0","","","","","","6","","","","","","","","",""
"","","","","","single-stim-button","153","267655","0.0-2.0-34.9-1.9","5dd1a21340460e2103faf78c","D2","batch4","","560","tol_toboard","","","","tol_peg_1","560","560","0","[[2,1,0],[3,0],[0]]","10","[[2,1,0],[3,0],[0]]","8","0","","","","","","6","","","","","","","","",""
"","","","","","poldrack-single-stim","154","268665","0.0-2.0-35.0","5dd1a21340460e2103faf78c","D2","batch4","","-1","tol_feedback","","","true","","1000","1000","500","","","","","","-1","none","true","7722","18365","","","","","","","","","",""
"","","","","","html-button-response","155","269573","0.0-2.0-36.0","5dd1a21340460e2103faf78c","D2","batch4","","906.5","tol_trial_num","<div class = centerbox><p class = center-block-text>problem <strong>10</strong> out of 25 problems</p></div>","0","","","","","","","","","","","","","","","","","","","","","","","","",""
"","","","","","single-stim-button","156","273328","0.0-2.0-37.0-0.0","5dd1a21340460e2103faf78c","D2","batch4","","3755","tol_tohand","","","","tol_peg_2","3755","3755","0","[[3,0,0],[0,0],[2]]","1","[[3,0,0],[2,1],[0]]","9","0","","","","","","3","","","","","","","","",""
"","","","","","single-stim-button","157","273807","0.0-2.0-37.0-1.0","5dd1a21340460e2103faf78c","D2","batch4","","478","tol_toboard","","","","tol_peg_1","478","478","0","[[3,1,0],[0,0],[2]]","1","[[3,0,0],[2,1],[0]]","9","0","","","","","","3","","","","","","","","",""
"","","","","","single-stim-button","158","274565","0.0-2.0-37.1-0.1","5dd1a21340460e2103faf78c","D2","batch4","","756","tol_tohand","","","","tol_peg_3","756","756","0","[[3,1,0],[0,0],[0]]","2","[[3,0,0],[2,1],[0]]","9","0","","","","","","3","","","","","","","","",""
"","","","","","single-stim-button","159","274948","0.0-2.0-37.1-1.1","5dd1a21340460e2103faf78c","D2","batch4","","383","tol_toboard","","","","tol_peg_2","383","383","0","[[3,1,0],[2,0],[0]]","2","[[3,0,0],[2,1],[0]]","9","0","","","","","","3","","","","","","","","",""
"","","","","","single-stim-button","160","275473","0.0-2.0-37.2-0.2","5dd1a21340460e2103faf78c","D2","batch4","","524","tol_tohand","","","","tol_peg_1","524","524","0","[[3,0,0],[2,0],[0]]","3","[[3,0,0],[2,1],[0]]","9","0","","","","","","3","","","","","","","","",""
"","","","","","single-stim-button","161","275927","0.0-2.0-37.2-1.2","5dd1a21340460e2103faf78c","D2","batch4","","454","tol_toboard","","","","tol_peg_2","454","454","0","[[3,0,0],[2,1],[0]]","3","[[3,0,0],[2,1],[0]]","9","0","","","","","","3","","","","","","","","",""
"","","","","","poldrack-single-stim","162","276929","0.0-2.0-38.0","5dd1a21340460e2103faf78c","D2","batch4","","-1","tol_feedback","","","true","","1000","1000","500","","","","","","-1","none","true","3755","5035","","","","","","","","","",""
"","","","","","html-button-response","163","277510","0.0-2.0-39.0","5dd1a21340460e2103faf78c","D2","batch4","","580.2000000476837","tol_trial_num","<div class = centerbox><p class = center-block-text>problem <strong>11</strong> out of 25 problems</p></div>","0","","","","","","","","","","","","","","","","","","","","","","","","",""
"","","","","","single-stim-button","164","290670","0.0-2.0-40.0-0.0","5dd1a21340460e2103faf78c","D2","batch4","","13160","tol_tohand","","","","tol_peg_1","13160","13160","0","[[1,0,0],[3,0],[0]]","1","[[2,0,0],[1,3],[0]]","10","0","","","","","","6","","","","","","","","",""
"","","","","","single-stim-button","165","291241","0.0-2.0-40.0-1.0","5dd1a21340460e2103faf78c","D2","batch4","","570","tol_toboard","","","","tol_peg_2","570","570","0","[[1,0,0],[3,2],[0]]","1","[[2,0,0],[1,3],[0]]","10","0","","","","","","6","","","","","","","","",""
"","","","","","single-stim-button","166","291720","0.0-2.0-40.1-0.1","5dd1a21340460e2103faf78c","D2","batch4","","477","tol_tohand","","","","tol_peg_1","477","477","0","[[0,0,0],[3,2],[0]]","2","[[2,0,0],[1,3],[0]]","10","0","","","","","","6","","","","","","","","",""
"","","","","","single-stim-button","167","292270","0.0-2.0-40.1-1.1","5dd1a21340460e2103faf78c","D2","batch4","","549","tol_toboard","","","","tol_peg_3","549","549","0","[[0,0,0],[3,2],[1]]","2","[[2,0,0],[1,3],[0]]","10","0","","","","","","6","","","","","","","","",""
"","","","","","single-stim-button","168","292751","0.0-2.0-40.2-0.2","5dd1a21340460e2103faf78c","D2","batch4","","480","tol_tohand","","","","tol_peg_2","480","480","0","[[0,0,0],[3,0],[1]]","3","[[2,0,0],[1,3],[0]]","10","0","","","","","","6","","","","","","","","",""
"","","","","","single-stim-button","169","293216","0.0-2.0-40.2-1.2","5dd1a21340460e2103faf78c","D2","batch4","","463","tol_toboard","","","","tol_peg_1","463","463","0","[[2,0,0],[3,0],[1]]","3","[[2,0,0],[1,3],[0]]","10","0","","","","","","6","","","","","","","","",""
"","","","","","single-stim-button","170","295444","0.0-2.0-40.3-0.3","5dd1a21340460e2103faf78c","D2","batch4","","2228","tol_tohand","","","","tol_peg_2","2228","2228","0","[[2,0,0],[0,0],[1]]","4","[[2,0,0],[1,3],[0]]","10","0","","","","","","6","","","","","","","","",""
"","","","","","single-stim-button","171","295929","0.0-2.0-40.3-1.3","5dd1a21340460e2103faf78c","D2","batch4","","484","tol_toboard","","","","tol_peg_1","484","484","0","[[2,3,0],[0,0],[1]]","4","[[2,0,0],[1,3],[0]]","10","0","","","","","","6","","","","","","","","",""
"","","","","","single-stim-button","172","298532","0.0-2.0-40.4-0.4","5dd1a21340460e2103faf78c","D2","batch4","","2601","tol_tohand","","","","tol_peg_3","2601","2601","0","[[2,3,0],[0,0],[0]]","5","[[2,0,0],[1,3],[0]]","10","0","","","","","","6","","","","","","","","",""
"","","","","","single-stim-button","173","299035","0.0-2.0-40.4-1.4","5dd1a21340460e2103faf78c","D2","batch4","","501","tol_toboard","","","","tol_peg_2","501","501","0","[[2,3,0],[1,0],[0]]","5","[[2,0,0],[1,3],[0]]","10","0","","","","","","6","","","","","","","","",""
"","","","","","single-stim-button","174","299982","0.0-2.0-40.5-0.5","5dd1a21340460e2103faf78c","D2","batch4","","946","tol_tohand","","","","tol_peg_1","946","946","0","[[2,0,0],[1,0],[0]]","6","[[2,0,0],[1,3],[0]]","10","0","","","","","","6","","","","","","","","",""
"","","","","","single-stim-button","175","300522","0.0-2.0-40.5-1.5","5dd1a21340460e2103faf78c","D2","batch4","","539","tol_toboard","","","","tol_peg_2","539","539","0","[[2,0,0],[1,3],[0]]","6","[[2,0,0],[1,3],[0]]","10","0","","","","","","6","","","","","","","","",""
"","","","","","poldrack-single-stim","176","301526","0.0-2.0-41.0","5dd1a21340460e2103faf78c","D2","batch4","","-1","tol_feedback","","","true","","1000","1000","500","","","","","","-1","none","true","13160","19892","","","","","","","","","",""
"","","","","","html-button-response","177","302677","0.0-2.0-42.0","5dd1a21340460e2103faf78c","D2","batch4","","1150","tol_trial_num","<div class = centerbox><p class = center-block-text>problem <strong>12</strong> out of 25 problems</p></div>","0","","","","","","","","","","","","","","","","","","","","","","","","",""
"","","","","","single-stim-button","178","318626","0.0-2.0-43.0-0.0","5dd1a21340460e2103faf78c","D2","batch4","","15948","tol_tohand","","","","tol_peg_2","15948","15948","0","[[1,2,0],[0,0],[0]]","1","[[2,3,0],[0,0],[1]]","11","0","","","","","","4","","","","","","","","",""
"","","","","","single-stim-button","179","319465","0.0-2.0-43.0-1.0","5dd1a21340460e2103faf78c","D2","batch4","","837","tol_toboard","","","","tol_peg_3","837","837","0","[[1,2,0],[0,0],[3]]","1","[[2,3,0],[0,0],[1]]","11","0","","","","","","4","","","","","","","","",""
"","","","","","single-stim-button","180","321145","0.0-2.0-43.1-0.1","5dd1a21340460e2103faf78c","D2","batch4","","1678","tol_tohand","","","","tol_peg_1","1678","1678","0","[[1,0,0],[0,0],[3]]","2","[[2,3,0],[0,0],[1]]","11","0","","","","","","4","","","","","","","","",""
"","","","","","single-stim-button","181","321752","0.0-2.0-43.1-1.1","5dd1a21340460e2103faf78c","D2","batch4","","605","tol_toboard","","","","tol_peg_2","605","605","0","[[1,0,0],[2,0],[3]]","2","[[2,3,0],[0,0],[1]]","11","0","","","","","","4","","","","","","","","",""
"","","","","","single-stim-button","182","323809","0.0-2.0-43.2-0.2","5dd1a21340460e2103faf78c","D2","batch4","","2056","tol_tohand","","","","tol_peg_2","2056","2056","0","[[1,0,0],[0,0],[3]]","3","[[2,3,0],[0,0],[1]]","11","0","","","","","","4","","","","","","","","",""
"","","","","","single-stim-button","183","324226","0.0-2.0-43.2-1.2","5dd1a21340460e2103faf78c","D2","batch4","","416","tol_toboard","","","","tol_peg_1","416","416","0","[[1,2,0],[0,0],[3]]","3","[[2,3,0],[0,0],[1]]","11","0","","","","","","4","","","","","","","","",""
"","","","","","single-stim-button","184","334610","0.0-2.0-43.3-0.3","5dd1a21340460e2103faf78c","D2","batch4","","10383","tol_tohand","","","","tol_peg_3","10383","10383","0","[[1,2,0],[0,0],[0]]","4","[[2,3,0],[0,0],[1]]","11","0","","","","","","4","","","","","","","","",""
"","","","","","single-stim-button","185","335563","0.0-2.0-43.3-1.3","5dd1a21340460e2103faf78c","D2","batch4","","951","tol_toboard","","","","tol_peg_2","951","951","0","[[1,2,0],[3,0],[0]]","4","[[2,3,0],[0,0],[1]]","11","0","","","","","","4","","","","","","","","",""
"","","","","","single-stim-button","186","336069","0.0-2.0-43.4-0.4","5dd1a21340460e2103faf78c","D2","batch4","","504","tol_tohand","","","","tol_peg_1","504","504","0","[[1,0,0],[3,0],[0]]","5","[[2,3,0],[0,0],[1]]","11","0","","","","","","4","","","","","","","","",""
"","","","","","single-stim-button","187","337064","0.0-2.0-43.4-1.4","5dd1a21340460e2103faf78c","D2","batch4","","994","tol_toboard","","","","tol_peg_3","994","994","0","[[1,0,0],[3,0],[2]]","5","[[2,3,0],[0,0],[1]]","11","0","","","","","","4","","","","","","","","",""
"","","","","","single-stim-button","188","339333","0.0-2.0-43.5-0.5","5dd1a21340460e2103faf78c","D2","batch4","","2267","tol_tohand","","","","tol_peg_1","2267","2267","0","[[0,0,0],[3,0],[2]]","6","[[2,3,0],[0,0],[1]]","11","0","","","","","","4","","","","","","","","",""
"","","","","","single-stim-button","189","339851","0.0-2.0-43.5-1.5","5dd1a21340460e2103faf78c","D2","batch4","","518","tol_toboard","","","","tol_peg_2","518","518","0","[[0,0,0],[3,1],[2]]","6","[[2,3,0],[0,0],[1]]","11","0","","","","","","4","","","","","","","","",""
"","","","","","single-stim-button","190","340815","0.0-2.0-43.6-0.6","5dd1a21340460e2103faf78c","D2","batch4","","962","tol_tohand","","","","tol_peg_3","962","962","0","[[0,0,0],[3,1],[0]]","7","[[2,3,0],[0,0],[1]]","11","0","","","","","","4","","","","","","","","",""
"","","","","","single-stim-button","191","341364","0.0-2.0-43.6-1.6","5dd1a21340460e2103faf78c","D2","batch4","","549","tol_toboard","","","","tol_peg_1","549","549","0","[[2,0,0],[3,1],[0]]","7","[[2,3,0],[0,0],[1]]","11","0","","","","","","4","","","","","","","","",""
"","","","","","single-stim-button","192","341969","0.0-2.0-43.7-0.7","5dd1a21340460e2103faf78c","D2","batch4","","604","tol_tohand","","","","tol_peg_2","604","604","0","[[2,0,0],[3,0],[0]]","8","[[2,3,0],[0,0],[1]]","11","0","","","","","","4","","","","","","","","",""
"","","","","","single-stim-button","193","342460","0.0-2.0-43.7-1.7","5dd1a21340460e2103faf78c","D2","batch4","","491","tol_toboard","","","","tol_peg_3","491","491","0","[[2,0,0],[3,0],[1]]","8","[[2,3,0],[0,0],[1]]","11","0","","","","","","4","","","","","","","","",""
"","","","","","single-stim-button","194","343264","0.0-2.0-43.8-0.8","5dd1a21340460e2103faf78c","D2","batch4","","802","tol_tohand","","","","tol_peg_2","802","802","0","[[2,0,0],[0,0],[1]]","9","[[2,3,0],[0,0],[1]]","11","0","","","","","","4","","","","","","","","",""
"","","","","","single-stim-button","195","344340","0.0-2.0-43.8-1.8","5dd1a21340460e2103faf78c","D2","batch4","","1076","tol_toboard","","","","tol_peg_1","1076","1076","0","[[2,3,0],[0,0],[1]]","9","[[2,3,0],[0,0],[1]]","11","0","","","","","","4","","","","","","","","",""
"","","","","","poldrack-single-stim","196","345343","0.0-2.0-44.0","5dd1a21340460e2103faf78c","D2","batch4","","-1","tol_feedback","","","true","","1000","1000","500","","","","","","-1","none","true","15948","35204","","","","","","","","","",""
"","","","","","html-button-response","197","346121","0.0-2.0-45.0","5dd1a21340460e2103faf78c","D2","batch4","","776.9000000953674","tol_trial_num","<div class = centerbox><p class = center-block-text>problem <strong>13</strong> out of 25 problems</p></div>","0","","","","","","","","","","","","","","","","","","","","","","","","",""
"","","","","","single-stim-button","198","362583","0.0-2.0-46.0-0.0","5dd1a21340460e2103faf78c","D2","batch4","","16461","tol_tohand","","","","tol_peg_1","16461","16461","0","[[1,0,0],[3,0],[0]]","1","[[0,0,0],[2,3],[1]]","12","0","","","","","","4","","","","","","","","",""
"","","","","","single-stim-button","199","363205","0.0-2.0-46.0-1.0","5dd1a21340460e2103faf78c","D2","batch4","","621","tol_toboard","","","","tol_peg_2","621","621","0","[[1,0,0],[3,2],[0]]","1","[[0,0,0],[2,3],[1]]","12","0","","","","","","4","","","","","","","","",""
"","","","","","single-stim-button","200","363688","0.0-2.0-46.1-0.1","5dd1a21340460e2103faf78c","D2","batch4","","482","tol_tohand","","","","tol_peg_1","482","482","0","[[0,0,0],[3,2],[0]]","2","[[0,0,0],[2,3],[1]]","12","0","","","","","","4","","","","","","","","",""
"","","","","","single-stim-button","201","364198","0.0-2.0-46.1-1.1","5dd1a21340460e2103faf78c","D2","batch4","","508","tol_toboard","","","","tol_peg_3","508","508","0","[[0,0,0],[3,2],[1]]","2","[[0,0,0],[2,3],[1]]","12","0","","","","","","4","","","","","","","","",""
"","","","","","single-stim-button","202","369668","0.0-2.0-46.2-0.2","5dd1a21340460e2103faf78c","D2","batch4","","5469","tol_tohand","","","","tol_peg_3","5469","5469","0","[[0,0,0],[3,2],[0]]","3","[[0,0,0],[2,3],[1]]","12","0","","","","","","4","","","","","","","","",""
"","","","","","single-stim-button","203","370194","0.0-2.0-46.2-1.2","5dd1a21340460e2103faf78c","D2","batch4","","526","tol_toboard","","","","tol_peg_1","526","526","0","[[1,0,0],[3,2],[0]]","3","[[0,0,0],[2,3],[1]]","12","0","","","","","","4","","","","","","","","",""
"","","","","","single-stim-button","204","371728","0.0-2.0-46.3-0.3","5dd1a21340460e2103faf78c","D2","batch4","","1532","tol_tohand","","","","tol_peg_2","1532","1532","0","[[1,0,0],[3,0],[0]]","4","[[0,0,0],[2,3],[1]]","12","0","","","","","","4","","","","","","","","",""
"","","","","","single-stim-button","205","373937","0.0-2.0-46.3-1.3","5dd1a21340460e2103faf78c","D2","batch4","","2209","tol_toboard","","","","tol_peg_2","2209","2209","0","[[1,0,0],[3,2],[0]]","4","[[0,0,0],[2,3],[1]]","12","0","","","","","","4","","","","","","","","",""
"","","","","","single-stim-button","206","379817","0.0-2.0-46.4-0.4","5dd1a21340460e2103faf78c","D2","batch4","","5878","tol_tohand","","","","tol_peg_2","5878","5878","0","[[1,0,0],[3,0],[0]]","5","[[0,0,0],[2,3],[1]]","12","0","","","","","","4","","","","","","","","",""
"","","","","","single-stim-button","207","380385","0.0-2.0-46.4-1.4","5dd1a21340460e2103faf78c","D2","batch4","","567","tol_toboard","","","","tol_peg_3","567","567","0","[[1,0,0],[3,0],[2]]","5","[[0,0,0],[2,3],[1]]","12","0","","","","","","4","","","","","","","","",""
"","","","","","single-stim-button","208","380922","0.0-2.0-46.5-0.5","5dd1a21340460e2103faf78c","D2","batch4","","536","tol_tohand","","","","tol_peg_2","536","536","0","[[1,0,0],[0,0],[2]]","6","[[0,0,0],[2,3],[1]]","12","0","","","","","","4","","","","","","","","",""
"","","","","","single-stim-button","209","381383","0.0-2.0-46.5-1.5","5dd1a21340460e2103faf78c","D2","batch4","","460","tol_toboard","","","","tol_peg_1","460","460","0","[[1,3,0],[0,0],[2]]","6","[[0,0,0],[2,3],[1]]","12","0","","","","","","4","","","","","","","","",""
"","","","","","single-stim-button","210","382162","0.0-2.0-46.6-0.6","5dd1a21340460e2103faf78c","D2","batch4","","777","tol_tohand","","","","tol_peg_3","777","777","0","[[1,3,0],[0,0],[0]]","7","[[0,0,0],[2,3],[1]]","12","0","","","","","","4","","","","","","","","",""
"","","","","","single-stim-button","211","382610","0.0-2.0-46.6-1.6","5dd1a21340460e2103faf78c","D2","batch4","","447","tol_toboard","","","","tol_peg_2","447","447","0","[[1,3,0],[2,0],[0]]","7","[[0,0,0],[2,3],[1]]","12","0","","","","","","4","","","","","","","","",""
"","","","","","single-stim-button","212","383113","0.0-2.0-46.7-0.7","5dd1a21340460e2103faf78c","D2","batch4","","502","tol_tohand","","","","tol_peg_1","502","502","0","[[1,0,0],[2,0],[0]]","8","[[0,0,0],[2,3],[1]]","12","0","","","","","","4","","","","","","","","",""
"","","","","","single-stim-button","213","383559","0.0-2.0-46.7-1.7","5dd1a21340460e2103faf78c","D2","batch4","","445","tol_toboard","","","","tol_peg_2","445","445","0","[[1,0,0],[2,3],[0]]","8","[[0,0,0],[2,3],[1]]","12","0","","","","","","4","","","","","","","","",""
"","","","","","single-stim-button","214","384041","0.0-2.0-46.8-0.8","5dd1a21340460e2103faf78c","D2","batch4","","481","tol_tohand","","","","tol_peg_1","481","481","0","[[0,0,0],[2,3],[0]]","9","[[0,0,0],[2,3],[1]]","12","0","","","","","","4","","","","","","","","",""
"","","","","","single-stim-button","215","384813","0.0-2.0-46.8-1.8","5dd1a21340460e2103faf78c","D2","batch4","","771","tol_toboard","","","","tol_peg_3","771","771","0","[[0,0,0],[2,3],[1]]","9","[[0,0,0],[2,3],[1]]","12","0","","","","","","4","","","","","","","","",""
"","","","","","poldrack-single-stim","216","385817","0.0-2.0-47.0","5dd1a21340460e2103faf78c","D2","batch4","","-1","tol_feedback","","","true","","1000","1000","500","","","","","","-1","none","true","16461","32118","","","","","","","","","",""
"","","","","","html-button-response","217","388065","0.0-2.0-48.0","5dd1a21340460e2103faf78c","D2","batch4","","2246","attention_check","<p class = block-text>How many balls are in your board<br></p>","1","true","","","","","","","","","","","","","","","","","","","","","","","",""
"","","","","","html-button-response","218","389578","0.0-2.0-49.0","5dd1a21340460e2103faf78c","D2","batch4","","1512.5","tol_trial_num","<div class = centerbox><p class = center-block-text>problem <strong>14</strong> out of 25 problems</p></div>","0","","","","","","","","","","","","","","","","","","","","","","","","",""
"","","","","","single-stim-button","219","392808","0.0-2.0-50.0-0.0","5dd1a21340460e2103faf78c","D2","batch4","","3229","tol_tohand","","","","tol_peg_1","3229","3229","0","[[2,0,0],[3,0],[0]]","1","[[1,2,0],[3,0],[0]]","13","0","","","","","","4","","","","","","","","",""
"","","","","","single-stim-button","220","393737","0.0-2.0-50.0-1.0","5dd1a21340460e2103faf78c","D2","batch4","","928","tol_toboard","","","","tol_peg_3","928","928","0","[[2,0,0],[3,0],[1]]","1","[[1,2,0],[3,0],[0]]","13","0","","","","","","4","","","","","","","","",""
"","","","","","single-stim-button","221","394332","0.0-2.0-50.1-0.1","5dd1a21340460e2103faf78c","D2","batch4","","593","tol_tohand","","","","tol_peg_1","593","593","0","[[0,0,0],[3,0],[1]]","2","[[1,2,0],[3,0],[0]]","13","0","","","","","","4","","","","","","","","",""
"","","","","","single-stim-button","222","394640","0.0-2.0-50.1-1.1","5dd1a21340460e2103faf78c","D2","batch4","","308","tol_toboard","","","","tol_peg_2","308","308","0","[[0,0,0],[3,2],[1]]","2","[[1,2,0],[3,0],[0]]","13","0","","","","","","4","","","","","","","","",""
"","","","","","single-stim-button","223","395015","0.0-2.0-50.2-0.2","5dd1a21340460e2103faf78c","D2","batch4","","375","tol_tohand","","","","tol_peg_3","375","375","0","[[0,0,0],[3,2],[0]]","3","[[1,2,0],[3,0],[0]]","13","0","","","","","","4","","","","","","","","",""
"","","","","","single-stim-button","224","395569","0.0-2.0-50.2-1.2","5dd1a21340460e2103faf78c","D2","batch4","","553","tol_toboard","","","","tol_peg_1","553","553","0","[[1,0,0],[3,2],[0]]","3","[[1,2,0],[3,0],[0]]","13","0","","","","","","4","","","","","","","","",""
"","","","","","single-stim-button","225","395944","0.0-2.0-50.3-0.3","5dd1a21340460e2103faf78c","D2","batch4","","374","tol_tohand","","","","tol_peg_2","374","374","0","[[1,0,0],[3,0],[0]]","4","[[1,2,0],[3,0],[0]]","13","0","","","","","","4","","","","","","","","",""
"","","","","","single-stim-button","226","396415","0.0-2.0-50.3-1.3","5dd1a21340460e2103faf78c","D2","batch4","","471","tol_toboard","","","","tol_peg_1","471","471","0","[[1,2,0],[3,0],[0]]","4","[[1,2,0],[3,0],[0]]","13","0","","","","","","4","","","","","","","","",""
"","","","","","poldrack-single-stim","227","397416","0.0-2.0-51.0","5dd1a21340460e2103faf78c","D2","batch4","","-1","tol_feedback","","","true","","1000","1000","500","","","","","","-1","none","true","3229","4571","","","","","","","","","",""
"","","","","","html-button-response","228","398042","0.0-2.0-52.0","5dd1a21340460e2103faf78c","D2","batch4","","625.1000001430511","tol_trial_num","<div class = centerbox><p class = center-block-text>problem <strong>15</strong> out of 25 problems</p></div>","0","","","","","","","","","","","","","","","","","","","","","","","","",""
"","","","","","single-stim-button","229","402645","0.0-2.0-53.0-0.0","5dd1a21340460e2103faf78c","D2","batch4","","4602","tol_tohand","","","","tol_peg_1","4602","4602","0","[[1,0,0],[3,0],[0]]","1","[[2,0,0],[3,0],[1]]","14","0","","","","","","3","","","","","","","","",""
"","","","","","single-stim-button","230","405987","0.0-2.0-53.0-1.0","5dd1a21340460e2103faf78c","D2","batch4","","3340","tol_toboard","","","","tol_peg_1","3340","3340","0","[[1,2,0],[3,0],[0]]","1","[[2,0,0],[3,0],[1]]","14","0","","","","","","3","","","","","","","","",""
"","","","","","single-stim-button","231","407496","0.0-2.0-53.1-0.1","5dd1a21340460e2103faf78c","D2","batch4","","1507","tol_tohand","","","","tol_peg_1","1507","1507","0","[[1,0,0],[3,0],[0]]","2","[[2,0,0],[3,0],[1]]","14","0","","","","","","3","","","","","","","","",""
"","","","","","single-stim-button","232","408888","0.0-2.0-53.1-1.1","5dd1a21340460e2103faf78c","D2","batch4","","1391","tol_toboard","","","","tol_peg_3","1391","1391","0","[[1,0,0],[3,0],[2]]","2","[[2,0,0],[3,0],[1]]","14","0","","","","","","3","","","","","","","","",""
"","","","","","single-stim-button","233","411040","0.0-2.0-53.2-0.2","5dd1a21340460e2103faf78c","D2","batch4","","2150","tol_tohand","","","","tol_peg_1","2150","2150","0","[[0,0,0],[3,0],[2]]","3","[[2,0,0],[3,0],[1]]","14","0","","","","","","3","","","","","","","","",""
"","","","","","single-stim-button","234","411471","0.0-2.0-53.2-1.2","5dd1a21340460e2103faf78c","D2","batch4","","431","tol_toboard","","","","tol_peg_2","431","431","0","[[0,0,0],[3,1],[2]]","3","[[2,0,0],[3,0],[1]]","14","0","","","","","","3","","","","","","","","",""
"","","","","","single-stim-button","235","411912","0.0-2.0-53.3-0.3","5dd1a21340460e2103faf78c","D2","batch4","","440","tol_tohand","","","","tol_peg_3","440","440","0","[[0,0,0],[3,1],[0]]","4","[[2,0,0],[3,0],[1]]","14","0","","","","","","3","","","","","","","","",""
"","","","","","single-stim-button","236","412707","0.0-2.0-53.3-1.3","5dd1a21340460e2103faf78c","D2","batch4","","794","tol_toboard","","","","tol_peg_1","794","794","0","[[2,0,0],[3,1],[0]]","4","[[2,0,0],[3,0],[1]]","14","0","","","","","","3","","","","","","","","",""
"","","","","","single-stim-button","237","413199","0.0-2.0-53.4-0.4","5dd1a21340460e2103faf78c","D2","batch4","","491","tol_tohand","","","","tol_peg_2","491","491","0","[[2,0,0],[3,0],[0]]","5","[[2,0,0],[3,0],[1]]","14","0","","","","","","3","","","","","","","","",""
"","","","","","single-stim-button","238","413963","0.0-2.0-53.4-1.4","5dd1a21340460e2103faf78c","D2","batch4","","763","tol_toboard","","","","tol_peg_3","763","763","0","[[2,0,0],[3,0],[1]]","5","[[2,0,0],[3,0],[1]]","14","0","","","","","","3","","","","","","","","",""
"","","","","","poldrack-single-stim","239","414966","0.0-2.0-54.0","5dd1a21340460e2103faf78c","D2","batch4","","-1","tol_feedback","","","true","","1000","1000","500","","","","","","-1","none","true","4602","9190","","","","","","","","","",""
"","","","","","html-button-response","240","415590","0.0-2.0-55.0","5dd1a21340460e2103faf78c","D2","batch4","","622.5","tol_trial_num","<div class = centerbox><p class = center-block-text>problem <strong>16</strong> out of 25 problems</p></div>","0","","","","","","","","","","","","","","","","","","","","","","","","",""
"","","","","","single-stim-button","241","419389","0.0-2.0-56.0-0.0","5dd1a21340460e2103faf78c","D2","batch4","","3799","tol_tohand","","","","tol_peg_2","3799","3799","0","[[0,0,0],[2,0],[1]]","1","[[2,3,0],[1,0],[0]]","15","0","","","","","","7","","","","","","","","",""
"","","","","","single-stim-button","242","421748","0.0-2.0-56.0-1.0","5dd1a21340460e2103faf78c","D2","batch4","","2357","tol_toboard","","","","tol_peg_2","2357","2357","0","[[0,0,0],[2,3],[1]]","1","[[2,3,0],[1,0],[0]]","15","0","","","","","","7","","","","","","","","",""
"","","","","","single-stim-button","243","422403","0.0-2.0-56.1-0.1","5dd1a21340460e2103faf78c","D2","batch4","","653","tol_tohand","","","","tol_peg_3","653","653","0","[[0,0,0],[2,3],[0]]","2","[[2,3,0],[1,0],[0]]","15","0","","","","","","7","","","","","","","","",""
"","","","","","single-stim-button","244","422913","0.0-2.0-56.1-1.1","5dd1a21340460e2103faf78c","D2","batch4","","508","tol_toboard","","","","tol_peg_1","508","508","0","[[1,0,0],[2,3],[0]]","2","[[2,3,0],[1,0],[0]]","15","0","","","","","","7","","","","","","","","",""
"","","","","","single-stim-button","245","423439","0.0-2.0-56.2-0.2","5dd1a21340460e2103faf78c","D2","batch4","","524","tol_tohand","","","","tol_peg_2","524","524","0","[[1,0,0],[2,0],[0]]","3","[[2,3,0],[1,0],[0]]","15","0","","","","","","7","","","","","","","","",""
"","","","","","single-stim-button","246","423993","0.0-2.0-56.2-1.2","5dd1a21340460e2103faf78c","D2","batch4","","553","tol_toboard","","","","tol_peg_3","553","553","0","[[1,0,0],[2,0],[3]]","3","[[2,3,0],[1,0],[0]]","15","0","","","","","","7","","","","","","","","",""
"","","","","","single-stim-button","247","424607","0.0-2.0-56.3-0.3","5dd1a21340460e2103faf78c","D2","batch4","","613","tol_tohand","","","","tol_peg_2","613","613","0","[[1,0,0],[0,0],[3]]","4","[[2,3,0],[1,0],[0]]","15","0","","","","","","7","","","","","","","","",""
"","","","","","single-stim-button","248","427649","0.0-2.0-56.3-1.3","5dd1a21340460e2103faf78c","D2","batch4","","3041","tol_toboard","","","","tol_peg_2","3041","3041","0","[[1,0,0],[2,0],[3]]","4","[[2,3,0],[1,0],[0]]","15","0","","","","","","7","","","","","","","","",""
"","","","","","single-stim-button","249","432415","0.0-2.0-56.4-0.4","5dd1a21340460e2103faf78c","D2","batch4","","4764","tol_tohand","","","","tol_peg_3","4764","4764","0","[[1,0,0],[2,0],[0]]","5","[[2,3,0],[1,0],[0]]","15","0","","","","","","7","","","","","","","","",""
"","","","","","single-stim-button","250","432923","0.0-2.0-56.4-1.4","5dd1a21340460e2103faf78c","D2","batch4","","507","tol_toboard","","","","tol_peg_1","507","507","0","[[1,3,0],[2,0],[0]]","5","[[2,3,0],[1,0],[0]]","15","0","","","","","","7","","","","","","","","",""
"","","","","","single-stim-button","251","433347","0.0-2.0-56.5-0.5","5dd1a21340460e2103faf78c","D2","batch4","","422","tol_tohand","","","","tol_peg_2","422","422","0","[[1,3,0],[0,0],[0]]","6","[[2,3,0],[1,0],[0]]","15","0","","","","","","7","","","","","","","","",""
"","","","","","single-stim-button","252","433791","0.0-2.0-56.5-1.5","5dd1a21340460e2103faf78c","D2","batch4","","443","tol_toboard","","","","tol_peg_3","443","443","0","[[1,3,0],[0,0],[2]]","6","[[2,3,0],[1,0],[0]]","15","0","","","","","","7","","","","","","","","",""
"","","","","","single-stim-button","253","434277","0.0-2.0-56.6-0.6","5dd1a21340460e2103faf78c","D2","batch4","","484","tol_tohand","","","","tol_peg_1","484","484","0","[[1,0,0],[0,0],[2]]","7","[[2,3,0],[1,0],[0]]","15","0","","","","","","7","","","","","","","","",""
"","","","","","single-stim-button","254","434759","0.0-2.0-56.6-1.6","5dd1a21340460e2103faf78c","D2","batch4","","482","tol_toboard","","","","tol_peg_2","482","482","0","[[1,0,0],[3,0],[2]]","7","[[2,3,0],[1,0],[0]]","15","0","","","","","","7","","","","","","","","",""
"","","","","","single-stim-button","255","435800","0.0-2.0-56.7-0.7","5dd1a21340460e2103faf78c","D2","batch4","","1041","tol_tohand","","","","tol_peg_1","1041","1041","0","[[0,0,0],[3,0],[2]]","8","[[2,3,0],[1,0],[0]]","15","0","","","","","","7","","","","","","","","",""
"","","","","","single-stim-button","256","436267","0.0-2.0-56.7-1.7","5dd1a21340460e2103faf78c","D2","batch4","","465","tol_toboard","","","","tol_peg_2","465","465","0","[[0,0,0],[3,1],[2]]","8","[[2,3,0],[1,0],[0]]","15","0","","","","","","7","","","","","","","","",""
"","","","","","single-stim-button","257","436716","0.0-2.0-56.8-0.8","5dd1a21340460e2103faf78c","D2","batch4","","447","tol_tohand","","","","tol_peg_3","447","447","0","[[0,0,0],[3,1],[0]]","9","[[2,3,0],[1,0],[0]]","15","0","","","","","","7","","","","","","","","",""
"","","","","","single-stim-button","258","437190","0.0-2.0-56.8-1.8","5dd1a21340460e2103faf78c","D2","batch4","","474","tol_toboard","","","","tol_peg_1","474","474","0","[[2,0,0],[3,1],[0]]","9","[[2,3,0],[1,0],[0]]","15","0","","","","","","7","","","","","","","","",""
"","","","","","single-stim-button","259","437810","0.0-2.0-56.9-0.9","5dd1a21340460e2103faf78c","D2","batch4","","619","tol_tohand","","","","tol_peg_2","619","619","0","[[2,0,0],[3,0],[0]]","10","[[2,3,0],[1,0],[0]]","15","0","","","","","","7","","","","","","","","",""
"","","","","","single-stim-button","260","438240","0.0-2.0-56.9-1.9","5dd1a21340460e2103faf78c","D2","batch4","","428","tol_toboard","","","","tol_peg_3","428","428","0","[[2,0,0],[3,0],[1]]","10","[[2,3,0],[1,0],[0]]","15","0","","","","","","7","","","","","","","","",""
"","","","","","single-stim-button","261","438734","0.0-2.0-56.10-0.10","5dd1a21340460e2103faf78c","D2","batch4","","494","tol_tohand","","","","tol_peg_2","494","494","0","[[2,0,0],[0,0],[1]]","11","[[2,3,0],[1,0],[0]]","15","0","","","","","","7","","","","","","","","",""
"","","","","","single-stim-button","262","439208","0.0-2.0-56.10-1.10","5dd1a21340460e2103faf78c","D2","batch4","","473","tol_toboard","","","","tol_peg_1","473","473","0","[[2,3,0],[0,0],[1]]","11","[[2,3,0],[1,0],[0]]","15","0","","","","","","7","","","","","","","","",""
"","","","","","single-stim-button","263","441361","0.0-2.0-56.11-0.11","5dd1a21340460e2103faf78c","D2","batch4","","2151","tol_tohand","","","","tol_peg_3","2151","2151","0","[[2,3,0],[0,0],[0]]","12","[[2,3,0],[1,0],[0]]","15","0","","","","","","7","","","","","","","","",""
"","","","","","single-stim-button","264","441825","0.0-2.0-56.11-1.11","5dd1a21340460e2103faf78c","D2","batch4","","464","tol_toboard","","","","tol_peg_2","464","464","0","[[2,3,0],[1,0],[0]]","12","[[2,3,0],[1,0],[0]]","15","0","","","","","","7","","","","","","","","",""
"","","","","","poldrack-single-stim","265","442827","0.0-2.0-57.0","5dd1a21340460e2103faf78c","D2","batch4","","-1","tol_feedback","","","true","","1000","1000","500","","","","","","-1","none","true","3799","16011","","","","","","","","","",""
"","","","","","html-button-response","266","443469","0.0-2.0-58.0","5dd1a21340460e2103faf78c","D2","batch4","","640.7999999523163","tol_trial_num","<div class = centerbox><p class = center-block-text>problem <strong>17</strong> out of 25 problems</p></div>","0","","","","","","","","","","","","","","","","","","","","","","","","",""
"","","","","","single-stim-button","267","455490","0.0-2.0-59.0-0.0","5dd1a21340460e2103faf78c","D2","batch4","","12021","tol_tohand","","","","tol_peg_1","12021","12021","0","[[1,0,0],[3,0],[0]]","1","[[3,1,0],[2,0],[0]]","16","0","","","","","","5","","","","","","","","",""
"","","","","","single-stim-button","268","457169","0.0-2.0-59.0-1.0","5dd1a21340460e2103faf78c","D2","batch4","","1678","tol_toboard","","","","tol_peg_2","1678","1678","0","[[1,0,0],[3,2],[0]]","1","[[3,1,0],[2,0],[0]]","16","0","","","","","","5","","","","","","","","",""
"","","","","","single-stim-button","269","458316","0.0-2.0-59.1-0.1","5dd1a21340460e2103faf78c","D2","batch4","","1146","tol_tohand","","","","tol_peg_2","1146","1146","0","[[1,0,0],[3,0],[0]]","2","[[3,1,0],[2,0],[0]]","16","0","","","","","","5","","","","","","","","",""
"","","","","","single-stim-button","270","458847","0.0-2.0-59.1-1.1","5dd1a21340460e2103faf78c","D2","batch4","","530","tol_toboard","","","","tol_peg_3","530","530","0","[[1,0,0],[3,0],[2]]","2","[[3,1,0],[2,0],[0]]","16","0","","","","","","5","","","","","","","","",""
"","","","","","single-stim-button","271","461427","0.0-2.0-59.2-0.2","5dd1a21340460e2103faf78c","D2","batch4","","2580","tol_tohand","","","","tol_peg_2","2580","2580","0","[[1,0,0],[0,0],[2]]","3","[[3,1,0],[2,0],[0]]","16","0","","","","","","5","","","","","","","","",""
"","","","","","single-stim-button","272","461921","0.0-2.0-59.2-1.2","5dd1a21340460e2103faf78c","D2","batch4","","493","tol_toboard","","","","tol_peg_1","493","493","0","[[1,3,0],[0,0],[2]]","3","[[3,1,0],[2,0],[0]]","16","0","","","","","","5","","","","","","","","",""
"","","","","","single-stim-button","273","462698","0.0-2.0-59.3-0.3","5dd1a21340460e2103faf78c","D2","batch4","","775","tol_tohand","","","","tol_peg_3","775","775","0","[[1,3,0],[0,0],[0]]","4","[[3,1,0],[2,0],[0]]","16","0","","","","","","5","","","","","","","","",""
"","","","","","single-stim-button","274","463168","0.0-2.0-59.3-1.3","5dd1a21340460e2103faf78c","D2","batch4","","470","tol_toboard","","","","tol_peg_2","470","470","0","[[1,3,0],[2,0],[0]]","4","[[3,1,0],[2,0],[0]]","16","0","","","","","","5","","","","","","","","",""
"","","","","","single-stim-button","275","463741","0.0-2.0-59.4-0.4","5dd1a21340460e2103faf78c","D2","batch4","","572","tol_tohand","","","","tol_peg_1","572","572","0","[[1,0,0],[2,0],[0]]","5","[[3,1,0],[2,0],[0]]","16","0","","","","","","5","","","","","","","","",""
"","","","","","single-stim-button","276","464249","0.0-2.0-59.4-1.4","5dd1a21340460e2103faf78c","D2","batch4","","507","tol_toboard","","","","tol_peg_3","507","507","0","[[1,0,0],[2,0],[3]]","5","[[3,1,0],[2,0],[0]]","16","0","","","","","","5","","","","","","","","",""
"","","","","","single-stim-button","277","464733","0.0-2.0-59.5-0.5","5dd1a21340460e2103faf78c","D2","batch4","","483","tol_tohand","","","","tol_peg_1","483","483","0","[[0,0,0],[2,0],[3]]","6","[[3,1,0],[2,0],[0]]","16","0","","","","","","5","","","","","","","","",""
"","","","","","single-stim-button","278","465172","0.0-2.0-59.5-1.5","5dd1a21340460e2103faf78c","D2","batch4","","439","tol_toboard","","","","tol_peg_2","439","439","0","[[0,0,0],[2,1],[3]]","6","[[3,1,0],[2,0],[0]]","16","0","","","","","","5","","","","","","","","",""
"","","","","","single-stim-button","279","465605","0.0-2.0-59.6-0.6","5dd1a21340460e2103faf78c","D2","batch4","","431","tol_tohand","","","","tol_peg_3","431","431","0","[[0,0,0],[2,1],[0]]","7","[[3,1,0],[2,0],[0]]","16","0","","","","","","5","","","","","","","","",""
"","","","","","single-stim-button","280","466089","0.0-2.0-59.6-1.6","5dd1a21340460e2103faf78c","D2","batch4","","483","tol_toboard","","","","tol_peg_1","483","483","0","[[3,0,0],[2,1],[0]]","7","[[3,1,0],[2,0],[0]]","16","0","","","","","","5","","","","","","","","",""
"","","","","","single-stim-button","281","466606","0.0-2.0-59.7-0.7","5dd1a21340460e2103faf78c","D2","batch4","","515","tol_tohand","","","","tol_peg_2","515","515","0","[[3,0,0],[2,0],[0]]","8","[[3,1,0],[2,0],[0]]","16","0","","","","","","5","","","","","","","","",""
"","","","","","single-stim-button","282","467097","0.0-2.0-59.7-1.7","5dd1a21340460e2103faf78c","D2","batch4","","490","tol_toboard","","","","tol_peg_1","490","490","0","[[3,1,0],[2,0],[0]]","8","[[3,1,0],[2,0],[0]]","16","0","","","","","","5","","","","","","","","",""
"","","","","","poldrack-single-stim","283","468102","0.0-2.0-60.0","5dd1a21340460e2103faf78c","D2","batch4","","-1","tol_feedback","","","true","","1000","1000","500","","","","","","-1","none","true","12021","18523","","","","","","","","","",""
"","","","","","html-button-response","284","468810","0.0-2.0-61.0","5dd1a21340460e2103faf78c","D2","batch4","","707.1000001430511","tol_trial_num","<div class = centerbox><p class = center-block-text>problem <strong>18</strong> out of 25 problems</p></div>","0","","","","","","","","","","","","","","","","","","","","","","","","",""
"","","","","","single-stim-button","285","476597","0.0-2.0-62.0-0.0","5dd1a21340460e2103faf78c","D2","batch4","","7787","tol_tohand","","","","tol_peg_1","7787","7787","0","[[1,0,0],[3,0],[0]]","1","[[3,0,0],[2,0],[1]]","17","0","","","","","","5","","","","","","","","",""
"","","","","","single-stim-button","286","477303","0.0-2.0-62.0-1.0","5dd1a21340460e2103faf78c","D2","batch4","","705","tol_toboard","","","","tol_peg_3","705","705","0","[[1,0,0],[3,0],[2]]","1","[[3,0,0],[2,0],[1]]","17","0","","","","","","5","","","","","","","","",""
"","","","","","single-stim-button","287","478230","0.0-2.0-62.1-0.1","5dd1a21340460e2103faf78c","D2","batch4","","925","tol_tohand","","","","tol_peg_2","925","925","0","[[1,0,0],[0,0],[2]]","2","[[3,0,0],[2,0],[1]]","17","0","","","","","","5","","","","","","","","",""
"","","","","","single-stim-button","288","479760","0.0-2.0-62.1-1.1","5dd1a21340460e2103faf78c","D2","batch4","","1529","tol_toboard","","","","tol_peg_2","1529","1529","0","[[1,0,0],[3,0],[2]]","2","[[3,0,0],[2,0],[1]]","17","0","","","","","","5","","","","","","","","",""
"","","","","","single-stim-button","289","480577","0.0-2.0-62.2-0.2","5dd1a21340460e2103faf78c","D2","batch4","","817","tol_tohand","","","","tol_peg_1","817","817","0","[[0,0,0],[3,0],[2]]","3","[[3,0,0],[2,0],[1]]","17","0","","","","","","5","","","","","","","","",""
"","","","","","single-stim-button","290","481018","0.0-2.0-62.2-1.2","5dd1a21340460e2103faf78c","D2","batch4","","439","tol_toboard","","","","tol_peg_2","439","439","0","[[0,0,0],[3,1],[2]]","3","[[3,0,0],[2,0],[1]]","17","0","","","","","","5","","","","","","","","",""
"","","","","","single-stim-button","291","482746","0.0-2.0-62.3-0.3","5dd1a21340460e2103faf78c","D2","batch4","","1728","tol_tohand","","","","tol_peg_3","1728","1728","0","[[0,0,0],[3,1],[0]]","4","[[3,0,0],[2,0],[1]]","17","0","","","","","","5","","","","","","","","",""
"","","","","","single-stim-button","292","483222","0.0-2.0-62.3-1.3","5dd1a21340460e2103faf78c","D2","batch4","","474","tol_toboard","","","","tol_peg_1","474","474","0","[[2,0,0],[3,1],[0]]","4","[[3,0,0],[2,0],[1]]","17","0","","","","","","5","","","","","","","","",""
"","","","","","single-stim-button","293","483700","0.0-2.0-62.4-0.4","5dd1a21340460e2103faf78c","D2","batch4","","477","tol_tohand","","","","tol_peg_2","477","477","0","[[2,0,0],[3,0],[0]]","5","[[3,0,0],[2,0],[1]]","17","0","","","","","","5","","","","","","","","",""
"","","","","","single-stim-button","294","484212","0.0-2.0-62.4-1.4","5dd1a21340460e2103faf78c","D2","batch4","","511","tol_toboard","","","","tol_peg_3","511","511","0","[[2,0,0],[3,0],[1]]","5","[[3,0,0],[2,0],[1]]","17","0","","","","","","5","","","","","","","","",""
"","","","","","single-stim-button","295","485739","0.0-2.0-62.5-0.5","5dd1a21340460e2103faf78c","D2","batch4","","1526","tol_tohand","","","","tol_peg_2","1526","1526","0","[[2,0,0],[0,0],[1]]","6","[[3,0,0],[2,0],[1]]","17","0","","","","","","5","","","","","","","","",""
"","","","","","single-stim-button","296","487313","0.0-2.0-62.5-1.5","5dd1a21340460e2103faf78c","D2","batch4","","1573","tol_toboard","","","","tol_peg_2","1573","1573","0","[[2,0,0],[3,0],[1]]","6","[[3,0,0],[2,0],[1]]","17","0","","","","","","5","","","","","","","","",""
"","","","","","single-stim-button","297","488687","0.0-2.0-62.6-0.6","5dd1a21340460e2103faf78c","D2","batch4","","1372","tol_tohand","","","","tol_peg_3","1372","1372","0","[[2,0,0],[3,0],[0]]","7","[[3,0,0],[2,0],[1]]","17","0","","","","","","5","","","","","","","","",""
"","","","","","single-stim-button","298","489930","0.0-2.0-62.6-1.6","5dd1a21340460e2103faf78c","D2","batch4","","1243","tol_toboard","","","","tol_peg_2","1243","1243","0","[[2,0,0],[3,1],[0]]","7","[[3,0,0],[2,0],[1]]","17","0","","","","","","5","","","","","","","","",""
"","","","","","single-stim-button","299","490472","0.0-2.0-62.7-0.7","5dd1a21340460e2103faf78c","D2","batch4","","541","tol_tohand","","","","tol_peg_1","541","541","0","[[0,0,0],[3,1],[0]]","8","[[3,0,0],[2,0],[1]]","17","0","","","","","","5","","","","","","","","",""
"","","","","","single-stim-button","300","491902","0.0-2.0-62.7-1.7","5dd1a21340460e2103faf78c","D2","batch4","","1430","tol_toboard","","","","tol_peg_3","1430","1430","0","[[0,0,0],[3,1],[2]]","8","[[3,0,0],[2,0],[1]]","17","0","","","","","","5","","","","","","","","",""
"","","","","","single-stim-button","301","492452","0.0-2.0-62.8-0.8","5dd1a21340460e2103faf78c","D2","batch4","","549","tol_tohand","","","","tol_peg_2","549","549","0","[[0,0,0],[3,0],[2]]","9","[[3,0,0],[2,0],[1]]","17","0","","","","","","5","","","","","","","","",""
"","","","","","single-stim-button","302","492993","0.0-2.0-62.8-1.8","5dd1a21340460e2103faf78c","D2","batch4","","541","tol_toboard","","","","tol_peg_1","541","541","0","[[1,0,0],[3,0],[2]]","9","[[3,0,0],[2,0],[1]]","17","0","","","","","","5","","","","","","","","",""
"","","","","","single-stim-button","303","501149","0.0-2.0-62.9-0.9","5dd1a21340460e2103faf78c","D2","batch4","","8155","tol_tohand","","","","tol_peg_3","8155","8155","0","[[1,0,0],[3,0],[0]]","10","[[3,0,0],[2,0],[1]]","17","0","","","","","","5","","","","","","","","",""
"","","","","","single-stim-button","304","501571","0.0-2.0-62.9-1.9","5dd1a21340460e2103faf78c","D2","batch4","","420","tol_toboard","","","","tol_peg_2","420","420","0","[[1,0,0],[3,2],[0]]","10","[[3,0,0],[2,0],[1]]","17","0","","","","","","5","","","","","","","","",""
"","","","","","single-stim-button","305","502063","0.0-2.0-62.10-0.10","5dd1a21340460e2103faf78c","D2","batch4","","491","tol_tohand","","","","tol_peg_1","491","491","0","[[0,0,0],[3,2],[0]]","11","[[3,0,0],[2,0],[1]]","17","0","","","","","","5","","","","","","","","",""
"","","","","","single-stim-button","306","502562","0.0-2.0-62.10-1.10","5dd1a21340460e2103faf78c","D2","batch4","","498","tol_toboard","","","","tol_peg_3","498","498","0","[[0,0,0],[3,2],[1]]","11","[[3,0,0],[2,0],[1]]","17","0","","","","","","5","","","","","","","","",""
"","","","","","single-stim-button","307","503182","0.0-2.0-62.11-0.11","5dd1a21340460e2103faf78c","D2","batch4","","619","tol_tohand","","","","tol_peg_2","619","619","0","[[0,0,0],[3,0],[1]]","12","[[3,0,0],[2,0],[1]]","17","0","","","","","","5","","","","","","","","",""
"","","","","","single-stim-button","308","505874","0.0-2.0-62.11-1.11","5dd1a21340460e2103faf78c","D2","batch4","","2690","tol_toboard","","","","tol_peg_1","2690","2690","0","[[2,0,0],[3,0],[1]]","12","[[3,0,0],[2,0],[1]]","17","0","","","","","","5","","","","","","","","",""
"","","","","","single-stim-button","309","506892","0.0-2.0-62.12-0.12","5dd1a21340460e2103faf78c","D2","batch4","","1017","tol_tohand","","","","tol_peg_3","1017","1017","0","[[2,0,0],[3,0],[0]]","13","[[3,0,0],[2,0],[1]]","17","0","","","","","","5","","","","","","","","",""
"","","","","","single-stim-button","310","507896","0.0-2.0-62.12-1.12","5dd1a21340460e2103faf78c","D2","batch4","","1004","tol_toboard","","","","tol_peg_1","1004","1004","0","[[2,1,0],[3,0],[0]]","13","[[3,0,0],[2,0],[1]]","17","0","","","","","","5","","","","","","","","",""
"","","","","","single-stim-button","311","508397","0.0-2.0-62.13-0.13","5dd1a21340460e2103faf78c","D2","batch4","","499","tol_tohand","","","","tol_peg_2","499","499","0","[[2,1,0],[0,0],[0]]","14","[[3,0,0],[2,0],[1]]","17","0","","","","","","5","","","","","","","","",""
"","","","","","single-stim-button","312","508859","0.0-2.0-62.13-1.13","5dd1a21340460e2103faf78c","D2","batch4","","461","tol_toboard","","","","tol_peg_3","461","461","0","[[2,1,0],[0,0],[3]]","14","[[3,0,0],[2,0],[1]]","17","0","","","","","","5","","","","","","","","",""
"","","","","","single-stim-button","313","509473","0.0-2.0-62.14-0.14","5dd1a21340460e2103faf78c","D2","batch4","","613","tol_tohand","","","","tol_peg_1","613","613","0","[[2,0,0],[0,0],[3]]","15","[[3,0,0],[2,0],[1]]","17","0","","","","","","5","","","","","","","","",""
"","","","","","single-stim-button","314","510298","0.0-2.0-62.14-1.14","5dd1a21340460e2103faf78c","D2","batch4","","825","tol_toboard","","","","tol_peg_2","825","825","0","[[2,0,0],[1,0],[3]]","15","[[3,0,0],[2,0],[1]]","17","0","","","","","","5","","","","","","","","",""
"","","","","","single-stim-button","315","510730","0.0-2.0-62.15-0.15","5dd1a21340460e2103faf78c","D2","batch4","","430","tol_tohand","","","","tol_peg_1","430","430","0","[[0,0,0],[1,0],[3]]","16","[[3,0,0],[2,0],[1]]","17","0","","","","","","5","","","","","","","","",""
"","","","","","single-stim-button","316","511149","0.0-2.0-62.15-1.15","5dd1a21340460e2103faf78c","D2","batch4","","419","tol_toboard","","","","tol_peg_2","419","419","0","[[0,0,0],[1,2],[3]]","16","[[3,0,0],[2,0],[1]]","17","0","","","","","","5","","","","","","","","",""
"","","","","","single-stim-button","317","511566","0.0-2.0-62.16-0.16","5dd1a21340460e2103faf78c","D2","batch4","","415","tol_tohand","","","","tol_peg_3","415","415","0","[[0,0,0],[1,2],[0]]","17","[[3,0,0],[2,0],[1]]","17","0","","","","","","5","","","","","","","","",""
"","","","","","single-stim-button","318","512049","0.0-2.0-62.16-1.16","5dd1a21340460e2103faf78c","D2","batch4","","482","tol_toboard","","","","tol_peg_1","482","482","0","[[3,0,0],[1,2],[0]]","17","[[3,0,0],[2,0],[1]]","17","0","","","","","","5","","","","","","","","",""
"","","","","","single-stim-button","319","512575","0.0-2.0-62.17-0.17","5dd1a21340460e2103faf78c","D2","batch4","","525","tol_tohand","","","","tol_peg_2","525","525","0","[[3,0,0],[1,0],[0]]","18","[[3,0,0],[2,0],[1]]","17","0","","","","","","5","","","","","","","","",""
"","","","","","single-stim-button","320","513040","0.0-2.0-62.17-1.17","5dd1a21340460e2103faf78c","D2","batch4","","465","tol_toboard","","","","tol_peg_3","465","465","0","[[3,0,0],[1,0],[2]]","18","[[3,0,0],[2,0],[1]]","17","0","","","","","","5","","","","","","","","",""
"","","","","","single-stim-button","321","513696","0.0-2.0-62.18-0.18","5dd1a21340460e2103faf78c","D2","batch4","","656","tol_tohand","","","","tol_peg_2","656","656","0","[[3,0,0],[0,0],[2]]","19","[[3,0,0],[2,0],[1]]","17","0","","","","","","5","","","","","","","","",""
"","","","","","single-stim-button","322","514158","0.0-2.0-62.18-1.18","5dd1a21340460e2103faf78c","D2","batch4","","461","tol_toboard","","","","tol_peg_1","461","461","0","[[3,1,0],[0,0],[2]]","19","[[3,0,0],[2,0],[1]]","17","0","","","","","","5","","","","","","","","",""
"","","","","","single-stim-button","323","515311","0.0-2.0-62.19-0.19","5dd1a21340460e2103faf78c","D2","batch4","","1152","tol_tohand","","","","tol_peg_3","1152","1152","0","[[3,1,0],[0,0],[0]]","20","[[3,0,0],[2,0],[1]]","17","0","","","","","","5","","","","","","","","",""
"","","","","","single-stim-button","324","515858","0.0-2.0-62.19-1.19","5dd1a21340460e2103faf78c","D2","batch4","","545","tol_toboard","","","","tol_peg_2","545","545","0","[[3,1,0],[2,0],[0]]","20","[[3,0,0],[2,0],[1]]","17","0","","","","","","5","","","","","","","","",""
"","","","","","single-stim-button","325","516404","0.0-2.0-62.20-0.20","5dd1a21340460e2103faf78c","D2","batch4","","545","tol_tohand","","","","tol_peg_1","545","545","0","[[3,0,0],[2,0],[0]]","21","[[3,0,0],[2,0],[1]]","17","0","","","","","","5","","","","","","","","",""
"","","","","","single-stim-button","326","516930","0.0-2.0-62.20-1.20","5dd1a21340460e2103faf78c","D2","batch4","","524","tol_toboard","","","","tol_peg_3","524","524","0","[[3,0,0],[2,0],[1]]","21","[[3,0,0],[2,0],[1]]","17","0","","","","","","5","","","","","","","","",""
"","","","","","poldrack-single-stim","327","517933","0.0-2.0-63.0","5dd1a21340460e2103faf78c","D2","batch4","","-1","tol_feedback","","","true","","1000","1000","500","","","","","","-1","none","true","7787","30839","","","","","","","","","",""
"","","","","","html-button-response","328","518506","0.0-2.0-64.0","5dd1a21340460e2103faf78c","D2","batch4","","570.8000001907349","tol_trial_num","<div class = centerbox><p class = center-block-text>problem <strong>19</strong> out of 25 problems</p></div>","0","","","","","","","","","","","","","","","","","","","","","","","","",""
"","","","","","single-stim-button","329","522944","0.0-2.0-65.0-0.0","5dd1a21340460e2103faf78c","D2","batch4","","4438","tol_tohand","","","","tol_peg_2","4438","4438","0","[[1,2,0],[0,0],[0]]","1","[[0,0,0],[1,2],[3]]","18","0","","","","","","7","","","","","","","","",""
"","","","","","single-stim-button","330","525162","0.0-2.0-65.0-1.0","5dd1a21340460e2103faf78c","D2","batch4","","2216","tol_toboard","","","","tol_peg_3","2216","2216","0","[[1,2,0],[0,0],[3]]","1","[[0,0,0],[1,2],[3]]","18","0","","","","","","7","","","","","","","","",""
"","","","","","single-stim-button","331","525882","0.0-2.0-65.1-0.1","5dd1a21340460e2103faf78c","D2","batch4","","719","tol_tohand","","","","tol_peg_1","719","719","0","[[1,0,0],[0,0],[3]]","2","[[0,0,0],[1,2],[3]]","18","0","","","","","","7","","","","","","","","",""
"","","","","","single-stim-button","332","526969","0.0-2.0-65.1-1.1","5dd1a21340460e2103faf78c","D2","batch4","","1086","tol_toboard","","","","tol_peg_2","1086","1086","0","[[1,0,0],[2,0],[3]]","2","[[0,0,0],[1,2],[3]]","18","0","","","","","","7","","","","","","","","",""
"","","","","","single-stim-button","333","527445","0.0-2.0-65.2-0.2","5dd1a21340460e2103faf78c","D2","batch4","","475","tol_tohand","","","","tol_peg_3","475","475","0","[[1,0,0],[2,0],[0]]","3","[[0,0,0],[1,2],[3]]","18","0","","","","","","7","","","","","","","","",""
"","","","","","single-stim-button","334","527918","0.0-2.0-65.2-1.2","5dd1a21340460e2103faf78c","D2","batch4","","471","tol_toboard","","","","tol_peg_1","471","471","0","[[1,3,0],[2,0],[0]]","3","[[0,0,0],[1,2],[3]]","18","0","","","","","","7","","","","","","","","",""
"","","","","","single-stim-button","335","528338","0.0-2.0-65.3-0.3","5dd1a21340460e2103faf78c","D2","batch4","","419","tol_tohand","","","","tol_peg_2","419","419","0","[[1,3,0],[0,0],[0]]","4","[[0,0,0],[1,2],[3]]","18","0","","","","","","7","","","","","","","","",""
"","","","","","single-stim-button","336","528758","0.0-2.0-65.3-1.3","5dd1a21340460e2103faf78c","D2","batch4","","420","tol_toboard","","","","tol_peg_3","420","420","0","[[1,3,0],[0,0],[2]]","4","[[0,0,0],[1,2],[3]]","18","0","","","","","","7","","","","","","","","",""
"","","","","","single-stim-button","337","530322","0.0-2.0-65.4-0.4","5dd1a21340460e2103faf78c","D2","batch4","","1562","tol_tohand","","","","tol_peg_1","1562","1562","0","[[1,0,0],[0,0],[2]]","5","[[0,0,0],[1,2],[3]]","18","0","","","","","","7","","","","","","","","",""
"","","","","","single-stim-button","338","530908","0.0-2.0-65.4-1.4","5dd1a21340460e2103faf78c","D2","batch4","","585","tol_toboard","","","","tol_peg_2","585","585","0","[[1,0,0],[3,0],[2]]","5","[[0,0,0],[1,2],[3]]","18","0","","","","","","7","","","","","","","","",""
"","","","","","single-stim-button","339","533734","0.0-2.0-65.5-0.5","5dd1a21340460e2103faf78c","D2","batch4","","2826","tol_tohand","","","","tol_peg_1","2826","2826","0","[[0,0,0],[3,0],[2]]","6","[[0,0,0],[1,2],[3]]","18","0","","","","","","7","","","","","","","","",""
"","","","","","single-stim-button","340","534241","0.0-2.0-65.5-1.5","5dd1a21340460e2103faf78c","D2","batch4","","505","tol_toboard","","","","tol_peg_2","505","505","0","[[0,0,0],[3,1],[2]]","6","[[0,0,0],[1,2],[3]]","18","0","","","","","","7","","","","","","","","",""
"","","","","","single-stim-button","341","534738","0.0-2.0-65.6-0.6","5dd1a21340460e2103faf78c","D2","batch4","","496","tol_tohand","","","","tol_peg_3","496","496","0","[[0,0,0],[3,1],[0]]","7","[[0,0,0],[1,2],[3]]","18","0","","","","","","7","","","","","","","","",""
"","","","","","single-stim-button","342","535928","0.0-2.0-65.6-1.6","5dd1a21340460e2103faf78c","D2","batch4","","1190","tol_toboard","","","","tol_peg_1","1190","1190","0","[[2,0,0],[3,1],[0]]","7","[[0,0,0],[1,2],[3]]","18","0","","","","","","7","","","","","","","","",""
"","","","","","single-stim-button","343","536764","0.0-2.0-65.7-0.7","5dd1a21340460e2103faf78c","D2","batch4","","834","tol_tohand","","","","tol_peg_2","834","834","0","[[2,0,0],[3,0],[0]]","8","[[0,0,0],[1,2],[3]]","18","0","","","","","","7","","","","","","","","",""
"","","","","","single-stim-button","344","537223","0.0-2.0-65.7-1.7","5dd1a21340460e2103faf78c","D2","batch4","","459","tol_toboard","","","","tol_peg_3","459","459","0","[[2,0,0],[3,0],[1]]","8","[[0,0,0],[1,2],[3]]","18","0","","","","","","7","","","","","","","","",""
"","","","","","single-stim-button","345","537841","0.0-2.0-65.8-0.8","5dd1a21340460e2103faf78c","D2","batch4","","618","tol_tohand","","","","tol_peg_2","618","618","0","[[2,0,0],[0,0],[1]]","9","[[0,0,0],[1,2],[3]]","18","0","","","","","","7","","","","","","","","",""
"","","","","","single-stim-button","346","539248","0.0-2.0-65.8-1.8","5dd1a21340460e2103faf78c","D2","batch4","","1405","tol_toboard","","","","tol_peg_1","1405","1405","0","[[2,3,0],[0,0],[1]]","9","[[0,0,0],[1,2],[3]]","18","0","","","","","","7","","","","","","","","",""
"","","","","","single-stim-button","347","539740","0.0-2.0-65.9-0.9","5dd1a21340460e2103faf78c","D2","batch4","","492","tol_tohand","","","","tol_peg_3","492","492","0","[[2,3,0],[0,0],[0]]","10","[[0,0,0],[1,2],[3]]","18","0","","","","","","7","","","","","","","","",""
"","","","","","single-stim-button","348","540230","0.0-2.0-65.9-1.9","5dd1a21340460e2103faf78c","D2","batch4","","490","tol_toboard","","","","tol_peg_2","490","490","0","[[2,3,0],[1,0],[0]]","10","[[0,0,0],[1,2],[3]]","18","0","","","","","","7","","","","","","","","",""
"","","","","","single-stim-button","349","540754","0.0-2.0-65.10-0.10","5dd1a21340460e2103faf78c","D2","batch4","","523","tol_tohand","","","","tol_peg_1","523","523","0","[[2,0,0],[1,0],[0]]","11","[[0,0,0],[1,2],[3]]","18","0","","","","","","7","","","","","","","","",""
"","","","","","single-stim-button","350","541507","0.0-2.0-65.10-1.10","5dd1a21340460e2103faf78c","D2","batch4","","753","tol_toboard","","","","tol_peg_3","753","753","0","[[2,0,0],[1,0],[3]]","11","[[0,0,0],[1,2],[3]]","18","0","","","","","","7","","","","","","","","",""
"","","","","","single-stim-button","351","542055","0.0-2.0-65.11-0.11","5dd1a21340460e2103faf78c","D2","batch4","","548","tol_tohand","","","","tol_peg_1","548","548","0","[[0,0,0],[1,0],[3]]","12","[[0,0,0],[1,2],[3]]","18","0","","","","","","7","","","","","","","","",""
"","","","","","single-stim-button","352","542477","0.0-2.0-65.11-1.11","5dd1a21340460e2103faf78c","D2","batch4","","421","tol_toboard","","","","tol_peg_2","421","421","0","[[0,0,0],[1,2],[3]]","12","[[0,0,0],[1,2],[3]]","18","0","","","","","","7","","","","","","","","",""
"","","","","","poldrack-single-stim","353","543480","0.0-2.0-66.0","5dd1a21340460e2103faf78c","D2","batch4","","-1","tol_feedback","","","true","","1000","1000","500","","","","","","-1","none","true","4438","13950","","","","","","","","","",""
"","","","","","html-button-response","354","544038","0.0-2.0-67.0","5dd1a21340460e2103faf78c","D2","batch4","","556.7000000476837","tol_trial_num","<div class = centerbox><p class = center-block-text>problem <strong>20</strong> out of 25 problems</p></div>","0","","","","","","","","","","","","","","","","","","","","","","","","",""
"","","","","","single-stim-button","355","554911","0.0-2.0-68.0-0.0","5dd1a21340460e2103faf78c","D2","batch4","","10872","tol_tohand","","","","tol_peg_1","10872","10872","0","[[1,0,0],[3,0],[0]]","1","[[2,1,0],[0,0],[3]]","19","0","","","","","","5","","","","","","","","",""
"","","","","","single-stim-button","356","555449","0.0-2.0-68.0-1.0","5dd1a21340460e2103faf78c","D2","batch4","","536","tol_toboard","","","","tol_peg_3","536","536","0","[[1,0,0],[3,0],[2]]","1","[[2,1,0],[0,0],[3]]","19","0","","","","","","5","","","","","","","","",""
