"success","timeout","failed_images","failed_audio","failed_video","trial_type","trial_index","time_elapsed","internal_node_id","subject_id","study_id","session_id","view_history","rt","task","stimulus","response","correct","mouse_click","stim_duration","block_duration","timing_post_trial","current_position","tol_num_moves_made","tol_target","tol_problem_id","tol_rt","key_press","possible_responses","tol_correct","preplanning","tol_rt_per_trial","tol_min_moves","answer","item","fiar_detect_rt","fiar_detect_correct","total_correct_fiar_detect","post_trial_gap","choices","spm_correct","spm_rt"
"true","false","[]","[]","[]","preload","0","6996","0.0-0.0","5dd31871c5faa232d3c20365","C3","batch3","","","","","","","","","","","","","","","","","","","","","","","","","","","","","",""
"true","","","","","fullscreen","1","17181","0.0-1.0-0.0","5dd31871c5faa232d3c20365","C3","batch3","","","","","","","","","","","","","","","","","","","","","","","","","","","","","",""
"true","","","","","fullscreen","2","24789","0.0-2.0-0.0","5dd31871c5faa232d3c20365","C3","batch3","","","","","","","","","","","","","","","","","","","","","","","","","","","","","",""
"","","","","","instructions","3","66923","0.0-2.0-1.0-0.0-0.0","5dd31871c5faa232d3c20365","C3","batch3","[{""page_index"":0,""viewing_time"":6722},{""page_index"":1,""viewing_time"":6003},{""page_index"":2,""viewing_time"":4307},{""page_index"":3,""viewing_time"":7953},{""page_index"":4,""viewing_time"":4953},{""page_index"":5,""viewing_time"":8217},{""page_index"":6,""viewing_time"":3977}]","42132","tol-instructions","","","","","","","","","","","","","","","","","","","","","","","","","","",""
"","","","","","html-button-response","4","68230","0.0-2.0-1.0-1.0-0.0","5dd31871c5faa232d3c20365","C3","batch3","","1303","tol_enter_quiz","<p class=block-text> Let's answer a few questions <br>","0","","","","","","","","","","","","","","","","","","","","","","","","",""
"","","","","","html-button-response","5","72489","0.0-2.0-1.0-1.0-1.0","5dd31871c5faa232d3c20365","C3","batch3","","4255","tol_quiz","<p class = block-text>True or False: You can only move the ball on top of a peg. <br></p>","0","true","","","","","","","","","","","","","","","","","","","","","","","",""
"","","","","","html-button-response","6","73473","0.0-2.0-1.0-1.0-2.0","5dd31871c5faa232d3c20365","C3","batch3","","976","tol_quiz_feedback","<p class = block-text>Correct! You can only move the ball on top of a peg.</p>","0","","","","","","","","","","","","","","","","","","","","","","","","",""
"","","","","","html-button-response","7","78354","0.0-2.0-1.0-1.0-3.0","5dd31871c5faa232d3c20365","C3","batch3","","4877","tol_quiz","<p class = block-text>True or False: You should try to match your board with the target board with fewest moves possible. <br></p>","0","true","","","","","","","","","","","","","","","","","","","","","","","",""
"","","","","","html-button-response","8","79215","0.0-2.0-1.0-1.0-4.0","5dd31871c5faa232d3c20365","C3","batch3","","858","tol_quiz_feedback","<p class = block-text>Correct! </p>","0","","","","","","","","","","","","","","","","","","","","","","","","",""
"","","","","","html-button-response","9","80832","0.0-2.0-2.0","5dd31871c5faa232d3c20365","C3","batch3","","1611","","<p class=block-text> Now that you've understood the game, let's practice a few easier examples before we start!<br> <br>","0","","","","","","","","","","","","","","","","","","","","","","","","",""
"","","","","","single-stim-button","10","86538","0.0-2.0-3.0-0.0","5dd31871c5faa232d3c20365","C3","batch3","","5701","tol_practice","","","","tol_peg_2","5701","5701","0","[[1,2,0],[0,0],[0]]","1","[[1,2,0],[0,0],[3]]","practice","5701","","","","","","","","","","","","","","",""
"","","","","","single-stim-button","11","87677","0.0-2.0-3.0-1.0","5dd31871c5faa232d3c20365","C3","batch3","","1135","tol_practice","","","","tol_peg_3","1135","1135","0","[[1,2,0],[0,0],[3]]","1","[[1,2,0],[0,0],[3]]","practice","1135","","","","","","","","","","","","","","",""
"","","","","","poldrack-single-stim","12","88681","0.0-2.0-4.0","5dd31871c5faa232d3c20365","C3","batch3","","-1","tol_feedback","","","true","","1000","1000","500","","","","","","-1","none","true","","0","","","","","","","","","",""
"","","","","","single-stim-button","13","91920","0.0-2.0-5.0-0.0","5dd31871c5faa232d3c20365","C3","batch3","","3236","tol_practice","","","","tol_peg_1","3236","3236","0","[[1,0,0],[3,0],[0]]","2","[[0,0,0],[3,1],[2]]","practice","3236","","","","","","","","","","","","","","",""
"","","","","","single-stim-button","14","95423","0.0-2.0-5.0-1.0","5dd31871c5faa232d3c20365","C3","batch3","","3501","tol_practice","","","","tol_peg_3","3501","3501","0","[[1,0,0],[3,0],[2]]","2","[[0,0,0],[3,1],[2]]","practice","3501","","","","","","","","","","","","","","",""
"","","","","","single-stim-button","15","96631","0.0-2.0-5.1-0.1","5dd31871c5faa232d3c20365","C3","batch3","","1204","tol_practice","","","","tol_peg_1","1204","1204","0","[[0,0,0],[3,0],[2]]","3","[[0,0,0],[3,1],[2]]","practice","1204","","","","","","","","","","","","","","",""
"","","","","","single-stim-button","16","97547","0.0-2.0-5.1-1.1","5dd31871c5faa232d3c20365","C3","batch3","","913","tol_practice","","","","tol_peg_2","913","913","0","[[0,0,0],[3,1],[2]]","3","[[0,0,0],[3,1],[2]]","practice","913","","","","","","","","","","","","","","",""
"","","","","","poldrack-single-stim","17","98558","0.0-2.0-6.0","5dd31871c5faa232d3c20365","C3","batch3","","-1","tol_feedback","","","true","","1000","1000","500","","","","","","-1","none","true","","0","","","","","","","","","",""
"","","","","","single-stim-button","18","101032","0.0-2.0-7.0-0.0","5dd31871c5faa232d3c20365","C3","batch3","","2471","tol_practice","","","","tol_peg_2","2471","2471","0","[[1,2,0],[0,0],[0]]","4","[[1,0,0],[2,0],[3]]","practice","2471","","","","","","","","","","","","","","",""
"","","","","","single-stim-button","19","101754","0.0-2.0-7.0-1.0","5dd31871c5faa232d3c20365","C3","batch3","","719","tol_practice","","","","tol_peg_3","719","719","0","[[1,2,0],[0,0],[3]]","4","[[1,0,0],[2,0],[3]]","practice","719","","","","","","","","","","","","","","",""
"","","","","","single-stim-button","20","102670","0.0-2.0-7.1-0.1","5dd31871c5faa232d3c20365","C3","batch3","","912","tol_practice","","","","tol_peg_1","912","912","0","[[1,0,0],[0,0],[3]]","5","[[1,0,0],[2,0],[3]]","practice","912","","","","","","","","","","","","","","",""
"","","","","","single-stim-button","21","103404","0.0-2.0-7.1-1.1","5dd31871c5faa232d3c20365","C3","batch3","","733","tol_practice","","","","tol_peg_2","733","733","0","[[1,0,0],[2,0],[3]]","5","[[1,0,0],[2,0],[3]]","practice","733","","","","","","","","","","","","","","",""
"","","","","","poldrack-single-stim","22","104415","0.0-2.0-8.0","5dd31871c5faa232d3c20365","C3","batch3","","-1","tol_feedback","","","true","","1000","1000","500","","","","","","-1","none","true","","0","","","","","","","","","",""
"","","","","","html-button-response","23","107979","0.0-2.0-9.0","5dd31871c5faa232d3c20365","C3","batch3","","3560","tol_instruction","<div class = centerbox><p class = center-block-text>Great job! You are done with practice trials<br>You are about to start official trials.<br> <br> Problem <strong>1</strong> out of 25 problems</p></div>","0","","","","","","","","","","","","","","","","","","","","","","","","",""
"","","","","","single-stim-button","24","112922","0.0-2.0-10.0-0.0","5dd31871c5faa232d3c20365","C3","batch3","","3937","tol_tohand","","","","tol_peg_2","3937","3937","0","[[1,2,0],[0,0],[0]]","1","[[1,3,0],[2,0],[0]]","0","0","","","","","","3","","","","","","","","",""
"","","","","","single-stim-button","25","113678","0.0-2.0-10.0-1.0","5dd31871c5faa232d3c20365","C3","batch3","","754","tol_toboard","","","","tol_peg_3","754","754","0","[[1,2,0],[0,0],[3]]","1","[[1,3,0],[2,0],[0]]","0","0","","","","","","3","","","","","","","","",""
"","","","","","single-stim-button","26","114580","0.0-2.0-10.1-0.1","5dd31871c5faa232d3c20365","C3","batch3","","899","tol_tohand","","","","tol_peg_1","899","899","0","[[1,0,0],[0,0],[3]]","2","[[1,3,0],[2,0],[0]]","0","0","","","","","","3","","","","","","","","",""
"","","","","","single-stim-button","27","115576","0.0-2.0-10.1-1.1","5dd31871c5faa232d3c20365","C3","batch3","","994","tol_toboard","","","","tol_peg_2","994","994","0","[[1,0,0],[2,0],[3]]","2","[[1,3,0],[2,0],[0]]","0","0","","","","","","3","","","","","","","","",""
"","","","","","single-stim-button","28","116198","0.0-2.0-10.2-0.2","5dd31871c5faa232d3c20365","C3","batch3","","621","tol_tohand","","","","tol_peg_3","621","621","0","[[1,0,0],[2,0],[0]]","3","[[1,3,0],[2,0],[0]]","0","0","","","","","","3","","","","","","","","",""
"","","","","","single-stim-button","29","117256","0.0-2.0-10.2-1.2","5dd31871c5faa232d3c20365","C3","batch3","","1055","tol_toboard","","","","tol_peg_1","1055","1055","0","[[1,3,0],[2,0],[0]]","3","[[1,3,0],[2,0],[0]]","0","0","","","","","","3","","","","","","","","",""
"","","","","","poldrack-single-stim","30","118262","0.0-2.0-11.0","5dd31871c5faa232d3c20365","C3","batch3","","-1","tol_feedback","","","true","","1000","1000","500","","","","","","-1","none","true","3937","5457","","","","","","","","","",""
"","","","","","html-button-response","31","119535","0.0-2.0-12.0","5dd31871c5faa232d3c20365","C3","batch3","","1271","tol_trial_num","<div class = centerbox><p class = center-block-text>problem <strong>2</strong> out of 25 problems</p></div>","0","","","","","","","","","","","","","","","","","","","","","","","","",""
"","","","","","single-stim-button","32","125229","0.0-2.0-13.0-0.0","5dd31871c5faa232d3c20365","C3","batch3","","5690","tol_tohand","","","","tol_peg_1","5690","5690","0","[[1,0,0],[3,0],[0]]","1","[[2,1,3],[0,0],[0]]","1","0","","","","","","5","","","","","","","","",""
"","","","","","single-stim-button","33","126198","0.0-2.0-13.0-1.0","5dd31871c5faa232d3c20365","C3","batch3","","966","tol_toboard","","","","tol_peg_3","966","966","0","[[1,0,0],[3,0],[2]]","1","[[2,1,3],[0,0],[0]]","1","0","","","","","","5","","","","","","","","",""
"","","","","","single-stim-button","34","126977","0.0-2.0-13.1-0.1","5dd31871c5faa232d3c20365","C3","batch3","","776","tol_tohand","","","","tol_peg_1","776","776","0","[[0,0,0],[3,0],[2]]","2","[[2,1,3],[0,0],[0]]","1","0","","","","","","5","","","","","","","","",""
"","","","","","single-stim-button","35","127876","0.0-2.0-13.1-1.1","5dd31871c5faa232d3c20365","C3","batch3","","897","tol_toboard","","","","tol_peg_2","897","897","0","[[0,0,0],[3,1],[2]]","2","[[2,1,3],[0,0],[0]]","1","0","","","","","","5","","","","","","","","",""
"","","","","","single-stim-button","36","128611","0.0-2.0-13.2-0.2","5dd31871c5faa232d3c20365","C3","batch3","","732","tol_tohand","","","","tol_peg_3","732","732","0","[[0,0,0],[3,1],[0]]","3","[[2,1,3],[0,0],[0]]","1","0","","","","","","5","","","","","","","","",""
"","","","","","single-stim-button","37","129519","0.0-2.0-13.2-1.2","5dd31871c5faa232d3c20365","C3","batch3","","905","tol_toboard","","","","tol_peg_1","905","905","0","[[2,0,0],[3,1],[0]]","3","[[2,1,3],[0,0],[0]]","1","0","","","","","","5","","","","","","","","",""
"","","","","","single-stim-button","38","130020","0.0-2.0-13.3-0.3","5dd31871c5faa232d3c20365","C3","batch3","","499","tol_tohand","","","","tol_peg_2","499","499","0","[[2,0,0],[3,0],[0]]","4","[[2,1,3],[0,0],[0]]","1","0","","","","","","5","","","","","","","","",""
"","","","","","single-stim-button","39","130571","0.0-2.0-13.3-1.3","5dd31871c5faa232d3c20365","C3","batch3","","549","tol_toboard","","","","tol_peg_1","549","549","0","[[2,1,0],[3,0],[0]]","4","[[2,1,3],[0,0],[0]]","1","0","","","","","","5","","","","","","","","",""
"","","","","","single-stim-button","40","131062","0.0-2.0-13.4-0.4","5dd31871c5faa232d3c20365","C3","batch3","","489","tol_tohand","","","","tol_peg_2","489","489","0","[[2,1,0],[0,0],[0]]","5","[[2,1,3],[0,0],[0]]","1","0","","","","","","5","","","","","","","","",""
"","","","","","single-stim-button","41","132015","0.0-2.0-13.4-1.4","5dd31871c5faa232d3c20365","C3","batch3","","951","tol_toboard","","","","tol_peg_1","951","951","0","[[2,1,3],[0,0],[0]]","5","[[2,1,3],[0,0],[0]]","1","0","","","","","","5","","","","","","","","",""
"","","","","","poldrack-single-stim","42","133031","0.0-2.0-14.0","5dd31871c5faa232d3c20365","C3","batch3","","-1","tol_feedback","","","true","","1000","1000","500","","","","","","-1","none","true","5690","8186","","","","","","","","","",""
"","","","","","html-button-response","43","134168","0.0-2.0-15.0","5dd31871c5faa232d3c20365","C3","batch3","","1134","tol_trial_num","<div class = centerbox><p class = center-block-text>problem <strong>3</strong> out of 25 problems</p></div>","0","","","","","","","","","","","","","","","","","","","","","","","","",""
"","","","","","single-stim-button","44","136787","0.0-2.0-16.0-0.0","5dd31871c5faa232d3c20365","C3","batch3","","2616","tol_tohand","","","","tol_peg_1","2616","2616","0","[[2,0,0],[0,0],[1]]","1","[[1,2,0],[3,0],[0]]","2","0","","","","","","4","","","","","","","","",""
"","","","","","single-stim-button","45","138115","0.0-2.0-16.0-1.0","5dd31871c5faa232d3c20365","C3","batch3","","1325","tol_toboard","","","","tol_peg_2","1325","1325","0","[[2,0,0],[3,0],[1]]","1","[[1,2,0],[3,0],[0]]","2","0","","","","","","4","","","","","","","","",""
"","","","","","single-stim-button","46","138938","0.0-2.0-16.1-0.1","5dd31871c5faa232d3c20365","C3","batch3","","820","tol_tohand","","","","tol_peg_1","820","820","0","[[0,0,0],[3,0],[1]]","2","[[1,2,0],[3,0],[0]]","2","0","","","","","","4","","","","","","","","",""
"","","","","","single-stim-button","47","139489","0.0-2.0-16.1-1.1","5dd31871c5faa232d3c20365","C3","batch3","","548","tol_toboard","","","","tol_peg_2","548","548","0","[[0,0,0],[3,2],[1]]","2","[[1,2,0],[3,0],[0]]","2","0","","","","","","4","","","","","","","","",""
"","","","","","single-stim-button","48","140156","0.0-2.0-16.2-0.2","5dd31871c5faa232d3c20365","C3","batch3","","664","tol_tohand","","","","tol_peg_3","664","664","0","[[0,0,0],[3,2],[0]]","3","[[1,2,0],[3,0],[0]]","2","0","","","","","","4","","","","","","","","",""
"","","","","","single-stim-button","49","140994","0.0-2.0-16.2-1.2","5dd31871c5faa232d3c20365","C3","batch3","","835","tol_toboard","","","","tol_peg_1","835","835","0","[[1,0,0],[3,2],[0]]","3","[[1,2,0],[3,0],[0]]","2","0","","","","","","4","","","","","","","","",""
"","","","","","single-stim-button","50","141429","0.0-2.0-16.3-0.3","5dd31871c5faa232d3c20365","C3","batch3","","433","tol_tohand","","","","tol_peg_2","433","433","0","[[1,0,0],[3,0],[0]]","4","[[1,2,0],[3,0],[0]]","2","0","","","","","","4","","","","","","","","",""
"","","","","","single-stim-button","51","141878","0.0-2.0-16.3-1.3","5dd31871c5faa232d3c20365","C3","batch3","","447","tol_toboard","","","","tol_peg_1","447","447","0","[[1,2,0],[3,0],[0]]","4","[[1,2,0],[3,0],[0]]","2","0","","","","","","4","","","","","","","","",""
"","","","","","poldrack-single-stim","52","142887","0.0-2.0-17.0","5dd31871c5faa232d3c20365","C3","batch3","","-1","tol_feedback","","","true","","1000","1000","500","","","","","","-1","none","true","2616","4533","","","","","","","","","",""
"","","","","","html-button-response","53","143803","0.0-2.0-18.0","5dd31871c5faa232d3c20365","C3","batch3","","914","tol_trial_num","<div class = centerbox><p class = center-block-text>problem <strong>4</strong> out of 25 problems</p></div>","0","","","","","","","","","","","","","","","","","","","","","","","","",""
"","","","","","single-stim-button","54","147707","0.0-2.0-19.0-0.0","5dd31871c5faa232d3c20365","C3","batch3","","3900","tol_tohand","","","","tol_peg_2","3900","3900","0","[[3,0,0],[2,0],[0]]","1","[[3,0,0],[1,0],[2]]","3","0","","","","","","3","","","","","","","","",""
"","","","","","single-stim-button","55","148695","0.0-2.0-19.0-1.0","5dd31871c5faa232d3c20365","C3","batch3","","985","tol_toboard","","","","tol_peg_1","985","985","0","[[3,1,0],[2,0],[0]]","1","[[3,0,0],[1,0],[2]]","3","0","","","","","","3","","","","","","","","",""
"","","","","","single-stim-button","56","149288","0.0-2.0-19.1-0.1","5dd31871c5faa232d3c20365","C3","batch3","","591","tol_tohand","","","","tol_peg_2","591","591","0","[[3,1,0],[0,0],[0]]","2","[[3,0,0],[1,0],[2]]","3","0","","","","","","3","","","","","","","","",""
"","","","","","single-stim-button","57","150159","0.0-2.0-19.1-1.1","5dd31871c5faa232d3c20365","C3","batch3","","866","tol_toboard","","","","tol_peg_3","866","866","0","[[3,1,0],[0,0],[2]]","2","[[3,0,0],[1,0],[2]]","3","0","","","","","","3","","","","","","","","",""
"","","","","","single-stim-button","58","150909","0.0-2.0-19.2-0.2","5dd31871c5faa232d3c20365","C3","batch3","","747","tol_tohand","","","","tol_peg_1","747","747","0","[[3,0,0],[0,0],[2]]","3","[[3,0,0],[1,0],[2]]","3","0","","","","","","3","","","","","","","","",""
"","","","","","single-stim-button","59","151608","0.0-2.0-19.2-1.2","5dd31871c5faa232d3c20365","C3","batch3","","697","tol_toboard","","","","tol_peg_2","697","697","0","[[3,0,0],[1,0],[2]]","3","[[3,0,0],[1,0],[2]]","3","0","","","","","","3","","","","","","","","",""
"","","","","","poldrack-single-stim","60","152614","0.0-2.0-20.0","5dd31871c5faa232d3c20365","C3","batch3","","-1","tol_feedback","","","true","","1000","1000","500","","","","","","-1","none","true","3900","5238","","","","","","","","","",""
"","","","","","html-button-response","61","153668","0.0-2.0-21.0","5dd31871c5faa232d3c20365","C3","batch3","","1052","tol_trial_num","<div class = centerbox><p class = center-block-text>problem <strong>5</strong> out of 25 problems</p></div>","0","","","","","","","","","","","","","","","","","","","","","","","","",""
"","","","","","single-stim-button","62","164557","0.0-2.0-22.0-0.0","5dd31871c5faa232d3c20365","C3","batch3","","10885","tol_tohand","","","","tol_peg_3","10885","10885","0","[[1,0,0],[2,0],[0]]","1","[[0,0,0],[1,2],[3]]","4","0","","","","","","7","","","","","","","","",""
"","","","","","single-stim-button","63","165263","0.0-2.0-22.0-1.0","5dd31871c5faa232d3c20365","C3","batch3","","703","tol_toboard","","","","tol_peg_1","703","703","0","[[1,3,0],[2,0],[0]]","1","[[0,0,0],[1,2],[3]]","4","0","","","","","","7","","","","","","","","",""
"","","","","","single-stim-button","64","165812","0.0-2.0-22.1-0.1","5dd31871c5faa232d3c20365","C3","batch3","","545","tol_tohand","","","","tol_peg_2","545","545","0","[[1,3,0],[0,0],[0]]","2","[[0,0,0],[1,2],[3]]","4","0","","","","","","7","","","","","","","","",""
"","","","","","single-stim-button","65","187244","0.0-2.0-22.1-1.1","5dd31871c5faa232d3c20365","C3","batch3","","21428","tol_toboard","","","","tol_peg_2","21428","21428","0","[[1,3,0],[2,0],[0]]","2","[[0,0,0],[1,2],[3]]","4","0","","","","","","7","","","","","","","","",""
"","","","","","single-stim-button","66","187937","0.0-2.0-22.2-0.2","5dd31871c5faa232d3c20365","C3","batch3","","690","tol_tohand","","","","tol_peg_1","690","690","0","[[1,0,0],[2,0],[0]]","3","[[0,0,0],[1,2],[3]]","4","0","","","","","","7","","","","","","","","",""
"","","","","","single-stim-button","67","188822","0.0-2.0-22.2-1.2","5dd31871c5faa232d3c20365","C3","batch3","","883","tol_toboard","","","","tol_peg_3","883","883","0","[[1,0,0],[2,0],[3]]","3","[[0,0,0],[1,2],[3]]","4","0","","","","","","7","","","","","","","","",""
"","","","","","single-stim-button","68","191408","0.0-2.0-22.3-0.3","5dd31871c5faa232d3c20365","C3","batch3","","2582","tol_tohand","","","","tol_peg_2","2582","2582","0","[[1,0,0],[0,0],[3]]","4","[[0,0,0],[1,2],[3]]","4","0","","","","","","7","","","","","","","","",""
"","","","","","single-stim-button","69","191978","0.0-2.0-22.3-1.3","5dd31871c5faa232d3c20365","C3","batch3","","568","tol_toboard","","","","tol_peg_1","568","568","0","[[1,2,0],[0,0],[3]]","4","[[0,0,0],[1,2],[3]]","4","0","","","","","","7","","","","","","","","",""
"","","","","","single-stim-button","70","192548","0.0-2.0-22.4-0.4","5dd31871c5faa232d3c20365","C3","batch3","","568","tol_tohand","","","","tol_peg_3","568","568","0","[[1,2,0],[0,0],[0]]","5","[[0,0,0],[1,2],[3]]","4","0","","","","","","7","","","","","","","","",""
"","","","","","single-stim-button","71","193276","0.0-2.0-22.4-1.4","5dd31871c5faa232d3c20365","C3","batch3","","725","tol_toboard","","","","tol_peg_2","725","725","0","[[1,2,0],[3,0],[0]]","5","[[0,0,0],[1,2],[3]]","4","0","","","","","","7","","","","","","","","",""
"","","","","","single-stim-button","72","196636","0.0-2.0-22.5-0.5","5dd31871c5faa232d3c20365","C3","batch3","","3357","tol_tohand","","","","tol_peg_2","3357","3357","0","[[1,2,0],[0,0],[0]]","6","[[0,0,0],[1,2],[3]]","4","0","","","","","","7","","","","","","","","",""
"","","","","","single-stim-button","73","197513","0.0-2.0-22.5-1.5","5dd31871c5faa232d3c20365","C3","batch3","","876","tol_toboard","","","","tol_peg_3","876","876","0","[[1,2,0],[0,0],[3]]","6","[[0,0,0],[1,2],[3]]","4","0","","","","","","7","","","","","","","","",""
"","","","","","single-stim-button","74","199191","0.0-2.0-22.6-0.6","5dd31871c5faa232d3c20365","C3","batch3","","1675","tol_tohand","","","","tol_peg_3","1675","1675","0","[[1,2,0],[0,0],[0]]","7","[[0,0,0],[1,2],[3]]","4","0","","","","","","7","","","","","","","","",""
"","","","","","single-stim-button","75","200086","0.0-2.0-22.6-1.6","5dd31871c5faa232d3c20365","C3","batch3","","893","tol_toboard","","","","tol_peg_2","893","893","0","[[1,2,0],[3,0],[0]]","7","[[0,0,0],[1,2],[3]]","4","0","","","","","","7","","","","","","","","",""
"","","","","","single-stim-button","76","214472","0.0-2.0-22.7-0.7","5dd31871c5faa232d3c20365","C3","batch3","","14382","tol_tohand","","","","tol_peg_1","14382","14382","0","[[1,0,0],[3,0],[0]]","8","[[0,0,0],[1,2],[3]]","4","0","","","","","","7","","","","","","","","",""
"","","","","","single-stim-button","77","215348","0.0-2.0-22.7-1.7","5dd31871c5faa232d3c20365","C3","batch3","","874","tol_toboard","","","","tol_peg_3","874","874","0","[[1,0,0],[3,0],[2]]","8","[[0,0,0],[1,2],[3]]","4","0","","","","","","7","","","","","","","","",""
"","","","","","single-stim-button","78","217977","0.0-2.0-22.8-0.8","5dd31871c5faa232d3c20365","C3","batch3","","2627","tol_tohand","","","","tol_peg_1","2627","2627","0","[[0,0,0],[3,0],[2]]","9","[[0,0,0],[1,2],[3]]","4","0","","","","","","7","","","","","","","","",""
"","","","","","single-stim-button","79","218791","0.0-2.0-22.8-1.8","5dd31871c5faa232d3c20365","C3","batch3","","812","tol_toboard","","","","tol_peg_2","812","812","0","[[0,0,0],[3,1],[2]]","9","[[0,0,0],[1,2],[3]]","4","0","","","","","","7","","","","","","","","",""
"","","","","","single-stim-button","80","219308","0.0-2.0-22.9-0.9","5dd31871c5faa232d3c20365","C3","batch3","","514","tol_tohand","","","","tol_peg_3","514","514","0","[[0,0,0],[3,1],[0]]","10","[[0,0,0],[1,2],[3]]","4","0","","","","","","7","","","","","","","","",""
"","","","","","single-stim-button","81","219999","0.0-2.0-22.9-1.9","5dd31871c5faa232d3c20365","C3","batch3","","689","tol_toboard","","","","tol_peg_1","689","689","0","[[2,0,0],[3,1],[0]]","10","[[0,0,0],[1,2],[3]]","4","0","","","","","","7","","","","","","","","",""
"","","","","","single-stim-button","82","223148","0.0-2.0-22.10-0.10","5dd31871c5faa232d3c20365","C3","batch3","","3145","tol_tohand","","","","tol_peg_2","3145","3145","0","[[2,0,0],[3,0],[0]]","11","[[0,0,0],[1,2],[3]]","4","0","","","","","","7","","","","","","","","",""
"","","","","","single-stim-button","83","223682","0.0-2.0-22.10-1.10","5dd31871c5faa232d3c20365","C3","batch3","","533","tol_toboard","","","","tol_peg_3","533","533","0","[[2,0,0],[3,0],[1]]","11","[[0,0,0],[1,2],[3]]","4","0","","","","","","7","","","","","","","","",""
"","","","","","single-stim-button","84","224095","0.0-2.0-22.11-0.11","5dd31871c5faa232d3c20365","C3","batch3","","410","tol_tohand","","","","tol_peg_2","410","410","0","[[2,0,0],[0,0],[1]]","12","[[0,0,0],[1,2],[3]]","4","0","","","","","","7","","","","","","","","",""
"","","","","","single-stim-button","85","224531","0.0-2.0-22.11-1.11","5dd31871c5faa232d3c20365","C3","batch3","","432","tol_toboard","","","","tol_peg_1","432","432","0","[[2,3,0],[0,0],[1]]","12","[[0,0,0],[1,2],[3]]","4","0","","","","","","7","","","","","","","","",""
"","","","","","single-stim-button","86","225322","0.0-2.0-22.12-0.12","5dd31871c5faa232d3c20365","C3","batch3","","789","tol_tohand","","","","tol_peg_3","789","789","0","[[2,3,0],[0,0],[0]]","13","[[0,0,0],[1,2],[3]]","4","0","","","","","","7","","","","","","","","",""
"","","","","","single-stim-button","87","225819","0.0-2.0-22.12-1.12","5dd31871c5faa232d3c20365","C3","batch3","","496","tol_toboard","","","","tol_peg_2","496","496","0","[[2,3,0],[1,0],[0]]","13","[[0,0,0],[1,2],[3]]","4","0","","","","","","7","","","","","","","","",""
"","","","","","single-stim-button","88","226414","0.0-2.0-22.13-0.13","5dd31871c5faa232d3c20365","C3","batch3","","591","tol_tohand","","","","tol_peg_1","591","591","0","[[2,0,0],[1,0],[0]]","14","[[0,0,0],[1,2],[3]]","4","0","","","","","","7","","","","","","","","",""
"","","","","","single-stim-button","89","227139","0.0-2.0-22.13-1.13","5dd31871c5faa232d3c20365","C3","batch3","","723","tol_toboard","","","","tol_peg_3","723","723","0","[[2,0,0],[1,0],[3]]","14","[[0,0,0],[1,2],[3]]","4","0","","","","","","7","","","","","","","","",""
"","","","","","single-stim-button","90","227671","0.0-2.0-22.14-0.14","5dd31871c5faa232d3c20365","C3","batch3","","529","tol_tohand","","","","tol_peg_1","529","529","0","[[0,0,0],[1,0],[3]]","15","[[0,0,0],[1,2],[3]]","4","0","","","","","","7","","","","","","","","",""
"","","","","","single-stim-button","91","228467","0.0-2.0-22.14-1.14","5dd31871c5faa232d3c20365","C3","batch3","","793","tol_toboard","","","","tol_peg_2","793","793","0","[[0,0,0],[1,2],[3]]","15","[[0,0,0],[1,2],[3]]","4","0","","","","","","7","","","","","","","","",""
"","","","","","poldrack-single-stim","92","229478","0.0-2.0-23.0","5dd31871c5faa232d3c20365","C3","batch3","","-1","tol_feedback","","","true","","1000","1000","500","","","","","","-1","none","true","10885","43289","","","","","","","","","",""
"","","","","","html-button-response","93","230672","0.0-2.0-24.0","5dd31871c5faa232d3c20365","C3","batch3","","1191","tol_trial_num","<div class = centerbox><p class = center-block-text>problem <strong>6</strong> out of 25 problems</p></div>","0","","","","","","","","","","","","","","","","","","","","","","","","",""
"","","","","","single-stim-button","94","242520","0.0-2.0-25.0-0.0","5dd31871c5faa232d3c20365","C3","batch3","","11845","tol_tohand","","","","tol_peg_3","11845","11845","0","[[0,0,0],[1,2],[0]]","1","[[1,0,0],[2,3],[0]]","5","0","","","","","","6","","","","","","","","",""
"","","","","","single-stim-button","95","243640","0.0-2.0-25.0-1.0","5dd31871c5faa232d3c20365","C3","batch3","","1117","tol_toboard","","","","tol_peg_1","1117","1117","0","[[3,0,0],[1,2],[0]]","1","[[1,0,0],[2,3],[0]]","5","0","","","","","","6","","","","","","","","",""
"","","","","","single-stim-button","96","244446","0.0-2.0-25.1-0.1","5dd31871c5faa232d3c20365","C3","batch3","","798","tol_tohand","","","","tol_peg_2","798","798","0","[[3,0,0],[1,0],[0]]","2","[[1,0,0],[2,3],[0]]","5","0","","","","","","6","","","","","","","","",""
"","","","","","single-stim-button","97","244944","0.0-2.0-25.1-1.1","5dd31871c5faa232d3c20365","C3","batch3","","495","tol_toboard","","","","tol_peg_1","495","495","0","[[3,2,0],[1,0],[0]]","2","[[1,0,0],[2,3],[0]]","5","0","","","","","","6","","","","","","","","",""
"","","","","","single-stim-button","98","245890","0.0-2.0-25.2-0.2","5dd31871c5faa232d3c20365","C3","batch3","","942","tol_tohand","","","","tol_peg_2","942","942","0","[[3,2,0],[0,0],[0]]","3","[[1,0,0],[2,3],[0]]","5","0","","","","","","6","","","","","","","","",""
"","","","","","single-stim-button","99","246736","0.0-2.0-25.2-1.2","5dd31871c5faa232d3c20365","C3","batch3","","844","tol_toboard","","","","tol_peg_3","844","844","0","[[3,2,0],[0,0],[1]]","3","[[1,0,0],[2,3],[0]]","5","0","","","","","","6","","","","","","","","",""
"","","","","","single-stim-button","100","247328","0.0-2.0-25.3-0.3","5dd31871c5faa232d3c20365","C3","batch3","","590","tol_tohand","","","","tol_peg_1","590","590","0","[[3,0,0],[0,0],[1]]","4","[[1,0,0],[2,3],[0]]","5","0","","","","","","6","","","","","","","","",""
"","","","","","single-stim-button","101","247950","0.0-2.0-25.3-1.3","5dd31871c5faa232d3c20365","C3","batch3","","620","tol_toboard","","","","tol_peg_2","620","620","0","[[3,0,0],[2,0],[1]]","4","[[1,0,0],[2,3],[0]]","5","0","","","","","","6","","","","","","","","",""
"","","","","","single-stim-button","102","248530","0.0-2.0-25.4-0.4","5dd31871c5faa232d3c20365","C3","batch3","","578","tol_tohand","","","","tol_peg_1","578","578","0","[[0,0,0],[2,0],[1]]","5","[[1,0,0],[2,3],[0]]","5","0","","","","","","6","","","","","","","","",""
"","","","","","single-stim-button","103","249122","0.0-2.0-25.4-1.4","5dd31871c5faa232d3c20365","C3","batch3","","589","tol_toboard","","","","tol_peg_2","589","589","0","[[0,0,0],[2,3],[1]]","5","[[1,0,0],[2,3],[0]]","5","0","","","","","","6","","","","","","","","",""
"","","","","","single-stim-button","104","250020","0.0-2.0-25.5-0.5","5dd31871c5faa232d3c20365","C3","batch3","","896","tol_tohand","","","","tol_peg_3","896","896","0","[[0,0,0],[2,3],[0]]","6","[[1,0,0],[2,3],[0]]","5","0","","","","","","6","","","","","","","","",""
"","","","","","single-stim-button","105","250666","0.0-2.0-25.5-1.5","5dd31871c5faa232d3c20365","C3","batch3","","644","tol_toboard","","","","tol_peg_1","644","644","0","[[1,0,0],[2,3],[0]]","6","[[1,0,0],[2,3],[0]]","5","0","","","","","","6","","","","","","","","",""
"","","","","","poldrack-single-stim","106","251670","0.0-2.0-26.0","5dd31871c5faa232d3c20365","C3","batch3","","-1","tol_feedback","","","true","","1000","1000","500","","","","","","-1","none","true","11845","15649","","","","","","","","","",""
"","","","","","html-button-response","107","252787","0.0-2.0-27.0","5dd31871c5faa232d3c20365","C3","batch3","","1115","tol_trial_num","<div class = centerbox><p class = center-block-text>problem <strong>7</strong> out of 25 problems</p></div>","0","","","","","","","","","","","","","","","","","","","","","","","","",""
"","","","","","single-stim-button","108","263619","0.0-2.0-28.0-0.0","5dd31871c5faa232d3c20365","C3","batch3","","10829","tol_tohand","","","","tol_peg_1","10829","10829","0","[[2,0,0],[0,0],[3]]","1","[[1,2,0],[3,0],[0]]","6","0","","","","","","5","","","","","","","","",""
"","","","","","single-stim-button","109","266888","0.0-2.0-28.0-1.0","5dd31871c5faa232d3c20365","C3","batch3","","3266","tol_toboard","","","","tol_peg_1","3266","3266","0","[[2,1,0],[0,0],[3]]","1","[[1,2,0],[3,0],[0]]","6","0","","","","","","5","","","","","","","","",""
"","","","","","single-stim-button","110","270175","0.0-2.0-28.1-0.1","5dd31871c5faa232d3c20365","C3","batch3","","3284","tol_tohand","","","","tol_peg_3","3284","3284","0","[[2,1,0],[0,0],[0]]","2","[[1,2,0],[3,0],[0]]","6","0","","","","","","5","","","","","","","","",""
"","","","","","single-stim-button","111","271051","0.0-2.0-28.1-1.1","5dd31871c5faa232d3c20365","C3","batch3","","874","tol_toboard","","","","tol_peg_2","874","874","0","[[2,1,0],[3,0],[0]]","2","[[1,2,0],[3,0],[0]]","6","0","","","","","","5","","","","","","","","",""
"","","","","","single-stim-button","112","272073","0.0-2.0-28.2-0.2","5dd31871c5faa232d3c20365","C3","batch3","","1020","tol_tohand","","","","tol_peg_1","1020","1020","0","[[2,0,0],[3,0],[0]]","3","[[1,2,0],[3,0],[0]]","6","0","","","","","","5","","","","","","","","",""
"","","","","","single-stim-button","113","274938","0.0-2.0-28.2-1.2","5dd31871c5faa232d3c20365","C3","batch3","","2861","tol_toboard","","","","tol_peg_3","2861","2861","0","[[2,0,0],[3,0],[1]]","3","[[1,2,0],[3,0],[0]]","6","0","","","","","","5","","","","","","","","",""
"","","","","","single-stim-button","114","275596","0.0-2.0-28.3-0.3","5dd31871c5faa232d3c20365","C3","batch3","","655","tol_tohand","","","","tol_peg_1","655","655","0","[[0,0,0],[3,0],[1]]","4","[[1,2,0],[3,0],[0]]","6","0","","","","","","5","","","","","","","","",""
"","","","","","single-stim-button","115","276299","0.0-2.0-28.3-1.3","5dd31871c5faa232d3c20365","C3","batch3","","699","tol_toboard","","","","tol_peg_2","699","699","0","[[0,0,0],[3,2],[1]]","4","[[1,2,0],[3,0],[0]]","6","0","","","","","","5","","","","","","","","",""
"","","","","","single-stim-button","116","277151","0.0-2.0-28.4-0.4","5dd31871c5faa232d3c20365","C3","batch3","","849","tol_tohand","","","","tol_peg_3","849","849","0","[[0,0,0],[3,2],[0]]","5","[[1,2,0],[3,0],[0]]","6","0","","","","","","5","","","","","","","","",""
"","","","","","single-stim-button","117","277885","0.0-2.0-28.4-1.4","5dd31871c5faa232d3c20365","C3","batch3","","733","tol_toboard","","","","tol_peg_1","733","733","0","[[1,0,0],[3,2],[0]]","5","[[1,2,0],[3,0],[0]]","6","0","","","","","","5","","","","","","","","",""
"","","","","","single-stim-button","118","278439","0.0-2.0-28.5-0.5","5dd31871c5faa232d3c20365","C3","batch3","","552","tol_tohand","","","","tol_peg_2","552","552","0","[[1,0,0],[3,0],[0]]","6","[[1,2,0],[3,0],[0]]","6","0","","","","","","5","","","","","","","","",""
"","","","","","single-stim-button","119","278978","0.0-2.0-28.5-1.5","5dd31871c5faa232d3c20365","C3","batch3","","537","tol_toboard","","","","tol_peg_1","537","537","0","[[1,2,0],[3,0],[0]]","6","[[1,2,0],[3,0],[0]]","6","0","","","","","","5","","","","","","","","",""
"","","","","","poldrack-single-stim","120","279982","0.0-2.0-29.0","5dd31871c5faa232d3c20365","C3","batch3","","-1","tol_feedback","","","true","","1000","1000","500","","","","","","-1","none","true","10829","17189","","","","","","","","","",""
"","","","","","html-button-response","121","280875","0.0-2.0-30.0","5dd31871c5faa232d3c20365","C3","batch3","","890","tol_trial_num","<div class = centerbox><p class = center-block-text>problem <strong>8</strong> out of 25 problems</p></div>","0","","","","","","","","","","","","","","","","","","","","","","","","",""
"","","","","","single-stim-button","122","283621","0.0-2.0-31.0-0.0","5dd31871c5faa232d3c20365","C3","batch3","","2743","tol_tohand","","","","tol_peg_3","2743","2743","0","[[0,0,0],[2,3],[0]]","1","[[1,2,0],[3,0],[0]]","7","0","","","","","","4","","","","","","","","",""
"","","","","","single-stim-button","123","284318","0.0-2.0-31.0-1.0","5dd31871c5faa232d3c20365","C3","batch3","","694","tol_toboard","","","","tol_peg_1","694","694","0","[[1,0,0],[2,3],[0]]","1","[[1,2,0],[3,0],[0]]","7","0","","","","","","4","","","","","","","","",""
"","","","","","single-stim-button","124","285078","0.0-2.0-31.1-0.1","5dd31871c5faa232d3c20365","C3","batch3","","758","tol_tohand","","","","tol_peg_2","758","758","0","[[1,0,0],[2,0],[0]]","2","[[1,2,0],[3,0],[0]]","7","0","","","","","","4","","","","","","","","",""
"","","","","","single-stim-button","125","285581","0.0-2.0-31.1-1.1","5dd31871c5faa232d3c20365","C3","batch3","","500","tol_toboard","","","","tol_peg_3","500","500","0","[[1,0,0],[2,0],[3]]","2","[[1,2,0],[3,0],[0]]","7","0","","","","","","4","","","","","","","","",""
"","","","","","single-stim-button","126","286082","0.0-2.0-31.2-0.2","5dd31871c5faa232d3c20365","C3","batch3","","498","tol_tohand","","","","tol_peg_2","498","498","0","[[1,0,0],[0,0],[3]]","3","[[1,2,0],[3,0],[0]]","7","0","","","","","","4","","","","","","","","",""
"","","","","","single-stim-button","127","286760","0.0-2.0-31.2-1.2","5dd31871c5faa232d3c20365","C3","batch3","","675","tol_toboard","","","","tol_peg_1","675","675","0","[[1,2,0],[0,0],[3]]","3","[[1,2,0],[3,0],[0]]","7","0","","","","","","4","","","","","","","","",""
"","","","","","single-stim-button","128","287341","0.0-2.0-31.3-0.3","5dd31871c5faa232d3c20365","C3","batch3","","579","tol_tohand","","","","tol_peg_3","579","579","0","[[1,2,0],[0,0],[0]]","4","[[1,2,0],[3,0],[0]]","7","0","","","","","","4","","","","","","","","",""
"","","","","","single-stim-button","129","287870","0.0-2.0-31.3-1.3","5dd31871c5faa232d3c20365","C3","batch3","","526","tol_toboard","","","","tol_peg_2","526","526","0","[[1,2,0],[3,0],[0]]","4","[[1,2,0],[3,0],[0]]","7","0","","","","","","4","","","","","","","","",""
"","","","","","poldrack-single-stim","130","288880","0.0-2.0-32.0","5dd31871c5faa232d3c20365","C3","batch3","","-1","tol_feedback","","","true","","1000","1000","500","","","","","","-1","none","true","2743","4578","","","","","","","","","",""
"","","","","","html-button-response","131","289672","0.0-2.0-33.0","5dd31871c5faa232d3c20365","C3","batch3","","791","tol_trial_num","<div class = centerbox><p class = center-block-text>problem <strong>9</strong> out of 25 problems</p></div>","0","","","","","","","","","","","","","","","","","","","","","","","","",""
"","","","","","single-stim-button","132","296055","0.0-2.0-34.0-0.0","5dd31871c5faa232d3c20365","C3","batch3","","6380","tol_tohand","","","","tol_peg_3","6380","6380","0","[[3,2,0],[0,0],[0]]","1","[[2,1,0],[3,0],[0]]","8","0","","","","","","6","","","","","","","","",""
"","","","","","single-stim-button","133","297568","0.0-2.0-34.0-1.0","5dd31871c5faa232d3c20365","C3","batch3","","1511","tol_toboard","","","","tol_peg_2","1511","1511","0","[[3,2,0],[1,0],[0]]","1","[[2,1,0],[3,0],[0]]","8","0","","","","","","6","","","","","","","","",""
"","","","","","single-stim-button","134","301598","0.0-2.0-34.1-0.1","5dd31871c5faa232d3c20365","C3","batch3","","4028","tol_tohand","","","","tol_peg_1","4028","4028","0","[[3,0,0],[1,0],[0]]","2","[[2,1,0],[3,0],[0]]","8","0","","","","","","6","","","","","","","","",""
"","","","","","single-stim-button","135","302784","0.0-2.0-34.1-1.1","5dd31871c5faa232d3c20365","C3","batch3","","1182","tol_toboard","","","","tol_peg_2","1182","1182","0","[[3,0,0],[1,2],[0]]","2","[[2,1,0],[3,0],[0]]","8","0","","","","","","6","","","","","","","","",""
"","","","","","single-stim-button","136","304404","0.0-2.0-34.2-0.2","5dd31871c5faa232d3c20365","C3","batch3","","1612","tol_tohand","","","","tol_peg_1","1612","1612","0","[[0,0,0],[1,2],[0]]","3","[[2,1,0],[3,0],[0]]","8","0","","","","","","6","","","","","","","","",""
"","","","","","single-stim-button","137","305347","0.0-2.0-34.2-1.2","5dd31871c5faa232d3c20365","C3","batch3","","940","tol_toboard","","","","tol_peg_3","940","940","0","[[0,0,0],[1,2],[3]]","3","[[2,1,0],[3,0],[0]]","8","0","","","","","","6","","","","","","","","",""
"","","","","","single-stim-button","138","306129","0.0-2.0-34.3-0.3","5dd31871c5faa232d3c20365","C3","batch3","","779","tol_tohand","","","","tol_peg_2","779","779","0","[[0,0,0],[1,0],[3]]","4","[[2,1,0],[3,0],[0]]","8","0","","","","","","6","","","","","","","","",""
"","","","","","single-stim-button","139","306922","0.0-2.0-34.3-1.3","5dd31871c5faa232d3c20365","C3","batch3","","783","tol_toboard","","","","tol_peg_1","783","783","0","[[2,0,0],[1,0],[3]]","4","[[2,1,0],[3,0],[0]]","8","0","","","","","","6","","","","","","","","",""
"","","","","","single-stim-button","140","307525","0.0-2.0-34.4-0.4","5dd31871c5faa232d3c20365","C3","batch3","","600","tol_tohand","","","","tol_peg_2","600","600","0","[[2,0,0],[0,0],[3]]","5","[[2,1,0],[3,0],[0]]","8","0","","","","","","6","","","","","","","","",""
"","","","","","single-stim-button","141","308079","0.0-2.0-34.4-1.4","5dd31871c5faa232d3c20365","C3","batch3","","553","tol_toboard","","","","tol_peg_1","553","553","0","[[2,1,0],[0,0],[3]]","5","[[2,1,0],[3,0],[0]]","8","0","","","","","","6","","","","","","","","",""
"","","","","","single-stim-button","142","308809","0.0-2.0-34.5-0.5","5dd31871c5faa232d3c20365","C3","batch3","","727","tol_tohand","","","","tol_peg_3","727","727","0","[[2,1,0],[0,0],[0]]","6","[[2,1,0],[3,0],[0]]","8","0","","","","","","6","","","","","","","","",""
"","","","","","single-stim-button","143","309459","0.0-2.0-34.5-1.5","5dd31871c5faa232d3c20365","C3","batch3","","647","tol_toboard","","","","tol_peg_2","647","647","0","[[2,1,0],[3,0],[0]]","6","[[2,1,0],[3,0],[0]]","8","0","","","","","","6","","","","","","","","",""
"","","","","","poldrack-single-stim","144","310471","0.0-2.0-35.0","5dd31871c5faa232d3c20365","C3","batch3","","-1","tol_feedback","","","true","","1000","1000","500","","","","","","-1","none","true","6380","14126","","","","","","","","","",""
"","","","","","html-button-response","145","311370","0.0-2.0-36.0","5dd31871c5faa232d3c20365","C3","batch3","","897","tol_trial_num","<div class = centerbox><p class = center-block-text>problem <strong>10</strong> out of 25 problems</p></div>","0","","","","","","","","","","","","","","","","","","","","","","","","",""
"","","","","","single-stim-button","146","314409","0.0-2.0-37.0-0.0","5dd31871c5faa232d3c20365","C3","batch3","","3037","tol_tohand","","","","tol_peg_2","3037","3037","0","[[3,0,0],[0,0],[2]]","1","[[3,0,0],[2,1],[0]]","9","0","","","","","","3","","","","","","","","",""
"","","","","","single-stim-button","147","315123","0.0-2.0-37.0-1.0","5dd31871c5faa232d3c20365","C3","batch3","","710","tol_toboard","","","","tol_peg_1","710","710","0","[[3,1,0],[0,0],[2]]","1","[[3,0,0],[2,1],[0]]","9","0","","","","","","3","","","","","","","","",""
"","","","","","single-stim-button","148","315660","0.0-2.0-37.1-0.1","5dd31871c5faa232d3c20365","C3","batch3","","533","tol_tohand","","","","tol_peg_3","533","533","0","[[3,1,0],[0,0],[0]]","2","[[3,0,0],[2,1],[0]]","9","0","","","","","","3","","","","","","","","",""
"","","","","","single-stim-button","149","316172","0.0-2.0-37.1-1.1","5dd31871c5faa232d3c20365","C3","batch3","","510","tol_toboard","","","","tol_peg_2","510","510","0","[[3,1,0],[2,0],[0]]","2","[[3,0,0],[2,1],[0]]","9","0","","","","","","3","","","","","","","","",""
"","","","","","single-stim-button","150","316590","0.0-2.0-37.2-0.2","5dd31871c5faa232d3c20365","C3","batch3","","415","tol_tohand","","","","tol_peg_1","415","415","0","[[3,0,0],[2,0],[0]]","3","[[3,0,0],[2,1],[0]]","9","0","","","","","","3","","","","","","","","",""
"","","","","","single-stim-button","151","317042","0.0-2.0-37.2-1.2","5dd31871c5faa232d3c20365","C3","batch3","","450","tol_toboard","","","","tol_peg_2","450","450","0","[[3,0,0],[2,1],[0]]","3","[[3,0,0],[2,1],[0]]","9","0","","","","","","3","","","","","","","","",""
"","","","","","poldrack-single-stim","152","318047","0.0-2.0-38.0","5dd31871c5faa232d3c20365","C3","batch3","","-1","tol_feedback","","","true","","1000","1000","500","","","","","","-1","none","true","3037","3985","","","","","","","","","",""
"","","","","","html-button-response","153","318935","0.0-2.0-39.0","5dd31871c5faa232d3c20365","C3","batch3","","884","tol_trial_num","<div class = centerbox><p class = center-block-text>problem <strong>11</strong> out of 25 problems</p></div>","0","","","","","","","","","","","","","","","","","","","","","","","","",""
"","","","","","single-stim-button","154","328264","0.0-2.0-40.0-0.0","5dd31871c5faa232d3c20365","C3","batch3","","9326","tol_tohand","","","","tol_peg_1","9326","9326","0","[[1,0,0],[3,0],[0]]","1","[[2,0,0],[1,3],[0]]","10","0","","","","","","6","","","","","","","","",""
"","","","","","single-stim-button","155","329068","0.0-2.0-40.0-1.0","5dd31871c5faa232d3c20365","C3","batch3","","802","tol_toboard","","","","tol_peg_2","802","802","0","[[1,0,0],[3,2],[0]]","1","[[2,0,0],[1,3],[0]]","10","0","","","","","","6","","","","","","","","",""
"","","","","","single-stim-button","156","329649","0.0-2.0-40.1-0.1","5dd31871c5faa232d3c20365","C3","batch3","","577","tol_tohand","","","","tol_peg_1","577","577","0","[[0,0,0],[3,2],[0]]","2","[[2,0,0],[1,3],[0]]","10","0","","","","","","6","","","","","","","","",""
"","","","","","single-stim-button","157","330290","0.0-2.0-40.1-1.1","5dd31871c5faa232d3c20365","C3","batch3","","640","tol_toboard","","","","tol_peg_3","640","640","0","[[0,0,0],[3,2],[1]]","2","[[2,0,0],[1,3],[0]]","10","0","","","","","","6","","","","","","","","",""
"","","","","","single-stim-button","158","330856","0.0-2.0-40.2-0.2","5dd31871c5faa232d3c20365","C3","batch3","","563","tol_tohand","","","","tol_peg_2","563","563","0","[[0,0,0],[3,0],[1]]","3","[[2,0,0],[1,3],[0]]","10","0","","","","","","6","","","","","","","","",""
"","","","","","single-stim-button","159","331504","0.0-2.0-40.2-1.2","5dd31871c5faa232d3c20365","C3","batch3","","645","tol_toboard","","","","tol_peg_1","645","645","0","[[2,0,0],[3,0],[1]]","3","[[2,0,0],[1,3],[0]]","10","0","","","","","","6","","","","","","","","",""
"","","","","","single-stim-button","160","333008","0.0-2.0-40.3-0.3","5dd31871c5faa232d3c20365","C3","batch3","","1501","tol_tohand","","","","tol_peg_2","1501","1501","0","[[2,0,0],[0,0],[1]]","4","[[2,0,0],[1,3],[0]]","10","0","","","","","","6","","","","","","","","",""
"","","","","","single-stim-button","161","333885","0.0-2.0-40.3-1.3","5dd31871c5faa232d3c20365","C3","batch3","","875","tol_toboard","","","","tol_peg_1","875","875","0","[[2,3,0],[0,0],[1]]","4","[[2,0,0],[1,3],[0]]","10","0","","","","","","6","","","","","","","","",""
"","","","","","single-stim-button","162","334503","0.0-2.0-40.4-0.4","5dd31871c5faa232d3c20365","C3","batch3","","615","tol_tohand","","","","tol_peg_3","615","615","0","[[2,3,0],[0,0],[0]]","5","[[2,0,0],[1,3],[0]]","10","0","","","","","","6","","","","","","","","",""
"","","","","","single-stim-button","163","335340","0.0-2.0-40.4-1.4","5dd31871c5faa232d3c20365","C3","batch3","","832","tol_toboard","","","","tol_peg_2","832","832","0","[[2,3,0],[1,0],[0]]","5","[[2,0,0],[1,3],[0]]","10","0","","","","","","6","","","","","","","","",""
"","","","","","single-stim-button","164","335754","0.0-2.0-40.5-0.5","5dd31871c5faa232d3c20365","C3","batch3","","411","tol_tohand","","","","tol_peg_1","411","411","0","[[2,0,0],[1,0],[0]]","6","[[2,0,0],[1,3],[0]]","10","0","","","","","","6","","","","","","","","",""
"","","","","","single-stim-button","165","336300","0.0-2.0-40.5-1.5","5dd31871c5faa232d3c20365","C3","batch3","","544","tol_toboard","","","","tol_peg_2","544","544","0","[[2,0,0],[1,3],[0]]","6","[[2,0,0],[1,3],[0]]","10","0","","","","","","6","","","","","","","","",""
"","","","","","poldrack-single-stim","166","337304","0.0-2.0-41.0","5dd31871c5faa232d3c20365","C3","batch3","","-1","tol_feedback","","","true","","1000","1000","500","","","","","","-1","none","true","9326","12993","","","","","","","","","",""
"","","","","","html-button-response","167","338237","0.0-2.0-42.0","5dd31871c5faa232d3c20365","C3","batch3","","931","tol_trial_num","<div class = centerbox><p class = center-block-text>problem <strong>12</strong> out of 25 problems</p></div>","0","","","","","","","","","","","","","","","","","","","","","","","","",""
"","","","","","single-stim-button","168","349445","0.0-2.0-43.0-0.0","5dd31871c5faa232d3c20365","C3","batch3","","11205","tol_tohand","","","","tol_peg_2","11205","11205","0","[[1,2,0],[0,0],[0]]","1","[[2,3,0],[0,0],[1]]","11","0","","","","","","4","","","","","","","","",""
"","","","","","single-stim-button","169","350146","0.0-2.0-43.0-1.0","5dd31871c5faa232d3c20365","C3","batch3","","698","tol_toboard","","","","tol_peg_3","698","698","0","[[1,2,0],[0,0],[3]]","1","[[2,3,0],[0,0],[1]]","11","0","","","","","","4","","","","","","","","",""
"","","","","","single-stim-button","170","358374","0.0-2.0-43.1-0.1","5dd31871c5faa232d3c20365","C3","batch3","","8226","tol_tohand","","","","tol_peg_3","8226","8226","0","[[1,2,0],[0,0],[0]]","2","[[2,3,0],[0,0],[1]]","11","0","","","","","","4","","","","","","","","",""
"","","","","","single-stim-button","171","358860","0.0-2.0-43.1-1.1","5dd31871c5faa232d3c20365","C3","batch3","","484","tol_toboard","","","","tol_peg_2","484","484","0","[[1,2,0],[3,0],[0]]","2","[[2,3,0],[0,0],[1]]","11","0","","","","","","4","","","","","","","","",""
"","","","","","single-stim-button","172","359313","0.0-2.0-43.2-0.2","5dd31871c5faa232d3c20365","C3","batch3","","450","tol_tohand","","","","tol_peg_1","450","450","0","[[1,0,0],[3,0],[0]]","3","[[2,3,0],[0,0],[1]]","11","0","","","","","","4","","","","","","","","",""
"","","","","","single-stim-button","173","361419","0.0-2.0-43.2-1.2","5dd31871c5faa232d3c20365","C3","batch3","","2103","tol_toboard","","","","tol_peg_3","2103","2103","0","[[1,0,0],[3,0],[2]]","3","[[2,3,0],[0,0],[1]]","11","0","","","","","","4","","","","","","","","",""
"","","","","","single-stim-button","174","362109","0.0-2.0-43.3-0.3","5dd31871c5faa232d3c20365","C3","batch3","","689","tol_tohand","","","","tol_peg_1","689","689","0","[[0,0,0],[3,0],[2]]","4","[[2,3,0],[0,0],[1]]","11","0","","","","","","4","","","","","","","","",""
"","","","","","single-stim-button","175","362770","0.0-2.0-43.3-1.3","5dd31871c5faa232d3c20365","C3","batch3","","657","tol_toboard","","","","tol_peg_2","657","657","0","[[0,0,0],[3,1],[2]]","4","[[2,3,0],[0,0],[1]]","11","0","","","","","","4","","","","","","","","",""
"","","","","","single-stim-button","176","363255","0.0-2.0-43.4-0.4","5dd31871c5faa232d3c20365","C3","batch3","","483","tol_tohand","","","","tol_peg_3","483","483","0","[[0,0,0],[3,1],[0]]","5","[[2,3,0],[0,0],[1]]","11","0","","","","","","4","","","","","","","","",""
"","","","","","single-stim-button","177","363885","0.0-2.0-43.4-1.4","5dd31871c5faa232d3c20365","C3","batch3","","628","tol_toboard","","","","tol_peg_1","628","628","0","[[2,0,0],[3,1],[0]]","5","[[2,3,0],[0,0],[1]]","11","0","","","","","","4","","","","","","","","",""
"","","","","","single-stim-button","178","364943","0.0-2.0-43.5-0.5","5dd31871c5faa232d3c20365","C3","batch3","","1055","tol_tohand","","","","tol_peg_2","1055","1055","0","[[2,0,0],[3,0],[0]]","6","[[2,3,0],[0,0],[1]]","11","0","","","","","","4","","","","","","","","",""
"","","","","","single-stim-button","179","365667","0.0-2.0-43.5-1.5","5dd31871c5faa232d3c20365","C3","batch3","","723","tol_toboard","","","","tol_peg_3","723","723","0","[[2,0,0],[3,0],[1]]","6","[[2,3,0],[0,0],[1]]","11","0","","","","","","4","","","","","","","","",""
"","","","","","single-stim-button","180","366165","0.0-2.0-43.6-0.6","5dd31871c5faa232d3c20365","C3","batch3","","495","tol_tohand","","","","tol_peg_2","495","495","0","[[2,0,0],[0,0],[1]]","7","[[2,3,0],[0,0],[1]]","11","0","","","","","","4","","","","","","","","",""
"","","","","","single-stim-button","181","366819","0.0-2.0-43.6-1.6","5dd31871c5faa232d3c20365","C3","batch3","","652","tol_toboard","","","","tol_peg_1","652","652","0","[[2,3,0],[0,0],[1]]","7","[[2,3,0],[0,0],[1]]","11","0","","","","","","4","","","","","","","","",""
"","","","","","poldrack-single-stim","182","367830","0.0-2.0-44.0","5dd31871c5faa232d3c20365","C3","batch3","","-1","tol_feedback","","","true","","1000","1000","500","","","","","","-1","none","true","11205","22603","","","","","","","","","",""
"","","","","","html-button-response","183","368570","0.0-2.0-45.0","5dd31871c5faa232d3c20365","C3","batch3","","737","tol_trial_num","<div class = centerbox><p class = center-block-text>problem <strong>13</strong> out of 25 problems</p></div>","0","","","","","","","","","","","","","","","","","","","","","","","","",""
"","","","","","single-stim-button","184","374275","0.0-2.0-46.0-0.0","5dd31871c5faa232d3c20365","C3","batch3","","5701","tol_tohand","","","","tol_peg_1","5701","5701","0","[[1,0,0],[3,0],[0]]","1","[[0,0,0],[2,3],[1]]","12","0","","","","","","4","","","","","","","","",""
"","","","","","single-stim-button","185","374957","0.0-2.0-46.0-1.0","5dd31871c5faa232d3c20365","C3","batch3","","680","tol_toboard","","","","tol_peg_2","680","680","0","[[1,0,0],[3,2],[0]]","1","[[0,0,0],[2,3],[1]]","12","0","","","","","","4","","","","","","","","",""
"","","","","","single-stim-button","186","375573","0.0-2.0-46.1-0.1","5dd31871c5faa232d3c20365","C3","batch3","","612","tol_tohand","","","","tol_peg_1","612","612","0","[[0,0,0],[3,2],[0]]","2","[[0,0,0],[2,3],[1]]","12","0","","","","","","4","","","","","","","","",""
"","","","","","single-stim-button","187","376270","0.0-2.0-46.1-1.1","5dd31871c5faa232d3c20365","C3","batch3","","695","tol_toboard","","","","tol_peg_3","695","695","0","[[0,0,0],[3,2],[1]]","2","[[0,0,0],[2,3],[1]]","12","0","","","","","","4","","","","","","","","",""
"","","","","","single-stim-button","188","376771","0.0-2.0-46.2-0.2","5dd31871c5faa232d3c20365","C3","batch3","","499","tol_tohand","","","","tol_peg_2","499","499","0","[[0,0,0],[3,0],[1]]","3","[[0,0,0],[2,3],[1]]","12","0","","","","","","4","","","","","","","","",""
"","","","","","single-stim-button","189","377519","0.0-2.0-46.2-1.2","5dd31871c5faa232d3c20365","C3","batch3","","745","tol_toboard","","","","tol_peg_1","745","745","0","[[2,0,0],[3,0],[1]]","3","[[0,0,0],[2,3],[1]]","12","0","","","","","","4","","","","","","","","",""
"","","","","","single-stim-button","190","377981","0.0-2.0-46.3-0.3","5dd31871c5faa232d3c20365","C3","batch3","","460","tol_tohand","","","","tol_peg_2","460","460","0","[[2,0,0],[0,0],[1]]","4","[[0,0,0],[2,3],[1]]","12","0","","","","","","4","","","","","","","","",""
"","","","","","single-stim-button","191","378646","0.0-2.0-46.3-1.3","5dd31871c5faa232d3c20365","C3","batch3","","662","tol_toboard","","","","tol_peg_1","662","662","0","[[2,3,0],[0,0],[1]]","4","[[0,0,0],[2,3],[1]]","12","0","","","","","","4","","","","","","","","",""
"","","","","","single-stim-button","192","388934","0.0-2.0-46.4-0.4","5dd31871c5faa232d3c20365","C3","batch3","","10286","tol_tohand","","","","tol_peg_3","10286","10286","0","[[2,3,0],[0,0],[0]]","5","[[0,0,0],[2,3],[1]]","12","0","","","","","","4","","","","","","","","",""
"","","","","","single-stim-button","193","390399","0.0-2.0-46.4-1.4","5dd31871c5faa232d3c20365","C3","batch3","","1461","tol_toboard","","","","tol_peg_2","1461","1461","0","[[2,3,0],[1,0],[0]]","5","[[0,0,0],[2,3],[1]]","12","0","","","","","","4","","","","","","","","",""
"","","","","","single-stim-button","194","391115","0.0-2.0-46.5-0.5","5dd31871c5faa232d3c20365","C3","batch3","","714","tol_tohand","","","","tol_peg_1","714","714","0","[[2,0,0],[1,0],[0]]","6","[[0,0,0],[2,3],[1]]","12","0","","","","","","4","","","","","","","","",""
"","","","","","single-stim-button","195","392011","0.0-2.0-46.5-1.5","5dd31871c5faa232d3c20365","C3","batch3","","893","tol_toboard","","","","tol_peg_3","893","893","0","[[2,0,0],[1,0],[3]]","6","[[0,0,0],[2,3],[1]]","12","0","","","","","","4","","","","","","","","",""
"","","","","","single-stim-button","196","404824","0.0-2.0-46.6-0.6","5dd31871c5faa232d3c20365","C3","batch3","","12809","tol_tohand","","","","tol_peg_3","12809","12809","0","[[2,0,0],[1,0],[0]]","7","[[0,0,0],[2,3],[1]]","12","0","","","","","","4","","","","","","","","",""
"","","","","","single-stim-button","197","405451","0.0-2.0-46.6-1.6","5dd31871c5faa232d3c20365","C3","batch3","","623","tol_toboard","","","","tol_peg_1","623","623","0","[[2,3,0],[1,0],[0]]","7","[[0,0,0],[2,3],[1]]","12","0","","","","","","4","","","","","","","","",""
"","","","","","single-stim-button","198","406070","0.0-2.0-46.7-0.7","5dd31871c5faa232d3c20365","C3","batch3","","618","tol_tohand","","","","tol_peg_2","618","618","0","[[2,3,0],[0,0],[0]]","8","[[0,0,0],[2,3],[1]]","12","0","","","","","","4","","","","","","","","",""
"","","","","","single-stim-button","199","406553","0.0-2.0-46.7-1.7","5dd31871c5faa232d3c20365","C3","batch3","","480","tol_toboard","","","","tol_peg_3","480","480","0","[[2,3,0],[0,0],[1]]","8","[[0,0,0],[2,3],[1]]","12","0","","","","","","4","","","","","","","","",""
"","","","","","single-stim-button","200","410994","0.0-2.0-46.8-0.8","5dd31871c5faa232d3c20365","C3","batch3","","4438","tol_tohand","","","","tol_peg_1","4438","4438","0","[[2,0,0],[0,0],[1]]","9","[[0,0,0],[2,3],[1]]","12","0","","","","","","4","","","","","","","","",""
"","","","","","single-stim-button","201","411494","0.0-2.0-46.8-1.8","5dd31871c5faa232d3c20365","C3","batch3","","495","tol_toboard","","","","tol_peg_2","495","495","0","[[2,0,0],[3,0],[1]]","9","[[0,0,0],[2,3],[1]]","12","0","","","","","","4","","","","","","","","",""
"","","","","","single-stim-button","202","411991","0.0-2.0-46.9-0.9","5dd31871c5faa232d3c20365","C3","batch3","","495","tol_tohand","","","","tol_peg_1","495","495","0","[[0,0,0],[3,0],[1]]","10","[[0,0,0],[2,3],[1]]","12","0","","","","","","4","","","","","","","","",""
"","","","","","single-stim-button","203","412465","0.0-2.0-46.9-1.9","5dd31871c5faa232d3c20365","C3","batch3","","471","tol_toboard","","","","tol_peg_2","471","471","0","[[0,0,0],[3,2],[1]]","10","[[0,0,0],[2,3],[1]]","12","0","","","","","","4","","","","","","","","",""
"","","","","","single-stim-button","204","412966","0.0-2.0-46.10-0.10","5dd31871c5faa232d3c20365","C3","batch3","","492","tol_tohand","","","","tol_peg_3","492","492","0","[[0,0,0],[3,2],[0]]","11","[[0,0,0],[2,3],[1]]","12","0","","","","","","4","","","","","","","","",""
"","","","","","single-stim-button","205","413700","0.0-2.0-46.10-1.10","5dd31871c5faa232d3c20365","C3","batch3","","732","tol_toboard","","","","tol_peg_1","732","732","0","[[1,0,0],[3,2],[0]]","11","[[0,0,0],[2,3],[1]]","12","0","","","","","","4","","","","","","","","",""
"","","","","","single-stim-button","206","416924","0.0-2.0-46.11-0.11","5dd31871c5faa232d3c20365","C3","batch3","","3219","tol_tohand","","","","tol_peg_2","3219","3219","0","[[1,0,0],[3,0],[0]]","12","[[0,0,0],[2,3],[1]]","12","0","","","","","","4","","","","","","","","",""
"","","","","","single-stim-button","207","417610","0.0-2.0-46.11-1.11","5dd31871c5faa232d3c20365","C3","batch3","","683","tol_toboard","","","","tol_peg_1","683","683","0","[[1,2,0],[3,0],[0]]","12","[[0,0,0],[2,3],[1]]","12","0","","","","","","4","","","","","","","","",""
"","","","","","single-stim-button","208","418186","0.0-2.0-46.12-0.12","5dd31871c5faa232d3c20365","C3","batch3","","573","tol_tohand","","","","tol_peg_2","573","573","0","[[1,2,0],[0,0],[0]]","13","[[0,0,0],[2,3],[1]]","12","0","","","","","","4","","","","","","","","",""
"","","","","","single-stim-button","209","418672","0.0-2.0-46.12-1.12","5dd31871c5faa232d3c20365","C3","batch3","","484","tol_toboard","","","","tol_peg_3","484","484","0","[[1,2,0],[0,0],[3]]","13","[[0,0,0],[2,3],[1]]","12","0","","","","","","4","","","","","","","","",""
"","","","","","single-stim-button","210","419274","0.0-2.0-46.13-0.13","5dd31871c5faa232d3c20365","C3","batch3","","599","tol_tohand","","","","tol_peg_1","599","599","0","[[1,0,0],[0,0],[3]]","14","[[0,0,0],[2,3],[1]]","12","0","","","","","","4","","","","","","","","",""
"","","","","","single-stim-button","211","419805","0.0-2.0-46.13-1.13","5dd31871c5faa232d3c20365","C3","batch3","","530","tol_toboard","","","","tol_peg_2","530","530","0","[[1,0,0],[2,0],[3]]","14","[[0,0,0],[2,3],[1]]","12","0","","","","","","4","","","","","","","","",""
"","","","","","single-stim-button","212","420324","0.0-2.0-46.14-0.14","5dd31871c5faa232d3c20365","C3","batch3","","516","tol_tohand","","","","tol_peg_3","516","516","0","[[1,0,0],[2,0],[0]]","15","[[0,0,0],[2,3],[1]]","12","0","","","","","","4","","","","","","","","",""
"","","","","","single-stim-button","213","420790","0.0-2.0-46.14-1.14","5dd31871c5faa232d3c20365","C3","batch3","","462","tol_toboard","","","","tol_peg_2","462","462","0","[[1,0,0],[2,3],[0]]","15","[[0,0,0],[2,3],[1]]","12","0","","","","","","4","","","","","","","","",""
"","","","","","single-stim-button","214","421323","0.0-2.0-46.15-0.15","5dd31871c5faa232d3c20365","C3","batch3","","531","tol_tohand","","","","tol_peg_1","531","531","0","[[0,0,0],[2,3],[0]]","16","[[0,0,0],[2,3],[1]]","12","0","","","","","","4","","","","","","","","",""
"","","","","","single-stim-button","215","422048","0.0-2.0-46.15-1.15","5dd31871c5faa232d3c20365","C3","batch3","","722","tol_toboard","","","","tol_peg_3","722","722","0","[[0,0,0],[2,3],[1]]","16","[[0,0,0],[2,3],[1]]","12","0","","","","","","4","","","","","","","","",""
"","","","","","poldrack-single-stim","216","423052","0.0-2.0-47.0","5dd31871c5faa232d3c20365","C3","batch3","","-1","tol_feedback","","","true","","1000","1000","500","","","","","","-1","none","true","5701","42562","","","","","","","","","",""
"","","","","","html-button-response","217","428528","0.0-2.0-48.0","5dd31871c5faa232d3c20365","C3","batch3","","5473","attention_check","<p class = block-text>How many balls are in your board<br></p>","1","true","","","","","","","","","","","","","","","","","","","","","","","",""
"","","","","","html-button-response","218","429894","0.0-2.0-49.0","5dd31871c5faa232d3c20365","C3","batch3","","1362","tol_trial_num","<div class = centerbox><p class = center-block-text>problem <strong>14</strong> out of 25 problems</p></div>","0","","","","","","","","","","","","","","","","","","","","","","","","",""
"","","","","","single-stim-button","219","435377","0.0-2.0-50.0-0.0","5dd31871c5faa232d3c20365","C3","batch3","","5480","tol_tohand","","","","tol_peg_1","5480","5480","0","[[2,0,0],[3,0],[0]]","1","[[1,2,0],[3,0],[0]]","13","0","","","","","","4","","","","","","","","",""
"","","","","","single-stim-button","220","437232","0.0-2.0-50.0-1.0","5dd31871c5faa232d3c20365","C3","batch3","","1852","tol_toboard","","","","tol_peg_3","1852","1852","0","[[2,0,0],[3,0],[1]]","1","[[1,2,0],[3,0],[0]]","13","0","","","","","","4","","","","","","","","",""
"","","","","","single-stim-button","221","437760","0.0-2.0-50.1-0.1","5dd31871c5faa232d3c20365","C3","batch3","","526","tol_tohand","","","","tol_peg_1","526","526","0","[[0,0,0],[3,0],[1]]","2","[[1,2,0],[3,0],[0]]","13","0","","","","","","4","","","","","","","","",""
"","","","","","single-stim-button","222","438308","0.0-2.0-50.1-1.1","5dd31871c5faa232d3c20365","C3","batch3","","546","tol_toboard","","","","tol_peg_2","546","546","0","[[0,0,0],[3,2],[1]]","2","[[1,2,0],[3,0],[0]]","13","0","","","","","","4","","","","","","","","",""
"","","","","","single-stim-button","223","438914","0.0-2.0-50.2-0.2","5dd31871c5faa232d3c20365","C3","batch3","","603","tol_tohand","","","","tol_peg_3","603","603","0","[[0,0,0],[3,2],[0]]","3","[[1,2,0],[3,0],[0]]","13","0","","","","","","4","","","","","","","","",""
"","","","","","single-stim-button","224","439614","0.0-2.0-50.2-1.2","5dd31871c5faa232d3c20365","C3","batch3","","697","tol_toboard","","","","tol_peg_1","697","697","0","[[1,0,0],[3,2],[0]]","3","[[1,2,0],[3,0],[0]]","13","0","","","","","","4","","","","","","","","",""
"","","","","","single-stim-button","225","440055","0.0-2.0-50.3-0.3","5dd31871c5faa232d3c20365","C3","batch3","","439","tol_tohand","","","","tol_peg_2","439","439","0","[[1,0,0],[3,0],[0]]","4","[[1,2,0],[3,0],[0]]","13","0","","","","","","4","","","","","","","","",""
"","","","","","single-stim-button","226","440461","0.0-2.0-50.3-1.3","5dd31871c5faa232d3c20365","C3","batch3","","403","tol_toboard","","","","tol_peg_1","403","403","0","[[1,2,0],[3,0],[0]]","4","[[1,2,0],[3,0],[0]]","13","0","","","","","","4","","","","","","","","",""
"","","","","","poldrack-single-stim","227","441465","0.0-2.0-51.0","5dd31871c5faa232d3c20365","C3","batch3","","-1","tol_feedback","","","true","","1000","1000","500","","","","","","-1","none","true","5480","7048","","","","","","","","","",""
"","","","","","html-button-response","228","442141","0.0-2.0-52.0","5dd31871c5faa232d3c20365","C3","batch3","","672","tol_trial_num","<div class = centerbox><p class = center-block-text>problem <strong>15</strong> out of 25 problems</p></div>","0","","","","","","","","","","","","","","","","","","","","","","","","",""
"","","","","","single-stim-button","229","446499","0.0-2.0-53.0-0.0","5dd31871c5faa232d3c20365","C3","batch3","","4355","tol_tohand","","","","tol_peg_1","4355","4355","0","[[1,0,0],[3,0],[0]]","1","[[2,0,0],[3,0],[1]]","14","0","","","","","","3","","","","","","","","",""
"","","","","","single-stim-button","230","447203","0.0-2.0-53.0-1.0","5dd31871c5faa232d3c20365","C3","batch3","","701","tol_toboard","","","","tol_peg_2","701","701","0","[[1,0,0],[3,2],[0]]","1","[[2,0,0],[3,0],[1]]","14","0","","","","","","3","","","","","","","","",""
"","","","","","single-stim-button","231","447690","0.0-2.0-53.1-0.1","5dd31871c5faa232d3c20365","C3","batch3","","485","tol_tohand","","","","tol_peg_1","485","485","0","[[0,0,0],[3,2],[0]]","2","[[2,0,0],[3,0],[1]]","14","0","","","","","","3","","","","","","","","",""
"","","","","","single-stim-button","232","449126","0.0-2.0-53.1-1.1","5dd31871c5faa232d3c20365","C3","batch3","","1433","tol_toboard","","","","tol_peg_3","1433","1433","0","[[0,0,0],[3,2],[1]]","2","[[2,0,0],[3,0],[1]]","14","0","","","","","","3","","","","","","","","",""
"","","","","","single-stim-button","233","449730","0.0-2.0-53.2-0.2","5dd31871c5faa232d3c20365","C3","batch3","","603","tol_tohand","","","","tol_peg_2","603","603","0","[[0,0,0],[3,0],[1]]","3","[[2,0,0],[3,0],[1]]","14","0","","","","","","3","","","","","","","","",""
"","","","","","single-stim-button","234","450474","0.0-2.0-53.2-1.2","5dd31871c5faa232d3c20365","C3","batch3","","741","tol_toboard","","","","tol_peg_1","741","741","0","[[2,0,0],[3,0],[1]]","3","[[2,0,0],[3,0],[1]]","14","0","","","","","","3","","","","","","","","",""
"","","","","","poldrack-single-stim","235","451478","0.0-2.0-54.0","5dd31871c5faa232d3c20365","C3","batch3","","-1","tol_feedback","","","true","","1000","1000","500","","","","","","-1","none","true","4355","5443","","","","","","","","","",""
"","","","","","html-button-response","236","452303","0.0-2.0-55.0","5dd31871c5faa232d3c20365","C3","batch3","","822","tol_trial_num","<div class = centerbox><p class = center-block-text>problem <strong>16</strong> out of 25 problems</p></div>","0","","","","","","","","","","","","","","","","","","","","","","","","",""
"","","","","","single-stim-button","237","462240","0.0-2.0-56.0-0.0","5dd31871c5faa232d3c20365","C3","batch3","","9934","tol_tohand","","","","tol_peg_2","9934","9934","0","[[0,0,0],[2,0],[1]]","1","[[2,3,0],[1,0],[0]]","15","0","","","","","","7","","","","","","","","",""
"","","","","","single-stim-button","238","463021","0.0-2.0-56.0-1.0","5dd31871c5faa232d3c20365","C3","batch3","","779","tol_toboard","","","","tol_peg_1","779","779","0","[[3,0,0],[2,0],[1]]","1","[[2,3,0],[1,0],[0]]","15","0","","","","","","7","","","","","","","","",""
"","","","","","single-stim-button","239","463467","0.0-2.0-56.1-0.1","5dd31871c5faa232d3c20365","C3","batch3","","439","tol_tohand","","","","tol_peg_2","439","439","0","[[3,0,0],[0,0],[1]]","2","[[2,3,0],[1,0],[0]]","15","0","","","","","","7","","","","","","","","",""
"","","","","","single-stim-button","240","463868","0.0-2.0-56.1-1.1","5dd31871c5faa232d3c20365","C3","batch3","","399","tol_toboard","","","","tol_peg_1","399","399","0","[[3,2,0],[0,0],[1]]","2","[[2,3,0],[1,0],[0]]","15","0","","","","","","7","","","","","","","","",""
"","","","","","single-stim-button","241","464440","0.0-2.0-56.2-0.2","5dd31871c5faa232d3c20365","C3","batch3","","570","tol_tohand","","","","tol_peg_3","570","570","0","[[3,2,0],[0,0],[0]]","3","[[2,3,0],[1,0],[0]]","15","0","","","","","","7","","","","","","","","",""
"","","","","","single-stim-button","242","465592","0.0-2.0-56.2-1.2","5dd31871c5faa232d3c20365","C3","batch3","","1150","tol_toboard","","","","tol_peg_2","1150","1150","0","[[3,2,0],[1,0],[0]]","3","[[2,3,0],[1,0],[0]]","15","0","","","","","","7","","","","","","","","",""
"","","","","","single-stim-button","243","466076","0.0-2.0-56.3-0.3","5dd31871c5faa232d3c20365","C3","batch3","","478","tol_tohand","","","","tol_peg_1","478","478","0","[[3,0,0],[1,0],[0]]","4","[[2,3,0],[1,0],[0]]","15","0","","","","","","7","","","","","","","","",""
"","","","","","single-stim-button","244","467033","0.0-2.0-56.3-1.3","5dd31871c5faa232d3c20365","C3","batch3","","955","tol_toboard","","","","tol_peg_3","955","955","0","[[3,0,0],[1,0],[2]]","4","[[2,3,0],[1,0],[0]]","15","0","","","","","","7","","","","","","","","",""
"","","","","","single-stim-button","245","467537","0.0-2.0-56.4-0.4","5dd31871c5faa232d3c20365","C3","batch3","","502","tol_tohand","","","","tol_peg_1","502","502","0","[[0,0,0],[1,0],[2]]","5","[[2,3,0],[1,0],[0]]","15","0","","","","","","7","","","","","","","","",""
"","","","","","single-stim-button","246","468092","0.0-2.0-56.4-1.4","5dd31871c5faa232d3c20365","C3","batch3","","553","tol_toboard","","","","tol_peg_2","553","553","0","[[0,0,0],[1,3],[2]]","5","[[2,3,0],[1,0],[0]]","15","0","","","","","","7","","","","","","","","",""
"","","","","","single-stim-button","247","468653","0.0-2.0-56.5-0.5","5dd31871c5faa232d3c20365","C3","batch3","","559","tol_tohand","","","","tol_peg_3","559","559","0","[[0,0,0],[1,3],[0]]","6","[[2,3,0],[1,0],[0]]","15","0","","","","","","7","","","","","","","","",""
"","","","","","single-stim-button","248","469212","0.0-2.0-56.5-1.5","5dd31871c5faa232d3c20365","C3","batch3","","556","tol_toboard","","","","tol_peg_1","556","556","0","[[2,0,0],[1,3],[0]]","6","[[2,3,0],[1,0],[0]]","15","0","","","","","","7","","","","","","","","",""
"","","","","","single-stim-button","249","469670","0.0-2.0-56.6-0.6","5dd31871c5faa232d3c20365","C3","batch3","","454","tol_tohand","","","","tol_peg_2","454","454","0","[[2,0,0],[1,0],[0]]","7","[[2,3,0],[1,0],[0]]","15","0","","","","","","7","","","","","","","","",""
"","","","","","single-stim-button","250","470258","0.0-2.0-56.6-1.6","5dd31871c5faa232d3c20365","C3","batch3","","585","tol_toboard","","","","tol_peg_1","585","585","0","[[2,3,0],[1,0],[0]]","7","[[2,3,0],[1,0],[0]]","15","0","","","","","","7","","","","","","","","",""
"","","","","","poldrack-single-stim","251","471262","0.0-2.0-57.0","5dd31871c5faa232d3c20365","C3","batch3","","-1","tol_feedback","","","true","","1000","1000","500","","","","","","-1","none","true","9934","12936","","","","","","","","","",""
"","","","","","html-button-response","252","472095","0.0-2.0-58.0","5dd31871c5faa232d3c20365","C3","batch3","","829","tol_trial_num","<div class = centerbox><p class = center-block-text>problem <strong>17</strong> out of 25 problems</p></div>","0","","","","","","","","","","","","","","","","","","","","","","","","",""
"","","","","","single-stim-button","253","484063","0.0-2.0-59.0-0.0","5dd31871c5faa232d3c20365","C3","batch3","","11965","tol_tohand","","","","tol_peg_2","11965","11965","0","[[1,2,0],[0,0],[0]]","1","[[3,1,0],[2,0],[0]]","16","0","","","","","","5","","","","","","","","",""
"","","","","","single-stim-button","254","484953","0.0-2.0-59.0-1.0","5dd31871c5faa232d3c20365","C3","batch3","","887","tol_toboard","","","","tol_peg_3","887","887","0","[[1,2,0],[0,0],[3]]","1","[[3,1,0],[2,0],[0]]","16","0","","","","","","5","","","","","","","","",""
"","","","","","single-stim-button","255","485559","0.0-2.0-59.1-0.1","5dd31871c5faa232d3c20365","C3","batch3","","604","tol_tohand","","","","tol_peg_1","604","604","0","[[1,0,0],[0,0],[3]]","2","[[3,1,0],[2,0],[0]]","16","0","","","","","","5","","","","","","","","",""
"","","","","","single-stim-button","256","486036","0.0-2.0-59.1-1.1","5dd31871c5faa232d3c20365","C3","batch3","","471","tol_toboard","","","","tol_peg_2","471","471","0","[[1,0,0],[2,0],[3]]","2","[[3,1,0],[2,0],[0]]","16","0","","","","","","5","","","","","","","","",""
"","","","","","single-stim-button","257","486458","0.0-2.0-59.2-0.2","5dd31871c5faa232d3c20365","C3","batch3","","420","tol_tohand","","","","tol_peg_1","420","420","0","[[0,0,0],[2,0],[3]]","3","[[3,1,0],[2,0],[0]]","16","0","","","","","","5","","","","","","","","",""
"","","","","","single-stim-button","258","486855","0.0-2.0-59.2-1.2","5dd31871c5faa232d3c20365","C3","batch3","","394","tol_toboard","","","","tol_peg_2","394","394","0","[[0,0,0],[2,1],[3]]","3","[[3,1,0],[2,0],[0]]","16","0","","","","","","5","","","","","","","","",""
"","","","","","single-stim-button","259","487321","0.0-2.0-59.3-0.3","5dd31871c5faa232d3c20365","C3","batch3","","463","tol_tohand","","","","tol_peg_3","463","463","0","[[0,0,0],[2,1],[0]]","4","[[3,1,0],[2,0],[0]]","16","0","","","","","","5","","","","","","","","",""
"","","","","","single-stim-button","260","487982","0.0-2.0-59.3-1.3","5dd31871c5faa232d3c20365","C3","batch3","","658","tol_toboard","","","","tol_peg_1","658","658","0","[[3,0,0],[2,1],[0]]","4","[[3,1,0],[2,0],[0]]","16","0","","","","","","5","","","","","","","","",""
"","","","","","single-stim-button","261","489253","0.0-2.0-59.4-0.4","5dd31871c5faa232d3c20365","C3","batch3","","1266","tol_tohand","","","","tol_peg_2","1266","1266","0","[[3,0,0],[2,0],[0]]","5","[[3,1,0],[2,0],[0]]","16","0","","","","","","5","","","","","","","","",""
"","","","","","single-stim-button","262","489841","0.0-2.0-59.4-1.4","5dd31871c5faa232d3c20365","C3","batch3","","583","tol_toboard","","","","tol_peg_1","583","583","0","[[3,1,0],[2,0],[0]]","5","[[3,1,0],[2,0],[0]]","16","0","","","","","","5","","","","","","","","",""
"","","","","","poldrack-single-stim","263","490846","0.0-2.0-60.0","5dd31871c5faa232d3c20365","C3","batch3","","-1","tol_feedback","","","true","","1000","1000","500","","","","","","-1","none","true","11965","14718","","","","","","","","","",""
"","","","","","html-button-response","264","491720","0.0-2.0-61.0","5dd31871c5faa232d3c20365","C3","batch3","","870","tol_trial_num","<div class = centerbox><p class = center-block-text>problem <strong>18</strong> out of 25 problems</p></div>","0","","","","","","","","","","","","","","","","","","","","","","","","",""
"","","","","","single-stim-button","265","501196","0.0-2.0-62.0-0.0","5dd31871c5faa232d3c20365","C3","batch3","","9473","tol_tohand","","","","tol_peg_2","9473","9473","0","[[1,2,0],[0,0],[0]]","1","[[3,0,0],[2,0],[1]]","17","0","","","","","","5","","","","","","","","",""
"","","","","","single-stim-button","266","501737","0.0-2.0-62.0-1.0","5dd31871c5faa232d3c20365","C3","batch3","","539","tol_toboard","","","","tol_peg_3","539","539","0","[[1,2,0],[0,0],[3]]","1","[[3,0,0],[2,0],[1]]","17","0","","","","","","5","","","","","","","","",""
"","","","","","single-stim-button","267","502880","0.0-2.0-62.1-0.1","5dd31871c5faa232d3c20365","C3","batch3","","1141","tol_tohand","","","","tol_peg_1","1141","1141","0","[[1,0,0],[0,0],[3]]","2","[[3,0,0],[2,0],[1]]","17","0","","","","","","5","","","","","","","","",""
"","","","","","single-stim-button","268","503432","0.0-2.0-62.1-1.1","5dd31871c5faa232d3c20365","C3","batch3","","548","tol_toboard","","","","tol_peg_2","548","548","0","[[1,0,0],[2,0],[3]]","2","[[3,0,0],[2,0],[1]]","17","0","","","","","","5","","","","","","","","",""
"","","","","","single-stim-button","269","503837","0.0-2.0-62.2-0.2","5dd31871c5faa232d3c20365","C3","batch3","","403","tol_tohand","","","","tol_peg_1","403","403","0","[[0,0,0],[2,0],[3]]","3","[[3,0,0],[2,0],[1]]","17","0","","","","","","5","","","","","","","","",""
"","","","","","single-stim-button","270","504461","0.0-2.0-62.2-1.2","5dd31871c5faa232d3c20365","C3","batch3","","619","tol_toboard","","","","tol_peg_2","619","619","0","[[0,0,0],[2,1],[3]]","3","[[3,0,0],[2,0],[1]]","17","0","","","","","","5","","","","","","","","",""
"","","","","","single-stim-button","271","504939","0.0-2.0-62.3-0.3","5dd31871c5faa232d3c20365","C3","batch3","","476","tol_tohand","","","","tol_peg_3","476","476","0","[[0,0,0],[2,1],[0]]","4","[[3,0,0],[2,0],[1]]","17","0","","","","","","5","","","","","","","","",""
"","","","","","single-stim-button","272","505786","0.0-2.0-62.3-1.3","5dd31871c5faa232d3c20365","C3","batch3","","844","tol_toboard","","","","tol_peg_1","844","844","0","[[3,0,0],[2,1],[0]]","4","[[3,0,0],[2,0],[1]]","17","0","","","","","","5","","","","","","","","",""
"","","","","","single-stim-button","273","506666","0.0-2.0-62.4-0.4","5dd31871c5faa232d3c20365","C3","batch3","","877","tol_tohand","","","","tol_peg_2","877","877","0","[[3,0,0],[2,0],[0]]","5","[[3,0,0],[2,0],[1]]","17","0","","","","","","5","","","","","","","","",""
"","","","","","single-stim-button","274","507227","0.0-2.0-62.4-1.4","5dd31871c5faa232d3c20365","C3","batch3","","559","tol_toboard","","","","tol_peg_3","559","559","0","[[3,0,0],[2,0],[1]]","5","[[3,0,0],[2,0],[1]]","17","0","","","","","","5","","","","","","","","",""
"","","","","","poldrack-single-stim","275","508239","0.0-2.0-63.0","5dd31871c5faa232d3c20365","C3","batch3","","-1","tol_feedback","","","true","","1000","1000","500","","","","","","-1","none","true","9473","12370","","","","","","","","","",""
"","","","","","html-button-response","276","508972","0.0-2.0-64.0","5dd31871c5faa232d3c20365","C3","batch3","","731","tol_trial_num","<div class = centerbox><p class = center-block-text>problem <strong>19</strong> out of 25 problems</p></div>","0","","","","","","","","","","","","","","","","","","","","","","","","",""
"","","","","","single-stim-button","277","526699","0.0-2.0-65.0-0.0","5dd31871c5faa232d3c20365","C3","batch3","","17725","tol_tohand","","","","tol_peg_2","17725","17725","0","[[1,2,0],[0,0],[0]]","1","[[0,0,0],[1,2],[3]]","18","0","","","","","","7","","","","","","","","",""
"","","","","","single-stim-button","278","566096","0.0-2.0-65.0-1.0","5dd31871c5faa232d3c20365","C3","batch3","","39393","tol_toboard","","","","tol_peg_2","39393","39393","0","[[1,2,0],[3,0],[0]]","1","[[0,0,0],[1,2],[3]]","18","0","","","","","","7","","","","","","","","",""
"","","","","","single-stim-button","279","567504","0.0-2.0-65.1-0.1","5dd31871c5faa232d3c20365","C3","batch3","","1405","tol_tohand","","","","tol_peg_1","1405","1405","0","[[1,0,0],[3,0],[0]]","2","[[0,0,0],[1,2],[3]]","18","0","","","","","","7","","","","","","","","",""
"","","","","","single-stim-button","280","568160","0.0-2.0-65.1-1.1","5dd31871c5faa232d3c20365","C3","batch3","","653","tol_toboard","","","","tol_peg_2","653","653","0","[[1,0,0],[3,2],[0]]","2","[[0,0,0],[1,2],[3]]","18","0","","","","","","7","","","","","","","","",""
"","","","","","single-stim-button","281","569386","0.0-2.0-65.2-0.2","5dd31871c5faa232d3c20365","C3","batch3","","1223","tol_tohand","","","","tol_peg_1","1223","1223","0","[[0,0,0],[3,2],[0]]","3","[[0,0,0],[1,2],[3]]","18","0","","","","","","7","","","","","","","","",""
"","","","","","single-stim-button","282","576475","0.0-2.0-65.2-1.2","5dd31871c5faa232d3c20365","C3","batch3","","7087","tol_toboard","","","","tol_peg_3","7087","7087","0","[[0,0,0],[3,2],[1]]","3","[[0,0,0],[1,2],[3]]","18","0","","","","","","7","","","","","","","","",""
"","","","","","single-stim-button","283","577507","0.0-2.0-65.3-0.3","5dd31871c5faa232d3c20365","C3","batch3","","1029","tol_tohand","","","","tol_peg_2","1029","1029","0","[[0,0,0],[3,0],[1]]","4","[[0,0,0],[1,2],[3]]","18","0","","","","","","7","","","","","","","","",""
"","","","","","single-stim-button","284","577980","0.0-2.0-65.3-1.3","5dd31871c5faa232d3c20365","C3","batch3","","471","tol_toboard","","","","tol_peg_1","471","471","0","[[2,0,0],[3,0],[1]]","4","[[0,0,0],[1,2],[3]]","18","0","","","","","","7","","","","","","","","",""
"","","","","","single-stim-button","285","578478","0.0-2.0-65.4-0.4","5dd31871c5faa232d3c20365","C3","batch3","","495","tol_tohand","","","","tol_peg_2","495","495","0","[[2,0,0],[0,0],[1]]","5","[[0,0,0],[1,2],[3]]","18","0","","","","","","7","","","","","","","","",""
"","","","","","single-stim-button","286","579088","0.0-2.0-65.4-1.4","5dd31871c5faa232d3c20365","C3","batch3","","605","tol_toboard","","","","tol_peg_1","605","605","0","[[2,3,0],[0,0],[1]]","5","[[0,0,0],[1,2],[3]]","18","0","","","","","","7","","","","","","","","",""
"","","","","","single-stim-button","287","579718","0.0-2.0-65.5-0.5","5dd31871c5faa232d3c20365","C3","batch3","","628","tol_tohand","","","","tol_peg_3","628","628","0","[[2,3,0],[0,0],[0]]","6","[[0,0,0],[1,2],[3]]","18","0","","","","","","7","","","","","","","","",""
"","","","","","single-stim-button","288","580553","0.0-2.0-65.5-1.5","5dd31871c5faa232d3c20365","C3","batch3","","833","tol_toboard","","","","tol_peg_2","833","833","0","[[2,3,0],[1,0],[0]]","6","[[0,0,0],[1,2],[3]]","18","0","","","","","","7","","","","","","","","",""
"","","","","","single-stim-button","289","582328","0.0-2.0-65.6-0.6","5dd31871c5faa232d3c20365","C3","batch3","","1771","tol_tohand","","","","tol_peg_1","1771","1771","0","[[2,0,0],[1,0],[0]]","7","[[0,0,0],[1,2],[3]]","18","0","","","","","","7","","","","","","","","",""
"","","","","","single-stim-button","290","582923","0.0-2.0-65.6-1.6","5dd31871c5faa232d3c20365","C3","batch3","","593","tol_toboard","","","","tol_peg_3","593","593","0","[[2,0,0],[1,0],[3]]","7","[[0,0,0],[1,2],[3]]","18","0","","","","","","7","","","","","","","","",""
"","","","","","single-stim-button","291","583397","0.0-2.0-65.7-0.7","5dd31871c5faa232d3c20365","C3","batch3","","471","tol_tohand","","","","tol_peg_1","471","471","0","[[0,0,0],[1,0],[3]]","8","[[0,0,0],[1,2],[3]]","18","0","","","","","","7","","","","","","","","",""
"","","","","","single-stim-button","292","584253","0.0-2.0-65.7-1.7","5dd31871c5faa232d3c20365","C3","batch3","","853","tol_toboard","","","","tol_peg_2","853","853","0","[[0,0,0],[1,2],[3]]","8","[[0,0,0],[1,2],[3]]","18","0","","","","","","7","","","","","","","","",""
"","","","","","poldrack-single-stim","293","585260","0.0-2.0-66.0","5dd31871c5faa232d3c20365","C3","batch3","","-1","tol_feedback","","","true","","1000","1000","500","","","","","","-1","none","true","17725","24747","","","","","","","","","",""
"","","","","","html-button-response","294","586014","0.0-2.0-67.0","5dd31871c5faa232d3c20365","C3","batch3","","750","tol_trial_num","<div class = centerbox><p class = center-block-text>problem <strong>20</strong> out of 25 problems</p></div>","0","","","","","","","","","","","","","","","","","","","","","","","","",""
"","","","","","single-stim-button","295","590348","0.0-2.0-68.0-0.0","5dd31871c5faa232d3c20365","C3","batch3","","4331","tol_tohand","","","","tol_peg_2","4331","4331","0","[[1,2,0],[0,0],[0]]","1","[[2,1,0],[0,0],[3]]","19","0","","","","","","5","","","","","","","","",""
"","","","","","single-stim-button","296","591134","0.0-2.0-68.0-1.0","5dd31871c5faa232d3c20365","C3","batch3","","783","tol_toboard","","","","tol_peg_3","783","783","0","[[1,2,0],[0,0],[3]]","1","[[2,1,0],[0,0],[3]]","19","0","","","","","","5","","","","","","","","",""
"","","","","","single-stim-button","297","594809","0.0-2.0-68.1-0.1","5dd31871c5faa232d3c20365","C3","batch3","","3672","tol_tohand","","","","tol_peg_3","3672","3672","0","[[1,2,0],[0,0],[0]]","2","[[2,1,0],[0,0],[3]]","19","0","","","","","","5","","","","","","","","",""
"","","","","","single-stim-button","298","595396","0.0-2.0-68.1-1.1","5dd31871c5faa232d3c20365","C3","batch3","","583","tol_toboard","","","","tol_peg_2","583","583","0","[[1,2,0],[3,0],[0]]","2","[[2,1,0],[0,0],[3]]","19","0","","","","","","5","","","","","","","","",""
"","","","","","single-stim-button","299","598712","0.0-2.0-68.2-0.2","5dd31871c5faa232d3c20365","C3","batch3","","3313","tol_tohand","","","","tol_peg_1","3313","3313","0","[[1,0,0],[3,0],[0]]","3","[[2,1,0],[0,0],[3]]","19","0","","","","","","5","","","","","","","","",""
"","","","","","single-stim-button","300","599679","0.0-2.0-68.2-1.2","5dd31871c5faa232d3c20365","C3","batch3","","965","tol_toboard","","","","tol_peg_3","965","965","0","[[1,0,0],[3,0],[2]]","3","[[2,1,0],[0,0],[3]]","19","0","","","","","","5","","","","","","","","",""
"","","","","","single-stim-button","301","600323","0.0-2.0-68.3-0.3","5dd31871c5faa232d3c20365","C3","batch3","","635","tol_tohand","","","","tol_peg_1","635","635","0","[[0,0,0],[3,0],[2]]","4","[[2,1,0],[0,0],[3]]","19","0","","","","","","5","","","","","","","","",""
"","","","","","single-stim-button","302","600893","0.0-2.0-68.3-1.3","5dd31871c5faa232d3c20365","C3","batch3","","568","tol_toboard","","","","tol_peg_2","568","568","0","[[0,0,0],[3,1],[2]]","4","[[2,1,0],[0,0],[3]]","19","0","","","","","","5","","","","","","","","",""
"","","","","","single-stim-button","303","601351","0.0-2.0-68.4-0.4","5dd31871c5faa232d3c20365","C3","batch3","","454","tol_tohand","","","","tol_peg_3","454","454","0","[[0,0,0],[3,1],[0]]","5","[[2,1,0],[0,0],[3]]","19","0","","","","","","5","","","","","","","","",""
"","","","","","single-stim-button","304","601964","0.0-2.0-68.4-1.4","5dd31871c5faa232d3c20365","C3","batch3","","612","tol_toboard","","","","tol_peg_1","612","612","0","[[2,0,0],[3,1],[0]]","5","[[2,1,0],[0,0],[3]]","19","0","","","","","","5","","","","","","","","",""
"","","","","","single-stim-button","305","602454","0.0-2.0-68.5-0.5","5dd31871c5faa232d3c20365","C3","batch3","","487","tol_tohand","","","","tol_peg_2","487","487","0","[[2,0,0],[3,0],[0]]","6","[[2,1,0],[0,0],[3]]","19","0","","","","","","5","","","","","","","","",""
"","","","","","single-stim-button","306","602926","0.0-2.0-68.5-1.5","5dd31871c5faa232d3c20365","C3","batch3","","470","tol_toboard","","","","tol_peg_1","470","470","0","[[2,1,0],[3,0],[0]]","6","[[2,1,0],[0,0],[3]]","19","0","","","","","","5","","","","","","","","",""
"","","","","","single-stim-button","307","603325","0.0-2.0-68.6-0.6","5dd31871c5faa232d3c20365","C3","batch3","","395","tol_tohand","","","","tol_peg_2","395","395","0","[[2,1,0],[0,0],[0]]","7","[[2,1,0],[0,0],[3]]","19","0","","","","","","5","","","","","","","","",""
"","","","","","single-stim-button","308","603803","0.0-2.0-68.6-1.6","5dd31871c5faa232d3c20365","C3","batch3","","476","tol_toboard","","","","tol_peg_3","476","476","0","[[2,1,0],[0,0],[3]]","7","[[2,1,0],[0,0],[3]]","19","0","","","","","","5","","","","","","","","",""
"","","","","","poldrack-single-stim","309","604814","0.0-2.0-69.0","5dd31871c5faa232d3c20365","C3","batch3","","-1","tol_feedback","","","true","","1000","1000","500","","","","","","-1","none","true","4331","13287","","","","","","","","","",""
"","","","","","html-button-response","310","605520","0.0-2.0-70.0","5dd31871c5faa232d3c20365","C3","batch3","","704","tol_trial_num","<div class = centerbox><p class = center-block-text>problem <strong>21</strong> out of 25 problems</p></div>","0","","","","","","","","","","","","","","","","","","","","","","","","",""
"","","","","","single-stim-button","311","611395","0.0-2.0-71.0-0.0","5dd31871c5faa232d3c20365","C3","batch3","","5872","tol_tohand","","","","tol_peg_2","5872","5872","0","[[1,2,0],[0,0],[0]]","1","[[3,2,0],[0,0],[1]]","20","0","","","","","","6","","","","","","","","",""
"","","","","","single-stim-button","312","613057","0.0-2.0-71.0-1.0","5dd31871c5faa232d3c20365","C3","batch3","","1659","tol_toboard","","","","tol_peg_3","1659","1659","0","[[1,2,0],[0,0],[3]]","1","[[3,2,0],[0,0],[1]]","20","0","","","","","","6","","","","","","","","",""
"","","","","","single-stim-button","313","613539","0.0-2.0-71.1-0.1","5dd31871c5faa232d3c20365","C3","batch3","","479","tol_tohand","","","","tol_peg_1","479","479","0","[[1,0,0],[0,0],[3]]","2","[[3,2,0],[0,0],[1]]","20","0","","","","","","6","","","","","","","","",""
"","","","","","single-stim-button","314","614116","0.0-2.0-71.1-1.1","5dd31871c5faa232d3c20365","C3","batch3","","575","tol_toboard","","","","tol_peg_2","575","575","0","[[1,0,0],[2,0],[3]]","2","[[3,2,0],[0,0],[1]]","20","0","","","","","","6","","","","","","","","",""
"","","","","","single-stim-button","315","614551","0.0-2.0-71.2-0.2","5dd31871c5faa232d3c20365","C3","batch3","","433","tol_tohand","","","","tol_peg_1","433","433","0","[[0,0,0],[2,0],[3]]","3","[[3,2,0],[0,0],[1]]","20","0","","","","","","6","","","","","","","","",""
"","","","","","single-stim-button","316","614994","0.0-2.0-71.2-1.2","5dd31871c5faa232d3c20365","C3","batch3","","440","tol_toboard","","","","tol_peg_2","440","440","0","[[0,0,0],[2,1],[3]]","3","[[3,2,0],[0,0],[1]]","20","0","","","","","","6","","","","","","","","",""
"","","","","","single-stim-button","317","615516","0.0-2.0-71.3-0.3","5dd31871c5faa232d3c20365","C3","batch3","","519","tol_tohand","","","","tol_peg_3","519","519","0","[[0,0,0],[2,1],[0]]","4","[[3,2,0],[0,0],[1]]","20","0","","","","","","6","","","","","","","","",""
"","","","","","single-stim-button","318","616157","0.0-2.0-71.3-1.3","5dd31871c5faa232d3c20365","C3","batch3","","638","tol_toboard","","","","tol_peg_1","638","638","0","[[3,0,0],[2,1],[0]]","4","[[3,2,0],[0,0],[1]]","20","0","","","","","","6","","","","","","","","",""
"","","","","","single-stim-button","319","618031","0.0-2.0-71.4-0.4","5dd31871c5faa232d3c20365","C3","batch3","","1872","tol_tohand","","","","tol_peg_2","1872","1872","0","[[3,0,0],[2,0],[0]]","5","[[3,2,0],[0,0],[1]]","20","0","","","","","","6","","","","","","","","",""
"","","","","","single-stim-button","320","618676","0.0-2.0-71.4-1.4","5dd31871c5faa232d3c20365","C3","batch3","","642","tol_toboard","","","","tol_peg_3","642","642","0","[[3,0,0],[2,0],[1]]","5","[[3,2,0],[0,0],[1]]","20","0","","","","","","6","","","","","","","","",""
"","","","","","single-stim-button","321","619136","0.0-2.0-71.5-0.5","5dd31871c5faa232d3c20365","C3","batch3","","457","tol_tohand","","","","tol_peg_2","457","457","0","[[3,0,0],[0,0],[1]]","6","[[3,2,0],[0,0],[1]]","20","0","","","","","","6","","","","","","","","",""
"","","","","","single-stim-button","322","619665","0.0-2.0-71.5-1.5","5dd31871c5faa232d3c20365","C3","batch3","","526","tol_toboard","","","","tol_peg_1","526","526","0","[[3,2,0],[0,0],[1]]","6","[[3,2,0],[0,0],[1]]","20","0","","","","","","6","","","","","","","","",""
"","","","","","poldrack-single-stim","323","620671","0.0-2.0-72.0","5dd31871c5faa232d3c20365","C3","batch3","","-1","tol_feedback","","","true","","1000","1000","500","","","","","","-1","none","true","5872","9632","","","","","","","","","",""
"","","","","","html-button-response","324","621384","0.0-2.0-73.0","5dd31871c5faa232d3c20365","C3","batch3","","711","tol_trial_num","<div class = centerbox><p class = center-block-text>problem <strong>22</strong> out of 25 problems</p></div>","0","","","","","","","","","","","","","","","","","","","","","","","","",""
"","","","","","single-stim-button","325","638299","0.0-2.0-74.0-0.0","5dd31871c5faa232d3c20365","C3","batch3","","16911","tol_tohand","","","","tol_peg_1","16911","16911","0","[[0,0,0],[2,3],[0]]","1","[[0,0,0],[1,2],[3]]","21","0","","","","","","6","","","","","","","","",""
"","","","","","single-stim-button","326","639038","0.0-2.0-74.0-1.0","5dd31871c5faa232d3c20365","C3","batch3","","736","tol_toboard","","","","tol_peg_3","736","736","0","[[0,0,0],[2,3],[1]]","1","[[0,0,0],[1,2],[3]]","21","0","","","","","","6","","","","","","","","",""
"","","","","","single-stim-button","327","639455","0.0-2.0-74.1-0.1","5dd31871c5faa232d3c20365","C3","batch3","","413","tol_tohand","","","","tol_peg_2","413","413","0","[[0,0,0],[2,0],[1]]","2","[[0,0,0],[1,2],[3]]","21","0","","","","","","6","","","","","","","","",""
"","","","","","single-stim-button","328","639849","0.0-2.0-74.1-1.1","5dd31871c5faa232d3c20365","C3","batch3","","392","tol_toboard","","","","tol_peg_1","392","392","0","[[3,0,0],[2,0],[1]]","2","[[0,0,0],[1,2],[3]]","21","0","","","","","","6","","","","","","","","",""
"","","","","","single-stim-button","329","640291","0.0-2.0-74.2-0.2","5dd31871c5faa232d3c20365","C3","batch3","","439","tol_tohand","","","","tol_peg_2","439","439","0","[[3,0,0],[0,0],[1]]","3","[[0,0,0],[1,2],[3]]","21","0","","","","","","6","","","","","","","","",""
"","","","","","single-stim-button","330","640660","0.0-2.0-74.2-1.2","5dd31871c5faa232d3c20365","C3","batch3","","365","tol_toboard","","","","tol_peg_1","365","365","0","[[3,2,0],[0,0],[1]]","3","[[0,0,0],[1,2],[3]]","21","0","","","","","","6","","","","","","","","",""
"","","","","","single-stim-button","331","641311","0.0-2.0-74.3-0.3","5dd31871c5faa232d3c20365","C3","batch3","","648","tol_tohand","","","","tol_peg_3","648","648","0","[[3,2,0],[0,0],[0]]","4","[[0,0,0],[1,2],[3]]","21","0","","","","","","6","","","","","","","","",""
"","","","","","single-stim-button","332","641807","0.0-2.0-74.3-1.3","5dd31871c5faa232d3c20365","C3","batch3","","494","tol_toboard","","","","tol_peg_2","494","494","0","[[3,2,0],[1,0],[0]]","4","[[0,0,0],[1,2],[3]]","21","0","","","","","","6","","","","","","","","",""
"","","","","","single-stim-button","333","642516","0.0-2.0-74.4-0.4","5dd31871c5faa232d3c20365","C3","batch3","","707","tol_tohand","","","","tol_peg_1","707","707","0","[[3,0,0],[1,0],[0]]","5","[[0,0,0],[1,2],[3]]","21","0","","","","","","6","","","","","","","","",""
"","","","","","single-stim-button","334","642910","0.0-2.0-74.4-1.4","5dd31871c5faa232d3c20365","C3","batch3","","391","tol_toboard","","","","tol_peg_2","391","391","0","[[3,0,0],[1,2],[0]]","5","[[0,0,0],[1,2],[3]]","21","0","","","","","","6","","","","","","","","",""
"","","","","","single-stim-button","335","643428","0.0-2.0-74.5-0.5","5dd31871c5faa232d3c20365","C3","batch3","","516","tol_tohand","","","","tol_peg_1","516","516","0","[[0,0,0],[1,2],[0]]","6","[[0,0,0],[1,2],[3]]","21","0","","","","","","6","","","","","","","","",""
"","","","","","single-stim-button","336","644177","0.0-2.0-74.5-1.5","5dd31871c5faa232d3c20365","C3","batch3","","745","tol_toboard","","","","tol_peg_3","745","745","0","[[0,0,0],[1,2],[3]]","6","[[0,0,0],[1,2],[3]]","21","0","","","","","","6","","","","","","","","",""
"","","","","","poldrack-single-stim","337","645181","0.0-2.0-75.0","5dd31871c5faa232d3c20365","C3","batch3","","-1","tol_feedback","","","true","","1000","1000","500","","","","","","-1","none","true","16911","19634","","","","","","","","","",""
"","","","","","html-button-response","338","646239","0.0-2.0-76.0","5dd31871c5faa232d3c20365","C3","batch3","","1054","tol_trial_num","<div class = centerbox><p class = center-block-text>problem <strong>23</strong> out of 25 problems</p></div>","0","","","","","","","","","","","","","","","","","","","","","","","","",""
"","","","","","single-stim-button","339","651034","0.0-2.0-77.0-0.0","5dd31871c5faa232d3c20365","C3","batch3","","4792","tol_tohand","","","","tol_peg_1","4792","4792","0","[[1,0,0],[3,0],[0]]","1","[[1,3,2],[0,0],[0]]","22","0","","","","","","3","","","","","","","","",""
"","","","","","single-stim-button","340","651624","0.0-2.0-77.0-1.0","5dd31871c5faa232d3c20365","C3","batch3","","587","tol_toboard","","","","tol_peg_3","587","587","0","[[1,0,0],[3,0],[2]]","1","[[1,3,2],[0,0],[0]]","22","0","","","","","","3","","","","","","","","",""
"","","","","","single-stim-button","341","652021","0.0-2.0-77.1-0.1","5dd31871c5faa232d3c20365","C3","batch3","","394","tol_tohand","","","","tol_peg_2","394","394","0","[[1,0,0],[0,0],[2]]","2","[[1,3,2],[0,0],[0]]","22","0","","","","","","3","","","","","","","","",""
"","","","","","single-stim-button","342","652442","0.0-2.0-77.1-1.1","5dd31871c5faa232d3c20365","C3","batch3","","418","tol_toboard","","","","tol_peg_1","418","418","0","[[1,3,0],[0,0],[2]]","2","[[1,3,2],[0,0],[0]]","22","0","","","","","","3","","","","","","","","",""
"","","","","","single-stim-button","343","653176","0.0-2.0-77.2-0.2","5dd31871c5faa232d3c20365","C3","batch3","","731","tol_tohand","","","","tol_peg_3","731","731","0","[[1,3,0],[0,0],[0]]","3","[[1,3,2],[0,0],[0]]","22","0","","","","","","3","","","","","","","","",""
"","","","","","single-stim-button","344","653855","0.0-2.0-77.2-1.2","5dd31871c5faa232d3c20365","C3","batch3","","678","tol_toboard","","","","tol_peg_1","678","678","0","[[1,3,2],[0,0],[0]]","3","[[1,3,2],[0,0],[0]]","22","0","","","","","","3","","","","","","","","",""
"","","","","","poldrack-single-stim","345","654864","0.0-2.0-78.0","5dd31871c5faa232d3c20365","C3","batch3","","-1","tol_feedback","","","true","","1000","1000","500","","","","","","-1","none","true","4792","5917","","","","","","","","","",""
"","","","","","html-button-response","346","655546","0.0-2.0-79.0","5dd31871c5faa232d3c20365","C3","batch3","","679","tol_trial_num","<div class = centerbox><p class = center-block-text>problem <strong>24</strong> out of 25 problems</p></div>","0","","","","","","","","","","","","","","","","","","","","","","","","",""
"","","","","","single-stim-button","347","663427","0.0-2.0-80.0-0.0","5dd31871c5faa232d3c20365","C3","batch3","","7879","tol_tohand","","","","tol_peg_3","7879","7879","0","[[0,0,0],[2,3],[0]]","1","[[2,0,0],[3,0],[1]]","23","0","","","","","","7","","","","","","","","",""
"","","","","","single-stim-button","348","664336","0.0-2.0-80.0-1.0","5dd31871c5faa232d3c20365","C3","batch3","","906","tol_toboard","","","","tol_peg_1","906","906","0","[[1,0,0],[2,3],[0]]","1","[[2,0,0],[3,0],[1]]","23","0","","","","","","7","","","","","","","","",""
"","","","","","single-stim-button","349","671151","0.0-2.0-80.1-0.1","5dd31871c5faa232d3c20365","C3","batch3","","6813","tol_tohand","","","","tol_peg_2","6813","6813","0","[[1,0,0],[2,0],[0]]","2","[[2,0,0],[3,0],[1]]","23","0","","","","","","7","","","","","","","","",""
"","","","","","single-stim-button","350","671694","0.0-2.0-80.1-1.1","5dd31871c5faa232d3c20365","C3","batch3","","540","tol_toboard","","","","tol_peg_1","540","540","0","[[1,3,0],[2,0],[0]]","2","[[2,0,0],[3,0],[1]]","23","0","","","","","","7","","","","","","","","",""
"","","","","","single-stim-button","351","672117","0.0-2.0-80.2-0.2","5dd31871c5faa232d3c20365","C3","batch3","","420","tol_tohand","","","","tol_peg_2","420","420","0","[[1,3,0],[0,0],[0]]","3","[[2,0,0],[3,0],[1]]","23","0","","","","","","7","","","","","","","","",""
"","","","","","single-stim-button","352","672624","0.0-2.0-80.2-1.2","5dd31871c5faa232d3c20365","C3","batch3","","506","tol_toboard","","","","tol_peg_3","506","506","0","[[1,3,0],[0,0],[2]]","3","[[2,0,0],[3,0],[1]]","23","0","","","","","","7","","","","","","","","",""
"","","","","","single-stim-button","353","673184","0.0-2.0-80.3-0.3","5dd31871c5faa232d3c20365","C3","batch3","","557","tol_tohand","","","","tol_peg_1","557","557","0","[[1,0,0],[0,0],[2]]","4","[[2,0,0],[3,0],[1]]","23","0","","","","","","7","","","","","","","","",""
"","","","","","single-stim-button","354","673621","0.0-2.0-80.3-1.3","5dd31871c5faa232d3c20365","C3","batch3","","436","tol_toboard","","","","tol_peg_2","436","436","0","[[1,0,0],[3,0],[2]]","4","[[2,0,0],[3,0],[1]]","23","0","","","","","","7","","","","","","","","",""
"","","","","","single-stim-button","355","674235","0.0-2.0-80.4-0.4","5dd31871c5faa232d3c20365","C3","batch3","","611","tol_tohand","","","","tol_peg_1","611","611","0","[[0,0,0],[3,0],[2]]","5","[[2,0,0],[3,0],[1]]","23","0","","","","","","7","","","","","","","","",""
"","","","","","single-stim-button","356","674847","0.0-2.0-80.4-1.4","5dd31871c5faa232d3c20365","C3","batch3","","610","tol_toboard","","","","tol_peg_2","610","610","0","[[0,0,0],[3,1],[2]]","5","[[2,0,0],[3,0],[1]]","23","0","","","","","","7","","","","","","","","",""
"","","","","","single-stim-button","357","675305","0.0-2.0-80.5-0.5","5dd31871c5faa232d3c20365","C3","batch3","","454","tol_tohand","","","","tol_peg_3","454","454","0","[[0,0,0],[3,1],[0]]","6","[[2,0,0],[3,0],[1]]","23","0","","","","","","7","","","","","","","","",""
