"success","timeout","failed_images","failed_audio","failed_video","trial_type","trial_index","time_elapsed","internal_node_id","subject_id","study_id","session_id","view_history","rt","task","stimulus","response","correct","mouse_click","stim_duration","block_duration","timing_post_trial","current_position","tol_num_moves_made","tol_target","tol_problem_id","tol_rt","key_press","possible_responses","tol_correct","preplanning","tol_rt_per_trial","tol_min_moves","item","answer","spm_correct","spm_rt","fiar_detect_rt","fiar_detect_correct","total_correct_fiar_detect","post_trial_gap","choices"
"true","false","[]","[]","[]","preload","0","4169","0.0-0.0","5dd340e3e25acf34bf91032e","B2","batch2","","","","","","","","","","","","","","","","","","","","","","","","","","","","","",""
"true","","","","","fullscreen","1","16978","0.0-1.0-0.0","5dd340e3e25acf34bf91032e","B2","batch2","","","","","","","","","","","","","","","","","","","","","","","","","","","","","",""
"true","","","","","fullscreen","2","21579","0.0-2.0-0.0","5dd340e3e25acf34bf91032e","B2","batch2","","","","","","","","","","","","","","","","","","","","","","","","","","","","","",""
"","","","","","instructions","3","102161","0.0-2.0-1.0-0.0-0.0","5dd340e3e25acf34bf91032e","B2","batch2","[{""page_index"":0,""viewing_time"":14635.700000017881},{""page_index"":1,""viewing_time"":14447.699999988079},{""page_index"":2,""viewing_time"":7000.800000011921},{""page_index"":3,""viewing_time"":10679},{""page_index"":4,""viewing_time"":15576},{""page_index"":5,""viewing_time"":13480.699999988079},{""page_index"":6,""viewing_time"":4759.800000011921}]","80580","tol-instructions","","","","","","","","","","","","","","","","","","","","","","","","","","",""
"","","","","","html-button-response","4","103832","0.0-2.0-1.0-1.0-0.0","5dd340e3e25acf34bf91032e","B2","batch2","","1670.5999999940395","tol_enter_quiz","<p class=block-text> Let's answer a few questions <br>","0","","","","","","","","","","","","","","","","","","","","","","","","",""
"","","","","","html-button-response","5","112640","0.0-2.0-1.0-1.0-1.0","5dd340e3e25acf34bf91032e","B2","batch2","","8806.90000000596","tol_quiz","<p class = block-text>True or False: You can only move the ball on top of a peg. <br></p>","0","true","","","","","","","","","","","","","","","","","","","","","","","",""
"","","","","","html-button-response","6","115625","0.0-2.0-1.0-1.0-2.0","5dd340e3e25acf34bf91032e","B2","batch2","","2982.699999988079","tol_quiz_feedback","<p class = block-text>Correct! You can only move the ball on top of a peg.</p>","0","","","","","","","","","","","","","","","","","","","","","","","","",""
"","","","","","html-button-response","7","119337","0.0-2.0-1.0-1.0-3.0","5dd340e3e25acf34bf91032e","B2","batch2","","3710.9000000059605","tol_quiz","<p class = block-text>True or False: You should try to match your board with the target board with fewest moves possible. <br></p>","0","true","","","","","","","","","","","","","","","","","","","","","","","",""
"","","","","","html-button-response","8","120792","0.0-2.0-1.0-1.0-4.0","5dd340e3e25acf34bf91032e","B2","batch2","","1453.699999988079","tol_quiz_feedback","<p class = block-text>Correct! </p>","0","","","","","","","","","","","","","","","","","","","","","","","","",""
"","","","","","html-button-response","9","123369","0.0-2.0-2.0","5dd340e3e25acf34bf91032e","B2","batch2","","2575.199999988079","","<p class=block-text> Now that you've understood the game, let's practice a few easier examples before we start!<br> <br>","0","","","","","","","","","","","","","","","","","","","","","","","","",""
"","","","","","single-stim-button","10","142746","0.0-2.0-3.0-0.0","5dd340e3e25acf34bf91032e","B2","batch2","","19376","tol_practice","","","","tol_peg_2","19376","19376","0","[[1,2,0],[0,0],[0]]","1","[[1,2,0],[0,0],[3]]","practice","19376","","","","","","","","","","","","","","",""
"","","","","","single-stim-button","11","145682","0.0-2.0-3.0-1.0","5dd340e3e25acf34bf91032e","B2","batch2","","2934","tol_practice","","","","tol_peg_3","2934","2934","0","[[1,2,0],[0,0],[3]]","1","[[1,2,0],[0,0],[3]]","practice","2934","","","","","","","","","","","","","","",""
"","","","","","poldrack-single-stim","12","146690","0.0-2.0-4.0","5dd340e3e25acf34bf91032e","B2","batch2","","-1","tol_feedback","","","true","","1000","1000","500","","","","","","-1","none","true","","0","","","","","","","","","",""
"","","","","","single-stim-button","13","152840","0.0-2.0-5.0-0.0","5dd340e3e25acf34bf91032e","B2","batch2","","6149","tol_practice","","","","tol_peg_1","6149","6149","0","[[1,0,0],[3,0],[0]]","2","[[0,0,0],[3,1],[2]]","practice","6149","","","","","","","","","","","","","","",""
"","","","","","single-stim-button","14","154048","0.0-2.0-5.0-1.0","5dd340e3e25acf34bf91032e","B2","batch2","","1207","tol_practice","","","","tol_peg_3","1207","1207","0","[[1,0,0],[3,0],[2]]","2","[[0,0,0],[3,1],[2]]","practice","1207","","","","","","","","","","","","","","",""
"","","","","","single-stim-button","15","155521","0.0-2.0-5.1-0.1","5dd340e3e25acf34bf91032e","B2","batch2","","1471","tol_practice","","","","tol_peg_1","1471","1471","0","[[0,0,0],[3,0],[2]]","3","[[0,0,0],[3,1],[2]]","practice","1471","","","","","","","","","","","","","","",""
"","","","","","single-stim-button","16","156441","0.0-2.0-5.1-1.1","5dd340e3e25acf34bf91032e","B2","batch2","","920","tol_practice","","","","tol_peg_2","920","920","0","[[0,0,0],[3,1],[2]]","3","[[0,0,0],[3,1],[2]]","practice","920","","","","","","","","","","","","","","",""
"","","","","","poldrack-single-stim","17","157442","0.0-2.0-6.0","5dd340e3e25acf34bf91032e","B2","batch2","","-1","tol_feedback","","","true","","1000","1000","500","","","","","","-1","none","true","","0","","","","","","","","","",""
"","","","","","single-stim-button","18","162952","0.0-2.0-7.0-0.0","5dd340e3e25acf34bf91032e","B2","batch2","","5509","tol_practice","","","","tol_peg_2","5509","5509","0","[[1,2,0],[0,0],[0]]","4","[[1,0,0],[2,0],[3]]","practice","5509","","","","","","","","","","","","","","",""
"","","","","","single-stim-button","19","163848","0.0-2.0-7.0-1.0","5dd340e3e25acf34bf91032e","B2","batch2","","895","tol_practice","","","","tol_peg_3","895","895","0","[[1,2,0],[0,0],[3]]","4","[[1,0,0],[2,0],[3]]","practice","895","","","","","","","","","","","","","","",""
"","","","","","single-stim-button","20","165080","0.0-2.0-7.1-0.1","5dd340e3e25acf34bf91032e","B2","batch2","","1231","tol_practice","","","","tol_peg_1","1231","1231","0","[[1,0,0],[0,0],[3]]","5","[[1,0,0],[2,0],[3]]","practice","1231","","","","","","","","","","","","","","",""
"","","","","","single-stim-button","21","166689","0.0-2.0-7.1-1.1","5dd340e3e25acf34bf91032e","B2","batch2","","1607","tol_practice","","","","tol_peg_2","1607","1607","0","[[1,0,0],[2,0],[3]]","5","[[1,0,0],[2,0],[3]]","practice","1607","","","","","","","","","","","","","","",""
"","","","","","poldrack-single-stim","22","167697","0.0-2.0-8.0","5dd340e3e25acf34bf91032e","B2","batch2","","-1","tol_feedback","","","true","","1000","1000","500","","","","","","-1","none","true","","0","","","","","","","","","",""
"","","","","","html-button-response","23","171392","0.0-2.0-9.0","5dd340e3e25acf34bf91032e","B2","batch2","","3694","tol_instruction","<div class = centerbox><p class = center-block-text>Great job! You are done with practice trials<br>You are about to start official trials.<br> <br> Problem <strong>1</strong> out of 25 problems</p></div>","0","","","","","","","","","","","","","","","","","","","","","","","","",""
"","","","","","single-stim-button","24","184056","0.0-2.0-10.0-0.0","5dd340e3e25acf34bf91032e","B2","batch2","","11663","tol_tohand","","","","tol_peg_2","11663","11663","0","[[1,2,0],[0,0],[0]]","1","[[1,3,0],[2,0],[0]]","0","0","","","","","","3","","","","","","","","",""
"","","","","","single-stim-button","25","186241","0.0-2.0-10.0-1.0","5dd340e3e25acf34bf91032e","B2","batch2","","2183","tol_toboard","","","","tol_peg_3","2183","2183","0","[[1,2,0],[0,0],[3]]","1","[[1,3,0],[2,0],[0]]","0","0","","","","","","3","","","","","","","","",""
"","","","","","single-stim-button","26","188369","0.0-2.0-10.1-0.1","5dd340e3e25acf34bf91032e","B2","batch2","","2127","tol_tohand","","","","tol_peg_1","2127","2127","0","[[1,0,0],[0,0],[3]]","2","[[1,3,0],[2,0],[0]]","0","0","","","","","","3","","","","","","","","",""
"","","","","","single-stim-button","27","189224","0.0-2.0-10.1-1.1","5dd340e3e25acf34bf91032e","B2","batch2","","855","tol_toboard","","","","tol_peg_2","855","855","0","[[1,0,0],[2,0],[3]]","2","[[1,3,0],[2,0],[0]]","0","0","","","","","","3","","","","","","","","",""
"","","","","","single-stim-button","28","190565","0.0-2.0-10.2-0.2","5dd340e3e25acf34bf91032e","B2","batch2","","1340","tol_tohand","","","","tol_peg_3","1340","1340","0","[[1,0,0],[2,0],[0]]","3","[[1,3,0],[2,0],[0]]","0","0","","","","","","3","","","","","","","","",""
"","","","","","single-stim-button","29","192160","0.0-2.0-10.2-1.2","5dd340e3e25acf34bf91032e","B2","batch2","","1594","tol_toboard","","","","tol_peg_1","1594","1594","0","[[1,3,0],[2,0],[0]]","3","[[1,3,0],[2,0],[0]]","0","0","","","","","","3","","","","","","","","",""
"","","","","","poldrack-single-stim","30","193163","0.0-2.0-11.0","5dd340e3e25acf34bf91032e","B2","batch2","","-1","tol_feedback","","","true","","1000","1000","500","","","","","","-1","none","true","11663","15130","","","","","","","","","",""
"","","","","","html-button-response","31","195183","0.0-2.0-12.0","5dd340e3e25acf34bf91032e","B2","batch2","","2020","tol_trial_num","<div class = centerbox><p class = center-block-text>problem <strong>2</strong> out of 25 problems</p></div>","0","","","","","","","","","","","","","","","","","","","","","","","","",""
"","","","","","single-stim-button","32","208113","0.0-2.0-13.0-0.0","5dd340e3e25acf34bf91032e","B2","batch2","","12928","tol_tohand","","","","tol_peg_1","12928","12928","0","[[1,0,0],[3,0],[0]]","1","[[2,1,3],[0,0],[0]]","1","0","","","","","","5","","","","","","","","",""
"","","","","","single-stim-button","33","209088","0.0-2.0-13.0-1.0","5dd340e3e25acf34bf91032e","B2","batch2","","975","tol_toboard","","","","tol_peg_3","975","975","0","[[1,0,0],[3,0],[2]]","1","[[2,1,3],[0,0],[0]]","1","0","","","","","","5","","","","","","","","",""
"","","","","","single-stim-button","34","209960","0.0-2.0-13.1-0.1","5dd340e3e25acf34bf91032e","B2","batch2","","871","tol_tohand","","","","tol_peg_1","871","871","0","[[0,0,0],[3,0],[2]]","2","[[2,1,3],[0,0],[0]]","1","0","","","","","","5","","","","","","","","",""
"","","","","","single-stim-button","35","210928","0.0-2.0-13.1-1.1","5dd340e3e25acf34bf91032e","B2","batch2","","967","tol_toboard","","","","tol_peg_2","967","967","0","[[0,0,0],[3,1],[2]]","2","[[2,1,3],[0,0],[0]]","1","0","","","","","","5","","","","","","","","",""
"","","","","","single-stim-button","36","216872","0.0-2.0-13.2-0.2","5dd340e3e25acf34bf91032e","B2","batch2","","5943","tol_tohand","","","","tol_peg_3","5943","5943","0","[[0,0,0],[3,1],[0]]","3","[[2,1,3],[0,0],[0]]","1","0","","","","","","5","","","","","","","","",""
"","","","","","single-stim-button","37","217912","0.0-2.0-13.2-1.2","5dd340e3e25acf34bf91032e","B2","batch2","","1038","tol_toboard","","","","tol_peg_1","1038","1038","0","[[2,0,0],[3,1],[0]]","3","[[2,1,3],[0,0],[0]]","1","0","","","","","","5","","","","","","","","",""
"","","","","","single-stim-button","38","219360","0.0-2.0-13.3-0.3","5dd340e3e25acf34bf91032e","B2","batch2","","1448","tol_tohand","","","","tol_peg_2","1448","1448","0","[[2,0,0],[3,0],[0]]","4","[[2,1,3],[0,0],[0]]","1","0","","","","","","5","","","","","","","","",""
"","","","","","single-stim-button","39","220208","0.0-2.0-13.3-1.3","5dd340e3e25acf34bf91032e","B2","batch2","","847","tol_toboard","","","","tol_peg_3","847","847","0","[[2,0,0],[3,0],[1]]","4","[[2,1,3],[0,0],[0]]","1","0","","","","","","5","","","","","","","","",""
"","","","","","single-stim-button","40","221089","0.0-2.0-13.4-0.4","5dd340e3e25acf34bf91032e","B2","batch2","","880","tol_tohand","","","","tol_peg_2","880","880","0","[[2,0,0],[0,0],[1]]","5","[[2,1,3],[0,0],[0]]","1","0","","","","","","5","","","","","","","","",""
"","","","","","single-stim-button","41","222096","0.0-2.0-13.4-1.4","5dd340e3e25acf34bf91032e","B2","batch2","","1006","tol_toboard","","","","tol_peg_1","1006","1006","0","[[2,3,0],[0,0],[1]]","5","[[2,1,3],[0,0],[0]]","1","0","","","","","","5","","","","","","","","",""
"","","","","","single-stim-button","42","224673","0.0-2.0-13.5-0.5","5dd340e3e25acf34bf91032e","B2","batch2","","2576","tol_tohand","","","","tol_peg_1","2576","2576","0","[[2,0,0],[0,0],[1]]","6","[[2,1,3],[0,0],[0]]","1","0","","","","","","5","","","","","","","","",""
"","","","","","single-stim-button","43","225393","0.0-2.0-13.5-1.5","5dd340e3e25acf34bf91032e","B2","batch2","","719","tol_toboard","","","","tol_peg_2","719","719","0","[[2,0,0],[3,0],[1]]","6","[[2,1,3],[0,0],[0]]","1","0","","","","","","5","","","","","","","","",""
"","","","","","single-stim-button","44","227025","0.0-2.0-13.6-0.6","5dd340e3e25acf34bf91032e","B2","batch2","","1631","tol_tohand","","","","tol_peg_3","1631","1631","0","[[2,0,0],[3,0],[0]]","7","[[2,1,3],[0,0],[0]]","1","0","","","","","","5","","","","","","","","",""
"","","","","","single-stim-button","45","228272","0.0-2.0-13.6-1.6","5dd340e3e25acf34bf91032e","B2","batch2","","1247","tol_toboard","","","","tol_peg_1","1247","1247","0","[[2,1,0],[3,0],[0]]","7","[[2,1,3],[0,0],[0]]","1","0","","","","","","5","","","","","","","","",""
"","","","","","single-stim-button","46","229170","0.0-2.0-13.7-0.7","5dd340e3e25acf34bf91032e","B2","batch2","","896","tol_tohand","","","","tol_peg_2","896","896","0","[[2,1,0],[0,0],[0]]","8","[[2,1,3],[0,0],[0]]","1","0","","","","","","5","","","","","","","","",""
"","","","","","single-stim-button","47","230408","0.0-2.0-13.7-1.7","5dd340e3e25acf34bf91032e","B2","batch2","","1237","tol_toboard","","","","tol_peg_1","1237","1237","0","[[2,1,3],[0,0],[0]]","8","[[2,1,3],[0,0],[0]]","1","0","","","","","","5","","","","","","","","",""
"","","","","","poldrack-single-stim","48","231422","0.0-2.0-14.0","5dd340e3e25acf34bf91032e","B2","batch2","","-1","tol_feedback","","","true","","1000","1000","500","","","","","","-1","none","true","12928","27173","","","","","","","","","",""
"","","","","","html-button-response","49","232768","0.0-2.0-15.0","5dd340e3e25acf34bf91032e","B2","batch2","","1345.0999999940395","tol_trial_num","<div class = centerbox><p class = center-block-text>problem <strong>3</strong> out of 25 problems</p></div>","0","","","","","","","","","","","","","","","","","","","","","","","","",""
"","","","","","single-stim-button","50","244513","0.0-2.0-16.0-0.0","5dd340e3e25acf34bf91032e","B2","batch2","","11744","tol_tohand","","","","tol_peg_1","11744","11744","0","[[2,0,0],[0,0],[1]]","1","[[1,2,0],[3,0],[0]]","2","0","","","","","","4","","","","","","","","",""
"","","","","","single-stim-button","51","245417","0.0-2.0-16.0-1.0","5dd340e3e25acf34bf91032e","B2","batch2","","903","tol_toboard","","","","tol_peg_2","903","903","0","[[2,0,0],[3,0],[1]]","1","[[1,2,0],[3,0],[0]]","2","0","","","","","","4","","","","","","","","",""
"","","","","","single-stim-button","52","250384","0.0-2.0-16.1-0.1","5dd340e3e25acf34bf91032e","B2","batch2","","4967","tol_tohand","","","","tol_peg_1","4967","4967","0","[[0,0,0],[3,0],[1]]","2","[[1,2,0],[3,0],[0]]","2","0","","","","","","4","","","","","","","","",""
"","","","","","single-stim-button","53","251313","0.0-2.0-16.1-1.1","5dd340e3e25acf34bf91032e","B2","batch2","","928","tol_toboard","","","","tol_peg_2","928","928","0","[[0,0,0],[3,2],[1]]","2","[[1,2,0],[3,0],[0]]","2","0","","","","","","4","","","","","","","","",""
"","","","","","single-stim-button","54","251905","0.0-2.0-16.2-0.2","5dd340e3e25acf34bf91032e","B2","batch2","","592","tol_tohand","","","","tol_peg_3","592","592","0","[[0,0,0],[3,2],[0]]","3","[[1,2,0],[3,0],[0]]","2","0","","","","","","4","","","","","","","","",""
"","","","","","single-stim-button","55","252697","0.0-2.0-16.2-1.2","5dd340e3e25acf34bf91032e","B2","batch2","","791","tol_toboard","","","","tol_peg_1","791","791","0","[[1,0,0],[3,2],[0]]","3","[[1,2,0],[3,0],[0]]","2","0","","","","","","4","","","","","","","","",""
"","","","","","single-stim-button","56","253418","0.0-2.0-16.3-0.3","5dd340e3e25acf34bf91032e","B2","batch2","","720","tol_tohand","","","","tol_peg_2","720","720","0","[[1,0,0],[3,0],[0]]","4","[[1,2,0],[3,0],[0]]","2","0","","","","","","4","","","","","","","","",""
"","","","","","single-stim-button","57","254337","0.0-2.0-16.3-1.3","5dd340e3e25acf34bf91032e","B2","batch2","","918","tol_toboard","","","","tol_peg_1","918","918","0","[[1,2,0],[3,0],[0]]","4","[[1,2,0],[3,0],[0]]","2","0","","","","","","4","","","","","","","","",""
"","","","","","poldrack-single-stim","58","255346","0.0-2.0-17.0","5dd340e3e25acf34bf91032e","B2","batch2","","-1","tol_feedback","","","true","","1000","1000","500","","","","","","-1","none","true","11744","18023","","","","","","","","","",""
"","","","","","html-button-response","59","256889","0.0-2.0-18.0","5dd340e3e25acf34bf91032e","B2","batch2","","1541.5999999940395","tol_trial_num","<div class = centerbox><p class = center-block-text>problem <strong>4</strong> out of 25 problems</p></div>","0","","","","","","","","","","","","","","","","","","","","","","","","",""
"","","","","","single-stim-button","60","263208","0.0-2.0-19.0-0.0","5dd340e3e25acf34bf91032e","B2","batch2","","6318","tol_tohand","","","","tol_peg_2","6318","6318","0","[[3,0,0],[2,0],[0]]","1","[[3,0,0],[1,0],[2]]","3","0","","","","","","3","","","","","","","","",""
"","","","","","single-stim-button","61","264112","0.0-2.0-19.0-1.0","5dd340e3e25acf34bf91032e","B2","batch2","","903","tol_toboard","","","","tol_peg_1","903","903","0","[[3,1,0],[2,0],[0]]","1","[[3,0,0],[1,0],[2]]","3","0","","","","","","3","","","","","","","","",""
"","","","","","single-stim-button","62","264825","0.0-2.0-19.1-0.1","5dd340e3e25acf34bf91032e","B2","batch2","","713","tol_tohand","","","","tol_peg_2","713","713","0","[[3,1,0],[0,0],[0]]","2","[[3,0,0],[1,0],[2]]","3","0","","","","","","3","","","","","","","","",""
"","","","","","single-stim-button","63","265481","0.0-2.0-19.1-1.1","5dd340e3e25acf34bf91032e","B2","batch2","","655","tol_toboard","","","","tol_peg_3","655","655","0","[[3,1,0],[0,0],[2]]","2","[[3,0,0],[1,0],[2]]","3","0","","","","","","3","","","","","","","","",""
"","","","","","single-stim-button","64","266809","0.0-2.0-19.2-0.2","5dd340e3e25acf34bf91032e","B2","batch2","","1327","tol_tohand","","","","tol_peg_1","1327","1327","0","[[3,0,0],[0,0],[2]]","3","[[3,0,0],[1,0],[2]]","3","0","","","","","","3","","","","","","","","",""
"","","","","","single-stim-button","65","267616","0.0-2.0-19.2-1.2","5dd340e3e25acf34bf91032e","B2","batch2","","807","tol_toboard","","","","tol_peg_2","807","807","0","[[3,0,0],[1,0],[2]]","3","[[3,0,0],[1,0],[2]]","3","0","","","","","","3","","","","","","","","",""
"","","","","","poldrack-single-stim","66","268618","0.0-2.0-20.0","5dd340e3e25acf34bf91032e","B2","batch2","","-1","tol_feedback","","","true","","1000","1000","500","","","","","","-1","none","true","6318","8358","","","","","","","","","",""
"","","","","","html-button-response","67","270016","0.0-2.0-21.0","5dd340e3e25acf34bf91032e","B2","batch2","","1397.800000011921","tol_trial_num","<div class = centerbox><p class = center-block-text>problem <strong>5</strong> out of 25 problems</p></div>","0","","","","","","","","","","","","","","","","","","","","","","","","",""
"","","","","","single-stim-button","68","284441","0.0-2.0-22.0-0.0","5dd340e3e25acf34bf91032e","B2","batch2","","14423","tol_tohand","","","","tol_peg_3","14423","14423","0","[[1,0,0],[2,0],[0]]","1","[[0,0,0],[1,2],[3]]","4","0","","","","","","7","","","","","","","","",""
"","","","","","single-stim-button","69","285785","0.0-2.0-22.0-1.0","5dd340e3e25acf34bf91032e","B2","batch2","","1343","tol_toboard","","","","tol_peg_1","1343","1343","0","[[1,3,0],[2,0],[0]]","1","[[0,0,0],[1,2],[3]]","4","0","","","","","","7","","","","","","","","",""
"","","","","","single-stim-button","70","287441","0.0-2.0-22.1-0.1","5dd340e3e25acf34bf91032e","B2","batch2","","1655","tol_tohand","","","","tol_peg_2","1655","1655","0","[[1,3,0],[0,0],[0]]","2","[[0,0,0],[1,2],[3]]","4","0","","","","","","7","","","","","","","","",""
"","","","","","single-stim-button","71","288584","0.0-2.0-22.1-1.1","5dd340e3e25acf34bf91032e","B2","batch2","","1143","tol_toboard","","","","tol_peg_3","1143","1143","0","[[1,3,0],[0,0],[2]]","2","[[0,0,0],[1,2],[3]]","4","0","","","","","","7","","","","","","","","",""
"","","","","","single-stim-button","72","293448","0.0-2.0-22.2-0.2","5dd340e3e25acf34bf91032e","B2","batch2","","4863","tol_tohand","","","","tol_peg_1","4863","4863","0","[[1,0,0],[0,0],[2]]","3","[[0,0,0],[1,2],[3]]","4","0","","","","","","7","","","","","","","","",""
"","","","","","single-stim-button","73","303297","0.0-2.0-22.2-1.2","5dd340e3e25acf34bf91032e","B2","batch2","","9848","tol_toboard","","","","tol_peg_1","9848","9848","0","[[1,3,0],[0,0],[2]]","3","[[0,0,0],[1,2],[3]]","4","0","","","","","","7","","","","","","","","",""
"","","","","","single-stim-button","74","310746","0.0-2.0-22.3-0.3","5dd340e3e25acf34bf91032e","B2","batch2","","7448","tol_tohand","","","","tol_peg_1","7448","7448","0","[[1,0,0],[0,0],[2]]","4","[[0,0,0],[1,2],[3]]","4","0","","","","","","7","","","","","","","","",""
"","","","","","single-stim-button","75","311328","0.0-2.0-22.3-1.3","5dd340e3e25acf34bf91032e","B2","batch2","","582","tol_toboard","","","","tol_peg_2","582","582","0","[[1,0,0],[3,0],[2]]","4","[[0,0,0],[1,2],[3]]","4","0","","","","","","7","","","","","","","","",""
"","","","","","single-stim-button","76","312128","0.0-2.0-22.4-0.4","5dd340e3e25acf34bf91032e","B2","batch2","","799","tol_tohand","","","","tol_peg_1","799","799","0","[[0,0,0],[3,0],[2]]","5","[[0,0,0],[1,2],[3]]","4","0","","","","","","7","","","","","","","","",""
"","","","","","single-stim-button","77","315376","0.0-2.0-22.4-1.4","5dd340e3e25acf34bf91032e","B2","batch2","","3247","tol_toboard","","","","tol_peg_2","3247","3247","0","[[0,0,0],[3,1],[2]]","5","[[0,0,0],[1,2],[3]]","4","0","","","","","","7","","","","","","","","",""
"","","","","","single-stim-button","78","316328","0.0-2.0-22.5-0.5","5dd340e3e25acf34bf91032e","B2","batch2","","951","tol_tohand","","","","tol_peg_3","951","951","0","[[0,0,0],[3,1],[0]]","6","[[0,0,0],[1,2],[3]]","4","0","","","","","","7","","","","","","","","",""
"","","","","","single-stim-button","79","317753","0.0-2.0-22.5-1.5","5dd340e3e25acf34bf91032e","B2","batch2","","1424","tol_toboard","","","","tol_peg_1","1424","1424","0","[[2,0,0],[3,1],[0]]","6","[[0,0,0],[1,2],[3]]","4","0","","","","","","7","","","","","","","","",""
"","","","","","single-stim-button","80","318488","0.0-2.0-22.6-0.6","5dd340e3e25acf34bf91032e","B2","batch2","","735","tol_tohand","","","","tol_peg_2","735","735","0","[[2,0,0],[3,0],[0]]","7","[[0,0,0],[1,2],[3]]","4","0","","","","","","7","","","","","","","","",""
"","","","","","single-stim-button","81","319209","0.0-2.0-22.6-1.6","5dd340e3e25acf34bf91032e","B2","batch2","","720","tol_toboard","","","","tol_peg_3","720","720","0","[[2,0,0],[3,0],[1]]","7","[[0,0,0],[1,2],[3]]","4","0","","","","","","7","","","","","","","","",""
"","","","","","single-stim-button","82","320089","0.0-2.0-22.7-0.7","5dd340e3e25acf34bf91032e","B2","batch2","","879","tol_tohand","","","","tol_peg_2","879","879","0","[[2,0,0],[0,0],[1]]","8","[[0,0,0],[1,2],[3]]","4","0","","","","","","7","","","","","","","","",""
"","","","","","single-stim-button","83","321169","0.0-2.0-22.7-1.7","5dd340e3e25acf34bf91032e","B2","batch2","","1080","tol_toboard","","","","tol_peg_1","1080","1080","0","[[2,3,0],[0,0],[1]]","8","[[0,0,0],[1,2],[3]]","4","0","","","","","","7","","","","","","","","",""
"","","","","","single-stim-button","84","322144","0.0-2.0-22.8-0.8","5dd340e3e25acf34bf91032e","B2","batch2","","974","tol_tohand","","","","tol_peg_3","974","974","0","[[2,3,0],[0,0],[0]]","9","[[0,0,0],[1,2],[3]]","4","0","","","","","","7","","","","","","","","",""
"","","","","","single-stim-button","85","323233","0.0-2.0-22.8-1.8","5dd340e3e25acf34bf91032e","B2","batch2","","1088","tol_toboard","","","","tol_peg_2","1088","1088","0","[[2,3,0],[1,0],[0]]","9","[[0,0,0],[1,2],[3]]","4","0","","","","","","7","","","","","","","","",""
"","","","","","single-stim-button","86","323993","0.0-2.0-22.9-0.9","5dd340e3e25acf34bf91032e","B2","batch2","","759","tol_tohand","","","","tol_peg_1","759","759","0","[[2,0,0],[1,0],[0]]","10","[[0,0,0],[1,2],[3]]","4","0","","","","","","7","","","","","","","","",""
"","","","","","single-stim-button","87","325360","0.0-2.0-22.9-1.9","5dd340e3e25acf34bf91032e","B2","batch2","","1367","tol_toboard","","","","tol_peg_3","1367","1367","0","[[2,0,0],[1,0],[3]]","10","[[0,0,0],[1,2],[3]]","4","0","","","","","","7","","","","","","","","",""
"","","","","","single-stim-button","88","326321","0.0-2.0-22.10-0.10","5dd340e3e25acf34bf91032e","B2","batch2","","959","tol_tohand","","","","tol_peg_1","959","959","0","[[0,0,0],[1,0],[3]]","11","[[0,0,0],[1,2],[3]]","4","0","","","","","","7","","","","","","","","",""
"","","","","","single-stim-button","89","327624","0.0-2.0-22.10-1.10","5dd340e3e25acf34bf91032e","B2","batch2","","1303","tol_toboard","","","","tol_peg_2","1303","1303","0","[[0,0,0],[1,2],[3]]","11","[[0,0,0],[1,2],[3]]","4","0","","","","","","7","","","","","","","","",""
"","","","","","poldrack-single-stim","90","328638","0.0-2.0-23.0","5dd340e3e25acf34bf91032e","B2","batch2","","-1","tol_feedback","","","true","","1000","1000","500","","","","","","-1","none","true","14423","34445","","","","","","","","","",""
"","","","","","html-button-response","91","329912","0.0-2.0-24.0","5dd340e3e25acf34bf91032e","B2","batch2","","1272.9000000059605","tol_trial_num","<div class = centerbox><p class = center-block-text>problem <strong>6</strong> out of 25 problems</p></div>","0","","","","","","","","","","","","","","","","","","","","","","","","",""
"","","","","","single-stim-button","92","336880","0.0-2.0-25.0-0.0","5dd340e3e25acf34bf91032e","B2","batch2","","6967","tol_tohand","","","","tol_peg_3","6967","6967","0","[[0,0,0],[1,2],[0]]","1","[[1,0,0],[2,3],[0]]","5","0","","","","","","6","","","","","","","","",""
"","","","","","single-stim-button","93","339097","0.0-2.0-25.0-1.0","5dd340e3e25acf34bf91032e","B2","batch2","","2216","tol_toboard","","","","tol_peg_1","2216","2216","0","[[3,0,0],[1,2],[0]]","1","[[1,0,0],[2,3],[0]]","5","0","","","","","","6","","","","","","","","",""
"","","","","","single-stim-button","94","340729","0.0-2.0-25.1-0.1","5dd340e3e25acf34bf91032e","B2","batch2","","1631","tol_tohand","","","","tol_peg_2","1631","1631","0","[[3,0,0],[1,0],[0]]","2","[[1,0,0],[2,3],[0]]","5","0","","","","","","6","","","","","","","","",""
"","","","","","single-stim-button","95","341681","0.0-2.0-25.1-1.1","5dd340e3e25acf34bf91032e","B2","batch2","","950","tol_toboard","","","","tol_peg_1","950","950","0","[[3,2,0],[1,0],[0]]","2","[[1,0,0],[2,3],[0]]","5","0","","","","","","6","","","","","","","","",""
"","","","","","single-stim-button","96","342305","0.0-2.0-25.2-0.2","5dd340e3e25acf34bf91032e","B2","batch2","","624","tol_tohand","","","","tol_peg_2","624","624","0","[[3,2,0],[0,0],[0]]","3","[[1,0,0],[2,3],[0]]","5","0","","","","","","6","","","","","","","","",""
"","","","","","single-stim-button","97","342873","0.0-2.0-25.2-1.2","5dd340e3e25acf34bf91032e","B2","batch2","","567","tol_toboard","","","","tol_peg_3","567","567","0","[[3,2,0],[0,0],[1]]","3","[[1,0,0],[2,3],[0]]","5","0","","","","","","6","","","","","","","","",""
"","","","","","single-stim-button","98","343489","0.0-2.0-25.3-0.3","5dd340e3e25acf34bf91032e","B2","batch2","","615","tol_tohand","","","","tol_peg_1","615","615","0","[[3,0,0],[0,0],[1]]","4","[[1,0,0],[2,3],[0]]","5","0","","","","","","6","","","","","","","","",""
"","","","","","single-stim-button","99","344505","0.0-2.0-25.3-1.3","5dd340e3e25acf34bf91032e","B2","batch2","","1016","tol_toboard","","","","tol_peg_2","1016","1016","0","[[3,0,0],[2,0],[1]]","4","[[1,0,0],[2,3],[0]]","5","0","","","","","","6","","","","","","","","",""
"","","","","","single-stim-button","100","345377","0.0-2.0-25.4-0.4","5dd340e3e25acf34bf91032e","B2","batch2","","871","tol_tohand","","","","tol_peg_1","871","871","0","[[0,0,0],[2,0],[1]]","5","[[1,0,0],[2,3],[0]]","5","0","","","","","","6","","","","","","","","",""
"","","","","","single-stim-button","101","348225","0.0-2.0-25.4-1.4","5dd340e3e25acf34bf91032e","B2","batch2","","2848","tol_toboard","","","","tol_peg_2","2848","2848","0","[[0,0,0],[2,3],[1]]","5","[[1,0,0],[2,3],[0]]","5","0","","","","","","6","","","","","","","","",""
"","","","","","single-stim-button","102","349289","0.0-2.0-25.5-0.5","5dd340e3e25acf34bf91032e","B2","batch2","","1063","tol_tohand","","","","tol_peg_3","1063","1063","0","[[0,0,0],[2,3],[0]]","6","[[1,0,0],[2,3],[0]]","5","0","","","","","","6","","","","","","","","",""
"","","","","","single-stim-button","103","350241","0.0-2.0-25.5-1.5","5dd340e3e25acf34bf91032e","B2","batch2","","952","tol_toboard","","","","tol_peg_1","952","952","0","[[1,0,0],[2,3],[0]]","6","[[1,0,0],[2,3],[0]]","5","0","","","","","","6","","","","","","","","",""
"","","","","","poldrack-single-stim","104","351248","0.0-2.0-26.0","5dd340e3e25acf34bf91032e","B2","batch2","","-1","tol_feedback","","","true","","1000","1000","500","","","","","","-1","none","true","6967","11771","","","","","","","","","",""
"","","","","","html-button-response","105","352648","0.0-2.0-27.0","5dd340e3e25acf34bf91032e","B2","batch2","","1399.4000000059605","tol_trial_num","<div class = centerbox><p class = center-block-text>problem <strong>7</strong> out of 25 problems</p></div>","0","","","","","","","","","","","","","","","","","","","","","","","","",""
"","","","","","single-stim-button","106","361857","0.0-2.0-28.0-0.0","5dd340e3e25acf34bf91032e","B2","batch2","","9207","tol_tohand","","","","tol_peg_3","9207","9207","0","[[2,1,0],[0,0],[0]]","1","[[1,2,0],[3,0],[0]]","6","0","","","","","","5","","","","","","","","",""
"","","","","","single-stim-button","107","362937","0.0-2.0-28.0-1.0","5dd340e3e25acf34bf91032e","B2","batch2","","1080","tol_toboard","","","","tol_peg_2","1080","1080","0","[[2,1,0],[3,0],[0]]","1","[[1,2,0],[3,0],[0]]","6","0","","","","","","5","","","","","","","","",""
"","","","","","single-stim-button","108","364368","0.0-2.0-28.1-0.1","5dd340e3e25acf34bf91032e","B2","batch2","","1430","tol_tohand","","","","tol_peg_1","1430","1430","0","[[2,0,0],[3,0],[0]]","2","[[1,2,0],[3,0],[0]]","6","0","","","","","","5","","","","","","","","",""
"","","","","","single-stim-button","109","365425","0.0-2.0-28.1-1.1","5dd340e3e25acf34bf91032e","B2","batch2","","1056","tol_toboard","","","","tol_peg_3","1056","1056","0","[[2,0,0],[3,0],[1]]","2","[[1,2,0],[3,0],[0]]","6","0","","","","","","5","","","","","","","","",""
"","","","","","single-stim-button","110","366442","0.0-2.0-28.2-0.2","5dd340e3e25acf34bf91032e","B2","batch2","","1015","tol_tohand","","","","tol_peg_1","1015","1015","0","[[0,0,0],[3,0],[1]]","3","[[1,2,0],[3,0],[0]]","6","0","","","","","","5","","","","","","","","",""
"","","","","","single-stim-button","111","367225","0.0-2.0-28.2-1.2","5dd340e3e25acf34bf91032e","B2","batch2","","783","tol_toboard","","","","tol_peg_2","783","783","0","[[0,0,0],[3,2],[1]]","3","[[1,2,0],[3,0],[0]]","6","0","","","","","","5","","","","","","","","",""
"","","","","","single-stim-button","112","368096","0.0-2.0-28.3-0.3","5dd340e3e25acf34bf91032e","B2","batch2","","871","tol_tohand","","","","tol_peg_3","871","871","0","[[0,0,0],[3,2],[0]]","4","[[1,2,0],[3,0],[0]]","6","0","","","","","","5","","","","","","","","",""
"","","","","","single-stim-button","113","368905","0.0-2.0-28.3-1.3","5dd340e3e25acf34bf91032e","B2","batch2","","809","tol_toboard","","","","tol_peg_1","809","809","0","[[1,0,0],[3,2],[0]]","4","[[1,2,0],[3,0],[0]]","6","0","","","","","","5","","","","","","","","",""
"","","","","","single-stim-button","114","369626","0.0-2.0-28.4-0.4","5dd340e3e25acf34bf91032e","B2","batch2","","720","tol_tohand","","","","tol_peg_2","720","720","0","[[1,0,0],[3,0],[0]]","5","[[1,2,0],[3,0],[0]]","6","0","","","","","","5","","","","","","","","",""
"","","","","","single-stim-button","115","370649","0.0-2.0-28.4-1.4","5dd340e3e25acf34bf91032e","B2","batch2","","1023","tol_toboard","","","","tol_peg_1","1023","1023","0","[[1,2,0],[3,0],[0]]","5","[[1,2,0],[3,0],[0]]","6","0","","","","","","5","","","","","","","","",""
"","","","","","poldrack-single-stim","116","371663","0.0-2.0-29.0","5dd340e3e25acf34bf91032e","B2","batch2","","-1","tol_feedback","","","true","","1000","1000","500","","","","","","-1","none","true","9207","13243","","","","","","","","","",""
"","","","","","html-button-response","117","373320","0.0-2.0-30.0","5dd340e3e25acf34bf91032e","B2","batch2","","1655.5","tol_trial_num","<div class = centerbox><p class = center-block-text>problem <strong>8</strong> out of 25 problems</p></div>","0","","","","","","","","","","","","","","","","","","","","","","","","",""
"","","","","","single-stim-button","118","381336","0.0-2.0-31.0-0.0","5dd340e3e25acf34bf91032e","B2","batch2","","8016","tol_tohand","","","","tol_peg_3","8016","8016","0","[[0,0,0],[2,3],[0]]","1","[[1,2,0],[3,0],[0]]","7","0","","","","","","4","","","","","","","","",""
"","","","","","single-stim-button","119","382601","0.0-2.0-31.0-1.0","5dd340e3e25acf34bf91032e","B2","batch2","","1263","tol_toboard","","","","tol_peg_1","1263","1263","0","[[1,0,0],[2,3],[0]]","1","[[1,2,0],[3,0],[0]]","7","0","","","","","","4","","","","","","","","",""
"","","","","","single-stim-button","120","383329","0.0-2.0-31.1-0.1","5dd340e3e25acf34bf91032e","B2","batch2","","728","tol_tohand","","","","tol_peg_2","728","728","0","[[1,0,0],[2,0],[0]]","2","[[1,2,0],[3,0],[0]]","7","0","","","","","","4","","","","","","","","",""
"","","","","","single-stim-button","121","384017","0.0-2.0-31.1-1.1","5dd340e3e25acf34bf91032e","B2","batch2","","687","tol_toboard","","","","tol_peg_3","687","687","0","[[1,0,0],[2,0],[3]]","2","[[1,2,0],[3,0],[0]]","7","0","","","","","","4","","","","","","","","",""
"","","","","","single-stim-button","122","384537","0.0-2.0-31.2-0.2","5dd340e3e25acf34bf91032e","B2","batch2","","520","tol_tohand","","","","tol_peg_2","520","520","0","[[1,0,0],[0,0],[3]]","3","[[1,2,0],[3,0],[0]]","7","0","","","","","","4","","","","","","","","",""
"","","","","","single-stim-button","123","385776","0.0-2.0-31.2-1.2","5dd340e3e25acf34bf91032e","B2","batch2","","1239","tol_toboard","","","","tol_peg_1","1239","1239","0","[[1,2,0],[0,0],[3]]","3","[[1,2,0],[3,0],[0]]","7","0","","","","","","4","","","","","","","","",""
"","","","","","single-stim-button","124","386313","0.0-2.0-31.3-0.3","5dd340e3e25acf34bf91032e","B2","batch2","","536","tol_tohand","","","","tol_peg_3","536","536","0","[[1,2,0],[0,0],[0]]","4","[[1,2,0],[3,0],[0]]","7","0","","","","","","4","","","","","","","","",""
"","","","","","single-stim-button","125","387281","0.0-2.0-31.3-1.3","5dd340e3e25acf34bf91032e","B2","batch2","","966","tol_toboard","","","","tol_peg_2","966","966","0","[[1,2,0],[3,0],[0]]","4","[[1,2,0],[3,0],[0]]","7","0","","","","","","4","","","","","","","","",""
"","","","","","poldrack-single-stim","126","388292","0.0-2.0-32.0","5dd340e3e25acf34bf91032e","B2","batch2","","-1","tol_feedback","","","true","","1000","1000","500","","","","","","-1","none","true","8016","9800","","","","","","","","","",""
"","","","","","html-button-response","127","389784","0.0-2.0-33.0","5dd340e3e25acf34bf91032e","B2","batch2","","1491.5","tol_trial_num","<div class = centerbox><p class = center-block-text>problem <strong>9</strong> out of 25 problems</p></div>","0","","","","","","","","","","","","","","","","","","","","","","","","",""
"","","","","","single-stim-button","128","411345","0.0-2.0-34.0-0.0","5dd340e3e25acf34bf91032e","B2","batch2","","21559","tol_tohand","","","","tol_peg_3","21559","21559","0","[[3,2,0],[0,0],[0]]","1","[[2,1,0],[3,0],[0]]","8","0","","","","","","6","","","","","","","","",""
"","","","","","single-stim-button","129","412816","0.0-2.0-34.0-1.0","5dd340e3e25acf34bf91032e","B2","batch2","","1471","tol_toboard","","","","tol_peg_2","1471","1471","0","[[3,2,0],[1,0],[0]]","1","[[2,1,0],[3,0],[0]]","8","0","","","","","","6","","","","","","","","",""
"","","","","","single-stim-button","130","413505","0.0-2.0-34.1-0.1","5dd340e3e25acf34bf91032e","B2","batch2","","688","tol_tohand","","","","tol_peg_1","688","688","0","[[3,0,0],[1,0],[0]]","2","[[2,1,0],[3,0],[0]]","8","0","","","","","","6","","","","","","","","",""
"","","","","","single-stim-button","131","414712","0.0-2.0-34.1-1.1","5dd340e3e25acf34bf91032e","B2","batch2","","1206","tol_toboard","","","","tol_peg_2","1206","1206","0","[[3,0,0],[1,2],[0]]","2","[[2,1,0],[3,0],[0]]","8","0","","","","","","6","","","","","","","","",""
"","","","","","single-stim-button","132","415673","0.0-2.0-34.2-0.2","5dd340e3e25acf34bf91032e","B2","batch2","","960","tol_tohand","","","","tol_peg_1","960","960","0","[[0,0,0],[1,2],[0]]","3","[[2,1,0],[3,0],[0]]","8","0","","","","","","6","","","","","","","","",""
"","","","","","single-stim-button","133","416481","0.0-2.0-34.2-1.2","5dd340e3e25acf34bf91032e","B2","batch2","","808","tol_toboard","","","","tol_peg_3","808","808","0","[[0,0,0],[1,2],[3]]","3","[[2,1,0],[3,0],[0]]","8","0","","","","","","6","","","","","","","","",""
"","","","","","single-stim-button","134","417201","0.0-2.0-34.3-0.3","5dd340e3e25acf34bf91032e","B2","batch2","","720","tol_tohand","","","","tol_peg_2","720","720","0","[[0,0,0],[1,0],[3]]","4","[[2,1,0],[3,0],[0]]","8","0","","","","","","6","","","","","","","","",""
"","","","","","single-stim-button","135","418425","0.0-2.0-34.3-1.3","5dd340e3e25acf34bf91032e","B2","batch2","","1223","tol_toboard","","","","tol_peg_1","1223","1223","0","[[2,0,0],[1,0],[3]]","4","[[2,1,0],[3,0],[0]]","8","0","","","","","","6","","","","","","","","",""
"","","","","","single-stim-button","136","419025","0.0-2.0-34.4-0.4","5dd340e3e25acf34bf91032e","B2","batch2","","599","tol_tohand","","","","tol_peg_2","599","599","0","[[2,0,0],[0,0],[3]]","5","[[2,1,0],[3,0],[0]]","8","0","","","","","","6","","","","","","","","",""
"","","","","","single-stim-button","137","420025","0.0-2.0-34.4-1.4","5dd340e3e25acf34bf91032e","B2","batch2","","1000","tol_toboard","","","","tol_peg_1","1000","1000","0","[[2,1,0],[0,0],[3]]","5","[[2,1,0],[3,0],[0]]","8","0","","","","","","6","","","","","","","","",""
"","","","","","single-stim-button","138","420705","0.0-2.0-34.5-0.5","5dd340e3e25acf34bf91032e","B2","batch2","","680","tol_tohand","","","","tol_peg_3","680","680","0","[[2,1,0],[0,0],[0]]","6","[[2,1,0],[3,0],[0]]","8","0","","","","","","6","","","","","","","","",""
"","","","","","single-stim-button","139","421848","0.0-2.0-34.5-1.5","5dd340e3e25acf34bf91032e","B2","batch2","","1143","tol_toboard","","","","tol_peg_2","1143","1143","0","[[2,1,0],[3,0],[0]]","6","[[2,1,0],[3,0],[0]]","8","0","","","","","","6","","","","","","","","",""
"","","","","","poldrack-single-stim","140","422857","0.0-2.0-35.0","5dd340e3e25acf34bf91032e","B2","batch2","","-1","tol_feedback","","","true","","1000","1000","500","","","","","","-1","none","true","21559","25206","","","","","","","","","",""
"","","","","","html-button-response","141","424073","0.0-2.0-36.0","5dd340e3e25acf34bf91032e","B2","batch2","","1214.800000011921","tol_trial_num","<div class = centerbox><p class = center-block-text>problem <strong>10</strong> out of 25 problems</p></div>","0","","","","","","","","","","","","","","","","","","","","","","","","",""
"","","","","","single-stim-button","142","432417","0.0-2.0-37.0-0.0","5dd340e3e25acf34bf91032e","B2","batch2","","8343","tol_tohand","","","","tol_peg_2","8343","8343","0","[[3,0,0],[0,0],[2]]","1","[[3,0,0],[2,1],[0]]","9","0","","","","","","3","","","","","","","","",""
"","","","","","single-stim-button","143","432986","0.0-2.0-37.0-1.0","5dd340e3e25acf34bf91032e","B2","batch2","","568","tol_toboard","","","","tol_peg_1","568","568","0","[[3,1,0],[0,0],[2]]","1","[[3,0,0],[2,1],[0]]","9","0","","","","","","3","","","","","","","","",""
"","","","","","single-stim-button","144","433472","0.0-2.0-37.1-0.1","5dd340e3e25acf34bf91032e","B2","batch2","","486","tol_tohand","","","","tol_peg_3","486","486","0","[[3,1,0],[0,0],[0]]","2","[[3,0,0],[2,1],[0]]","9","0","","","","","","3","","","","","","","","",""
"","","","","","single-stim-button","145","434201","0.0-2.0-37.1-1.1","5dd340e3e25acf34bf91032e","B2","batch2","","728","tol_toboard","","","","tol_peg_2","728","728","0","[[3,1,0],[2,0],[0]]","2","[[3,0,0],[2,1],[0]]","9","0","","","","","","3","","","","","","","","",""
"","","","","","single-stim-button","146","434913","0.0-2.0-37.2-0.2","5dd340e3e25acf34bf91032e","B2","batch2","","711","tol_tohand","","","","tol_peg_1","711","711","0","[[3,0,0],[2,0],[0]]","3","[[3,0,0],[2,1],[0]]","9","0","","","","","","3","","","","","","","","",""
"","","","","","single-stim-button","147","435441","0.0-2.0-37.2-1.2","5dd340e3e25acf34bf91032e","B2","batch2","","527","tol_toboard","","","","tol_peg_2","527","527","0","[[3,0,0],[2,1],[0]]","3","[[3,0,0],[2,1],[0]]","9","0","","","","","","3","","","","","","","","",""
"","","","","","poldrack-single-stim","148","436449","0.0-2.0-38.0","5dd340e3e25acf34bf91032e","B2","batch2","","-1","tol_feedback","","","true","","1000","1000","500","","","","","","-1","none","true","8343","9540","","","","","","","","","",""
"","","","","","html-button-response","149","437361","0.0-2.0-39.0","5dd340e3e25acf34bf91032e","B2","batch2","","910.9000000059605","tol_trial_num","<div class = centerbox><p class = center-block-text>problem <strong>11</strong> out of 25 problems</p></div>","0","","","","","","","","","","","","","","","","","","","","","","","","",""
"","","","","","single-stim-button","150","458537","0.0-2.0-40.0-0.0","5dd340e3e25acf34bf91032e","B2","batch2","","21175","tol_tohand","","","","tol_peg_1","21175","21175","0","[[1,0,0],[3,0],[0]]","1","[[2,0,0],[1,3],[0]]","10","0","","","","","","6","","","","","","","","",""
"","","","","","single-stim-button","151","459441","0.0-2.0-40.0-1.0","5dd340e3e25acf34bf91032e","B2","batch2","","903","tol_toboard","","","","tol_peg_2","903","903","0","[[1,0,0],[3,2],[0]]","1","[[2,0,0],[1,3],[0]]","10","0","","","","","","6","","","","","","","","",""
"","","","","","single-stim-button","152","460009","0.0-2.0-40.1-0.1","5dd340e3e25acf34bf91032e","B2","batch2","","566","tol_tohand","","","","tol_peg_1","566","566","0","[[0,0,0],[3,2],[0]]","2","[[2,0,0],[1,3],[0]]","10","0","","","","","","6","","","","","","","","",""
"","","","","","single-stim-button","153","460985","0.0-2.0-40.1-1.1","5dd340e3e25acf34bf91032e","B2","batch2","","976","tol_toboard","","","","tol_peg_3","976","976","0","[[0,0,0],[3,2],[1]]","2","[[2,0,0],[1,3],[0]]","10","0","","","","","","6","","","","","","","","",""
"","","","","","single-stim-button","154","461888","0.0-2.0-40.2-0.2","5dd340e3e25acf34bf91032e","B2","batch2","","903","tol_tohand","","","","tol_peg_2","903","903","0","[[0,0,0],[3,0],[1]]","3","[[2,0,0],[1,3],[0]]","10","0","","","","","","6","","","","","","","","",""
"","","","","","single-stim-button","155","463018","0.0-2.0-40.2-1.2","5dd340e3e25acf34bf91032e","B2","batch2","","1128","tol_toboard","","","","tol_peg_1","1128","1128","0","[[2,0,0],[3,0],[1]]","3","[[2,0,0],[1,3],[0]]","10","0","","","","","","6","","","","","","","","",""
"","","","","","single-stim-button","156","464697","0.0-2.0-40.3-0.3","5dd340e3e25acf34bf91032e","B2","batch2","","1679","tol_tohand","","","","tol_peg_2","1679","1679","0","[[2,0,0],[0,0],[1]]","4","[[2,0,0],[1,3],[0]]","10","0","","","","","","6","","","","","","","","",""
"","","","","","single-stim-button","157","465809","0.0-2.0-40.3-1.3","5dd340e3e25acf34bf91032e","B2","batch2","","1111","tol_toboard","","","","tol_peg_1","1111","1111","0","[[2,3,0],[0,0],[1]]","4","[[2,0,0],[1,3],[0]]","10","0","","","","","","6","","","","","","","","",""
"","","","","","single-stim-button","158","466569","0.0-2.0-40.4-0.4","5dd340e3e25acf34bf91032e","B2","batch2","","759","tol_tohand","","","","tol_peg_3","759","759","0","[[2,3,0],[0,0],[0]]","5","[[2,0,0],[1,3],[0]]","10","0","","","","","","6","","","","","","","","",""
"","","","","","single-stim-button","159","467265","0.0-2.0-40.4-1.4","5dd340e3e25acf34bf91032e","B2","batch2","","696","tol_toboard","","","","tol_peg_2","696","696","0","[[2,3,0],[1,0],[0]]","5","[[2,0,0],[1,3],[0]]","10","0","","","","","","6","","","","","","","","",""
"","","","","","single-stim-button","160","467945","0.0-2.0-40.5-0.5","5dd340e3e25acf34bf91032e","B2","batch2","","679","tol_tohand","","","","tol_peg_1","679","679","0","[[2,0,0],[1,0],[0]]","6","[[2,0,0],[1,3],[0]]","10","0","","","","","","6","","","","","","","","",""
"","","","","","single-stim-button","161","468633","0.0-2.0-40.5-1.5","5dd340e3e25acf34bf91032e","B2","batch2","","687","tol_toboard","","","","tol_peg_2","687","687","0","[[2,0,0],[1,3],[0]]","6","[[2,0,0],[1,3],[0]]","10","0","","","","","","6","","","","","","","","",""
"","","","","","poldrack-single-stim","162","469637","0.0-2.0-41.0","5dd340e3e25acf34bf91032e","B2","batch2","","-1","tol_feedback","","","true","","1000","1000","500","","","","","","-1","none","true","21175","25761","","","","","","","","","",""
"","","","","","html-button-response","163","470985","0.0-2.0-42.0","5dd340e3e25acf34bf91032e","B2","batch2","","1346.5","tol_trial_num","<div class = centerbox><p class = center-block-text>problem <strong>12</strong> out of 25 problems</p></div>","0","","","","","","","","","","","","","","","","","","","","","","","","",""
"","","","","","single-stim-button","164","477921","0.0-2.0-43.0-0.0","5dd340e3e25acf34bf91032e","B2","batch2","","6936","tol_tohand","","","","tol_peg_1","6936","6936","0","[[1,0,0],[3,0],[0]]","1","[[2,3,0],[0,0],[1]]","11","0","","","","","","4","","","","","","","","",""
"","","","","","single-stim-button","165","478514","0.0-2.0-43.0-1.0","5dd340e3e25acf34bf91032e","B2","batch2","","592","tol_toboard","","","","tol_peg_2","592","592","0","[[1,0,0],[3,2],[0]]","1","[[2,3,0],[0,0],[1]]","11","0","","","","","","4","","","","","","","","",""
"","","","","","single-stim-button","166","479146","0.0-2.0-43.1-0.1","5dd340e3e25acf34bf91032e","B2","batch2","","631","tol_tohand","","","","tol_peg_1","631","631","0","[[0,0,0],[3,2],[0]]","2","[[2,3,0],[0,0],[1]]","11","0","","","","","","4","","","","","","","","",""
"","","","","","single-stim-button","167","480081","0.0-2.0-43.1-1.1","5dd340e3e25acf34bf91032e","B2","batch2","","935","tol_toboard","","","","tol_peg_3","935","935","0","[[0,0,0],[3,2],[1]]","2","[[2,3,0],[0,0],[1]]","11","0","","","","","","4","","","","","","","","",""
"","","","","","single-stim-button","168","486224","0.0-2.0-43.2-0.2","5dd340e3e25acf34bf91032e","B2","batch2","","6142","tol_tohand","","","","tol_peg_3","6142","6142","0","[[0,0,0],[3,2],[0]]","3","[[2,3,0],[0,0],[1]]","11","0","","","","","","4","","","","","","","","",""
"","","","","","single-stim-button","169","487768","0.0-2.0-43.2-1.2","5dd340e3e25acf34bf91032e","B2","batch2","","1543","tol_toboard","","","","tol_peg_1","1543","1543","0","[[1,0,0],[3,2],[0]]","3","[[2,3,0],[0,0],[1]]","11","0","","","","","","4","","","","","","","","",""
"","","","","","single-stim-button","170","488560","0.0-2.0-43.3-0.3","5dd340e3e25acf34bf91032e","B2","batch2","","791","tol_tohand","","","","tol_peg_2","791","791","0","[[1,0,0],[3,0],[0]]","4","[[2,3,0],[0,0],[1]]","11","0","","","","","","4","","","","","","","","",""
"","","","","","single-stim-button","171","489448","0.0-2.0-43.3-1.3","5dd340e3e25acf34bf91032e","B2","batch2","","887","tol_toboard","","","","tol_peg_3","887","887","0","[[1,0,0],[3,0],[2]]","4","[[2,3,0],[0,0],[1]]","11","0","","","","","","4","","","","","","","","",""
"","","","","","single-stim-button","172","490392","0.0-2.0-43.4-0.4","5dd340e3e25acf34bf91032e","B2","batch2","","944","tol_tohand","","","","tol_peg_1","944","944","0","[[0,0,0],[3,0],[2]]","5","[[2,3,0],[0,0],[1]]","11","0","","","","","","4","","","","","","","","",""
"","","","","","single-stim-button","173","491536","0.0-2.0-43.4-1.4","5dd340e3e25acf34bf91032e","B2","batch2","","1143","tol_toboard","","","","tol_peg_2","1143","1143","0","[[0,0,0],[3,1],[2]]","5","[[2,3,0],[0,0],[1]]","11","0","","","","","","4","","","","","","","","",""
"","","","","","single-stim-button","174","492025","0.0-2.0-43.5-0.5","5dd340e3e25acf34bf91032e","B2","batch2","","489","tol_tohand","","","","tol_peg_3","489","489","0","[[0,0,0],[3,1],[0]]","6","[[2,3,0],[0,0],[1]]","11","0","","","","","","4","","","","","","","","",""
"","","","","","single-stim-button","175","493024","0.0-2.0-43.5-1.5","5dd340e3e25acf34bf91032e","B2","batch2","","998","tol_toboard","","","","tol_peg_1","998","998","0","[[2,0,0],[3,1],[0]]","6","[[2,3,0],[0,0],[1]]","11","0","","","","","","4","","","","","","","","",""
"","","","","","single-stim-button","176","494104","0.0-2.0-43.6-0.6","5dd340e3e25acf34bf91032e","B2","batch2","","1079","tol_tohand","","","","tol_peg_2","1079","1079","0","[[2,0,0],[3,0],[0]]","7","[[2,3,0],[0,0],[1]]","11","0","","","","","","4","","","","","","","","",""
"","","","","","single-stim-button","177","495049","0.0-2.0-43.6-1.6","5dd340e3e25acf34bf91032e","B2","batch2","","944","tol_toboard","","","","tol_peg_3","944","944","0","[[2,0,0],[3,0],[1]]","7","[[2,3,0],[0,0],[1]]","11","0","","","","","","4","","","","","","","","",""
"","","","","","single-stim-button","178","495649","0.0-2.0-43.7-0.7","5dd340e3e25acf34bf91032e","B2","batch2","","600","tol_tohand","","","","tol_peg_2","600","600","0","[[2,0,0],[0,0],[1]]","8","[[2,3,0],[0,0],[1]]","11","0","","","","","","4","","","","","","","","",""
"","","","","","single-stim-button","179","496752","0.0-2.0-43.7-1.7","5dd340e3e25acf34bf91032e","B2","batch2","","1102","tol_toboard","","","","tol_peg_1","1102","1102","0","[[2,3,0],[0,0],[1]]","8","[[2,3,0],[0,0],[1]]","11","0","","","","","","4","","","","","","","","",""
"","","","","","poldrack-single-stim","180","497758","0.0-2.0-44.0","5dd340e3e25acf34bf91032e","B2","batch2","","-1","tol_feedback","","","true","","1000","1000","500","","","","","","-1","none","true","6936","17612","","","","","","","","","",""
"","","","","","html-button-response","181","499472","0.0-2.0-45.0","5dd340e3e25acf34bf91032e","B2","batch2","","1712.9000000059605","tol_trial_num","<div class = centerbox><p class = center-block-text>problem <strong>13</strong> out of 25 problems</p></div>","0","","","","","","","","","","","","","","","","","","","","","","","","",""
"","","","","","single-stim-button","182","505257","0.0-2.0-46.0-0.0","5dd340e3e25acf34bf91032e","B2","batch2","","5784","tol_tohand","","","","tol_peg_2","5784","5784","0","[[1,2,0],[0,0],[0]]","1","[[0,0,0],[2,3],[1]]","12","0","","","","","","4","","","","","","","","",""
"","","","","","single-stim-button","183","505920","0.0-2.0-46.0-1.0","5dd340e3e25acf34bf91032e","B2","batch2","","663","tol_toboard","","","","tol_peg_3","663","663","0","[[1,2,0],[0,0],[3]]","1","[[0,0,0],[2,3],[1]]","12","0","","","","","","4","","","","","","","","",""
"","","","","","single-stim-button","184","506633","0.0-2.0-46.1-0.1","5dd340e3e25acf34bf91032e","B2","batch2","","712","tol_tohand","","","","tol_peg_1","712","712","0","[[1,0,0],[0,0],[3]]","2","[[0,0,0],[2,3],[1]]","12","0","","","","","","4","","","","","","","","",""
"","","","","","single-stim-button","185","507400","0.0-2.0-46.1-1.1","5dd340e3e25acf34bf91032e","B2","batch2","","767","tol_toboard","","","","tol_peg_2","767","767","0","[[1,0,0],[2,0],[3]]","2","[[0,0,0],[2,3],[1]]","12","0","","","","","","4","","","","","","","","",""
"","","","","","single-stim-button","186","507841","0.0-2.0-46.2-0.2","5dd340e3e25acf34bf91032e","B2","batch2","","440","tol_tohand","","","","tol_peg_3","440","440","0","[[1,0,0],[2,0],[0]]","3","[[0,0,0],[2,3],[1]]","12","0","","","","","","4","","","","","","","","",""
"","","","","","single-stim-button","187","508601","0.0-2.0-46.2-1.2","5dd340e3e25acf34bf91032e","B2","batch2","","758","tol_toboard","","","","tol_peg_2","758","758","0","[[1,0,0],[2,3],[0]]","3","[[0,0,0],[2,3],[1]]","12","0","","","","","","4","","","","","","","","",""
"","","","","","single-stim-button","188","510328","0.0-2.0-46.3-0.3","5dd340e3e25acf34bf91032e","B2","batch2","","1727","tol_tohand","","","","tol_peg_1","1727","1727","0","[[0,0,0],[2,3],[0]]","4","[[0,0,0],[2,3],[1]]","12","0","","","","","","4","","","","","","","","",""
"","","","","","single-stim-button","189","511065","0.0-2.0-46.3-1.3","5dd340e3e25acf34bf91032e","B2","batch2","","735","tol_toboard","","","","tol_peg_3","735","735","0","[[0,0,0],[2,3],[1]]","4","[[0,0,0],[2,3],[1]]","12","0","","","","","","4","","","","","","","","",""
"","","","","","poldrack-single-stim","190","512080","0.0-2.0-47.0","5dd340e3e25acf34bf91032e","B2","batch2","","-1","tol_feedback","","","true","","1000","1000","500","","","","","","-1","none","true","5784","8663","","","","","","","","","",""
"","","","","","html-button-response","191","515856","0.0-2.0-48.0","5dd340e3e25acf34bf91032e","B2","batch2","","3775.2999999821186","attention_check","<p class = block-text>How many balls are in your board<br></p>","1","true","","","","","","","","","","","","","","","","","","","","","","","",""
"","","","","","html-button-response","192","518168","0.0-2.0-49.0","5dd340e3e25acf34bf91032e","B2","batch2","","2310.9000000059605","tol_trial_num","<div class = centerbox><p class = center-block-text>problem <strong>14</strong> out of 25 problems</p></div>","0","","","","","","","","","","","","","","","","","","","","","","","","",""
"","","","","","single-stim-button","193","522776","0.0-2.0-50.0-0.0","5dd340e3e25acf34bf91032e","B2","batch2","","4608","tol_tohand","","","","tol_peg_1","4608","4608","0","[[2,0,0],[3,0],[0]]","1","[[1,2,0],[3,0],[0]]","13","0","","","","","","4","","","","","","","","",""
"","","","","","single-stim-button","194","523648","0.0-2.0-50.0-1.0","5dd340e3e25acf34bf91032e","B2","batch2","","871","tol_toboard","","","","tol_peg_3","871","871","0","[[2,0,0],[3,0],[1]]","1","[[1,2,0],[3,0],[0]]","13","0","","","","","","4","","","","","","","","",""
"","","","","","single-stim-button","195","524377","0.0-2.0-50.1-0.1","5dd340e3e25acf34bf91032e","B2","batch2","","727","tol_tohand","","","","tol_peg_1","727","727","0","[[0,0,0],[3,0],[1]]","2","[[1,2,0],[3,0],[0]]","13","0","","","","","","4","","","","","","","","",""
"","","","","","single-stim-button","196","525249","0.0-2.0-50.1-1.1","5dd340e3e25acf34bf91032e","B2","batch2","","871","tol_toboard","","","","tol_peg_2","871","871","0","[[0,0,0],[3,2],[1]]","2","[[1,2,0],[3,0],[0]]","13","0","","","","","","4","","","","","","","","",""
"","","","","","single-stim-button","197","525753","0.0-2.0-50.2-0.2","5dd340e3e25acf34bf91032e","B2","batch2","","504","tol_tohand","","","","tol_peg_3","504","504","0","[[0,0,0],[3,2],[0]]","3","[[1,2,0],[3,0],[0]]","13","0","","","","","","4","","","","","","","","",""
"","","","","","single-stim-button","198","526408","0.0-2.0-50.2-1.2","5dd340e3e25acf34bf91032e","B2","batch2","","654","tol_toboard","","","","tol_peg_1","654","654","0","[[1,0,0],[3,2],[0]]","3","[[1,2,0],[3,0],[0]]","13","0","","","","","","4","","","","","","","","",""
"","","","","","single-stim-button","199","526865","0.0-2.0-50.3-0.3","5dd340e3e25acf34bf91032e","B2","batch2","","455","tol_tohand","","","","tol_peg_2","455","455","0","[[1,0,0],[3,0],[0]]","4","[[1,2,0],[3,0],[0]]","13","0","","","","","","4","","","","","","","","",""
"","","","","","single-stim-button","200","527465","0.0-2.0-50.3-1.3","5dd340e3e25acf34bf91032e","B2","batch2","","600","tol_toboard","","","","tol_peg_1","600","600","0","[[1,2,0],[3,0],[0]]","4","[[1,2,0],[3,0],[0]]","13","0","","","","","","4","","","","","","","","",""
"","","","","","poldrack-single-stim","201","528482","0.0-2.0-51.0","5dd340e3e25acf34bf91032e","B2","batch2","","-1","tol_feedback","","","true","","1000","1000","500","","","","","","-1","none","true","4608","6294","","","","","","","","","",""
"","","","","","html-button-response","202","529552","0.0-2.0-52.0","5dd340e3e25acf34bf91032e","B2","batch2","","1068.699999988079","tol_trial_num","<div class = centerbox><p class = center-block-text>problem <strong>15</strong> out of 25 problems</p></div>","0","","","","","","","","","","","","","","","","","","","","","","","","",""
"","","","","","single-stim-button","203","534113","0.0-2.0-53.0-0.0","5dd340e3e25acf34bf91032e","B2","batch2","","4559","tol_tohand","","","","tol_peg_1","4559","4559","0","[[1,0,0],[3,0],[0]]","1","[[2,0,0],[3,0],[1]]","14","0","","","","","","3","","","","","","","","",""
"","","","","","single-stim-button","204","534952","0.0-2.0-53.0-1.0","5dd340e3e25acf34bf91032e","B2","batch2","","839","tol_toboard","","","","tol_peg_2","839","839","0","[[1,0,0],[3,2],[0]]","1","[[2,0,0],[3,0],[1]]","14","0","","","","","","3","","","","","","","","",""
"","","","","","single-stim-button","205","535681","0.0-2.0-53.1-0.1","5dd340e3e25acf34bf91032e","B2","batch2","","728","tol_tohand","","","","tol_peg_1","728","728","0","[[0,0,0],[3,2],[0]]","2","[[2,0,0],[3,0],[1]]","14","0","","","","","","3","","","","","","","","",""
"","","","","","single-stim-button","206","536616","0.0-2.0-53.1-1.1","5dd340e3e25acf34bf91032e","B2","batch2","","935","tol_toboard","","","","tol_peg_3","935","935","0","[[0,0,0],[3,2],[1]]","2","[[2,0,0],[3,0],[1]]","14","0","","","","","","3","","","","","","","","",""
"","","","","","single-stim-button","207","537314","0.0-2.0-53.2-0.2","5dd340e3e25acf34bf91032e","B2","batch2","","697","tol_tohand","","","","tol_peg_2","697","697","0","[[0,0,0],[3,0],[1]]","3","[[2,0,0],[3,0],[1]]","14","0","","","","","","3","","","","","","","","",""
"","","","","","single-stim-button","208","538184","0.0-2.0-53.2-1.2","5dd340e3e25acf34bf91032e","B2","batch2","","870","tol_toboard","","","","tol_peg_1","870","870","0","[[2,0,0],[3,0],[1]]","3","[[2,0,0],[3,0],[1]]","14","0","","","","","","3","","","","","","","","",""
"","","","","","poldrack-single-stim","209","539199","0.0-2.0-54.0","5dd340e3e25acf34bf91032e","B2","batch2","","-1","tol_feedback","","","true","","1000","1000","500","","","","","","-1","none","true","4559","5984","","","","","","","","","",""
"","","","","","html-button-response","210","540655","0.0-2.0-55.0","5dd340e3e25acf34bf91032e","B2","batch2","","1455","tol_trial_num","<div class = centerbox><p class = center-block-text>problem <strong>16</strong> out of 25 problems</p></div>","0","","","","","","","","","","","","","","","","","","","","","","","","",""
"","","","","","single-stim-button","211","549288","0.0-2.0-56.0-0.0","5dd340e3e25acf34bf91032e","B2","batch2","","8632","tol_tohand","","","","tol_peg_2","8632","8632","0","[[0,0,0],[2,0],[1]]","1","[[2,3,0],[1,0],[0]]","15","0","","","","","","7","","","","","","","","",""
"","","","","","single-stim-button","212","550065","0.0-2.0-56.0-1.0","5dd340e3e25acf34bf91032e","B2","batch2","","776","tol_toboard","","","","tol_peg_1","776","776","0","[[3,0,0],[2,0],[1]]","1","[[2,3,0],[1,0],[0]]","15","0","","","","","","7","","","","","","","","",""
"","","","","","single-stim-button","213","550504","0.0-2.0-56.1-0.1","5dd340e3e25acf34bf91032e","B2","batch2","","438","tol_tohand","","","","tol_peg_2","438","438","0","[[3,0,0],[0,0],[1]]","2","[[2,3,0],[1,0],[0]]","15","0","","","","","","7","","","","","","","","",""
"","","","","","single-stim-button","214","551481","0.0-2.0-56.1-1.1","5dd340e3e25acf34bf91032e","B2","batch2","","977","tol_toboard","","","","tol_peg_1","977","977","0","[[3,2,0],[0,0],[1]]","2","[[2,3,0],[1,0],[0]]","15","0","","","","","","7","","","","","","","","",""
"","","","","","single-stim-button","215","552225","0.0-2.0-56.2-0.2","5dd340e3e25acf34bf91032e","B2","batch2","","742","tol_tohand","","","","tol_peg_3","742","742","0","[[3,2,0],[0,0],[0]]","3","[[2,3,0],[1,0],[0]]","15","0","","","","","","7","","","","","","","","",""
"","","","","","single-stim-button","216","553025","0.0-2.0-56.2-1.2","5dd340e3e25acf34bf91032e","B2","batch2","","800","tol_toboard","","","","tol_peg_2","800","800","0","[[3,2,0],[1,0],[0]]","3","[[2,3,0],[1,0],[0]]","15","0","","","","","","7","","","","","","","","",""
"","","","","","single-stim-button","217","553912","0.0-2.0-56.3-0.3","5dd340e3e25acf34bf91032e","B2","batch2","","886","tol_tohand","","","","tol_peg_1","886","886","0","[[3,0,0],[1,0],[0]]","4","[[2,3,0],[1,0],[0]]","15","0","","","","","","7","","","","","","","","",""
"","","","","","single-stim-button","218","554960","0.0-2.0-56.3-1.3","5dd340e3e25acf34bf91032e","B2","batch2","","1048","tol_toboard","","","","tol_peg_3","1048","1048","0","[[3,0,0],[1,0],[2]]","4","[[2,3,0],[1,0],[0]]","15","0","","","","","","7","","","","","","","","",""
"","","","","","single-stim-button","219","555633","0.0-2.0-56.4-0.4","5dd340e3e25acf34bf91032e","B2","batch2","","672","tol_tohand","","","","tol_peg_1","672","672","0","[[0,0,0],[1,0],[2]]","5","[[2,3,0],[1,0],[0]]","15","0","","","","","","7","","","","","","","","",""
"","","","","","single-stim-button","220","556161","0.0-2.0-56.4-1.4","5dd340e3e25acf34bf91032e","B2","batch2","","527","tol_toboard","","","","tol_peg_2","527","527","0","[[0,0,0],[1,3],[2]]","5","[[2,3,0],[1,0],[0]]","15","0","","","","","","7","","","","","","","","",""
"","","","","","single-stim-button","221","556602","0.0-2.0-56.5-0.5","5dd340e3e25acf34bf91032e","B2","batch2","","440","tol_tohand","","","","tol_peg_3","440","440","0","[[0,0,0],[1,3],[0]]","6","[[2,3,0],[1,0],[0]]","15","0","","","","","","7","","","","","","","","",""
"","","","","","single-stim-button","222","557184","0.0-2.0-56.5-1.5","5dd340e3e25acf34bf91032e","B2","batch2","","582","tol_toboard","","","","tol_peg_1","582","582","0","[[2,0,0],[1,3],[0]]","6","[[2,3,0],[1,0],[0]]","15","0","","","","","","7","","","","","","","","",""
"","","","","","single-stim-button","223","557737","0.0-2.0-56.6-0.6","5dd340e3e25acf34bf91032e","B2","batch2","","552","tol_tohand","","","","tol_peg_2","552","552","0","[[2,0,0],[1,0],[0]]","7","[[2,3,0],[1,0],[0]]","15","0","","","","","","7","","","","","","","","",""
"","","","","","single-stim-button","224","558553","0.0-2.0-56.6-1.6","5dd340e3e25acf34bf91032e","B2","batch2","","815","tol_toboard","","","","tol_peg_1","815","815","0","[[2,3,0],[1,0],[0]]","7","[[2,3,0],[1,0],[0]]","15","0","","","","","","7","","","","","","","","",""
"","","","","","poldrack-single-stim","225","559554","0.0-2.0-57.0","5dd340e3e25acf34bf91032e","B2","batch2","","-1","tol_feedback","","","true","","1000","1000","500","","","","","","-1","none","true","8632","12362","","","","","","","","","",""
"","","","","","html-button-response","226","560952","0.0-2.0-58.0","5dd340e3e25acf34bf91032e","B2","batch2","","1397.5","tol_trial_num","<div class = centerbox><p class = center-block-text>problem <strong>17</strong> out of 25 problems</p></div>","0","","","","","","","","","","","","","","","","","","","","","","","","",""
"","","","","","single-stim-button","227","566425","0.0-2.0-59.0-0.0","5dd340e3e25acf34bf91032e","B2","batch2","","5471","tol_tohand","","","","tol_peg_2","5471","5471","0","[[1,2,0],[0,0],[0]]","1","[[3,1,0],[2,0],[0]]","16","0","","","","","","5","","","","","","","","",""
"","","","","","single-stim-button","228","567320","0.0-2.0-59.0-1.0","5dd340e3e25acf34bf91032e","B2","batch2","","895","tol_toboard","","","","tol_peg_3","895","895","0","[[1,2,0],[0,0],[3]]","1","[[3,1,0],[2,0],[0]]","16","0","","","","","","5","","","","","","","","",""
"","","","","","single-stim-button","229","568120","0.0-2.0-59.1-0.1","5dd340e3e25acf34bf91032e","B2","batch2","","799","tol_tohand","","","","tol_peg_1","799","799","0","[[1,0,0],[0,0],[3]]","2","[[3,1,0],[2,0],[0]]","16","0","","","","","","5","","","","","","","","",""
"","","","","","single-stim-button","230","568697","0.0-2.0-59.1-1.1","5dd340e3e25acf34bf91032e","B2","batch2","","576","tol_toboard","","","","tol_peg_2","576","576","0","[[1,0,0],[2,0],[3]]","2","[[3,1,0],[2,0],[0]]","16","0","","","","","","5","","","","","","","","",""
"","","","","","single-stim-button","231","569193","0.0-2.0-59.2-0.2","5dd340e3e25acf34bf91032e","B2","batch2","","495","tol_tohand","","","","tol_peg_1","495","495","0","[[0,0,0],[2,0],[3]]","3","[[3,1,0],[2,0],[0]]","16","0","","","","","","5","","","","","","","","",""
"","","","","","single-stim-button","232","569905","0.0-2.0-59.2-1.2","5dd340e3e25acf34bf91032e","B2","batch2","","712","tol_toboard","","","","tol_peg_2","712","712","0","[[0,0,0],[2,1],[3]]","3","[[3,1,0],[2,0],[0]]","16","0","","","","","","5","","","","","","","","",""
"","","","","","single-stim-button","233","570289","0.0-2.0-59.3-0.3","5dd340e3e25acf34bf91032e","B2","batch2","","383","tol_tohand","","","","tol_peg_3","383","383","0","[[0,0,0],[2,1],[0]]","4","[[3,1,0],[2,0],[0]]","16","0","","","","","","5","","","","","","","","",""
"","","","","","single-stim-button","234","571241","0.0-2.0-59.3-1.3","5dd340e3e25acf34bf91032e","B2","batch2","","951","tol_toboard","","","","tol_peg_1","951","951","0","[[3,0,0],[2,1],[0]]","4","[[3,1,0],[2,0],[0]]","16","0","","","","","","5","","","","","","","","",""
"","","","","","single-stim-button","235","572561","0.0-2.0-59.4-0.4","5dd340e3e25acf34bf91032e","B2","batch2","","1319","tol_tohand","","","","tol_peg_2","1319","1319","0","[[3,0,0],[2,0],[0]]","5","[[3,1,0],[2,0],[0]]","16","0","","","","","","5","","","","","","","","",""
"","","","","","single-stim-button","236","573312","0.0-2.0-59.4-1.4","5dd340e3e25acf34bf91032e","B2","batch2","","751","tol_toboard","","","","tol_peg_1","751","751","0","[[3,1,0],[2,0],[0]]","5","[[3,1,0],[2,0],[0]]","16","0","","","","","","5","","","","","","","","",""
"","","","","","poldrack-single-stim","237","574314","0.0-2.0-60.0","5dd340e3e25acf34bf91032e","B2","batch2","","-1","tol_feedback","","","true","","1000","1000","500","","","","","","-1","none","true","5471","8467","","","","","","","","","",""
"","","","","","html-button-response","238","577953","0.0-2.0-61.0","5dd340e3e25acf34bf91032e","B2","batch2","","3637.7999999821186","tol_trial_num","<div class = centerbox><p class = center-block-text>problem <strong>18</strong> out of 25 problems</p></div>","0","","","","","","","","","","","","","","","","","","","","","","","","",""
"","","","","","single-stim-button","239","584690","0.0-2.0-62.0-0.0","5dd340e3e25acf34bf91032e","B2","batch2","","6736","tol_tohand","","","","tol_peg_2","6736","6736","0","[[1,2,0],[0,0],[0]]","1","[[3,0,0],[2,0],[1]]","17","0","","","","","","5","","","","","","","","",""
"","","","","","single-stim-button","240","585321","0.0-2.0-62.0-1.0","5dd340e3e25acf34bf91032e","B2","batch2","","631","tol_toboard","","","","tol_peg_3","631","631","0","[[1,2,0],[0,0],[3]]","1","[[3,0,0],[2,0],[1]]","17","0","","","","","","5","","","","","","","","",""
"","","","","","single-stim-button","241","585937","0.0-2.0-62.1-0.1","5dd340e3e25acf34bf91032e","B2","batch2","","614","tol_tohand","","","","tol_peg_1","614","614","0","[[1,0,0],[0,0],[3]]","2","[[3,0,0],[2,0],[1]]","17","0","","","","","","5","","","","","","","","",""
"","","","","","single-stim-button","242","586409","0.0-2.0-62.1-1.1","5dd340e3e25acf34bf91032e","B2","batch2","","472","tol_toboard","","","","tol_peg_2","472","472","0","[[1,0,0],[2,0],[3]]","2","[[3,0,0],[2,0],[1]]","17","0","","","","","","5","","","","","","","","",""
"","","","","","single-stim-button","243","586897","0.0-2.0-62.2-0.2","5dd340e3e25acf34bf91032e","B2","batch2","","487","tol_tohand","","","","tol_peg_1","487","487","0","[[0,0,0],[2,0],[3]]","3","[[3,0,0],[2,0],[1]]","17","0","","","","","","5","","","","","","","","",""
"","","","","","single-stim-button","244","587313","0.0-2.0-62.2-1.2","5dd340e3e25acf34bf91032e","B2","batch2","","415","tol_toboard","","","","tol_peg_2","415","415","0","[[0,0,0],[2,1],[3]]","3","[[3,0,0],[2,0],[1]]","17","0","","","","","","5","","","","","","","","",""
"","","","","","single-stim-button","245","588033","0.0-2.0-62.3-0.3","5dd340e3e25acf34bf91032e","B2","batch2","","720","tol_tohand","","","","tol_peg_3","720","720","0","[[0,0,0],[2,1],[0]]","4","[[3,0,0],[2,0],[1]]","17","0","","","","","","5","","","","","","","","",""
"","","","","","single-stim-button","246","589097","0.0-2.0-62.3-1.3","5dd340e3e25acf34bf91032e","B2","batch2","","1063","tol_toboard","","","","tol_peg_1","1063","1063","0","[[3,0,0],[2,1],[0]]","4","[[3,0,0],[2,0],[1]]","17","0","","","","","","5","","","","","","","","",""
"","","","","","single-stim-button","247","589825","0.0-2.0-62.4-0.4","5dd340e3e25acf34bf91032e","B2","batch2","","726","tol_tohand","","","","tol_peg_2","726","726","0","[[3,0,0],[2,0],[0]]","5","[[3,0,0],[2,0],[1]]","17","0","","","","","","5","","","","","","","","",""
"","","","","","single-stim-button","248","590352","0.0-2.0-62.4-1.4","5dd340e3e25acf34bf91032e","B2","batch2","","527","tol_toboard","","","","tol_peg_3","527","527","0","[[3,0,0],[2,0],[1]]","5","[[3,0,0],[2,0],[1]]","17","0","","","","","","5","","","","","","","","",""
"","","","","","poldrack-single-stim","249","591367","0.0-2.0-63.0","5dd340e3e25acf34bf91032e","B2","batch2","","-1","tol_feedback","","","true","","1000","1000","500","","","","","","-1","none","true","6736","9283","","","","","","","","","",""
"","","","","","html-button-response","250","592657","0.0-2.0-64.0","5dd340e3e25acf34bf91032e","B2","batch2","","1289.0999999940395","tol_trial_num","<div class = centerbox><p class = center-block-text>problem <strong>19</strong> out of 25 problems</p></div>","0","","","","","","","","","","","","","","","","","","","","","","","","",""
"","","","","","single-stim-button","251","612825","0.0-2.0-65.0-0.0","5dd340e3e25acf34bf91032e","B2","batch2","","20166","tol_tohand","","","","tol_peg_1","20166","20166","0","[[1,0,0],[3,0],[0]]","1","[[0,0,0],[1,2],[3]]","18","0","","","","","","7","","","","","","","","",""
"","","","","","single-stim-button","252","613537","0.0-2.0-65.0-1.0","5dd340e3e25acf34bf91032e","B2","batch2","","712","tol_toboard","","","","tol_peg_2","712","712","0","[[1,0,0],[3,2],[0]]","1","[[0,0,0],[1,2],[3]]","18","0","","","","","","7","","","","","","","","",""
"","","","","","single-stim-button","253","614201","0.0-2.0-65.1-0.1","5dd340e3e25acf34bf91032e","B2","batch2","","664","tol_tohand","","","","tol_peg_1","664","664","0","[[0,0,0],[3,2],[0]]","2","[[0,0,0],[1,2],[3]]","18","0","","","","","","7","","","","","","","","",""
"","","","","","single-stim-button","254","614913","0.0-2.0-65.1-1.1","5dd340e3e25acf34bf91032e","B2","batch2","","711","tol_toboard","","","","tol_peg_3","711","711","0","[[0,0,0],[3,2],[1]]","2","[[0,0,0],[1,2],[3]]","18","0","","","","","","7","","","","","","","","",""
"","","","","","single-stim-button","255","615585","0.0-2.0-65.2-0.2","5dd340e3e25acf34bf91032e","B2","batch2","","671","tol_tohand","","","","tol_peg_2","671","671","0","[[0,0,0],[3,0],[1]]","3","[[0,0,0],[1,2],[3]]","18","0","","","","","","7","","","","","","","","",""
"","","","","","single-stim-button","256","616377","0.0-2.0-65.2-1.2","5dd340e3e25acf34bf91032e","B2","batch2","","791","tol_toboard","","","","tol_peg_1","791","791","0","[[2,0,0],[3,0],[1]]","3","[[0,0,0],[1,2],[3]]","18","0","","","","","","7","","","","","","","","",""
"","","","","","single-stim-button","257","616849","0.0-2.0-65.3-0.3","5dd340e3e25acf34bf91032e","B2","batch2","","471","tol_tohand","","","","tol_peg_2","471","471","0","[[2,0,0],[0,0],[1]]","4","[[0,0,0],[1,2],[3]]","18","0","","","","","","7","","","","","","","","",""
"","","","","","single-stim-button","258","618225","0.0-2.0-65.3-1.3","5dd340e3e25acf34bf91032e","B2","batch2","","1376","tol_toboard","","","","tol_peg_1","1376","1376","0","[[2,3,0],[0,0],[1]]","4","[[0,0,0],[1,2],[3]]","18","0","","","","","","7","","","","","","","","",""
"","","","","","single-stim-button","259","618905","0.0-2.0-65.4-0.4","5dd340e3e25acf34bf91032e","B2","batch2","","679","tol_tohand","","","","tol_peg_3","679","679","0","[[2,3,0],[0,0],[0]]","5","[[0,0,0],[1,2],[3]]","18","0","","","","","","7","","","","","","","","",""
"","","","","","single-stim-button","260","619848","0.0-2.0-65.4-1.4","5dd340e3e25acf34bf91032e","B2","batch2","","943","tol_toboard","","","","tol_peg_2","943","943","0","[[2,3,0],[1,0],[0]]","5","[[0,0,0],[1,2],[3]]","18","0","","","","","","7","","","","","","","","",""
"","","","","","single-stim-button","261","620481","0.0-2.0-65.5-0.5","5dd340e3e25acf34bf91032e","B2","batch2","","633","tol_tohand","","","","tol_peg_1","633","633","0","[[2,0,0],[1,0],[0]]","6","[[0,0,0],[1,2],[3]]","18","0","","","","","","7","","","","","","","","",""
"","","","","","single-stim-button","262","621209","0.0-2.0-65.5-1.5","5dd340e3e25acf34bf91032e","B2","batch2","","727","tol_toboard","","","","tol_peg_3","727","727","0","[[2,0,0],[1,0],[3]]","6","[[0,0,0],[1,2],[3]]","18","0","","","","","","7","","","","","","","","",""
"","","","","","single-stim-button","263","621993","0.0-2.0-65.6-0.6","5dd340e3e25acf34bf91032e","B2","batch2","","784","tol_tohand","","","","tol_peg_1","784","784","0","[[0,0,0],[1,0],[3]]","7","[[0,0,0],[1,2],[3]]","18","0","","","","","","7","","","","","","","","",""
"","","","","","single-stim-button","264","622465","0.0-2.0-65.6-1.6","5dd340e3e25acf34bf91032e","B2","batch2","","471","tol_toboard","","","","tol_peg_2","471","471","0","[[0,0,0],[1,2],[3]]","7","[[0,0,0],[1,2],[3]]","18","0","","","","","","7","","","","","","","","",""
"","","","","","poldrack-single-stim","265","623469","0.0-2.0-66.0","5dd340e3e25acf34bf91032e","B2","batch2","","-1","tol_feedback","","","true","","1000","1000","500","","","","","","-1","none","true","20166","24068","","","","","","","","","",""
"","","","","","html-button-response","266","624512","0.0-2.0-67.0","5dd340e3e25acf34bf91032e","B2","batch2","","1042.1000000238419","tol_trial_num","<div class = centerbox><p class = center-block-text>problem <strong>20</strong> out of 25 problems</p></div>","0","","","","","","","","","","","","","","","","","","","","","","","","",""
"","","","","","single-stim-button","267","626712","0.0-2.0-68.0-0.0","5dd340e3e25acf34bf91032e","B2","batch2","","2200","tol_tohand","","","","tol_peg_2","2200","2200","0","[[1,2,0],[0,0],[0]]","1","[[2,1,0],[0,0],[3]]","19","0","","","","","","5","","","","","","","","",""
"","","","","","single-stim-button","268","628481","0.0-2.0-68.0-1.0","5dd340e3e25acf34bf91032e","B2","batch2","","1768","tol_toboard","","","","tol_peg_3","1768","1768","0","[[1,2,0],[0,0],[3]]","1","[[2,1,0],[0,0],[3]]","19","0","","","","","","5","","","","","","","","",""
"","","","","","single-stim-button","269","632793","0.0-2.0-68.1-0.1","5dd340e3e25acf34bf91032e","B2","batch2","","4311","tol_tohand","","","","tol_peg_1","4311","4311","0","[[1,0,0],[0,0],[3]]","2","[[2,1,0],[0,0],[3]]","19","0","","","","","","5","","","","","","","","",""
"","","","","","single-stim-button","270","633881","0.0-2.0-68.1-1.1","5dd340e3e25acf34bf91032e","B2","batch2","","1087","tol_toboard","","","","tol_peg_2","1087","1087","0","[[1,0,0],[2,0],[3]]","2","[[2,1,0],[0,0],[3]]","19","0","","","","","","5","","","","","","","","",""
"","","","","","single-stim-button","271","640033","0.0-2.0-68.2-0.2","5dd340e3e25acf34bf91032e","B2","batch2","","6151","tol_tohand","","","","tol_peg_3","6151","6151","0","[[1,0,0],[2,0],[0]]","3","[[2,1,0],[0,0],[3]]","19","0","","","","","","5","","","","","","","","",""
"","","","","","single-stim-button","272","640721","0.0-2.0-68.2-1.2","5dd340e3e25acf34bf91032e","B2","batch2","","687","tol_toboard","","","","tol_peg_2","687","687","0","[[1,0,0],[2,3],[0]]","3","[[2,1,0],[0,0],[3]]","19","0","","","","","","5","","","","","","","","",""
"","","","","","single-stim-button","273","641426","0.0-2.0-68.3-0.3","5dd340e3e25acf34bf91032e","B2","batch2","","704","tol_tohand","","","","tol_peg_1","704","704","0","[[0,0,0],[2,3],[0]]","4","[[2,1,0],[0,0],[3]]","19","0","","","","","","5","","","","","","","","",""
"","","","","","single-stim-button","274","642561","0.0-2.0-68.3-1.3","5dd340e3e25acf34bf91032e","B2","batch2","","1134","tol_toboard","","","","tol_peg_3","1134","1134","0","[[0,0,0],[2,3],[1]]","4","[[2,1,0],[0,0],[3]]","19","0","","","","","","5","","","","","","","","",""
"","","","","","single-stim-button","275","650737","0.0-2.0-68.4-0.4","5dd340e3e25acf34bf91032e","B2","batch2","","8175","tol_tohand","","","","tol_peg_2","8175","8175","0","[[0,0,0],[2,0],[1]]","5","[[2,1,0],[0,0],[3]]","19","0","","","","","","5","","","","","","","","",""
"","","","","","single-stim-button","276","656969","0.0-2.0-68.4-1.4","5dd340e3e25acf34bf91032e","B2","batch2","","6232","tol_toboard","","","","tol_peg_1","6232","6232","0","[[3,0,0],[2,0],[1]]","5","[[2,1,0],[0,0],[3]]","19","0","","","","","","5","","","","","","","","",""
"","","","","","single-stim-button","277","658321","0.0-2.0-68.5-0.5","5dd340e3e25acf34bf91032e","B2","batch2","","1350","tol_tohand","","","","tol_peg_3","1350","1350","0","[[3,0,0],[2,0],[0]]","6","[[2,1,0],[0,0],[3]]","19","0","","","","","","5","","","","","","","","",""
"","","","","","single-stim-button","278","659137","0.0-2.0-68.5-1.5","5dd340e3e25acf34bf91032e","B2","batch2","","815","tol_toboard","","","","tol_peg_1","815","815","0","[[3,1,0],[2,0],[0]]","6","[[2,1,0],[0,0],[3]]","19","0","","","","","","5","","","","","","","","",""
"","","","","","single-stim-button","279","659801","0.0-2.0-68.6-0.6","5dd340e3e25acf34bf91032e","B2","batch2","","663","tol_tohand","","","","tol_peg_2","663","663","0","[[3,1,0],[0,0],[0]]","7","[[2,1,0],[0,0],[3]]","19","0","","","","","","5","","","","","","","","",""
"","","","","","single-stim-button","280","660440","0.0-2.0-68.6-1.6","5dd340e3e25acf34bf91032e","B2","batch2","","639","tol_toboard","","","","tol_peg_3","639","639","0","[[3,1,0],[0,0],[2]]","7","[[2,1,0],[0,0],[3]]","19","0","","","","","","5","","","","","","","","",""
"","","","","","single-stim-button","281","661865","0.0-2.0-68.7-0.7","5dd340e3e25acf34bf91032e","B2","batch2","","1424","tol_tohand","","","","tol_peg_1","1424","1424","0","[[3,0,0],[0,0],[2]]","8","[[2,1,0],[0,0],[3]]","19","0","","","","","","5","","","","","","","","",""
"","","","","","single-stim-button","282","662609","0.0-2.0-68.7-1.7","5dd340e3e25acf34bf91032e","B2","batch2","","744","tol_toboard","","","","tol_peg_2","744","744","0","[[3,0,0],[1,0],[2]]","8","[[2,1,0],[0,0],[3]]","19","0","","","","","","5","","","","","","","","",""
"","","","","","single-stim-button","283","663097","0.0-2.0-68.8-0.8","5dd340e3e25acf34bf91032e","B2","batch2","","487","tol_tohand","","","","tol_peg_1","487","487","0","[[0,0,0],[1,0],[2]]","9","[[2,1,0],[0,0],[3]]","19","0","","","","","","5","","","","","","","","",""
"","","","","","single-stim-button","284","663864","0.0-2.0-68.8-1.8","5dd340e3e25acf34bf91032e","B2","batch2","","767","tol_toboard","","","","tol_peg_2","767","767","0","[[0,0,0],[1,3],[2]]","9","[[2,1,0],[0,0],[3]]","19","0","","","","","","5","","","","","","","","",""
"","","","","","single-stim-button","285","664865","0.0-2.0-68.9-0.9","5dd340e3e25acf34bf91032e","B2","batch2","","1000","tol_tohand","","","","tol_peg_3","1000","1000","0","[[0,0,0],[1,3],[0]]","10","[[2,1,0],[0,0],[3]]","19","0","","","","","","5","","","","","","","","",""
"","","","","","single-stim-button","286","666321","0.0-2.0-68.9-1.9","5dd340e3e25acf34bf91032e","B2","batch2","","1456","tol_toboard","","","","tol_peg_1","1456","1456","0","[[2,0,0],[1,3],[0]]","10","[[2,1,0],[0,0],[3]]","19","0","","","","","","5","","","","","","","","",""
"","","","","","single-stim-button","287","667409","0.0-2.0-68.10-0.10","5dd340e3e25acf34bf91032e","B2","batch2","","1087","tol_tohand","","","","tol_peg_2","1087","1087","0","[[2,0,0],[1,0],[0]]","11","[[2,1,0],[0,0],[3]]","19","0","","","","","","5","","","","","","","","",""
"","","","","","single-stim-button","288","668049","0.0-2.0-68.10-1.10","5dd340e3e25acf34bf91032e","B2","batch2","","639","tol_toboard","","","","tol_peg_3","639","639","0","[[2,0,0],[1,0],[3]]","11","[[2,1,0],[0,0],[3]]","19","0","","","","","","5","","","","","","","","",""
"","","","","","single-stim-button","289","668730","0.0-2.0-68.11-0.11","5dd340e3e25acf34bf91032e","B2","batch2","","680","tol_tohand","","","","tol_peg_2","680","680","0","[[2,0,0],[0,0],[3]]","12","[[2,1,0],[0,0],[3]]","19","0","","","","","","5","","","","","","","","",""
"","","","","","single-stim-button","290","669433","0.0-2.0-68.11-1.11","5dd340e3e25acf34bf91032e","B2","batch2","","703","tol_toboard","","","","tol_peg_1","703","703","0","[[2,1,0],[0,0],[3]]","12","[[2,1,0],[0,0],[3]]","19","0","","","","","","5","","","","","","","","",""
"","","","","","poldrack-single-stim","291","670443","0.0-2.0-69.0","5dd340e3e25acf34bf91032e","B2","batch2","","-1","tol_feedback","","","true","","1000","1000","500","","","","","","-1","none","true","2200","28232","","","","","","","","","",""
"","","","","","html-button-response","292","671720","0.0-2.0-70.0","5dd340e3e25acf34bf91032e","B2","batch2","","1275.5","tol_trial_num","<div class = centerbox><p class = center-block-text>problem <strong>21</strong> out of 25 problems</p></div>","0","","","","","","","","","","","","","","","","","","","","","","","","",""
"","","","","","single-stim-button","293","676977","0.0-2.0-71.0-0.0","5dd340e3e25acf34bf91032e","B2","batch2","","5255","tol_tohand","","","","tol_peg_1","5255","5255","0","[[1,0,0],[3,0],[0]]","1","[[3,2,0],[0,0],[1]]","20","0","","","","","","6","","","","","","","","",""
"","","","","","single-stim-button","294","677705","0.0-2.0-71.0-1.0","5dd340e3e25acf34bf91032e","B2","batch2","","728","tol_toboard","","","","tol_peg_2","728","728","0","[[1,0,0],[3,2],[0]]","1","[[3,2,0],[0,0],[1]]","20","0","","","","","","6","","","","","","","","",""
"","","","","","single-stim-button","295","678305","0.0-2.0-71.1-0.1","5dd340e3e25acf34bf91032e","B2","batch2","","600","tol_tohand","","","","tol_peg_1","600","600","0","[[0,0,0],[3,2],[0]]","2","[[3,2,0],[0,0],[1]]","20","0","","","","","","6","","","","","","","","",""
"","","","","","single-stim-button","296","679345","0.0-2.0-71.1-1.1","5dd340e3e25acf34bf91032e","B2","batch2","","1040","tol_toboard","","","","tol_peg_3","1040","1040","0","[[0,0,0],[3,2],[1]]","2","[[3,2,0],[0,0],[1]]","20","0","","","","","","6","","","","","","","","",""
"","","","","","single-stim-button","297","683850","0.0-2.0-71.2-0.2","5dd340e3e25acf34bf91032e","B2","batch2","","4503","tol_tohand","","","","tol_peg_2","4503","4503","0","[[0,0,0],[3,0],[1]]","3","[[3,2,0],[0,0],[1]]","20","0","","","","","","6","","","","","","","","",""
"","","","","","single-stim-button","298","684481","0.0-2.0-71.2-1.2","5dd340e3e25acf34bf91032e","B2","batch2","","630","tol_toboard","","","","tol_peg_1","630","630","0","[[2,0,0],[3,0],[1]]","3","[[3,2,0],[0,0],[1]]","20","0","","","","","","6","","","","","","","","",""
"","","","","","single-stim-button","299","684912","0.0-2.0-71.3-0.3","5dd340e3e25acf34bf91032e","B2","batch2","","431","tol_tohand","","","","tol_peg_2","431","431","0","[[2,0,0],[0,0],[1]]","4","[[3,2,0],[0,0],[1]]","20","0","","","","","","6","","","","","","","","",""
"","","","","","single-stim-button","300","686882","0.0-2.0-71.3-1.3","5dd340e3e25acf34bf91032e","B2","batch2","","1968","tol_toboard","","","","tol_peg_1","1968","1968","0","[[2,3,0],[0,0],[1]]","4","[[3,2,0],[0,0],[1]]","20","0","","","","","","6","","","","","","","","",""
"","","","","","single-stim-button","301","687593","0.0-2.0-71.4-0.4","5dd340e3e25acf34bf91032e","B2","batch2","","711","tol_tohand","","","","tol_peg_3","711","711","0","[[2,3,0],[0,0],[0]]","5","[[3,2,0],[0,0],[1]]","20","0","","","","","","6","","","","","","","","",""
"","","","","","single-stim-button","302","688409","0.0-2.0-71.4-1.4","5dd340e3e25acf34bf91032e","B2","batch2","","814","tol_toboard","","","","tol_peg_2","814","814","0","[[2,3,0],[1,0],[0]]","5","[[3,2,0],[0,0],[1]]","20","0","","","","","","6","","","","","","","","",""
"","","","","","single-stim-button","303","691065","0.0-2.0-71.5-0.5","5dd340e3e25acf34bf91032e","B2","batch2","","2656","tol_tohand","","","","tol_peg_1","2656","2656","0","[[2,0,0],[1,0],[0]]","6","[[3,2,0],[0,0],[1]]","20","0","","","","","","6","","","","","","","","",""
"","","","","","single-stim-button","304","692136","0.0-2.0-71.5-1.5","5dd340e3e25acf34bf91032e","B2","batch2","","1070","tol_toboard","","","","tol_peg_3","1070","1070","0","[[2,0,0],[1,0],[3]]","6","[[3,2,0],[0,0],[1]]","20","0","","","","","","6","","","","","","","","",""
"","","","","","single-stim-button","305","693297","0.0-2.0-71.6-0.6","5dd340e3e25acf34bf91032e","B2","batch2","","1159","tol_tohand","","","","tol_peg_1","1159","1159","0","[[0,0,0],[1,0],[3]]","7","[[3,2,0],[0,0],[1]]","20","0","","","","","","6","","","","","","","","",""
"","","","","","single-stim-button","306","694048","0.0-2.0-71.6-1.6","5dd340e3e25acf34bf91032e","B2","batch2","","751","tol_toboard","","","","tol_peg_2","751","751","0","[[0,0,0],[1,2],[3]]","7","[[3,2,0],[0,0],[1]]","20","0","","","","","","6","","","","","","","","",""
"","","","","","single-stim-button","307","694553","0.0-2.0-71.7-0.7","5dd340e3e25acf34bf91032e","B2","batch2","","503","tol_tohand","","","","tol_peg_3","503","503","0","[[0,0,0],[1,2],[0]]","8","[[3,2,0],[0,0],[1]]","20","0","","","","","","6","","","","","","","","",""
"","","","","","single-stim-button","308","695465","0.0-2.0-71.7-1.7","5dd340e3e25acf34bf91032e","B2","batch2","","911","tol_toboard","","","","tol_peg_1","911","911","0","[[3,0,0],[1,2],[0]]","8","[[3,2,0],[0,0],[1]]","20","0","","","","","","6","","","","","","","","",""
"","","","","","single-stim-button","309","696169","0.0-2.0-71.8-0.8","5dd340e3e25acf34bf91032e","B2","batch2","","703","tol_tohand","","","","tol_peg_2","703","703","0","[[3,0,0],[1,0],[0]]","9","[[3,2,0],[0,0],[1]]","20","0","","","","","","6","","","","","","","","",""
"","","","","","single-stim-button","310","698225","0.0-2.0-71.8-1.8","5dd340e3e25acf34bf91032e","B2","batch2","","2055","tol_toboard","","","","tol_peg_1","2055","2055","0","[[3,2,0],[1,0],[0]]","9","[[3,2,0],[0,0],[1]]","20","0","","","","","","6","","","","","","","","",""
"","","","","","single-stim-button","311","698929","0.0-2.0-71.9-0.9","5dd340e3e25acf34bf91032e","B2","batch2","","703","tol_tohand","","","","tol_peg_2","703","703","0","[[3,2,0],[0,0],[0]]","10","[[3,2,0],[0,0],[1]]","20","0","","","","","","6","","","","","","","","",""
"","","","","","single-stim-button","312","699881","0.0-2.0-71.9-1.9","5dd340e3e25acf34bf91032e","B2","batch2","","951","tol_toboard","","","","tol_peg_3","951","951","0","[[3,2,0],[0,0],[1]]","10","[[3,2,0],[0,0],[1]]","20","0","","","","","","6","","","","","","","","",""
"","","","","","poldrack-single-stim","313","700884","0.0-2.0-72.0","5dd340e3e25acf34bf91032e","B2","batch2","","-1","tol_feedback","","","true","","1000","1000","500","","","","","","-1","none","true","5255","17224","","","","","","","","","",""
"","","","","","html-button-response","314","702464","0.0-2.0-73.0","5dd340e3e25acf34bf91032e","B2","batch2","","1579.0999999940395","tol_trial_num","<div class = centerbox><p class = center-block-text>problem <strong>22</strong> out of 25 problems</p></div>","0","","","","","","","","","","","","","","","","","","","","","","","","",""
"","","","","","single-stim-button","315","707081","0.0-2.0-74.0-0.0","5dd340e3e25acf34bf91032e","B2","batch2","","4616","tol_tohand","","","","tol_peg_1","4616","4616","0","[[0,0,0],[2,3],[0]]","1","[[0,0,0],[1,2],[3]]","21","0","","","","","","6","","","","","","","","",""
"","","","","","single-stim-button","316","707784","0.0-2.0-74.0-1.0","5dd340e3e25acf34bf91032e","B2","batch2","","703","tol_toboard","","","","tol_peg_3","703","703","0","[[0,0,0],[2,3],[1]]","1","[[0,0,0],[1,2],[3]]","21","0","","","","","","6","","","","","","","","",""
"","","","","","single-stim-button","317","708441","0.0-2.0-74.1-0.1","5dd340e3e25acf34bf91032e","B2","batch2","","655","tol_tohand","","","","tol_peg_2","655","655","0","[[0,0,0],[2,0],[1]]","2","[[0,0,0],[1,2],[3]]","21","0","","","","","","6","","","","","","","","",""
"","","","","","single-stim-button","318","709330","0.0-2.0-74.1-1.1","5dd340e3e25acf34bf91032e","B2","batch2","","889","tol_toboard","","","","tol_peg_1","889","889","0","[[3,0,0],[2,0],[1]]","2","[[0,0,0],[1,2],[3]]","21","0","","","","","","6","","","","","","","","",""
"","","","","","single-stim-button","319","709801","0.0-2.0-74.2-0.2","5dd340e3e25acf34bf91032e","B2","batch2","","470","tol_tohand","","","","tol_peg_2","470","470","0","[[3,0,0],[0,0],[1]]","3","[[0,0,0],[1,2],[3]]","21","0","","","","","","6","","","","","","","","",""
"","","","","","single-stim-button","320","710338","0.0-2.0-74.2-1.2","5dd340e3e25acf34bf91032e","B2","batch2","","537","tol_toboard","","","","tol_peg_1","537","537","0","[[3,2,0],[0,0],[1]]","3","[[0,0,0],[1,2],[3]]","21","0","","","","","","6","","","","","","","","",""
"","","","","","single-stim-button","321","710896","0.0-2.0-74.3-0.3","5dd340e3e25acf34bf91032e","B2","batch2","","558","tol_tohand","","","","tol_peg_3","558","558","0","[[3,2,0],[0,0],[0]]","4","[[0,0,0],[1,2],[3]]","21","0","","","","","","6","","","","","","","","",""
"","","","","","single-stim-button","322","711792","0.0-2.0-74.3-1.3","5dd340e3e25acf34bf91032e","B2","batch2","","895","tol_toboard","","","","tol_peg_2","895","895","0","[[3,2,0],[1,0],[0]]","4","[[0,0,0],[1,2],[3]]","21","0","","","","","","6","","","","","","","","",""
"","","","","","single-stim-button","323","712449","0.0-2.0-74.4-0.4","5dd340e3e25acf34bf91032e","B2","batch2","","656","tol_tohand","","","","tol_peg_1","656","656","0","[[3,0,0],[1,0],[0]]","5","[[0,0,0],[1,2],[3]]","21","0","","","","","","6","","","","","","","","",""
"","","","","","single-stim-button","324","713200","0.0-2.0-74.4-1.4","5dd340e3e25acf34bf91032e","B2","batch2","","751","tol_toboard","","","","tol_peg_2","751","751","0","[[3,0,0],[1,2],[0]]","5","[[0,0,0],[1,2],[3]]","21","0","","","","","","6","","","","","","","","",""
"","","","","","single-stim-button","325","713753","0.0-2.0-74.5-0.5","5dd340e3e25acf34bf91032e","B2","batch2","","552","tol_tohand","","","","tol_peg_1","552","552","0","[[0,0,0],[1,2],[0]]","6","[[0,0,0],[1,2],[3]]","21","0","","","","","","6","","","","","","","","",""
"","","","","","single-stim-button","326","714481","0.0-2.0-74.5-1.5","5dd340e3e25acf34bf91032e","B2","batch2","","728","tol_toboard","","","","tol_peg_3","728","728","0","[[0,0,0],[1,2],[3]]","6","[[0,0,0],[1,2],[3]]","21","0","","","","","","6","","","","","","","","",""
"","","","","","poldrack-single-stim","327","715493","0.0-2.0-75.0","5dd340e3e25acf34bf91032e","B2","batch2","","-1","tol_feedback","","","true","","1000","1000","500","","","","","","-1","none","true","4616","7507","","","","","","","","","",""
"","","","","","html-button-response","328","716320","0.0-2.0-76.0","5dd340e3e25acf34bf91032e","B2","batch2","","826.7000000178814","tol_trial_num","<div class = centerbox><p class = center-block-text>problem <strong>23</strong> out of 25 problems</p></div>","0","","","","","","","","","","","","","","","","","","","","","","","","",""
"","","","","","single-stim-button","329","724344","0.0-2.0-77.0-0.0","5dd340e3e25acf34bf91032e","B2","batch2","","8023","tol_tohand","","","","tol_peg_1","8023","8023","0","[[1,0,0],[3,0],[0]]","1","[[1,3,2],[0,0],[0]]","22","0","","","","","","3","","","","","","","","",""
"","","","","","single-stim-button","330","725320","0.0-2.0-77.0-1.0","5dd340e3e25acf34bf91032e","B2","batch2","","975","tol_toboard","","","","tol_peg_3","975","975","0","[[1,0,0],[3,0],[2]]","1","[[1,3,2],[0,0],[0]]","22","0","","","","","","3","","","","","","","","",""
"","","","","","single-stim-button","331","725784","0.0-2.0-77.1-0.1","5dd340e3e25acf34bf91032e","B2","batch2","","462","tol_tohand","","","","tol_peg_2","462","462","0","[[1,0,0],[0,0],[2]]","2","[[1,3,2],[0,0],[0]]","22","0","","","","","","3","","","","","","","","",""
"","","","","","single-stim-button","332","726392","0.0-2.0-77.1-1.1","5dd340e3e25acf34bf91032e","B2","batch2","","608","tol_toboard","","","","tol_peg_1","608","608","0","[[1,3,0],[0,0],[2]]","2","[[1,3,2],[0,0],[0]]","22","0","","","","","","3","","","","","","","","",""
"","","","","","single-stim-button","333","727120","0.0-2.0-77.2-0.2","5dd340e3e25acf34bf91032e","B2","batch2","","726","tol_tohand","","","","tol_peg_3","726","726","0","[[1,3,0],[0,0],[0]]","3","[[1,3,2],[0,0],[0]]","22","0","","","","","","3","","","","","","","","",""
"","","","","","single-stim-button","334","727656","0.0-2.0-77.2-1.2","5dd340e3e25acf34bf91032e","B2","batch2","","535","tol_toboard","","","","tol_peg_1","535","535","0","[[1,3,2],[0,0],[0]]","3","[[1,3,2],[0,0],[0]]","22","0","","","","","","3","","","","","","","","",""
"","","","","","poldrack-single-stim","335","728661","0.0-2.0-78.0","5dd340e3e25acf34bf91032e","B2","batch2","","-1","tol_feedback","","","true","","1000","1000","500","","","","","","-1","none","true","8023","9211","","","","","","","","","",""
"","","","","","html-button-response","336","729768","0.0-2.0-79.0","5dd340e3e25acf34bf91032e","B2","batch2","","1105.4000000059605","tol_trial_num","<div class = centerbox><p class = center-block-text>problem <strong>24</strong> out of 25 problems</p></div>","0","","","","","","","","","","","","","","","","","","","","","","","","",""
"","","","","","single-stim-button","337","736881","0.0-2.0-80.0-0.0","5dd340e3e25acf34bf91032e","B2","batch2","","7111","tol_tohand","","","","tol_peg_3","7111","7111","0","[[0,0,0],[2,3],[0]]","1","[[2,0,0],[3,0],[1]]","23","0","","","","","","7","","","","","","","","",""
"","","","","","single-stim-button","338","737776","0.0-2.0-80.0-1.0","5dd340e3e25acf34bf91032e","B2","batch2","","895","tol_toboard","","","","tol_peg_1","895","895","0","[[1,0,0],[2,3],[0]]","1","[[2,0,0],[3,0],[1]]","23","0","","","","","","7","","","","","","","","",""
"","","","","","single-stim-button","339","738384","0.0-2.0-80.1-0.1","5dd340e3e25acf34bf91032e","B2","batch2","","607","tol_tohand","","","","tol_peg_2","607","607","0","[[1,0,0],[2,0],[0]]","2","[[2,0,0],[3,0],[1]]","23","0","","","","","","7","","","","","","","","",""
"","","","","","single-stim-button","340","741336","0.0-2.0-80.1-1.1","5dd340e3e25acf34bf91032e","B2","batch2","","2951","tol_toboard","","","","tol_peg_1","2951","2951","0","[[1,3,0],[2,0],[0]]","2","[[2,0,0],[3,0],[1]]","23","0","","","","","","7","","","","","","","","",""
"","","","","","single-stim-button","341","741904","0.0-2.0-80.2-0.2","5dd340e3e25acf34bf91032e","B2","batch2","","567","tol_tohand","","","","tol_peg_2","567","567","0","[[1,3,0],[0,0],[0]]","3","[[2,0,0],[3,0],[1]]","23","0","","","","","","7","","","","","","","","",""
"","","","","","single-stim-button","342","742592","0.0-2.0-80.2-1.2","5dd340e3e25acf34bf91032e","B2","batch2","","688","tol_toboard","","","","tol_peg_3","688","688","0","[[1,3,0],[0,0],[2]]","3","[[2,0,0],[3,0],[1]]","23","0","","","","","","7","","","","","","","","",""
"","","","","","single-stim-button","343","743233","0.0-2.0-80.3-0.3","5dd340e3e25acf34bf91032e","B2","batch2","","641","tol_tohand","","","","tol_peg_1","641","641","0","[[1,0,0],[0,0],[2]]","4","[[2,0,0],[3,0],[1]]","23","0","","","","","","7","","","","","","","","",""
"","","","","","single-stim-button","344","743681","0.0-2.0-80.3-1.3","5dd340e3e25acf34bf91032e","B2","batch2","","447","tol_toboard","","","","tol_peg_2","447","447","0","[[1,0,0],[3,0],[2]]","4","[[2,0,0],[3,0],[1]]","23","0","","","","","","7","","","","","","","","",""
"","","","","","single-stim-button","345","744168","0.0-2.0-80.4-0.4","5dd340e3e25acf34bf91032e","B2","batch2","","486","tol_tohand","","","","tol_peg_1","486","486","0","[[0,0,0],[3,0],[2]]","5","[[2,0,0],[3,0],[1]]","23","0","","","","","","7","","","","","","","","",""
"","","","","","single-stim-button","346","745081","0.0-2.0-80.4-1.4","5dd340e3e25acf34bf91032e","B2","batch2","","912","tol_toboard","","","","tol_peg_2","912","912","0","[[0,0,0],[3,1],[2]]","5","[[2,0,0],[3,0],[1]]","23","0","","","","","","7","","","","","","","","",""
"","","","","","single-stim-button","347","745808","0.0-2.0-80.5-0.5","5dd340e3e25acf34bf91032e","B2","batch2","","727","tol_tohand","","","","tol_peg_3","727","727","0","[[0,0,0],[3,1],[0]]","6","[[2,0,0],[3,0],[1]]","23","0","","","","","","7","","","","","","","","",""
"","","","","","single-stim-button","348","746713","0.0-2.0-80.5-1.5","5dd340e3e25acf34bf91032e","B2","batch2","","903","tol_toboard","","","","tol_peg_1","903","903","0","[[2,0,0],[3,1],[0]]","6","[[2,0,0],[3,0],[1]]","23","0","","","","","","7","","","","","","","","",""
"","","","","","single-stim-button","349","747616","0.0-2.0-80.6-0.6","5dd340e3e25acf34bf91032e","B2","batch2","","902","tol_tohand","","","","tol_peg_2","902","902","0","[[2,0,0],[3,0],[0]]","7","[[2,0,0],[3,0],[1]]","23","0","","","","","","7","","","","","","","","",""
"","","","","","single-stim-button","350","748696","0.0-2.0-80.6-1.6","5dd340e3e25acf34bf91032e","B2","batch2","","1079","tol_toboard","","","","tol_peg_3","1079","1079","0","[[2,0,0],[3,0],[1]]","7","[[2,0,0],[3,0],[1]]","23","0","","","","","","7","","","","","","","","",""
"","","","","","poldrack-single-stim","351","749699","0.0-2.0-81.0","5dd340e3e25acf34bf91032e","B2","batch2","","-1","tol_feedback","","","true","","1000","1000","500","","","","","","-1","none","true","7111","11041","","","","","","","","","",""
"","","","","","html-button-response","352","750903","0.0-2.0-82.0","5dd340e3e25acf34bf91032e","B2","batch2","","1203.5999999940395","tol_trial_num","<div class = centerbox><p class = center-block-text>problem <strong>25</strong> out of 25 problems</p></div>","0","","","","","","","","","","","","","","","","","","","","","","","","",""
"","","","","","single-stim-button","353","756032","0.0-2.0-83.0-0.0","5dd340e3e25acf34bf91032e","B2","batch2","","5128","tol_tohand","","","","tol_peg_2","5128","5128","0","[[1,2,0],[0,0],[0]]","1","[[3,0,0],[1,0],[2]]","24","0","","","","","","7","","","","","","","","",""
"","","","","","single-stim-button","354","756801","0.0-2.0-83.0-1.0","5dd340e3e25acf34bf91032e","B2","batch2","","767","tol_toboard","","","","tol_peg_3","767","767","0","[[1,2,0],[0,0],[3]]","1","[[3,0,0],[1,0],[2]]","24","0","","","","","","7","","","","","","","","",""
"","","","","","single-stim-button","355","757625","0.0-2.0-83.1-0.1","5dd340e3e25acf34bf91032e","B2","batch2","","823","tol_tohand","","","","tol_peg_1","823","823","0","[[1,0,0],[0,0],[3]]","2","[[3,0,0],[1,0],[2]]","24","0","","","","","","7","","","","","","","","",""
