"success","timeout","failed_images","failed_audio","failed_video","trial_type","trial_index","time_elapsed","internal_node_id","subject_id","study_id","session_id","view_history","rt","stimulus","response","task","correct","answer","item","fiar_detect_rt","fiar_detect_correct","total_correct_fiar_detect","post_trial_gap","choices","mouse_click","stim_duration","block_duration","timing_post_trial","current_position","tol_num_moves_made","tol_target","tol_problem_id","tol_rt","key_press","possible_responses","tol_correct","preplanning","tol_rt_per_trial","tol_min_moves","spm_correct","spm_rt"
"true","false","[]","[]","[]","preload","0","2946","0.0-0.0","5ddc56d18ed6bfbc2cbb34bb","C3","batch3","","","","","","","","","","","","","","","","","","","","","","","","","","","","","",""
"true","","","","","fullscreen","1","22157","0.0-1.0-0.0","5ddc56d18ed6bfbc2cbb34bb","C3","batch3","","","","","","","","","","","","","","","","","","","","","","","","","","","","","",""
"true","","","","","fullscreen","2","28069","0.0-2.0-0.0","5ddc56d18ed6bfbc2cbb34bb","C3","batch3","","","","","","","","","","","","","","","","","","","","","","","","","","","","","",""
"","","","","","instructions","3","46119","0.0-2.0-1.0-0.0","5ddc56d18ed6bfbc2cbb34bb","C3","batch3","[{""page_index"":0,""viewing_time"":12018.5},{""page_index"":1,""viewing_time"":6030.900000095367}]","18049.599999904633","","","","","","","","","","","","","","","","","","","","","","","","","","","",""
"","","","","","html-button-response","4","48463","0.0-2.0-1.0-1.0-0.0","5ddc56d18ed6bfbc2cbb34bb","C3","batch3","","2343.5","<p class=block-text> Let's answer a few questions <br>","0","pattern_enter_quiz","","","","","","","","","","","","","","","","","","","","","","","","",""
"","","","","","html-button-response","5","50988","0.0-2.0-1.0-1.0-1.0","5ddc56d18ed6bfbc2cbb34bb","C3","batch3","","2524.300000190735","<p class = block-text>True or False: You will have as much time as you want to make each choice. <br></p>","1","pattern_quiz","true","","","","","","","","","","","","","","","","","","","","","","","",""
"","","","","","html-button-response","6","52564","0.0-2.0-1.0-1.0-2.0","5ddc56d18ed6bfbc2cbb34bb","C3","batch3","","1575.2000002861023","<p class = block-text>Correct! You should make your choice <strong> as fast as you can</strong>.</p>","0","pattern_quiz_feedback","","","","","","","","","","","","","","","","","","","","","","","","",""
"","","","","","html-button-response","7","56257","0.0-2.0-1.0-1.0-3.0","5ddc56d18ed6bfbc2cbb34bb","C3","batch3","","3692.300000190735","<p class = block-text>True or False: You will look for 4 pieces in black or white color connected in a row either horizontally, vertically or diagonally. <br></p>","0","pattern_quiz","true","","","","","","","","","","","","","","","","","","","","","","","",""
"","","","","","html-button-response","8","56942","0.0-2.0-1.0-1.0-4.0","5ddc56d18ed6bfbc2cbb34bb","C3","batch3","","684.4000000953674","<p class = block-text>Correct! </p>","0","pattern_quiz_feedback","","","","","","","","","","","","","","","","","","","","","","","","",""
"","","","","","html-button-response","9","59315","0.0-2.0-2.0","5ddc56d18ed6bfbc2cbb34bb","C3","batch3","","2372.4000000953674","<p class=block-text> Now that you've understood the game, let's do a few practice trials before we start!<br> <br>","0","pattern_enter_practice","","","","","","","","","","","","","","","","","","","","","","","","",""
"","","","","","image-keyboard-response","10","60477","0.0-2.0-3.0-0.0","5ddc56d18ed6bfbc2cbb34bb","C3","batch3","","1161.4000000953674","stim/prac_no_18_1.png","j","pattern_practice","true","j","","","","","","","","","","","","","","","","","","","","","","",""
"","","","","","html-keyboard-response","11","61486","0.0-2.0-3.0-1.0","5ddc56d18ed6bfbc2cbb34bb","C3","batch3","","null","<p style=""font-size:30px;color:green;"">Correct!</p>","null","pattern_feedback","","","","","","","","","","","","","","","","","","","","","","","","",""
"","","","","","image-keyboard-response","12","62158","0.0-2.0-3.0-0.1","5ddc56d18ed6bfbc2cbb34bb","C3","batch3","","671.7000002861023","stim/prac_yes_20_dia_b1.png","f","pattern_practice","true","f","","","","","","","","","","","","","","","","","","","","","","",""
"","","","","","html-keyboard-response","13","63168","0.0-2.0-3.0-1.1","5ddc56d18ed6bfbc2cbb34bb","C3","batch3","","null","<p style=""font-size:30px;color:green;"">Correct!</p>","null","pattern_feedback","","","","","","","","","","","","","","","","","","","","","","","","",""
"","","","","","image-keyboard-response","14","63898","0.0-2.0-3.0-0.2","5ddc56d18ed6bfbc2cbb34bb","C3","batch3","","729.5999999046326","stim/prac_yes_18_hor_w1.png","j","pattern_practice","false","f","","","","","","","","","","","","","","","","","","","","","","",""
"","","","","","html-keyboard-response","15","64903","0.0-2.0-3.0-1.2","5ddc56d18ed6bfbc2cbb34bb","C3","batch3","","null","<p style=""font-size:30px;color:red;"">Wrong.</p>","null","pattern_feedback","","","","","","","","","","","","","","","","","","","","","","","","",""
"","","","","","image-keyboard-response","16","65652","0.0-2.0-3.0-0.3","5ddc56d18ed6bfbc2cbb34bb","C3","batch3","","748.4000000953674","stim/prac_yes_16_ver_w1.png","f","pattern_practice","true","f","","","","","","","","","","","","","","","","","","","","","","",""
"","","","","","html-keyboard-response","17","66660","0.0-2.0-3.0-1.3","5ddc56d18ed6bfbc2cbb34bb","C3","batch3","","null","<p style=""font-size:30px;color:green;"">Correct!</p>","null","pattern_feedback","","","","","","","","","","","","","","","","","","","","","","","","",""
"","","","","","image-keyboard-response","18","67404","0.0-2.0-3.0-0.4","5ddc56d18ed6bfbc2cbb34bb","C3","batch3","","743.0999999046326","stim/prac_no_16_1.png","j","pattern_practice","true","j","","","","","","","","","","","","","","","","","","","","","","",""
"","","","","","html-keyboard-response","19","68424","0.0-2.0-3.0-1.4","5ddc56d18ed6bfbc2cbb34bb","C3","batch3","","null","<p style=""font-size:30px;color:green;"">Correct!</p>","null","pattern_feedback","","","","","","","","","","","","","","","","","","","","","","","","",""
"","","","","","html-button-response","20","72243","0.0-2.0-4.0","5ddc56d18ed6bfbc2cbb34bb","C3","batch3","","3819.0999999046326","<p class=block-text> Good job! You are done with practice trials!<br>
        You responded correctly on 80% of the trials.<br>
        Press the button below to start official trials. Now you won't see any feedback about your response</p>","0","pattern_enter_official_trials","","","","","","","","","","","","","","","","","","","","","","","","",""
"","","","","","html-keyboard-response","21","73057","0.0-2.0-5.0-0.0","5ddc56d18ed6bfbc2cbb34bb","C3","batch3","","null","<p class=block-text>Trial 1 out of 78</p>","null","pattern_show_trial_num","","","","","","","","","","","","","","","","","","","","","","","","",""
"","","","","","image-keyboard-response","22","74179","0.0-2.0-5.0-1.0","5ddc56d18ed6bfbc2cbb34bb","C3","batch3","","1121.5999999046326","stim/no_28_2.png","j","pattern_response","true","j","pattern_11","1121.5999999046326","true","1","","","","","","","","","","","","","","","","","","",""
"","","","","","html-keyboard-response","23","75493","0.0-2.0-5.0-0.1","5ddc56d18ed6bfbc2cbb34bb","C3","batch3","","null","<p class=block-text>Trial 2 out of 78</p>","null","pattern_show_trial_num","","","","","","","","","","","","","","","","","","","","","","","","",""
"","","","","","image-keyboard-response","24","76734","0.0-2.0-5.0-1.1","5ddc56d18ed6bfbc2cbb34bb","C3","batch3","","1240.5","stim/yes_42_dia_w1_w.png","j","pattern_response","false","f","pattern_64","1240.5","false","1","","","","","","","","","","","","","","","","","","",""
"","","","","","html-keyboard-response","25","78060","0.0-2.0-5.0-0.2","5ddc56d18ed6bfbc2cbb34bb","C3","batch3","","null","<p class=block-text>Trial 3 out of 78</p>","null","pattern_show_trial_num","","","","","","","","","","","","","","","","","","","","","","","","",""
"","","","","","image-keyboard-response","26","79028","0.0-2.0-5.0-1.2","5ddc56d18ed6bfbc2cbb34bb","C3","batch3","","967.1999998092651","stim/yes_37_hor_w1_w.png","f","pattern_response","true","f","pattern_60","967.1999998092651","true","2","","","","","","","","","","","","","","","","","","",""
"","","","","","html-keyboard-response","27","80347","0.0-2.0-5.0-0.3","5ddc56d18ed6bfbc2cbb34bb","C3","batch3","","null","<p class=block-text>Trial 4 out of 78</p>","null","pattern_show_trial_num","","","","","","","","","","","","","","","","","","","","","","","","",""
"","","","","","image-keyboard-response","28","81751","0.0-2.0-5.0-1.3","5ddc56d18ed6bfbc2cbb34bb","C3","batch3","","1403.4000000953674","stim/no_37_2_w.png","j","pattern_response","true","j","pattern_19","1403.4000000953674","true","3","","","","","","","","","","","","","","","","","","",""
"","","","","","html-keyboard-response","29","83055","0.0-2.0-5.0-0.4","5ddc56d18ed6bfbc2cbb34bb","C3","batch3","","null","<p class=block-text>Trial 5 out of 78</p>","null","pattern_show_trial_num","","","","","","","","","","","","","","","","","","","","","","","","",""
"","","","","","image-keyboard-response","30","84714","0.0-2.0-5.0-1.4","5ddc56d18ed6bfbc2cbb34bb","C3","batch3","","1658.5","stim/no_51_1.png","j","pattern_response","true","j","pattern_31","1658.5","true","4","","","","","","","","","","","","","","","","","","",""
"","","","","","html-keyboard-response","31","86041","0.0-2.0-5.0-0.5","5ddc56d18ed6bfbc2cbb34bb","C3","batch3","","null","<p class=block-text>Trial 6 out of 78</p>","null","pattern_show_trial_num","","","","","","","","","","","","","","","","","","","","","","","","",""
"","","","","","image-keyboard-response","32","86802","0.0-2.0-5.0-1.5","5ddc56d18ed6bfbc2cbb34bb","C3","batch3","","760.5999999046326","stim/yes_12_hor_w1_w.png","f","pattern_response","true","f","pattern_42","760.5999999046326","true","5","","","","","","","","","","","","","","","","","","",""
"","","","","","html-keyboard-response","33","88109","0.0-2.0-5.0-0.6","5ddc56d18ed6bfbc2cbb34bb","C3","batch3","","null","<p class=block-text>Trial 7 out of 78</p>","null","pattern_show_trial_num","","","","","","","","","","","","","","","","","","","","","","","","",""
"","","","","","image-keyboard-response","34","89496","0.0-2.0-5.0-1.6","5ddc56d18ed6bfbc2cbb34bb","C3","batch3","","1386","stim/yes_51_dia_b1.png","j","pattern_response","false","f","pattern_72","1386","false","5","","","","","","","","","","","","","","","","","","",""
"","","","","","html-keyboard-response","35","90818","0.0-2.0-5.0-0.7","5ddc56d18ed6bfbc2cbb34bb","C3","batch3","","null","<p class=block-text>Trial 8 out of 78</p>","null","pattern_show_trial_num","","","","","","","","","","","","","","","","","","","","","","","","",""
"","","","","","image-keyboard-response","36","91471","0.0-2.0-5.0-1.7","5ddc56d18ed6bfbc2cbb34bb","C3","batch3","","651.9000000953674","stim/yes_29_hor_b1_b.png","f","pattern_response","true","f","pattern_52","651.9000000953674","true","6","","","","","","","","","","","","","","","","","","",""
"","","","","","html-keyboard-response","37","92778","0.0-2.0-5.0-0.8","5ddc56d18ed6bfbc2cbb34bb","C3","batch3","","null","<p class=block-text>Trial 9 out of 78</p>","null","pattern_show_trial_num","","","","","","","","","","","","","","","","","","","","","","","","",""
"","","","","","image-keyboard-response","38","94774","0.0-2.0-5.0-1.8","5ddc56d18ed6bfbc2cbb34bb","C3","batch3","","1995.6999998092651","stim/yes_63_dia_b1.png","j","pattern_response","false","f","pattern_78","1995.6999998092651","false","6","","","","","","","","","","","","","","","","","","",""
"","","","","","html-keyboard-response","39","96088","0.0-2.0-5.0-0.9","5ddc56d18ed6bfbc2cbb34bb","C3","batch3","","null","<p class=block-text>Trial 10 out of 78</p>","null","pattern_show_trial_num","","","","","","","","","","","","","","","","","","","","","","","","",""
"","","","","","image-keyboard-response","40","96858","0.0-2.0-5.0-1.9","5ddc56d18ed6bfbc2cbb34bb","C3","batch3","","769","stim/yes_36_ver_w1_w.png","f","pattern_response","true","f","pattern_58","769","true","7","","","","","","","","","","","","","","","","","","",""
"","","","","","html-keyboard-response","41","98183","0.0-2.0-5.0-0.10","5ddc56d18ed6bfbc2cbb34bb","C3","batch3","","null","<p class=block-text>Trial 11 out of 78</p>","null","pattern_show_trial_num","","","","","","","","","","","","","","","","","","","","","","","","",""
"","","","","","image-keyboard-response","42","100048","0.0-2.0-5.0-1.10","5ddc56d18ed6bfbc2cbb34bb","C3","batch3","","1864.3000001907349","stim/no_53_1_b.png","j","pattern_response","true","j","pattern_33","1864.3000001907349","true","8","","","","","","","","","","","","","","","","","","",""
"","","","","","html-keyboard-response","43","101373","0.0-2.0-5.0-0.11","5ddc56d18ed6bfbc2cbb34bb","C3","batch3","","null","<p class=block-text>Trial 12 out of 78</p>","null","pattern_show_trial_num","","","","","","","","","","","","","","","","","","","","","","","","",""
"","","","","","image-keyboard-response","44","102017","0.0-2.0-5.0-1.11","5ddc56d18ed6bfbc2cbb34bb","C3","batch3","","643","stim/yes_17_ver_b1_b.png","f","pattern_response","true","f","pattern_46","643","true","9","","","","","","","","","","","","","","","","","","",""
"","","","","","html-keyboard-response","45","103343","0.0-2.0-5.0-0.12","5ddc56d18ed6bfbc2cbb34bb","C3","batch3","","null","<p class=block-text>Trial 13 out of 78</p>","null","pattern_show_trial_num","","","","","","","","","","","","","","","","","","","","","","","","",""
"","","","","","image-keyboard-response","46","104802","0.0-2.0-5.0-1.12","5ddc56d18ed6bfbc2cbb34bb","C3","batch3","","1458.8000001907349","stim/no_58_1_w.png","j","pattern_response","true","j","pattern_35","1458.8000001907349","true","10","","","","","","","","","","","","","","","","","","",""
"","","","","","html-keyboard-response","47","106109","0.0-2.0-5.0-0.13","5ddc56d18ed6bfbc2cbb34bb","C3","batch3","","null","<p class=block-text>Trial 14 out of 78</p>","null","pattern_show_trial_num","","","","","","","","","","","","","","","","","","","","","","","","",""
"","","","","","image-keyboard-response","48","107915","0.0-2.0-5.0-1.13","5ddc56d18ed6bfbc2cbb34bb","C3","batch3","","1805.5999999046326","stim/no_49_2_b.png","j","pattern_response","true","j","pattern_29","1805.5999999046326","true","11","","","","","","","","","","","","","","","","","","",""
"","","","","","html-keyboard-response","49","109219","0.0-2.0-5.0-0.14","5ddc56d18ed6bfbc2cbb34bb","C3","batch3","","null","<p class=block-text>Trial 15 out of 78</p>","null","pattern_show_trial_num","","","","","","","","","","","","","","","","","","","","","","","","",""
"","","","","","image-keyboard-response","50","110796","0.0-2.0-5.0-1.14","5ddc56d18ed6bfbc2cbb34bb","C3","batch3","","1576.7999997138977","stim/yes_58_dia_w1_w.png","j","pattern_response","false","f","pattern_76","1576.7999997138977","false","11","","","","","","","","","","","","","","","","","","",""
"","","","","","html-keyboard-response","51","112114","0.0-2.0-5.0-0.15","5ddc56d18ed6bfbc2cbb34bb","C3","batch3","","null","<p class=block-text>Trial 16 out of 78</p>","null","pattern_show_trial_num","","","","","","","","","","","","","","","","","","","","","","","","",""
"","","","","","image-keyboard-response","52","113304","0.0-2.0-5.0-1.15","5ddc56d18ed6bfbc2cbb34bb","C3","batch3","","1188.9000000953674","stim/no_22_1_b.png","j","pattern_response","true","j","pattern_07","1188.9000000953674","true","12","","","","","","","","","","","","","","","","","","",""
"","","","","","html-keyboard-response","53","114625","0.0-2.0-5.0-0.16","5ddc56d18ed6bfbc2cbb34bb","C3","batch3","","null","<p class=block-text>Trial 17 out of 78</p>","null","pattern_show_trial_num","","","","","","","","","","","","","","","","","","","","","","","","",""
"","","","","","image-keyboard-response","54","115856","0.0-2.0-5.0-1.16","5ddc56d18ed6bfbc2cbb34bb","C3","batch3","","1230.5","stim/yes_49_hor_w1_b.png","f","pattern_response","true","f","pattern_70","1230.5","true","13","","","","","","","","","","","","","","","","","","",""
"","","","","","html-keyboard-response","55","117182","0.0-2.0-5.0-0.17","5ddc56d18ed6bfbc2cbb34bb","C3","batch3","","null","<p class=block-text>Trial 18 out of 78</p>","null","pattern_show_trial_num","","","","","","","","","","","","","","","","","","","","","","","","",""
"","","","","","image-keyboard-response","56","118655","0.0-2.0-5.0-1.17","5ddc56d18ed6bfbc2cbb34bb","C3","batch3","","1471","stim/no_36_1_b.png","j","pattern_response","true","j","pattern_17","1471","true","14","","","","","","","","","","","","","","","","","","",""
"","","","","","html-keyboard-response","57","119984","0.0-2.0-5.0-0.18","5ddc56d18ed6bfbc2cbb34bb","C3","batch3","","null","<p class=block-text>Trial 19 out of 78</p>","null","pattern_show_trial_num","","","","","","","","","","","","","","","","","","","","","","","","",""
"","","","","","image-keyboard-response","58","122629","0.0-2.0-5.0-1.18","5ddc56d18ed6bfbc2cbb34bb","C3","batch3","","2644.2999997138977","stim/yes_53_ver_b1_b.png","f","pattern_response","true","f","pattern_74","2644.2999997138977","true","15","","","","","","","","","","","","","","","","","","",""
"","","","","","html-keyboard-response","59","123936","0.0-2.0-5.0-0.19","5ddc56d18ed6bfbc2cbb34bb","C3","batch3","","null","<p class=block-text>Trial 20 out of 78</p>","null","pattern_show_trial_num","","","","","","","","","","","","","","","","","","","","","","","","",""
"","","","","","image-keyboard-response","60","124489","0.0-2.0-5.0-1.19","5ddc56d18ed6bfbc2cbb34bb","C3","batch3","","552.3000001907349","stim/yes_15_dia_b1u_b.png","f","pattern_response","true","f","pattern_44","552.3000001907349","true","16","","","","","","","","","","","","","","","","","","",""
"","","","","","html-keyboard-response","61","125809","0.0-2.0-5.0-0.20","5ddc56d18ed6bfbc2cbb34bb","C3","batch3","","null","<p class=block-text>Trial 21 out of 78</p>","null","pattern_show_trial_num","","","","","","","","","","","","","","","","","","","","","","","","",""
"","","","","","image-keyboard-response","62","126929","0.0-2.0-5.0-1.20","5ddc56d18ed6bfbc2cbb34bb","C3","batch3","","1119.5999999046326","stim/no_18_1_b.png","j","pattern_response","true","j","pattern_05","1119.5999999046326","true","17","","","","","","","","","","","","","","","","","","",""
"","","","","","html-keyboard-response","63","128245","0.0-2.0-5.0-0.21","5ddc56d18ed6bfbc2cbb34bb","C3","batch3","","null","<p class=block-text>Trial 22 out of 78</p>","null","pattern_show_trial_num","","","","","","","","","","","","","","","","","","","","","","","","",""
"","","","","","image-keyboard-response","64","130920","0.0-2.0-5.0-1.21","5ddc56d18ed6bfbc2cbb34bb","C3","batch3","","2674.4000000953674","stim/no_39_1_w.png","j","pattern_response","true","j","pattern_21","2674.4000000953674","true","18","","","","","","","","","","","","","","","","","","",""
"","","","","","html-keyboard-response","65","132222","0.0-2.0-5.0-0.22","5ddc56d18ed6bfbc2cbb34bb","C3","batch3","","null","<p class=block-text>Trial 23 out of 78</p>","null","pattern_show_trial_num","","","","","","","","","","","","","","","","","","","","","","","","",""
"","","","","","image-keyboard-response","66","134604","0.0-2.0-5.0-1.22","5ddc56d18ed6bfbc2cbb34bb","C3","batch3","","2380.5","stim/no_45_1_w.png","j","pattern_response","true","j","pattern_25","2380.5","true","19","","","","","","","","","","","","","","","","","","",""
"","","","","","html-keyboard-response","67","135917","0.0-2.0-5.0-0.23","5ddc56d18ed6bfbc2cbb34bb","C3","batch3","","null","<p class=block-text>Trial 24 out of 78</p>","null","pattern_show_trial_num","","","","","","","","","","","","","","","","","","","","","","","","",""
"","","","","","image-keyboard-response","68","136541","0.0-2.0-5.0-1.23","5ddc56d18ed6bfbc2cbb34bb","C3","batch3","","623.1999998092651","stim/yes_30_ver_b1_b.png","f","pattern_response","true","f","pattern_54","623.1999998092651","true","20","","","","","","","","","","","","","","","","","","",""
"","","","","","html-keyboard-response","69","137858","0.0-2.0-5.0-0.24","5ddc56d18ed6bfbc2cbb34bb","C3","batch3","","null","<p class=block-text>Trial 25 out of 78</p>","null","pattern_show_trial_num","","","","","","","","","","","","","","","","","","","","","","","","",""
"","","","","","image-keyboard-response","70","138634","0.0-2.0-5.0-1.24","5ddc56d18ed6bfbc2cbb34bb","C3","batch3","","775.1999998092651","stim/yes_23_ver_b1.png","f","pattern_response","true","f","pattern_48","775.1999998092651","true","21","","","","","","","","","","","","","","","","","","",""
"","","","","","html-keyboard-response","71","139951","0.0-2.0-5.0-0.25","5ddc56d18ed6bfbc2cbb34bb","C3","batch3","","null","<p class=block-text>Trial 26 out of 78</p>","null","pattern_show_trial_num","","","","","","","","","","","","","","","","","","","","","","","","",""
"","","","","","image-keyboard-response","72","140731","0.0-2.0-5.0-1.25","5ddc56d18ed6bfbc2cbb34bb","C3","batch3","","778.6999998092651","stim/no_12_1.png","j","pattern_response","true","j","pattern_01","778.6999998092651","true","22","","","","","","","","","","","","","","","","","","",""
"","","","","","html-keyboard-response","73","142049","0.0-2.0-5.0-0.26","5ddc56d18ed6bfbc2cbb34bb","C3","batch3","","null","<p class=block-text>Trial 27 out of 78</p>","null","pattern_show_trial_num","","","","","","","","","","","","","","","","","","","","","","","","",""
"","","","","","image-keyboard-response","74","144081","0.0-2.0-5.0-1.26","5ddc56d18ed6bfbc2cbb34bb","C3","batch3","","2030.7999997138977","stim/no_33_1_b.png","j","pattern_response","true","j","pattern_15","2030.7999997138977","true","23","","","","","","","","","","","","","","","","","","",""
"","","","","","html-keyboard-response","75","145406","0.0-2.0-5.0-0.27","5ddc56d18ed6bfbc2cbb34bb","C3","batch3","","null","<p class=block-text>Trial 28 out of 78</p>","null","pattern_show_trial_num","","","","","","","","","","","","","","","","","","","","","","","","",""
"","","","","","image-keyboard-response","76","146804","0.0-2.0-5.0-1.27","5ddc56d18ed6bfbc2cbb34bb","C3","batch3","","1396.5","stim/yes_46_ver_b1_b.png","f","pattern_response","true","f","pattern_68","1396.5","true","24","","","","","","","","","","","","","","","","","","",""
"","","","","","html-keyboard-response","77","148126","0.0-2.0-5.0-0.28","5ddc56d18ed6bfbc2cbb34bb","C3","batch3","","null","<p class=block-text>Trial 29 out of 78</p>","null","pattern_show_trial_num","","","","","","","","","","","","","","","","","","","","","","","","",""
"","","","","","image-keyboard-response","78","148953","0.0-2.0-5.0-1.28","5ddc56d18ed6bfbc2cbb34bb","C3","batch3","","826","stim/no_15_1_w.png","j","pattern_response","true","j","pattern_03","826","true","25","","","","","","","","","","","","","","","","","","",""
"","","","","","html-keyboard-response","79","150268","0.0-2.0-5.0-0.29","5ddc56d18ed6bfbc2cbb34bb","C3","batch3","","null","<p class=block-text>Trial 30 out of 78</p>","null","pattern_show_trial_num","","","","","","","","","","","","","","","","","","","","","","","","",""
"","","","","","image-keyboard-response","80","151314","0.0-2.0-5.0-1.29","5ddc56d18ed6bfbc2cbb34bb","C3","batch3","","1045.0999999046326","stim/yes_26_dia_w2_w.png","f","pattern_response","true","f","pattern_50","1045.0999999046326","true","26","","","","","","","","","","","","","","","","","","",""
"","","","","","html-keyboard-response","81","152633","0.0-2.0-5.0-0.30","5ddc56d18ed6bfbc2cbb34bb","C3","batch3","","null","<p class=block-text>Trial 31 out of 78</p>","null","pattern_show_trial_num","","","","","","","","","","","","","","","","","","","","","","","","",""
"","","","","","image-keyboard-response","82","153608","0.0-2.0-5.0-1.30","5ddc56d18ed6bfbc2cbb34bb","C3","batch3","","973.9000000953674","stim/yes_70_ver_b1.png","f","pattern_response","true","f","pattern_80","973.9000000953674","true","27","","","","","","","","","","","","","","","","","","",""
"","","","","","html-keyboard-response","83","154927","0.0-2.0-5.0-0.31","5ddc56d18ed6bfbc2cbb34bb","C3","batch3","","null","<p class=block-text>Trial 32 out of 78</p>","null","pattern_show_trial_num","","","","","","","","","","","","","","","","","","","","","","","","",""
"","","","","","image-keyboard-response","84","156086","0.0-2.0-5.0-1.31","5ddc56d18ed6bfbc2cbb34bb","C3","batch3","","1158.0999999046326","stim/yes_44_ver_w1_w.png","f","pattern_response","true","f","pattern_66","1158.0999999046326","true","28","","","","","","","","","","","","","","","","","","",""
"","","","","","html-keyboard-response","85","157400","0.0-2.0-5.0-0.32","5ddc56d18ed6bfbc2cbb34bb","C3","batch3","","null","<p class=block-text>Trial 33 out of 78</p>","null","pattern_show_trial_num","","","","","","","","","","","","","","","","","","","","","","","","",""
"","","","","","image-keyboard-response","86","159669","0.0-2.0-5.0-1.32","5ddc56d18ed6bfbc2cbb34bb","C3","batch3","","2267.7999997138977","stim/no_67_1.png","j","pattern_response","true","j","pattern_39","2267.7999997138977","true","29","","","","","","","","","","","","","","","","","","",""
"","","","","","html-keyboard-response","87","160996","0.0-2.0-5.0-0.33","5ddc56d18ed6bfbc2cbb34bb","C3","batch3","","null","<p class=block-text>Trial 34 out of 78</p>","null","pattern_show_trial_num","","","","","","","","","","","","","","","","","","","","","","","","",""
"","","","","","image-keyboard-response","88","161566","0.0-2.0-5.0-1.33","5ddc56d18ed6bfbc2cbb34bb","C3","batch3","","568.5","stim/yes_39_hor_w1_w.png","f","pattern_response","true","f","pattern_62","568.5","true","30","","","","","","","","","","","","","","","","","","",""
"","","","","","html-keyboard-response","89","162891","0.0-2.0-5.0-0.34","5ddc56d18ed6bfbc2cbb34bb","C3","batch3","","null","<p class=block-text>Trial 35 out of 78</p>","null","pattern_show_trial_num","","","","","","","","","","","","","","","","","","","","","","","","",""
"","","","","","image-keyboard-response","90","164723","0.0-2.0-5.0-1.34","5ddc56d18ed6bfbc2cbb34bb","C3","batch3","","1830.9000000953674","stim/no_43_2_b.png","j","pattern_response","true","j","pattern_23","1830.9000000953674","true","31","","","","","","","","","","","","","","","","","","",""
"","","","","","html-keyboard-response","91","166046","0.0-2.0-5.0-0.35","5ddc56d18ed6bfbc2cbb34bb","C3","batch3","","null","<p class=block-text>Trial 36 out of 78</p>","null","pattern_show_trial_num","","","","","","","","","","","","","","","","","","","","","","","","",""
"","","","","","image-keyboard-response","92","168779","0.0-2.0-5.0-1.35","5ddc56d18ed6bfbc2cbb34bb","C3","batch3","","2732.0999999046326","stim/no_47_1_b.png","j","pattern_response","true","j","pattern_27","2732.0999999046326","true","32","","","","","","","","","","","","","","","","","","",""
"","","","","","html-keyboard-response","93","170097","0.0-2.0-5.0-0.36","5ddc56d18ed6bfbc2cbb34bb","C3","batch3","","null","<p class=block-text>Trial 37 out of 78</p>","null","pattern_show_trial_num","","","","","","","","","","","","","","","","","","","","","","","","",""
"","","","","","image-keyboard-response","94","171595","0.0-2.0-5.0-1.36","5ddc56d18ed6bfbc2cbb34bb","C3","batch3","","1497.5","stim/no_30_1_b.png","j","pattern_response","true","j","pattern_13","1497.5","true","33","","","","","","","","","","","","","","","","","","",""
"","","","","","html-keyboard-response","95","172914","0.0-2.0-5.0-0.37","5ddc56d18ed6bfbc2cbb34bb","C3","batch3","","null","<p class=block-text>Trial 38 out of 78</p>","null","pattern_show_trial_num","","","","","","","","","","","","","","","","","","","","","","","","",""
"","","","","","image-keyboard-response","96","173628","0.0-2.0-5.0-1.37","5ddc56d18ed6bfbc2cbb34bb","C3","batch3","","712.5","stim/yes_33_dia_w1_w.png","f","pattern_response","true","f","pattern_56","712.5","true","34","","","","","","","","","","","","","","","","","","",""
"","","","","","html-keyboard-response","97","174942","0.0-2.0-5.0-0.38","5ddc56d18ed6bfbc2cbb34bb","C3","batch3","","null","<p class=block-text>Trial 39 out of 78</p>","null","pattern_show_trial_num","","","","","","","","","","","","","","","","","","","","","","","","",""
"","","","","","image-keyboard-response","98","176232","0.0-2.0-5.0-1.38","5ddc56d18ed6bfbc2cbb34bb","C3","batch3","","1288.4000000953674","stim/no_25_1_b.png","j","pattern_response","true","j","pattern_09","1288.4000000953674","true","35","","","","","","","","","","","","","","","","","","",""
"","","","","","image-keyboard-response","99","179157","0.0-2.0-6.0","5ddc56d18ed6bfbc2cbb34bb","C3","batch3","","2416.0999999046326","stim/empty_board.png","j","attention_check","true","j","","","","","500","[""f"",""j""]","","","","","","","","","","","","","","","","",""
"","","","","","html-keyboard-response","100","179965","0.0-2.0-7.0-0.0","5ddc56d18ed6bfbc2cbb34bb","C3","batch3","","null","<p class=block-text>Trial 40 out of 78</p>","null","pattern_show_trial_num","","","","","","","","","","","","","","","","","","","","","","","","",""
"","","","","","image-keyboard-response","101","181934","0.0-2.0-7.0-1.0","5ddc56d18ed6bfbc2cbb34bb","C3","batch3","","1968","stim/yes_31_hor_b1.png","f","pattern_response","true","f","pattern_55","1968","true","36","","","","","","","","","","","","","","","","","","",""
"","","","","","html-keyboard-response","102","183257","0.0-2.0-7.0-0.1","5ddc56d18ed6bfbc2cbb34bb","C3","batch3","","null","<p class=block-text>Trial 41 out of 78</p>","null","pattern_show_trial_num","","","","","","","","","","","","","","","","","","","","","","","","",""
"","","","","","image-keyboard-response","103","184980","0.0-2.0-7.0-1.1","5ddc56d18ed6bfbc2cbb34bb","C3","batch3","","1721.6999998092651","stim/yes_37_dia_w1.png","j","pattern_response","false","f","pattern_59","1721.6999998092651","false","36","","","","","","","","","","","","","","","","","","",""
"","","","","","html-keyboard-response","104","186303","0.0-2.0-7.0-0.2","5ddc56d18ed6bfbc2cbb34bb","C3","batch3","","null","<p class=block-text>Trial 42 out of 78</p>","null","pattern_show_trial_num","","","","","","","","","","","","","","","","","","","","","","","","",""
"","","","","","image-keyboard-response","105","187985","0.0-2.0-7.0-1.2","5ddc56d18ed6bfbc2cbb34bb","C3","batch3","","1680.7999997138977","stim/no_34_1_b.png","j","pattern_response","true","j","pattern_16","1680.7999997138977","true","37","","","","","","","","","","","","","","","","","","",""
"","","","","","html-keyboard-response","106","189302","0.0-2.0-7.0-0.3","5ddc56d18ed6bfbc2cbb34bb","C3","batch3","","null","<p class=block-text>Trial 43 out of 78</p>","null","pattern_show_trial_num","","","","","","","","","","","","","","","","","","","","","","","","",""
"","","","","","image-keyboard-response","107","190339","0.0-2.0-7.0-1.3","5ddc56d18ed6bfbc2cbb34bb","C3","batch3","","1035.5","stim/yes_29_ver_w1.png","f","pattern_response","true","f","pattern_53","1035.5","true","38","","","","","","","","","","","","","","","","","","",""
"","","","","","html-keyboard-response","108","191658","0.0-2.0-7.0-0.4","5ddc56d18ed6bfbc2cbb34bb","C3","batch3","","null","<p class=block-text>Trial 44 out of 78</p>","null","pattern_show_trial_num","","","","","","","","","","","","","","","","","","","","","","","","",""
"","","","","","image-keyboard-response","109","194614","0.0-2.0-7.0-1.4","5ddc56d18ed6bfbc2cbb34bb","C3","batch3","","2954.7999997138977","stim/no_48_1_w.png","j","pattern_response","true","j","pattern_28","2954.7999997138977","true","39","","","","","","","","","","","","","","","","","","",""
"","","","","","html-keyboard-response","110","195937","0.0-2.0-7.0-0.5","5ddc56d18ed6bfbc2cbb34bb","C3","batch3","","null","<p class=block-text>Trial 45 out of 78</p>","null","pattern_show_trial_num","","","","","","","","","","","","","","","","","","","","","","","","",""
"","","","","","image-keyboard-response","111","197586","0.0-2.0-7.0-1.5","5ddc56d18ed6bfbc2cbb34bb","C3","batch3","","1647.7999997138977","stim/yes_48_dia_w1_w.png","f","pattern_response","true","f","pattern_69","1647.7999997138977","true","40","","","","","","","","","","","","","","","","","","",""
"","","","","","html-keyboard-response","112","198893","0.0-2.0-7.0-0.6","5ddc56d18ed6bfbc2cbb34bb","C3","batch3","","null","<p class=block-text>Trial 46 out of 78</p>","null","pattern_show_trial_num","","","","","","","","","","","","","","","","","","","","","","","","",""
"","","","","","image-keyboard-response","113","201110","0.0-2.0-7.0-1.6","5ddc56d18ed6bfbc2cbb34bb","C3","batch3","","2215.5999999046326","stim/yes_43_ver_w1_w.png","f","pattern_response","true","f","pattern_65","2215.5999999046326","true","41","","","","","","","","","","","","","","","","","","",""
"","","","","","html-keyboard-response","114","202429","0.0-2.0-7.0-0.7","5ddc56d18ed6bfbc2cbb34bb","C3","batch3","","null","<p class=block-text>Trial 47 out of 78</p>","null","pattern_show_trial_num","","","","","","","","","","","","","","","","","","","","","","","","",""
"","","","","","image-keyboard-response","115","204056","0.0-2.0-7.0-1.7","5ddc56d18ed6bfbc2cbb34bb","C3","batch3","","1625.6999998092651","stim/no_29_1_b.png","j","pattern_response","true","j","pattern_12","1625.6999998092651","true","42","","","","","","","","","","","","","","","","","","",""
"","","","","","html-keyboard-response","116","205378","0.0-2.0-7.0-0.8","5ddc56d18ed6bfbc2cbb34bb","C3","batch3","","null","<p class=block-text>Trial 48 out of 78</p>","null","pattern_show_trial_num","","","","","","","","","","","","","","","","","","","","","","","","",""
"","","","","","image-keyboard-response","117","206819","0.0-2.0-7.0-1.8","5ddc56d18ed6bfbc2cbb34bb","C3","batch3","","1439.7000002861023","stim/yes_45_hor_b2_b.png","f","pattern_response","true","f","pattern_67","1439.7000002861023","true","43","","","","","","","","","","","","","","","","","","",""
"","","","","","html-keyboard-response","118","208146","0.0-2.0-7.0-0.9","5ddc56d18ed6bfbc2cbb34bb","C3","batch3","","null","<p class=block-text>Trial 49 out of 78</p>","null","pattern_show_trial_num","","","","","","","","","","","","","","","","","","","","","","","","",""
"","","","","","image-keyboard-response","119","208861","0.0-2.0-7.0-1.9","5ddc56d18ed6bfbc2cbb34bb","C3","batch3","","713.5","stim/yes_28_ver_b1.png","f","pattern_response","true","f","pattern_51","713.5","true","44","","","","","","","","","","","","","","","","","","",""
"","","","","","html-keyboard-response","120","210180","0.0-2.0-7.0-0.10","5ddc56d18ed6bfbc2cbb34bb","C3","batch3","","null","<p class=block-text>Trial 50 out of 78</p>","null","pattern_show_trial_num","","","","","","","","","","","","","","","","","","","","","","","","",""
"","","","","","image-keyboard-response","121","211013","0.0-2.0-7.0-1.10","5ddc56d18ed6bfbc2cbb34bb","C3","batch3","","831.9000000953674","stim/yes_22_ver_w1.png","f","pattern_response","true","f","pattern_47","831.9000000953674","true","45","","","","","","","","","","","","","","","","","","",""
"","","","","","html-keyboard-response","122","212327","0.0-2.0-7.0-0.11","5ddc56d18ed6bfbc2cbb34bb","C3","batch3","","null","<p class=block-text>Trial 51 out of 78</p>","null","pattern_show_trial_num","","","","","","","","","","","","","","","","","","","","","","","","",""
"","","","","","image-keyboard-response","123","213413","0.0-2.0-7.0-1.11","5ddc56d18ed6bfbc2cbb34bb","C3","batch3","","1084.6999998092651","stim/yes_52_ver_w1.png","f","pattern_response","true","f","pattern_73","1084.6999998092651","true","46","","","","","","","","","","","","","","","","","","",""
"","","","","","html-keyboard-response","124","214733","0.0-2.0-7.0-0.12","5ddc56d18ed6bfbc2cbb34bb","C3","batch3","","null","<p class=block-text>Trial 52 out of 78</p>","null","pattern_show_trial_num","","","","","","","","","","","","","","","","","","","","","","","","",""
"","","","","","image-keyboard-response","125","216098","0.0-2.0-7.0-1.12","5ddc56d18ed6bfbc2cbb34bb","C3","batch3","","1363.5999999046326","stim/no_32_1_w.png","j","pattern_response","true","j","pattern_14","1363.5999999046326","true","47","","","","","","","","","","","","","","","","","","",""
"","","","","","html-keyboard-response","126","217410","0.0-2.0-7.0-0.13","5ddc56d18ed6bfbc2cbb34bb","C3","batch3","","null","<p class=block-text>Trial 53 out of 78</p>","null","pattern_show_trial_num","","","","","","","","","","","","","","","","","","","","","","","","",""
"","","","","","image-keyboard-response","127","218009","0.0-2.0-7.0-1.13","5ddc56d18ed6bfbc2cbb34bb","C3","batch3","","598.0999999046326","stim/yes_14_hor_b1_w.png","f","pattern_response","true","f","pattern_43","598.0999999046326","true","48","","","","","","","","","","","","","","","","","","",""
"","","","","","html-keyboard-response","128","219338","0.0-2.0-7.0-0.14","5ddc56d18ed6bfbc2cbb34bb","C3","batch3","","null","<p class=block-text>Trial 54 out of 78</p>","null","pattern_show_trial_num","","","","","","","","","","","","","","","","","","","","","","","","",""
"","","","","","image-keyboard-response","129","222931","0.0-2.0-7.0-1.14","5ddc56d18ed6bfbc2cbb34bb","C3","batch3","","3592.0999999046326","stim/no_46_1_b.png","j","pattern_response","true","j","pattern_26","3592.0999999046326","true","49","","","","","","","","","","","","","","","","","","",""
"","","","","","html-keyboard-response","130","224240","0.0-2.0-7.0-0.15","5ddc56d18ed6bfbc2cbb34bb","C3","batch3","","null","<p class=block-text>Trial 55 out of 78</p>","null","pattern_show_trial_num","","","","","","","","","","","","","","","","","","","","","","","","",""
"","","","","","image-keyboard-response","131","227041","0.0-2.0-7.0-1.15","5ddc56d18ed6bfbc2cbb34bb","C3","batch3","","2800","stim/yes_50_dia_w1.png","j","pattern_response","false","f","pattern_71","2800","false","49","","","","","","","","","","","","","","","","","","",""
"","","","","","html-keyboard-response","132","228360","0.0-2.0-7.0-0.16","5ddc56d18ed6bfbc2cbb34bb","C3","batch3","","null","<p class=block-text>Trial 56 out of 78</p>","null","pattern_show_trial_num","","","","","","","","","","","","","","","","","","","","","","","","",""
"","","","","","image-keyboard-response","133","229295","0.0-2.0-7.0-1.16","5ddc56d18ed6bfbc2cbb34bb","C3","batch3","","933.5999999046326","stim/no_13_2_b.png","j","pattern_response","true","j","pattern_02","933.5999999046326","true","50","","","","","","","","","","","","","","","","","","",""
"","","","","","html-keyboard-response","134","230623","0.0-2.0-7.0-0.17","5ddc56d18ed6bfbc2cbb34bb","C3","batch3","","null","<p class=block-text>Trial 57 out of 78</p>","null","pattern_show_trial_num","","","","","","","","","","","","","","","","","","","","","","","","",""
"","","","","","image-keyboard-response","135","234273","0.0-2.0-7.0-1.17","5ddc56d18ed6bfbc2cbb34bb","C3","batch3","","3649.199999809265","stim/no_36_2_w.png","j","pattern_response","true","j","pattern_18","3649.199999809265","true","51","","","","","","","","","","","","","","","","","","",""
"","","","","","html-keyboard-response","136","235586","0.0-2.0-7.0-0.18","5ddc56d18ed6bfbc2cbb34bb","C3","batch3","","null","<p class=block-text>Trial 58 out of 78</p>","null","pattern_show_trial_num","","","","","","","","","","","","","","","","","","","","","","","","",""
"","","","","","image-keyboard-response","137","237078","0.0-2.0-7.0-1.18","5ddc56d18ed6bfbc2cbb34bb","C3","batch3","","1490.5999999046326","stim/yes_55_hor_w1_w.png","f","pattern_response","true","f","pattern_75","1490.5999999046326","true","52","","","","","","","","","","","","","","","","","","",""
"","","","","","html-keyboard-response","138","238398","0.0-2.0-7.0-0.19","5ddc56d18ed6bfbc2cbb34bb","C3","batch3","","null","<p class=block-text>Trial 59 out of 78</p>","null","pattern_show_trial_num","","","","","","","","","","","","","","","","","","","","","","","","",""
"","","","","","image-keyboard-response","139","242817","0.0-2.0-7.0-1.19","5ddc56d18ed6bfbc2cbb34bb","C3","batch3","","4418.799999713898","stim/no_62_1_w.png","j","pattern_response","true","j","pattern_36","4418.799999713898","true","53","","","","","","","","","","","","","","","","","","",""
"","","","","","html-keyboard-response","140","244131","0.0-2.0-7.0-0.20","5ddc56d18ed6bfbc2cbb34bb","C3","batch3","","null","<p class=block-text>Trial 60 out of 78</p>","null","pattern_show_trial_num","","","","","","","","","","","","","","","","","","","","","","","","",""
"","","","","","image-keyboard-response","141","245036","0.0-2.0-7.0-1.20","5ddc56d18ed6bfbc2cbb34bb","C3","batch3","","904.5","stim/yes_60_ver_b1_b.png","f","pattern_response","true","f","pattern_77","904.5","true","54","","","","","","","","","","","","","","","","","","",""
"","","","","","html-keyboard-response","142","246352","0.0-2.0-7.0-0.21","5ddc56d18ed6bfbc2cbb34bb","C3","batch3","","null","<p class=block-text>Trial 61 out of 78</p>","null","pattern_show_trial_num","","","","","","","","","","","","","","","","","","","","","","","","",""
"","","","","","image-keyboard-response","143","249094","0.0-2.0-7.0-1.21","5ddc56d18ed6bfbc2cbb34bb","C3","batch3","","2741.5999999046326","stim/no_44_1.png","j","pattern_response","true","j","pattern_24","2741.5999999046326","true","55","","","","","","","","","","","","","","","","","","",""
"","","","","","html-keyboard-response","144","250408","0.0-2.0-7.0-0.22","5ddc56d18ed6bfbc2cbb34bb","C3","batch3","","null","<p class=block-text>Trial 62 out of 78</p>","null","pattern_show_trial_num","","","","","","","","","","","","","","","","","","","","","","","","",""
"","","","","","image-keyboard-response","145","251647","0.0-2.0-7.0-1.22","5ddc56d18ed6bfbc2cbb34bb","C3","batch3","","1238.3999996185303","stim/yes_67_hor_b1.png","f","pattern_response","true","f","pattern_79","1238.3999996185303","true","56","","","","","","","","","","","","","","","","","","",""
"","","","","","html-keyboard-response","146","252975","0.0-2.0-7.0-0.23","5ddc56d18ed6bfbc2cbb34bb","C3","batch3","","null","<p class=block-text>Trial 63 out of 78</p>","null","pattern_show_trial_num","","","","","","","","","","","","","","","","","","","","","","","","",""
"","","","","","image-keyboard-response","147","254954","0.0-2.0-7.0-1.23","5ddc56d18ed6bfbc2cbb34bb","C3","batch3","","1978.8999996185303","stim/no_26_1_w.png","j","pattern_response","true","j","pattern_10","1978.8999996185303","true","57","","","","","","","","","","","","","","","","","","",""
"","","","","","html-keyboard-response","148","256266","0.0-2.0-7.0-0.24","5ddc56d18ed6bfbc2cbb34bb","C3","batch3","","null","<p class=block-text>Trial 64 out of 78</p>","null","pattern_show_trial_num","","","","","","","","","","","","","","","","","","","","","","","","",""
"","","","","","image-keyboard-response","149","258740","0.0-2.0-7.0-1.24","5ddc56d18ed6bfbc2cbb34bb","C3","batch3","","2473.5999999046326","stim/no_52_1.png","j","pattern_response","true","j","pattern_32","2473.5999999046326","true","58","","","","","","","","","","","","","","","","","","",""
"","","","","","html-keyboard-response","150","260049","0.0-2.0-7.0-0.25","5ddc56d18ed6bfbc2cbb34bb","C3","batch3","","null","<p class=block-text>Trial 65 out of 78</p>","null","pattern_show_trial_num","","","","","","","","","","","","","","","","","","","","","","","","",""
"","","","","","image-keyboard-response","151","261669","0.0-2.0-7.0-1.25","5ddc56d18ed6bfbc2cbb34bb","C3","batch3","","1619.3000001907349","stim/yes_38_hor_b1_b.png","f","pattern_response","true","f","pattern_61","1619.3000001907349","true","59","","","","","","","","","","","","","","","","","","",""
"","","","","","html-keyboard-response","152","262995","0.0-2.0-7.0-0.26","5ddc56d18ed6bfbc2cbb34bb","C3","batch3","","null","<p class=block-text>Trial 66 out of 78</p>","null","pattern_show_trial_num","","","","","","","","","","","","","","","","","","","","","","","","",""
"","","","","","image-keyboard-response","153","264045","0.0-2.0-7.0-1.26","5ddc56d18ed6bfbc2cbb34bb","C3","batch3","","1049.8000001907349","stim/no_23_1.png","j","pattern_response","true","j","pattern_08","1049.8000001907349","true","60","","","","","","","","","","","","","","","","","","",""
"","","","","","html-keyboard-response","154","265365","0.0-2.0-7.0-0.27","5ddc56d18ed6bfbc2cbb34bb","C3","batch3","","null","<p class=block-text>Trial 67 out of 78</p>","null","pattern_show_trial_num","","","","","","","","","","","","","","","","","","","","","","","","",""
"","","","","","image-keyboard-response","155","266947","0.0-2.0-7.0-1.27","5ddc56d18ed6bfbc2cbb34bb","C3","batch3","","1581.7999997138977","stim/no_20_1_w.png","j","pattern_response","true","j","pattern_06","1581.7999997138977","true","61","","","","","","","","","","","","","","","","","","",""
"","","","","","html-keyboard-response","156","268264","0.0-2.0-7.0-0.28","5ddc56d18ed6bfbc2cbb34bb","C3","batch3","","null","<p class=block-text>Trial 68 out of 78</p>","null","pattern_show_trial_num","","","","","","","","","","","","","","","","","","","","","","","","",""
"","","","","","image-keyboard-response","157","270739","0.0-2.0-7.0-1.28","5ddc56d18ed6bfbc2cbb34bb","C3","batch3","","2474.5999999046326","stim/yes_35_dia_b1.png","j","pattern_response","false","f","pattern_57","2474.5999999046326","false","61","","","","","","","","","","","","","","","","","","",""
"","","","","","html-keyboard-response","158","272058","0.0-2.0-7.0-0.29","5ddc56d18ed6bfbc2cbb34bb","C3","batch3","","null","<p class=block-text>Trial 69 out of 78</p>","null","pattern_show_trial_num","","","","","","","","","","","","","","","","","","","","","","","","",""
"","","","","","image-keyboard-response","159","276943","0.0-2.0-7.0-1.29","5ddc56d18ed6bfbc2cbb34bb","C3","batch3","","4884.5","stim/no_65_1_b.png","j","pattern_response","true","j","pattern_38","4884.5","true","62","","","","","","","","","","","","","","","","","","",""
"","","","","","html-keyboard-response","160","278259","0.0-2.0-7.0-0.30","5ddc56d18ed6bfbc2cbb34bb","C3","batch3","","null","<p class=block-text>Trial 70 out of 78</p>","null","pattern_show_trial_num","","","","","","","","","","","","","","","","","","","","","","","","",""
"","","","","","image-keyboard-response","161","280613","0.0-2.0-7.0-1.30","5ddc56d18ed6bfbc2cbb34bb","C3","batch3","","2353.699999809265","stim/no_42_1_w.png","j","pattern_response","true","j","pattern_22","2353.699999809265","true","63","","","","","","","","","","","","","","","","","","",""
"","","","","","html-keyboard-response","162","281932","0.0-2.0-7.0-0.31","5ddc56d18ed6bfbc2cbb34bb","C3","batch3","","null","<p class=block-text>Trial 71 out of 78</p>","null","pattern_show_trial_num","","","","","","","","","","","","","","","","","","","","","","","","",""
"","","","","","image-keyboard-response","163","285452","0.0-2.0-7.0-1.31","5ddc56d18ed6bfbc2cbb34bb","C3","batch3","","3519.5","stim/no_55_1_w.png","j","pattern_response","true","j","pattern_34","3519.5","true","64","","","","","","","","","","","","","","","","","","",""
"","","","","","html-keyboard-response","164","286769","0.0-2.0-7.0-0.32","5ddc56d18ed6bfbc2cbb34bb","C3","batch3","","null","<p class=block-text>Trial 72 out of 78</p>","null","pattern_show_trial_num","","","","","","","","","","","","","","","","","","","","","","","","",""
"","","","","","image-keyboard-response","165","291546","0.0-2.0-7.0-1.32","5ddc56d18ed6bfbc2cbb34bb","C3","batch3","","4777","stim/no_38_1_b.png","j","pattern_response","true","j","pattern_20","4777","true","65","","","","","","","","","","","","","","","","","","",""
"","","","","","html-keyboard-response","166","292868","0.0-2.0-7.0-0.33","5ddc56d18ed6bfbc2cbb34bb","C3","batch3","","null","<p class=block-text>Trial 73 out of 78</p>","null","pattern_show_trial_num","","","","","","","","","","","","","","","","","","","","","","","","",""
"","","","","","image-keyboard-response","167","294133","0.0-2.0-7.0-1.33","5ddc56d18ed6bfbc2cbb34bb","C3","batch3","","1264.5999999046326","stim/yes_25_hor_b1_b.png","f","pattern_response","true","f","pattern_49","1264.5999999046326","true","66","","","","","","","","","","","","","","","","","","",""
"","","","","","html-keyboard-response","168","295441","0.0-2.0-7.0-0.34","5ddc56d18ed6bfbc2cbb34bb","C3","batch3","","null","<p class=block-text>Trial 74 out of 78</p>","null","pattern_show_trial_num","","","","","","","","","","","","","","","","","","","","","","","","",""
"","","","","","image-keyboard-response","169","296414","0.0-2.0-7.0-1.34","5ddc56d18ed6bfbc2cbb34bb","C3","batch3","","972.1999998092651","stim/yes_17_dia_w1.png","f","pattern_response","true","f","pattern_45","972.1999998092651","true","67","","","","","","","","","","","","","","","","","","",""
"","","","","","html-keyboard-response","170","297724","0.0-2.0-7.0-0.35","5ddc56d18ed6bfbc2cbb34bb","C3","batch3","","null","<p class=block-text>Trial 75 out of 78</p>","null","pattern_show_trial_num","","","","","","","","","","","","","","","","","","","","","","","","",""
"","","","","","image-keyboard-response","171","298709","0.0-2.0-7.0-1.35","5ddc56d18ed6bfbc2cbb34bb","C3","batch3","","984.0999999046326","stim/no_17_1_w.png","j","pattern_response","true","j","pattern_04","984.0999999046326","true","68","","","","","","","","","","","","","","","","","","",""
"","","","","","html-keyboard-response","172","300026","0.0-2.0-7.0-0.36","5ddc56d18ed6bfbc2cbb34bb","C3","batch3","","null","<p class=block-text>Trial 76 out of 78</p>","null","pattern_show_trial_num","","","","","","","","","","","","","","","","","","","","","","","","",""
"","","","","","image-keyboard-response","173","300764","0.0-2.0-7.0-1.36","5ddc56d18ed6bfbc2cbb34bb","C3","batch3","","736.5","stim/yes_40_dia_b1_b.png","f","pattern_response","true","f","pattern_63","736.5","true","69","","","","","","","","","","","","","","","","","","",""
"","","","","","html-keyboard-response","174","302085","0.0-2.0-7.0-0.37","5ddc56d18ed6bfbc2cbb34bb","C3","batch3","","null","<p class=block-text>Trial 77 out of 78</p>","null","pattern_show_trial_num","","","","","","","","","","","","","","","","","","","","","","","","",""
"","","","","","image-keyboard-response","175","305295","0.0-2.0-7.0-1.37","5ddc56d18ed6bfbc2cbb34bb","C3","batch3","","3210","stim/no_50_1.png","j","pattern_response","true","j","pattern_30","3210","true","70","","","","","","","","","","","","","","","","","","",""
"","","","","","html-keyboard-response","176","306619","0.0-2.0-7.0-0.38","5ddc56d18ed6bfbc2cbb34bb","C3","batch3","","null","<p class=block-text>Trial 78 out of 78</p>","null","pattern_show_trial_num","","","","","","","","","","","","","","","","","","","","","","","","",""
"","","","","","image-keyboard-response","177","310404","0.0-2.0-7.0-1.38","5ddc56d18ed6bfbc2cbb34bb","C3","batch3","","3784.9000000953674","stim/no_70_2.png","j","pattern_response","true","j","pattern_40","3784.9000000953674","true","71","","","","","","","","","","","","","","","","","","",""
"","","","","","html-button-response","178","315770","0.0-2.0-8.0","5ddc56d18ed6bfbc2cbb34bb","C3","batch3","","4862.400000095367","<p class = block-text>This concludes the 4-in-a-row detection game.Thank you for your responses!<br>
            You responded correctly on 91% of the trials.<br>
            When you are ready, press ""Continue"" button to continue </p>","0","","","","","","","","","","","","","","","","","","","","","","","","","",""
"true","","","","","fullscreen","179","319079","0.0-3.0-0.0","5ddc56d18ed6bfbc2cbb34bb","C3","batch3","","","","","","","","","","","","","","","","","","","","","","","","","","","","","",""
"","","","","","instructions","180","379104","0.0-3.0-1.0-0.0-0.0","5ddc56d18ed6bfbc2cbb34bb","C3","batch3","[{""page_index"":0,""viewing_time"":17358.400000095367},{""page_index"":1,""viewing_time"":13118},{""page_index"":2,""viewing_time"":5257},{""page_index"":3,""viewing_time"":8143},{""page_index"":4,""viewing_time"":4222},{""page_index"":5,""viewing_time"":7095},{""page_index"":6,""viewing_time"":4830.900000095367}]","60024.5","","","tol-instructions","","","","","","","","","","","","","","","","","","","","","","","","",""
"","","","","","html-button-response","181","380184","0.0-3.0-1.0-1.0-0.0","5ddc56d18ed6bfbc2cbb34bb","C3","batch3","","1079.3000001907349","<p class=block-text> Let's answer a few questions <br>","0","tol_enter_quiz","","","","","","","","","","","","","","","","","","","","","","","","",""
"","","","","","html-button-response","182","390786","0.0-3.0-1.0-1.0-1.0","5ddc56d18ed6bfbc2cbb34bb","C3","batch3","","10601.599999904633","<p class = block-text>True or False: You can only move the ball on top of a peg. <br></p>","0","tol_quiz","true","","","","","","","","","","","","","","","","","","","","","","","",""
"","","","","","html-button-response","183","393350","0.0-3.0-1.0-1.0-2.0","5ddc56d18ed6bfbc2cbb34bb","C3","batch3","","2562.699999809265","<p class = block-text>Correct! You can only move the ball on top of a peg.</p>","0","tol_quiz_feedback","","","","","","","","","","","","","","","","","","","","","","","","",""
"","","","","","html-button-response","184","397086","0.0-3.0-1.0-1.0-3.0","5ddc56d18ed6bfbc2cbb34bb","C3","batch3","","3735.7000002861023","<p class = block-text>True or False: You should try to match your board with the target board with fewest moves possible. <br></p>","0","tol_quiz","true","","","","","","","","","","","","","","","","","","","","","","","",""
"","","","","","html-button-response","185","397630","0.0-3.0-1.0-1.0-4.0","5ddc56d18ed6bfbc2cbb34bb","C3","batch3","","543.1999998092651","<p class = block-text>Correct! </p>","0","tol_quiz_feedback","","","","","","","","","","","","","","","","","","","","","","","","",""
"","","","","","html-button-response","186","401288","0.0-3.0-2.0","5ddc56d18ed6bfbc2cbb34bb","C3","batch3","","3657.300000190735","<p class=block-text> Now that you've understood the game, let's practice a few easier examples before we start!<br> <br>","0","","","","","","","","","","","","","","","","","","","","","","","","","",""
"","","","","","single-stim-button","187","404465","0.0-3.0-3.0-0.0","5ddc56d18ed6bfbc2cbb34bb","C3","batch3","","3175","","","tol_practice","","","","","","","","","tol_peg_2","3175","3175","0","[[1,2,0],[0,0],[0]]","1","[[1,2,0],[0,0],[3]]","practice","3175","","","","","","","",""
"","","","","","single-stim-button","188","405408","0.0-3.0-3.0-1.0","5ddc56d18ed6bfbc2cbb34bb","C3","batch3","","943","","","tol_practice","","","","","","","","","tol_peg_3","943","943","0","[[1,2,0],[0,0],[3]]","1","[[1,2,0],[0,0],[3]]","practice","943","","","","","","","",""
"","","","","","poldrack-single-stim","189","406411","0.0-3.0-4.0","5ddc56d18ed6bfbc2cbb34bb","C3","batch3","","-1","","","tol_feedback","true","","","","","","","","","1000","1000","500","","","","","","-1","none","true","","0","","",""
"","","","","","single-stim-button","190","409794","0.0-3.0-5.0-0.0","5ddc56d18ed6bfbc2cbb34bb","C3","batch3","","3383","","","tol_practice","","","","","","","","","tol_peg_1","3383","3383","0","[[1,0,0],[3,0],[0]]","2","[[0,0,0],[3,1],[2]]","practice","3383","","","","","","","",""
"","","","","","single-stim-button","191","410786","0.0-3.0-5.0-1.0","5ddc56d18ed6bfbc2cbb34bb","C3","batch3","","992","","","tol_practice","","","","","","","","","tol_peg_3","992","992","0","[[1,0,0],[3,0],[2]]","2","[[0,0,0],[3,1],[2]]","practice","992","","","","","","","",""
"","","","","","single-stim-button","192","411585","0.0-3.0-5.1-0.1","5ddc56d18ed6bfbc2cbb34bb","C3","batch3","","799","","","tol_practice","","","","","","","","","tol_peg_1","799","799","0","[[0,0,0],[3,0],[2]]","3","[[0,0,0],[3,1],[2]]","practice","799","","","","","","","",""
"","","","","","single-stim-button","193","412273","0.0-3.0-5.1-1.1","5ddc56d18ed6bfbc2cbb34bb","C3","batch3","","688","","","tol_practice","","","","","","","","","tol_peg_2","688","688","0","[[0,0,0],[3,1],[2]]","3","[[0,0,0],[3,1],[2]]","practice","688","","","","","","","",""
"","","","","","poldrack-single-stim","194","413274","0.0-3.0-6.0","5ddc56d18ed6bfbc2cbb34bb","C3","batch3","","-1","","","tol_feedback","true","","","","","","","","","1000","1000","500","","","","","","-1","none","true","","0","","",""
"","","","","","single-stim-button","195","415560","0.0-3.0-7.0-0.0","5ddc56d18ed6bfbc2cbb34bb","C3","batch3","","2286","","","tol_practice","","","","","","","","","tol_peg_2","2286","2286","0","[[1,2,0],[0,0],[0]]","4","[[1,0,0],[2,0],[3]]","practice","2286","","","","","","","",""
"","","","","","single-stim-button","196","416292","0.0-3.0-7.0-1.0","5ddc56d18ed6bfbc2cbb34bb","C3","batch3","","732","","","tol_practice","","","","","","","","","tol_peg_3","732","732","0","[[1,2,0],[0,0],[3]]","4","[[1,0,0],[2,0],[3]]","practice","732","","","","","","","",""
"","","","","","single-stim-button","197","417014","0.0-3.0-7.1-0.1","5ddc56d18ed6bfbc2cbb34bb","C3","batch3","","722","","","tol_practice","","","","","","","","","tol_peg_1","722","722","0","[[1,0,0],[0,0],[3]]","5","[[1,0,0],[2,0],[3]]","practice","722","","","","","","","",""
"","","","","","single-stim-button","198","417707","0.0-3.0-7.1-1.1","5ddc56d18ed6bfbc2cbb34bb","C3","batch3","","693","","","tol_practice","","","","","","","","","tol_peg_2","693","693","0","[[1,0,0],[2,0],[3]]","5","[[1,0,0],[2,0],[3]]","practice","693","","","","","","","",""
"","","","","","poldrack-single-stim","199","418714","0.0-3.0-8.0","5ddc56d18ed6bfbc2cbb34bb","C3","batch3","","-1","","","tol_feedback","true","","","","","","","","","1000","1000","500","","","","","","-1","none","true","","0","","",""
"","","","","","html-button-response","200","423315","0.0-3.0-9.0","5ddc56d18ed6bfbc2cbb34bb","C3","batch3","","4600.799999713898","<div class = centerbox><p class = center-block-text>Great job! You are done with practice trials<br>You are about to start official trials.<br> <br> Problem <strong>1</strong> out of 25 problems</p></div>","0","tol_instruction","","","","","","","","","","","","","","","","","","","","","","","","",""
"","","","","","single-stim-button","201","433710","0.0-3.0-10.0-0.0","5ddc56d18ed6bfbc2cbb34bb","C3","batch3","","9394","","","tol_tohand","","","","","","","","","tol_peg_1","9394","9394","0","[[1,0,0],[3,0],[0]]","1","[[1,3,0],[2,0],[0]]","0","0","","","","","","3","",""
"","","","","","single-stim-button","202","434606","0.0-3.0-10.0-1.0","5ddc56d18ed6bfbc2cbb34bb","C3","batch3","","895","","","tol_toboard","","","","","","","","","tol_peg_3","895","895","0","[[1,0,0],[3,0],[2]]","1","[[1,3,0],[2,0],[0]]","0","0","","","","","","3","",""
"","","","","","single-stim-button","203","435231","0.0-3.0-10.1-0.1","5ddc56d18ed6bfbc2cbb34bb","C3","batch3","","625","","","tol_tohand","","","","","","","","","tol_peg_2","625","625","0","[[1,0,0],[0,0],[2]]","2","[[1,3,0],[2,0],[0]]","0","0","","","","","","3","",""
"","","","","","single-stim-button","204","436050","0.0-3.0-10.1-1.1","5ddc56d18ed6bfbc2cbb34bb","C3","batch3","","819","","","tol_toboard","","","","","","","","","tol_peg_1","819","819","0","[[1,3,0],[0,0],[2]]","2","[[1,3,0],[2,0],[0]]","0","0","","","","","","3","",""
"","","","","","single-stim-button","205","436817","0.0-3.0-10.2-0.2","5ddc56d18ed6bfbc2cbb34bb","C3","batch3","","767","","","tol_tohand","","","","","","","","","tol_peg_3","767","767","0","[[1,3,0],[0,0],[0]]","3","[[1,3,0],[2,0],[0]]","0","0","","","","","","3","",""
"","","","","","single-stim-button","206","437511","0.0-3.0-10.2-1.2","5ddc56d18ed6bfbc2cbb34bb","C3","batch3","","694","","","tol_toboard","","","","","","","","","tol_peg_2","694","694","0","[[1,3,0],[2,0],[0]]","3","[[1,3,0],[2,0],[0]]","0","0","","","","","","3","",""
"","","","","","poldrack-single-stim","207","438513","0.0-3.0-11.0","5ddc56d18ed6bfbc2cbb34bb","C3","batch3","","-1","","","tol_feedback","true","","","","","","","","","1000","1000","500","","","","","","-1","none","true","9394","10786","","",""
"","","","","","html-button-response","208","439733","0.0-3.0-12.0","5ddc56d18ed6bfbc2cbb34bb","C3","batch3","","1219.5","<div class = centerbox><p class = center-block-text>problem <strong>2</strong> out of 25 problems</p></div>","0","tol_trial_num","","","","","","","","","","","","","","","","","","","","","","","","",""
"","","","","","single-stim-button","209","450600","0.0-3.0-13.0-0.0","5ddc56d18ed6bfbc2cbb34bb","C3","batch3","","10867","","","tol_tohand","","","","","","","","","tol_peg_1","10867","10867","0","[[1,0,0],[3,0],[0]]","1","[[2,1,3],[0,0],[0]]","1","0","","","","","","5","",""
"","","","","","single-stim-button","210","451384","0.0-3.0-13.0-1.0","5ddc56d18ed6bfbc2cbb34bb","C3","batch3","","784","","","tol_toboard","","","","","","","","","tol_peg_3","784","784","0","[[1,0,0],[3,0],[2]]","1","[[2,1,3],[0,0],[0]]","1","0","","","","","","5","",""
"","","","","","single-stim-button","211","453608","0.0-3.0-13.1-0.1","5ddc56d18ed6bfbc2cbb34bb","C3","batch3","","2224","","","tol_tohand","","","","","","","","","tol_peg_1","2224","2224","0","[[0,0,0],[3,0],[2]]","2","[[2,1,3],[0,0],[0]]","1","0","","","","","","5","",""
"","","","","","single-stim-button","212","454103","0.0-3.0-13.1-1.1","5ddc56d18ed6bfbc2cbb34bb","C3","batch3","","495","","","tol_toboard","","","","","","","","","tol_peg_2","495","495","0","[[0,0,0],[3,1],[2]]","2","[[2,1,3],[0,0],[0]]","1","0","","","","","","5","",""
"","","","","","single-stim-button","213","454735","0.0-3.0-13.2-0.2","5ddc56d18ed6bfbc2cbb34bb","C3","batch3","","632","","","tol_tohand","","","","","","","","","tol_peg_3","632","632","0","[[0,0,0],[3,1],[0]]","3","[[2,1,3],[0,0],[0]]","1","0","","","","","","5","",""
"","","","","","single-stim-button","214","455285","0.0-3.0-13.2-1.2","5ddc56d18ed6bfbc2cbb34bb","C3","batch3","","550","","","tol_toboard","","","","","","","","","tol_peg_1","550","550","0","[[2,0,0],[3,1],[0]]","3","[[2,1,3],[0,0],[0]]","1","0","","","","","","5","",""
"","","","","","single-stim-button","215","455842","0.0-3.0-13.3-0.3","5ddc56d18ed6bfbc2cbb34bb","C3","batch3","","557","","","tol_tohand","","","","","","","","","tol_peg_2","557","557","0","[[2,0,0],[3,0],[0]]","4","[[2,1,3],[0,0],[0]]","1","0","","","","","","5","",""
"","","","","","single-stim-button","216","456381","0.0-3.0-13.3-1.3","5ddc56d18ed6bfbc2cbb34bb","C3","batch3","","539","","","tol_toboard","","","","","","","","","tol_peg_1","539","539","0","[[2,1,0],[3,0],[0]]","4","[[2,1,3],[0,0],[0]]","1","0","","","","","","5","",""
"","","","","","single-stim-button","217","456882","0.0-3.0-13.4-0.4","5ddc56d18ed6bfbc2cbb34bb","C3","batch3","","501","","","tol_tohand","","","","","","","","","tol_peg_2","501","501","0","[[2,1,0],[0,0],[0]]","5","[[2,1,3],[0,0],[0]]","1","0","","","","","","5","",""
"","","","","","single-stim-button","218","457445","0.0-3.0-13.4-1.4","5ddc56d18ed6bfbc2cbb34bb","C3","batch3","","563","","","tol_toboard","","","","","","","","","tol_peg_1","563","563","0","[[2,1,3],[0,0],[0]]","5","[[2,1,3],[0,0],[0]]","1","0","","","","","","5","",""
"","","","","","poldrack-single-stim","219","458448","0.0-3.0-14.0","5ddc56d18ed6bfbc2cbb34bb","C3","batch3","","-1","","","tol_feedback","true","","","","","","","","","1000","1000","500","","","","","","-1","none","true","10867","14781","","",""
"","","","","","html-button-response","220","459584","0.0-3.0-15.0","5ddc56d18ed6bfbc2cbb34bb","C3","batch3","","1135.5999999046326","<div class = centerbox><p class = center-block-text>problem <strong>3</strong> out of 25 problems</p></div>","0","tol_trial_num","","","","","","","","","","","","","","","","","","","","","","","","",""
"","","","","","single-stim-button","221","471637","0.0-3.0-16.0-0.0","5ddc56d18ed6bfbc2cbb34bb","C3","batch3","","12053","","","tol_tohand","","","","","","","","","tol_peg_1","12053","12053","0","[[2,0,0],[0,0],[1]]","1","[[1,2,0],[3,0],[0]]","2","0","","","","","","4","",""
"","","","","","single-stim-button","222","472727","0.0-3.0-16.0-1.0","5ddc56d18ed6bfbc2cbb34bb","C3","batch3","","1090","","","tol_toboard","","","","","","","","","tol_peg_2","1090","1090","0","[[2,0,0],[3,0],[1]]","1","[[1,2,0],[3,0],[0]]","2","0","","","","","","4","",""
"","","","","","single-stim-button","223","473306","0.0-3.0-16.1-0.1","5ddc56d18ed6bfbc2cbb34bb","C3","batch3","","579","","","tol_tohand","","","","","","","","","tol_peg_1","579","579","0","[[0,0,0],[3,0],[1]]","2","[[1,2,0],[3,0],[0]]","2","0","","","","","","4","",""
"","","","","","single-stim-button","224","473868","0.0-3.0-16.1-1.1","5ddc56d18ed6bfbc2cbb34bb","C3","batch3","","562","","","tol_toboard","","","","","","","","","tol_peg_2","562","562","0","[[0,0,0],[3,2],[1]]","2","[[1,2,0],[3,0],[0]]","2","0","","","","","","4","",""
"","","","","","single-stim-button","225","474536","0.0-3.0-16.2-0.2","5ddc56d18ed6bfbc2cbb34bb","C3","batch3","","668","","","tol_tohand","","","","","","","","","tol_peg_3","668","668","0","[[0,0,0],[3,2],[0]]","3","[[1,2,0],[3,0],[0]]","2","0","","","","","","4","",""
"","","","","","single-stim-button","226","475213","0.0-3.0-16.2-1.2","5ddc56d18ed6bfbc2cbb34bb","C3","batch3","","677","","","tol_toboard","","","","","","","","","tol_peg_1","677","677","0","[[1,0,0],[3,2],[0]]","3","[[1,2,0],[3,0],[0]]","2","0","","","","","","4","",""
"","","","","","single-stim-button","227","475884","0.0-3.0-16.3-0.3","5ddc56d18ed6bfbc2cbb34bb","C3","batch3","","671","","","tol_tohand","","","","","","","","","tol_peg_2","671","671","0","[[1,0,0],[3,0],[0]]","4","[[1,2,0],[3,0],[0]]","2","0","","","","","","4","",""
"","","","","","single-stim-button","228","476602","0.0-3.0-16.3-1.3","5ddc56d18ed6bfbc2cbb34bb","C3","batch3","","718","","","tol_toboard","","","","","","","","","tol_peg_1","718","718","0","[[1,2,0],[3,0],[0]]","4","[[1,2,0],[3,0],[0]]","2","0","","","","","","4","",""
"","","","","","poldrack-single-stim","229","477604","0.0-3.0-17.0","5ddc56d18ed6bfbc2cbb34bb","C3","batch3","","-1","","","tol_feedback","true","","","","","","","","","1000","1000","500","","","","","","-1","none","true","12053","13971","","",""
"","","","","","html-button-response","230","478634","0.0-3.0-18.0","5ddc56d18ed6bfbc2cbb34bb","C3","batch3","","1029.9000000953674","<div class = centerbox><p class = center-block-text>problem <strong>4</strong> out of 25 problems</p></div>","0","tol_trial_num","","","","","","","","","","","","","","","","","","","","","","","","",""
"","","","","","single-stim-button","231","486369","0.0-3.0-19.0-0.0","5ddc56d18ed6bfbc2cbb34bb","C3","batch3","","7735","","","tol_tohand","","","","","","","","","tol_peg_2","7735","7735","0","[[3,0,0],[2,0],[0]]","1","[[3,0,0],[1,0],[2]]","3","0","","","","","","3","",""
"","","","","","single-stim-button","232","486908","0.0-3.0-19.0-1.0","5ddc56d18ed6bfbc2cbb34bb","C3","batch3","","539","","","tol_toboard","","","","","","","","","tol_peg_1","539","539","0","[[3,1,0],[2,0],[0]]","1","[[3,0,0],[1,0],[2]]","3","0","","","","","","3","",""
"","","","","","single-stim-button","233","487464","0.0-3.0-19.1-0.1","5ddc56d18ed6bfbc2cbb34bb","C3","batch3","","556","","","tol_tohand","","","","","","","","","tol_peg_2","556","556","0","[[3,1,0],[0,0],[0]]","2","[[3,0,0],[1,0],[2]]","3","0","","","","","","3","",""
"","","","","","single-stim-button","234","488125","0.0-3.0-19.1-1.1","5ddc56d18ed6bfbc2cbb34bb","C3","batch3","","661","","","tol_toboard","","","","","","","","","tol_peg_3","661","661","0","[[3,1,0],[0,0],[2]]","2","[[3,0,0],[1,0],[2]]","3","0","","","","","","3","",""
"","","","","","single-stim-button","235","488709","0.0-3.0-19.2-0.2","5ddc56d18ed6bfbc2cbb34bb","C3","batch3","","584","","","tol_tohand","","","","","","","","","tol_peg_1","584","584","0","[[3,0,0],[0,0],[2]]","3","[[3,0,0],[1,0],[2]]","3","0","","","","","","3","",""
"","","","","","single-stim-button","236","489325","0.0-3.0-19.2-1.2","5ddc56d18ed6bfbc2cbb34bb","C3","batch3","","616","","","tol_toboard","","","","","","","","","tol_peg_2","616","616","0","[[3,0,0],[1,0],[2]]","3","[[3,0,0],[1,0],[2]]","3","0","","","","","","3","",""
"","","","","","poldrack-single-stim","237","490327","0.0-3.0-20.0","5ddc56d18ed6bfbc2cbb34bb","C3","batch3","","-1","","","tol_feedback","true","","","","","","","","","1000","1000","500","","","","","","-1","none","true","7735","8875","","",""
"","","","","","html-button-response","238","492046","0.0-3.0-21.0","5ddc56d18ed6bfbc2cbb34bb","C3","batch3","","1718.0999999046326","<div class = centerbox><p class = center-block-text>problem <strong>5</strong> out of 25 problems</p></div>","0","tol_trial_num","","","","","","","","","","","","","","","","","","","","","","","","",""
"","","","","","single-stim-button","239","557746","0.0-3.0-22.0-0.0","5ddc56d18ed6bfbc2cbb34bb","C3","batch3","","65700","","","tol_tohand","","","","","","","","","tol_peg_1","65700","65700","0","[[0,0,0],[2,0],[3]]","1","[[0,0,0],[1,2],[3]]","4","0","","","","","","7","",""
"","","","","","single-stim-button","240","558521","0.0-3.0-22.0-1.0","5ddc56d18ed6bfbc2cbb34bb","C3","batch3","","775","","","tol_toboard","","","","","","","","","tol_peg_2","775","775","0","[[0,0,0],[2,1],[3]]","1","[[0,0,0],[1,2],[3]]","4","0","","","","","","7","",""
"","","","","","single-stim-button","241","559269","0.0-3.0-22.1-0.1","5ddc56d18ed6bfbc2cbb34bb","C3","batch3","","748","","","tol_tohand","","","","","","","","","tol_peg_3","748","748","0","[[0,0,0],[2,1],[0]]","2","[[0,0,0],[1,2],[3]]","4","0","","","","","","7","",""
"","","","","","single-stim-button","242","560126","0.0-3.0-22.1-1.1","5ddc56d18ed6bfbc2cbb34bb","C3","batch3","","857","","","tol_toboard","","","","","","","","","tol_peg_1","857","857","0","[[3,0,0],[2,1],[0]]","2","[[0,0,0],[1,2],[3]]","4","0","","","","","","7","",""
"","","","","","single-stim-button","243","562449","0.0-3.0-22.2-0.2","5ddc56d18ed6bfbc2cbb34bb","C3","batch3","","2323","","","tol_tohand","","","","","","","","","tol_peg_2","2323","2323","0","[[3,0,0],[2,0],[0]]","3","[[0,0,0],[1,2],[3]]","4","0","","","","","","7","",""
"","","","","","single-stim-button","244","563070","0.0-3.0-22.2-1.2","5ddc56d18ed6bfbc2cbb34bb","C3","batch3","","621","","","tol_toboard","","","","","","","","","tol_peg_1","621","621","0","[[3,1,0],[2,0],[0]]","3","[[0,0,0],[1,2],[3]]","4","0","","","","","","7","",""
"","","","","","single-stim-button","245","563888","0.0-3.0-22.3-0.3","5ddc56d18ed6bfbc2cbb34bb","C3","batch3","","818","","","tol_tohand","","","","","","","","","tol_peg_2","818","818","0","[[3,1,0],[0,0],[0]]","4","[[0,0,0],[1,2],[3]]","4","0","","","","","","7","",""
"","","","","","single-stim-button","246","564650","0.0-3.0-22.3-1.3","5ddc56d18ed6bfbc2cbb34bb","C3","batch3","","762","","","tol_toboard","","","","","","","","","tol_peg_3","762","762","0","[[3,1,0],[0,0],[2]]","4","[[0,0,0],[1,2],[3]]","4","0","","","","","","7","",""
"","","","","","single-stim-button","247","565334","0.0-3.0-22.4-0.4","5ddc56d18ed6bfbc2cbb34bb","C3","batch3","","684","","","tol_tohand","","","","","","","","","tol_peg_1","684","684","0","[[3,0,0],[0,0],[2]]","5","[[0,0,0],[1,2],[3]]","4","0","","","","","","7","",""
"","","","","","single-stim-button","248","566029","0.0-3.0-22.4-1.4","5ddc56d18ed6bfbc2cbb34bb","C3","batch3","","695","","","tol_toboard","","","","","","","","","tol_peg_2","695","695","0","[[3,0,0],[1,0],[2]]","5","[[0,0,0],[1,2],[3]]","4","0","","","","","","7","",""
"","","","","","single-stim-button","249","566756","0.0-3.0-22.5-0.5","5ddc56d18ed6bfbc2cbb34bb","C3","batch3","","727","","","tol_tohand","","","","","","","","","tol_peg_3","727","727","0","[[3,0,0],[1,0],[0]]","6","[[0,0,0],[1,2],[3]]","4","0","","","","","","7","",""
"","","","","","single-stim-button","250","567457","0.0-3.0-22.5-1.5","5ddc56d18ed6bfbc2cbb34bb","C3","batch3","","700","","","tol_toboard","","","","","","","","","tol_peg_2","700","700","0","[[3,0,0],[1,2],[0]]","6","[[0,0,0],[1,2],[3]]","4","0","","","","","","7","",""
"","","","","","single-stim-button","251","568048","0.0-3.0-22.6-0.6","5ddc56d18ed6bfbc2cbb34bb","C3","batch3","","591","","","tol_tohand","","","","","","","","","tol_peg_1","591","591","0","[[0,0,0],[1,2],[0]]","7","[[0,0,0],[1,2],[3]]","4","0","","","","","","7","",""
"","","","","","single-stim-button","252","568642","0.0-3.0-22.6-1.6","5ddc56d18ed6bfbc2cbb34bb","C3","batch3","","594","","","tol_toboard","","","","","","","","","tol_peg_3","594","594","0","[[0,0,0],[1,2],[3]]","7","[[0,0,0],[1,2],[3]]","4","0","","","","","","7","",""
"","","","","","poldrack-single-stim","253","569643","0.0-3.0-23.0","5ddc56d18ed6bfbc2cbb34bb","C3","batch3","","-1","","","tol_feedback","true","","","","","","","","","1000","1000","500","","","","","","-1","none","true","65700","71591","","",""
"","","","","","html-button-response","254","570848","0.0-3.0-24.0","5ddc56d18ed6bfbc2cbb34bb","C3","batch3","","1204.0999999046326","<div class = centerbox><p class = center-block-text>problem <strong>6</strong> out of 25 problems</p></div>","0","tol_trial_num","","","","","","","","","","","","","","","","","","","","","","","","",""
"","","","","","single-stim-button","255","592653","0.0-3.0-25.0-0.0","5ddc56d18ed6bfbc2cbb34bb","C3","batch3","","21804","","","tol_tohand","","","","","","","","","tol_peg_3","21804","21804","0","[[0,0,0],[1,2],[0]]","1","[[1,0,0],[2,3],[0]]","5","0","","","","","","6","",""
"","","","","","single-stim-button","256","593373","0.0-3.0-25.0-1.0","5ddc56d18ed6bfbc2cbb34bb","C3","batch3","","720","","","tol_toboard","","","","","","","","","tol_peg_1","720","720","0","[[3,0,0],[1,2],[0]]","1","[[1,0,0],[2,3],[0]]","5","0","","","","","","6","",""
"","","","","","single-stim-button","257","593767","0.0-3.0-25.1-0.1","5ddc56d18ed6bfbc2cbb34bb","C3","batch3","","394","","","tol_tohand","","","","","","","","","tol_peg_2","394","394","0","[[3,0,0],[1,0],[0]]","2","[[1,0,0],[2,3],[0]]","5","0","","","","","","6","",""
"","","","","","single-stim-button","258","594220","0.0-3.0-25.1-1.1","5ddc56d18ed6bfbc2cbb34bb","C3","batch3","","453","","","tol_toboard","","","","","","","","","tol_peg_3","453","453","0","[[3,0,0],[1,0],[2]]","2","[[1,0,0],[2,3],[0]]","5","0","","","","","","6","",""
"","","","","","single-stim-button","259","603283","0.0-3.0-25.2-0.2","5ddc56d18ed6bfbc2cbb34bb","C3","batch3","","9063","","","tol_tohand","","","","","","","","","tol_peg_3","9063","9063","0","[[3,0,0],[1,0],[0]]","3","[[1,0,0],[2,3],[0]]","5","0","","","","","","6","",""
"","","","","","single-stim-button","260","603948","0.0-3.0-25.2-1.2","5ddc56d18ed6bfbc2cbb34bb","C3","batch3","","665","","","tol_toboard","","","","","","","","","tol_peg_1","665","665","0","[[3,2,0],[1,0],[0]]","3","[[1,0,0],[2,3],[0]]","5","0","","","","","","6","",""
"","","","","","single-stim-button","261","604617","0.0-3.0-25.3-0.3","5ddc56d18ed6bfbc2cbb34bb","C3","batch3","","669","","","tol_tohand","","","","","","","","","tol_peg_2","669","669","0","[[3,2,0],[0,0],[0]]","4","[[1,0,0],[2,3],[0]]","5","0","","","","","","6","",""
"","","","","","single-stim-button","262","605064","0.0-3.0-25.3-1.3","5ddc56d18ed6bfbc2cbb34bb","C3","batch3","","447","","","tol_toboard","","","","","","","","","tol_peg_3","447","447","0","[[3,2,0],[0,0],[1]]","4","[[1,0,0],[2,3],[0]]","5","0","","","","","","6","",""
"","","","","","single-stim-button","263","606082","0.0-3.0-25.4-0.4","5ddc56d18ed6bfbc2cbb34bb","C3","batch3","","1018","","","tol_tohand","","","","","","","","","tol_peg_1","1018","1018","0","[[3,0,0],[0,0],[1]]","5","[[1,0,0],[2,3],[0]]","5","0","","","","","","6","",""
"","","","","","single-stim-button","264","606983","0.0-3.0-25.4-1.4","5ddc56d18ed6bfbc2cbb34bb","C3","batch3","","901","","","tol_toboard","","","","","","","","","tol_peg_2","901","901","0","[[3,0,0],[2,0],[1]]","5","[[1,0,0],[2,3],[0]]","5","0","","","","","","6","",""
"","","","","","single-stim-button","265","607993","0.0-3.0-25.5-0.5","5ddc56d18ed6bfbc2cbb34bb","C3","batch3","","1010","","","tol_tohand","","","","","","","","","tol_peg_1","1010","1010","0","[[0,0,0],[2,0],[1]]","6","[[1,0,0],[2,3],[0]]","5","0","","","","","","6","",""
"","","","","","single-stim-button","266","608362","0.0-3.0-25.5-1.5","5ddc56d18ed6bfbc2cbb34bb","C3","batch3","","369","","","tol_toboard","","","","","","","","","tol_peg_2","369","369","0","[[0,0,0],[2,3],[1]]","6","[[1,0,0],[2,3],[0]]","5","0","","","","","","6","",""
"","","","","","single-stim-button","267","608722","0.0-3.0-25.6-0.6","5ddc56d18ed6bfbc2cbb34bb","C3","batch3","","360","","","tol_tohand","","","","","","","","","tol_peg_3","360","360","0","[[0,0,0],[2,3],[0]]","7","[[1,0,0],[2,3],[0]]","5","0","","","","","","6","",""
"","","","","","single-stim-button","268","609237","0.0-3.0-25.6-1.6","5ddc56d18ed6bfbc2cbb34bb","C3","batch3","","515","","","tol_toboard","","","","","","","","","tol_peg_1","515","515","0","[[1,0,0],[2,3],[0]]","7","[[1,0,0],[2,3],[0]]","5","0","","","","","","6","",""
"","","","","","poldrack-single-stim","269","610238","0.0-3.0-26.0","5ddc56d18ed6bfbc2cbb34bb","C3","batch3","","-1","","","tol_feedback","true","","","","","","","","","1000","1000","500","","","","","","-1","none","true","21804","34318","","",""
"","","","","","html-button-response","270","611317","0.0-3.0-27.0","5ddc56d18ed6bfbc2cbb34bb","C3","batch3","","1078.5","<div class = centerbox><p class = center-block-text>problem <strong>7</strong> out of 25 problems</p></div>","0","tol_trial_num","","","","","","","","","","","","","","","","","","","","","","","","",""
"","","","","","single-stim-button","271","647274","0.0-3.0-28.0-0.0","5ddc56d18ed6bfbc2cbb34bb","C3","batch3","","35957","","","tol_tohand","","","","","","","","","tol_peg_3","35957","35957","0","[[2,1,0],[0,0],[0]]","1","[[1,2,0],[3,0],[0]]","6","0","","","","","","5","",""
"","","","","","single-stim-button","272","647813","0.0-3.0-28.0-1.0","5ddc56d18ed6bfbc2cbb34bb","C3","batch3","","539","","","tol_toboard","","","","","","","","","tol_peg_2","539","539","0","[[2,1,0],[3,0],[0]]","1","[[1,2,0],[3,0],[0]]","6","0","","","","","","5","",""
"","","","","","single-stim-button","273","648650","0.0-3.0-28.1-0.1","5ddc56d18ed6bfbc2cbb34bb","C3","batch3","","837","","","tol_tohand","","","","","","","","","tol_peg_1","837","837","0","[[2,0,0],[3,0],[0]]","2","[[1,2,0],[3,0],[0]]","6","0","","","","","","5","",""
"","","","","","single-stim-button","274","649315","0.0-3.0-28.1-1.1","5ddc56d18ed6bfbc2cbb34bb","C3","batch3","","665","","","tol_toboard","","","","","","","","","tol_peg_2","665","665","0","[[2,0,0],[3,1],[0]]","2","[[1,2,0],[3,0],[0]]","6","0","","","","","","5","",""
"","","","","","single-stim-button","275","650353","0.0-3.0-28.2-0.2","5ddc56d18ed6bfbc2cbb34bb","C3","batch3","","1038","","","tol_tohand","","","","","","","","","tol_peg_1","1038","1038","0","[[0,0,0],[3,1],[0]]","3","[[1,2,0],[3,0],[0]]","6","0","","","","","","5","",""
"","","","","","single-stim-button","276","650952","0.0-3.0-28.2-1.2","5ddc56d18ed6bfbc2cbb34bb","C3","batch3","","599","","","tol_toboard","","","","","","","","","tol_peg_3","599","599","0","[[0,0,0],[3,1],[2]]","3","[[1,2,0],[3,0],[0]]","6","0","","","","","","5","",""
"","","","","","single-stim-button","277","651413","0.0-3.0-28.3-0.3","5ddc56d18ed6bfbc2cbb34bb","C3","batch3","","461","","","tol_tohand","","","","","","","","","tol_peg_2","461","461","0","[[0,0,0],[3,0],[2]]","4","[[1,2,0],[3,0],[0]]","6","0","","","","","","5","",""
"","","","","","single-stim-button","278","651799","0.0-3.0-28.3-1.3","5ddc56d18ed6bfbc2cbb34bb","C3","batch3","","386","","","tol_toboard","","","","","","","","","tol_peg_1","386","386","0","[[1,0,0],[3,0],[2]]","4","[[1,2,0],[3,0],[0]]","6","0","","","","","","5","",""
"","","","","","single-stim-button","279","652329","0.0-3.0-28.4-0.4","5ddc56d18ed6bfbc2cbb34bb","C3","batch3","","529","","","tol_tohand","","","","","","","","","tol_peg_3","529","529","0","[[1,0,0],[3,0],[0]]","5","[[1,2,0],[3,0],[0]]","6","0","","","","","","5","",""
"","","","","","single-stim-button","280","652900","0.0-3.0-28.4-1.4","5ddc56d18ed6bfbc2cbb34bb","C3","batch3","","571","","","tol_toboard","","","","","","","","","tol_peg_1","571","571","0","[[1,2,0],[3,0],[0]]","5","[[1,2,0],[3,0],[0]]","6","0","","","","","","5","",""
"","","","","","poldrack-single-stim","281","653901","0.0-3.0-29.0","5ddc56d18ed6bfbc2cbb34bb","C3","batch3","","-1","","","tol_feedback","true","","","","","","","","","1000","1000","500","","","","","","-1","none","true","35957","38822","","",""
"","","","","","html-button-response","282","654889","0.0-3.0-30.0","5ddc56d18ed6bfbc2cbb34bb","C3","batch3","","987.4000000953674","<div class = centerbox><p class = center-block-text>problem <strong>8</strong> out of 25 problems</p></div>","0","tol_trial_num","","","","","","","","","","","","","","","","","","","","","","","","",""
"","","","","","single-stim-button","283","663575","0.0-3.0-31.0-0.0","5ddc56d18ed6bfbc2cbb34bb","C3","batch3","","8686","","","tol_tohand","","","","","","","","","tol_peg_3","8686","8686","0","[[0,0,0],[2,3],[0]]","1","[[1,2,0],[3,0],[0]]","7","0","","","","","","4","",""
"","","","","","single-stim-button","284","664152","0.0-3.0-31.0-1.0","5ddc56d18ed6bfbc2cbb34bb","C3","batch3","","577","","","tol_toboard","","","","","","","","","tol_peg_1","577","577","0","[[1,0,0],[2,3],[0]]","1","[[1,2,0],[3,0],[0]]","7","0","","","","","","4","",""
"","","","","","single-stim-button","285","664663","0.0-3.0-31.1-0.1","5ddc56d18ed6bfbc2cbb34bb","C3","batch3","","511","","","tol_tohand","","","","","","","","","tol_peg_2","511","511","0","[[1,0,0],[2,0],[0]]","2","[[1,2,0],[3,0],[0]]","7","0","","","","","","4","",""
"","","","","","single-stim-button","286","665175","0.0-3.0-31.1-1.1","5ddc56d18ed6bfbc2cbb34bb","C3","batch3","","512","","","tol_toboard","","","","","","","","","tol_peg_3","512","512","0","[[1,0,0],[2,0],[3]]","2","[[1,2,0],[3,0],[0]]","7","0","","","","","","4","",""
"","","","","","single-stim-button","287","665555","0.0-3.0-31.2-0.2","5ddc56d18ed6bfbc2cbb34bb","C3","batch3","","380","","","tol_tohand","","","","","","","","","tol_peg_2","380","380","0","[[1,0,0],[0,0],[3]]","3","[[1,2,0],[3,0],[0]]","7","0","","","","","","4","",""
"","","","","","single-stim-button","288","666042","0.0-3.0-31.2-1.2","5ddc56d18ed6bfbc2cbb34bb","C3","batch3","","487","","","tol_toboard","","","","","","","","","tol_peg_1","487","487","0","[[1,2,0],[0,0],[3]]","3","[[1,2,0],[3,0],[0]]","7","0","","","","","","4","",""
"","","","","","single-stim-button","289","666536","0.0-3.0-31.3-0.3","5ddc56d18ed6bfbc2cbb34bb","C3","batch3","","494","","","tol_tohand","","","","","","","","","tol_peg_3","494","494","0","[[1,2,0],[0,0],[0]]","4","[[1,2,0],[3,0],[0]]","7","0","","","","","","4","",""
"","","","","","single-stim-button","290","666990","0.0-3.0-31.3-1.3","5ddc56d18ed6bfbc2cbb34bb","C3","batch3","","453","","","tol_toboard","","","","","","","","","tol_peg_2","453","453","0","[[1,2,0],[3,0],[0]]","4","[[1,2,0],[3,0],[0]]","7","0","","","","","","4","",""
"","","","","","poldrack-single-stim","291","667999","0.0-3.0-32.0","5ddc56d18ed6bfbc2cbb34bb","C3","batch3","","-1","","","tol_feedback","true","","","","","","","","","1000","1000","500","","","","","","-1","none","true","8686","10071","","",""
"","","","","","html-button-response","292","668849","0.0-3.0-33.0","5ddc56d18ed6bfbc2cbb34bb","C3","batch3","","850.3000001907349","<div class = centerbox><p class = center-block-text>problem <strong>9</strong> out of 25 problems</p></div>","0","tol_trial_num","","","","","","","","","","","","","","","","","","","","","","","","",""
"","","","","","single-stim-button","293","691745","0.0-3.0-34.0-0.0","5ddc56d18ed6bfbc2cbb34bb","C3","batch3","","22895","","","tol_tohand","","","","","","","","","tol_peg_3","22895","22895","0","[[3,2,0],[0,0],[0]]","1","[[2,1,0],[3,0],[0]]","8","0","","","","","","6","",""
"","","","","","single-stim-button","294","692192","0.0-3.0-34.0-1.0","5ddc56d18ed6bfbc2cbb34bb","C3","batch3","","446","","","tol_toboard","","","","","","","","","tol_peg_2","446","446","0","[[3,2,0],[1,0],[0]]","1","[[2,1,0],[3,0],[0]]","8","0","","","","","","6","",""
"","","","","","single-stim-button","295","692738","0.0-3.0-34.1-0.1","5ddc56d18ed6bfbc2cbb34bb","C3","batch3","","545","","","tol_tohand","","","","","","","","","tol_peg_1","545","545","0","[[3,0,0],[1,0],[0]]","2","[[2,1,0],[3,0],[0]]","8","0","","","","","","6","",""
"","","","","","single-stim-button","296","693187","0.0-3.0-34.1-1.1","5ddc56d18ed6bfbc2cbb34bb","C3","batch3","","449","","","tol_toboard","","","","","","","","","tol_peg_2","449","449","0","[[3,0,0],[1,2],[0]]","2","[[2,1,0],[3,0],[0]]","8","0","","","","","","6","",""
"","","","","","single-stim-button","297","693615","0.0-3.0-34.2-0.2","5ddc56d18ed6bfbc2cbb34bb","C3","batch3","","427","","","tol_tohand","","","","","","","","","tol_peg_1","427","427","0","[[0,0,0],[1,2],[0]]","3","[[2,1,0],[3,0],[0]]","8","0","","","","","","6","",""
"","","","","","single-stim-button","298","694160","0.0-3.0-34.2-1.2","5ddc56d18ed6bfbc2cbb34bb","C3","batch3","","545","","","tol_toboard","","","","","","","","","tol_peg_3","545","545","0","[[0,0,0],[1,2],[3]]","3","[[2,1,0],[3,0],[0]]","8","0","","","","","","6","",""
"","","","","","single-stim-button","299","694842","0.0-3.0-34.3-0.3","5ddc56d18ed6bfbc2cbb34bb","C3","batch3","","681","","","tol_tohand","","","","","","","","","tol_peg_2","681","681","0","[[0,0,0],[1,0],[3]]","4","[[2,1,0],[3,0],[0]]","8","0","","","","","","6","",""
"","","","","","single-stim-button","300","695470","0.0-3.0-34.3-1.3","5ddc56d18ed6bfbc2cbb34bb","C3","batch3","","627","","","tol_toboard","","","","","","","","","tol_peg_1","627","627","0","[[2,0,0],[1,0],[3]]","4","[[2,1,0],[3,0],[0]]","8","0","","","","","","6","",""
"","","","","","single-stim-button","301","695869","0.0-3.0-34.4-0.4","5ddc56d18ed6bfbc2cbb34bb","C3","batch3","","398","","","tol_tohand","","","","","","","","","tol_peg_2","398","398","0","[[2,0,0],[0,0],[3]]","5","[[2,1,0],[3,0],[0]]","8","0","","","","","","6","",""
"","","","","","single-stim-button","302","696339","0.0-3.0-34.4-1.4","5ddc56d18ed6bfbc2cbb34bb","C3","batch3","","469","","","tol_toboard","","","","","","","","","tol_peg_1","469","469","0","[[2,1,0],[0,0],[3]]","5","[[2,1,0],[3,0],[0]]","8","0","","","","","","6","",""
"","","","","","single-stim-button","303","696925","0.0-3.0-34.5-0.5","5ddc56d18ed6bfbc2cbb34bb","C3","batch3","","585","","","tol_tohand","","","","","","","","","tol_peg_3","585","585","0","[[2,1,0],[0,0],[0]]","6","[[2,1,0],[3,0],[0]]","8","0","","","","","","6","",""
"","","","","","single-stim-button","304","697287","0.0-3.0-34.5-1.5","5ddc56d18ed6bfbc2cbb34bb","C3","batch3","","362","","","tol_toboard","","","","","","","","","tol_peg_2","362","362","0","[[2,1,0],[3,0],[0]]","6","[[2,1,0],[3,0],[0]]","8","0","","","","","","6","",""
"","","","","","poldrack-single-stim","305","698288","0.0-3.0-35.0","5ddc56d18ed6bfbc2cbb34bb","C3","batch3","","-1","","","tol_feedback","true","","","","","","","","","1000","1000","500","","","","","","-1","none","true","22895","25531","","",""
"","","","","","html-button-response","306","699065","0.0-3.0-36.0","5ddc56d18ed6bfbc2cbb34bb","C3","batch3","","776.6999998092651","<div class = centerbox><p class = center-block-text>problem <strong>10</strong> out of 25 problems</p></div>","0","tol_trial_num","","","","","","","","","","","","","","","","","","","","","","","","",""
"","","","","","single-stim-button","307","709263","0.0-3.0-37.0-0.0","5ddc56d18ed6bfbc2cbb34bb","C3","batch3","","10198","","","tol_tohand","","","","","","","","","tol_peg_2","10198","10198","0","[[3,0,0],[0,0],[2]]","1","[[3,0,0],[2,1],[0]]","9","0","","","","","","3","",""
"","","","","","single-stim-button","308","709692","0.0-3.0-37.0-1.0","5ddc56d18ed6bfbc2cbb34bb","C3","batch3","","428","","","tol_toboard","","","","","","","","","tol_peg_1","428","428","0","[[3,1,0],[0,0],[2]]","1","[[3,0,0],[2,1],[0]]","9","0","","","","","","3","",""
"","","","","","single-stim-button","309","710173","0.0-3.0-37.1-0.1","5ddc56d18ed6bfbc2cbb34bb","C3","batch3","","481","","","tol_tohand","","","","","","","","","tol_peg_3","481","481","0","[[3,1,0],[0,0],[0]]","2","[[3,0,0],[2,1],[0]]","9","0","","","","","","3","",""
"","","","","","single-stim-button","310","710619","0.0-3.0-37.1-1.1","5ddc56d18ed6bfbc2cbb34bb","C3","batch3","","445","","","tol_toboard","","","","","","","","","tol_peg_2","445","445","0","[[3,1,0],[2,0],[0]]","2","[[3,0,0],[2,1],[0]]","9","0","","","","","","3","",""
"","","","","","single-stim-button","311","711071","0.0-3.0-37.2-0.2","5ddc56d18ed6bfbc2cbb34bb","C3","batch3","","451","","","tol_tohand","","","","","","","","","tol_peg_1","451","451","0","[[3,0,0],[2,0],[0]]","3","[[3,0,0],[2,1],[0]]","9","0","","","","","","3","",""
"","","","","","single-stim-button","312","711470","0.0-3.0-37.2-1.2","5ddc56d18ed6bfbc2cbb34bb","C3","batch3","","399","","","tol_toboard","","","","","","","","","tol_peg_2","399","399","0","[[3,0,0],[2,1],[0]]","3","[[3,0,0],[2,1],[0]]","9","0","","","","","","3","",""
"","","","","","poldrack-single-stim","313","712472","0.0-3.0-38.0","5ddc56d18ed6bfbc2cbb34bb","C3","batch3","","-1","","","tol_feedback","true","","","","","","","","","1000","1000","500","","","","","","-1","none","true","10198","11130","","",""
"","","","","","html-button-response","314","713319","0.0-3.0-39.0","5ddc56d18ed6bfbc2cbb34bb","C3","batch3","","846.7999997138977","<div class = centerbox><p class = center-block-text>problem <strong>11</strong> out of 25 problems</p></div>","0","tol_trial_num","","","","","","","","","","","","","","","","","","","","","","","","",""
"","","","","","single-stim-button","315","798758","0.0-3.0-40.0-0.0","5ddc56d18ed6bfbc2cbb34bb","C3","batch3","","85438","","","tol_tohand","","","","","","","","","tol_peg_1","85438","85438","0","[[1,0,0],[3,0],[0]]","1","[[2,0,0],[1,3],[0]]","10","0","","","","","","6","",""
"","","","","","single-stim-button","316","799361","0.0-3.0-40.0-1.0","5ddc56d18ed6bfbc2cbb34bb","C3","batch3","","602","","","tol_toboard","","","","","","","","","tol_peg_3","602","602","0","[[1,0,0],[3,0],[2]]","1","[[2,0,0],[1,3],[0]]","10","0","","","","","","6","",""
"","","","","","single-stim-button","317","800187","0.0-3.0-40.1-0.1","5ddc56d18ed6bfbc2cbb34bb","C3","batch3","","825","","","tol_tohand","","","","","","","","","tol_peg_1","825","825","0","[[0,0,0],[3,0],[2]]","2","[[2,0,0],[1,3],[0]]","10","0","","","","","","6","",""
"","","","","","single-stim-button","318","800780","0.0-3.0-40.1-1.1","5ddc56d18ed6bfbc2cbb34bb","C3","batch3","","592","","","tol_toboard","","","","","","","","","tol_peg_2","592","592","0","[[0,0,0],[3,1],[2]]","2","[[2,0,0],[1,3],[0]]","10","0","","","","","","6","",""
"","","","","","single-stim-button","319","801308","0.0-3.0-40.2-0.2","5ddc56d18ed6bfbc2cbb34bb","C3","batch3","","527","","","tol_tohand","","","","","","","","","tol_peg_3","527","527","0","[[0,0,0],[3,1],[0]]","3","[[2,0,0],[1,3],[0]]","10","0","","","","","","6","",""
"","","","","","single-stim-button","320","801828","0.0-3.0-40.2-1.2","5ddc56d18ed6bfbc2cbb34bb","C3","batch3","","519","","","tol_toboard","","","","","","","","","tol_peg_1","519","519","0","[[2,0,0],[3,1],[0]]","3","[[2,0,0],[1,3],[0]]","10","0","","","","","","6","",""
"","","","","","single-stim-button","321","802408","0.0-3.0-40.3-0.3","5ddc56d18ed6bfbc2cbb34bb","C3","batch3","","580","","","tol_tohand","","","","","","","","","tol_peg_2","580","580","0","[[2,0,0],[3,0],[0]]","4","[[2,0,0],[1,3],[0]]","10","0","","","","","","6","",""
"","","","","","single-stim-button","322","803583","0.0-3.0-40.3-1.3","5ddc56d18ed6bfbc2cbb34bb","C3","batch3","","1175","","","tol_toboard","","","","","","","","","tol_peg_1","1175","1175","0","[[2,1,0],[3,0],[0]]","4","[[2,0,0],[1,3],[0]]","10","0","","","","","","6","",""
"","","","","","single-stim-button","323","804185","0.0-3.0-40.4-0.4","5ddc56d18ed6bfbc2cbb34bb","C3","batch3","","602","","","tol_tohand","","","","","","","","","tol_peg_2","602","602","0","[[2,1,0],[0,0],[0]]","5","[[2,0,0],[1,3],[0]]","10","0","","","","","","6","",""
"","","","","","single-stim-button","324","804701","0.0-3.0-40.4-1.4","5ddc56d18ed6bfbc2cbb34bb","C3","batch3","","515","","","tol_toboard","","","","","","","","","tol_peg_3","515","515","0","[[2,1,0],[0,0],[3]]","5","[[2,0,0],[1,3],[0]]","10","0","","","","","","6","",""
"","","","","","single-stim-button","325","805287","0.0-3.0-40.5-0.5","5ddc56d18ed6bfbc2cbb34bb","C3","batch3","","586","","","tol_tohand","","","","","","","","","tol_peg_1","586","586","0","[[2,0,0],[0,0],[3]]","6","[[2,0,0],[1,3],[0]]","10","0","","","","","","6","",""
"","","","","","single-stim-button","326","805781","0.0-3.0-40.5-1.5","5ddc56d18ed6bfbc2cbb34bb","C3","batch3","","494","","","tol_toboard","","","","","","","","","tol_peg_2","494","494","0","[[2,0,0],[1,0],[3]]","6","[[2,0,0],[1,3],[0]]","10","0","","","","","","6","",""
"","","","","","single-stim-button","327","806380","0.0-3.0-40.6-0.6","5ddc56d18ed6bfbc2cbb34bb","C3","batch3","","598","","","tol_tohand","","","","","","","","","tol_peg_3","598","598","0","[[2,0,0],[1,0],[0]]","7","[[2,0,0],[1,3],[0]]","10","0","","","","","","6","",""
"","","","","","single-stim-button","328","806860","0.0-3.0-40.6-1.6","5ddc56d18ed6bfbc2cbb34bb","C3","batch3","","480","","","tol_toboard","","","","","","","","","tol_peg_2","480","480","0","[[2,0,0],[1,3],[0]]","7","[[2,0,0],[1,3],[0]]","10","0","","","","","","6","",""
"","","","","","poldrack-single-stim","329","807862","0.0-3.0-41.0","5ddc56d18ed6bfbc2cbb34bb","C3","batch3","","-1","","","tol_feedback","true","","","","","","","","","1000","1000","500","","","","","","-1","none","true","85438","89156","","",""
"","","","","","html-button-response","330","808660","0.0-3.0-42.0","5ddc56d18ed6bfbc2cbb34bb","C3","batch3","","797.6000003814697","<div class = centerbox><p class = center-block-text>problem <strong>12</strong> out of 25 problems</p></div>","0","tol_trial_num","","","","","","","","","","","","","","","","","","","","","","","","",""
"","","","","","single-stim-button","331","829773","0.0-3.0-43.0-0.0","5ddc56d18ed6bfbc2cbb34bb","C3","batch3","","21113","","","tol_tohand","","","","","","","","","tol_peg_1","21113","21113","0","[[1,0,0],[3,0],[0]]","1","[[2,3,0],[0,0],[1]]","11","0","","","","","","4","",""
"","","","","","single-stim-button","332","830181","0.0-3.0-43.0-1.0","5ddc56d18ed6bfbc2cbb34bb","C3","batch3","","407","","","tol_toboard","","","","","","","","","tol_peg_2","407","407","0","[[1,0,0],[3,2],[0]]","1","[[2,3,0],[0,0],[1]]","11","0","","","","","","4","",""
"","","","","","single-stim-button","333","830589","0.0-3.0-43.1-0.1","5ddc56d18ed6bfbc2cbb34bb","C3","batch3","","407","","","tol_tohand","","","","","","","","","tol_peg_1","407","407","0","[[0,0,0],[3,2],[0]]","2","[[2,3,0],[0,0],[1]]","11","0","","","","","","4","",""
"","","","","","single-stim-button","334","831139","0.0-3.0-43.1-1.1","5ddc56d18ed6bfbc2cbb34bb","C3","batch3","","550","","","tol_toboard","","","","","","","","","tol_peg_3","550","550","0","[[0,0,0],[3,2],[1]]","2","[[2,3,0],[0,0],[1]]","11","0","","","","","","4","",""
"","","","","","single-stim-button","335","831552","0.0-3.0-43.2-0.2","5ddc56d18ed6bfbc2cbb34bb","C3","batch3","","413","","","tol_tohand","","","","","","","","","tol_peg_2","413","413","0","[[0,0,0],[3,0],[1]]","3","[[2,3,0],[0,0],[1]]","11","0","","","","","","4","",""
"","","","","","single-stim-button","336","831916","0.0-3.0-43.2-1.2","5ddc56d18ed6bfbc2cbb34bb","C3","batch3","","364","","","tol_toboard","","","","","","","","","tol_peg_1","364","364","0","[[2,0,0],[3,0],[1]]","3","[[2,3,0],[0,0],[1]]","11","0","","","","","","4","",""
"","","","","","single-stim-button","337","832328","0.0-3.0-43.3-0.3","5ddc56d18ed6bfbc2cbb34bb","C3","batch3","","412","","","tol_tohand","","","","","","","","","tol_peg_2","412","412","0","[[2,0,0],[0,0],[1]]","4","[[2,3,0],[0,0],[1]]","11","0","","","","","","4","",""
"","","","","","single-stim-button","338","832664","0.0-3.0-43.3-1.3","5ddc56d18ed6bfbc2cbb34bb","C3","batch3","","336","","","tol_toboard","","","","","","","","","tol_peg_1","336","336","0","[[2,3,0],[0,0],[1]]","4","[[2,3,0],[0,0],[1]]","11","0","","","","","","4","",""
"","","","","","poldrack-single-stim","339","833666","0.0-3.0-44.0","5ddc56d18ed6bfbc2cbb34bb","C3","batch3","","-1","","","tol_feedback","true","","","","","","","","","1000","1000","500","","","","","","-1","none","true","21113","22345","","",""
"","","","","","html-button-response","340","834604","0.0-3.0-45.0","5ddc56d18ed6bfbc2cbb34bb","C3","batch3","","937.7000002861023","<div class = centerbox><p class = center-block-text>problem <strong>13</strong> out of 25 problems</p></div>","0","tol_trial_num","","","","","","","","","","","","","","","","","","","","","","","","",""
"","","","","","single-stim-button","341","849211","0.0-3.0-46.0-0.0","5ddc56d18ed6bfbc2cbb34bb","C3","batch3","","14607","","","tol_tohand","","","","","","","","","tol_peg_2","14607","14607","0","[[1,2,0],[0,0],[0]]","1","[[0,0,0],[2,3],[1]]","12","0","","","","","","4","",""
"","","","","","single-stim-button","342","849657","0.0-3.0-46.0-1.0","5ddc56d18ed6bfbc2cbb34bb","C3","batch3","","446","","","tol_toboard","","","","","","","","","tol_peg_3","446","446","0","[[1,2,0],[0,0],[3]]","1","[[0,0,0],[2,3],[1]]","12","0","","","","","","4","",""
"","","","","","single-stim-button","343","850283","0.0-3.0-46.1-0.1","5ddc56d18ed6bfbc2cbb34bb","C3","batch3","","626","","","tol_tohand","","","","","","","","","tol_peg_1","626","626","0","[[1,0,0],[0,0],[3]]","2","[[0,0,0],[2,3],[1]]","12","0","","","","","","4","",""
"","","","","","single-stim-button","344","850690","0.0-3.0-46.1-1.1","5ddc56d18ed6bfbc2cbb34bb","C3","batch3","","407","","","tol_toboard","","","","","","","","","tol_peg_2","407","407","0","[[1,0,0],[2,0],[3]]","2","[[0,0,0],[2,3],[1]]","12","0","","","","","","4","",""
"","","","","","single-stim-button","345","851165","0.0-3.0-46.2-0.2","5ddc56d18ed6bfbc2cbb34bb","C3","batch3","","475","","","tol_tohand","","","","","","","","","tol_peg_3","475","475","0","[[1,0,0],[2,0],[0]]","3","[[0,0,0],[2,3],[1]]","12","0","","","","","","4","",""
"","","","","","single-stim-button","346","851570","0.0-3.0-46.2-1.2","5ddc56d18ed6bfbc2cbb34bb","C3","batch3","","405","","","tol_toboard","","","","","","","","","tol_peg_2","405","405","0","[[1,0,0],[2,3],[0]]","3","[[0,0,0],[2,3],[1]]","12","0","","","","","","4","",""
"","","","","","single-stim-button","347","852014","0.0-3.0-46.3-0.3","5ddc56d18ed6bfbc2cbb34bb","C3","batch3","","443","","","tol_tohand","","","","","","","","","tol_peg_1","443","443","0","[[0,0,0],[2,3],[0]]","4","[[0,0,0],[2,3],[1]]","12","0","","","","","","4","",""
"","","","","","single-stim-button","348","852512","0.0-3.0-46.3-1.3","5ddc56d18ed6bfbc2cbb34bb","C3","batch3","","498","","","tol_toboard","","","","","","","","","tol_peg_3","498","498","0","[[0,0,0],[2,3],[1]]","4","[[0,0,0],[2,3],[1]]","12","0","","","","","","4","",""
"","","","","","poldrack-single-stim","349","853513","0.0-3.0-47.0","5ddc56d18ed6bfbc2cbb34bb","C3","batch3","","-1","","","tol_feedback","true","","","","","","","","","1000","1000","500","","","","","","-1","none","true","14607","16151","","",""
