"success","timeout","failed_images","failed_audio","failed_video","trial_type","trial_index","time_elapsed","internal_node_id","subject_id","study_id","session_id","view_history","rt","task","stimulus","response","correct","mouse_click","stim_duration","block_duration","timing_post_trial","current_position","tol_num_moves_made","tol_target","tol_problem_id","tol_rt","key_press","possible_responses","tol_correct","preplanning","tol_rt_per_trial","tol_min_moves","answer","item","fiar_detect_rt","fiar_detect_correct","total_correct_fiar_detect","post_trial_gap","choices","spm_correct","spm_rt"
"true","false","[]","[]","[]","preload","0","7547","0.0-0.0","5dea494eb3adb21655dfadf4","E1","batch5","","","","","","","","","","","","","","","","","","","","","","","","","","","","","",""
"true","","","","","fullscreen","1","20860","0.0-1.0-0.0","5dea494eb3adb21655dfadf4","E1","batch5","","","","","","","","","","","","","","","","","","","","","","","","","","","","","",""
"true","","","","","fullscreen","2","38581","0.0-2.0-0.0","5dea494eb3adb21655dfadf4","E1","batch5","","","","","","","","","","","","","","","","","","","","","","","","","","","","","",""
"","","","","","instructions","3","86544","0.0-2.0-1.0-0.0-0.0","5dea494eb3adb21655dfadf4","E1","batch5","[{""page_index"":0,""viewing_time"":10137.699999999953},{""page_index"":1,""viewing_time"":7312.199999999953},{""page_index"":2,""viewing_time"":3631.8000000000466},{""page_index"":3,""viewing_time"":1847.8000000000466},{""page_index"":4,""viewing_time"":8456.199999999953},{""page_index"":5,""viewing_time"":13967.899999999907},{""page_index"":6,""viewing_time"":2607.9000000001397}]","47961.89999999991","tol-instructions","","","","","","","","","","","","","","","","","","","","","","","","","","",""
"","","","","","html-button-response","4","87472","0.0-2.0-1.0-1.0-0.0","5dea494eb3adb21655dfadf4","E1","batch5","","926.5","tol_enter_quiz","<p class=block-text> Let's answer a few questions <br>","0","","","","","","","","","","","","","","","","","","","","","","","","",""
"","","","","","html-button-response","5","90704","0.0-2.0-1.0-1.0-1.0","5dea494eb3adb21655dfadf4","E1","batch5","","3230.399999999907","tol_quiz","<p class = block-text>True or False: You can only move the ball on top of a peg. <br></p>","0","true","","","","","","","","","","","","","","","","","","","","","","","",""
"","","","","","html-button-response","6","91904","0.0-2.0-1.0-1.0-2.0","5dea494eb3adb21655dfadf4","E1","batch5","","1198.3000000000466","tol_quiz_feedback","<p class = block-text>Correct! You can only move the ball on top of a peg.</p>","0","","","","","","","","","","","","","","","","","","","","","","","","",""
"","","","","","html-button-response","7","94736","0.0-2.0-1.0-1.0-3.0","5dea494eb3adb21655dfadf4","E1","batch5","","2831","tol_quiz","<p class = block-text>True or False: You should try to match your board with the target board with fewest moves possible. <br></p>","0","true","","","","","","","","","","","","","","","","","","","","","","","",""
"","","","","","html-button-response","8","95583","0.0-2.0-1.0-1.0-4.0","5dea494eb3adb21655dfadf4","E1","batch5","","846.9000000001397","tol_quiz_feedback","<p class = block-text>Correct! </p>","0","","","","","","","","","","","","","","","","","","","","","","","","",""
"","","","","","html-button-response","9","96983","0.0-2.0-2.0","5dea494eb3adb21655dfadf4","E1","batch5","","1398.4000000001397","","<p class=block-text> Now that you've understood the game, let's practice a few easier examples before we start!<br> <br>","0","","","","","","","","","","","","","","","","","","","","","","","","",""
"","","","","","single-stim-button","10","100625","0.0-2.0-3.0-0.0","5dea494eb3adb21655dfadf4","E1","batch5","","3640","tol_practice","","","","tol_peg_2","3640","3640","0","[[1,2,0],[0,0],[0]]","1","[[1,2,0],[0,0],[3]]","practice","3640","","","","","","","","","","","","","","",""
"","","","","","single-stim-button","11","101752","0.0-2.0-3.0-1.0","5dea494eb3adb21655dfadf4","E1","batch5","","1125","tol_practice","","","","tol_peg_3","1125","1125","0","[[1,2,0],[0,0],[3]]","1","[[1,2,0],[0,0],[3]]","practice","1125","","","","","","","","","","","","","","",""
"","","","","","poldrack-single-stim","12","102754","0.0-2.0-4.0","5dea494eb3adb21655dfadf4","E1","batch5","","-1","tol_feedback","","","true","","1000","1000","500","","","","","","-1","none","true","","0","","","","","","","","","",""
"","","","","","single-stim-button","13","110488","0.0-2.0-5.0-0.0","5dea494eb3adb21655dfadf4","E1","batch5","","7732","tol_practice","","","","tol_peg_1","7732","7732","0","[[1,0,0],[3,0],[0]]","2","[[0,0,0],[3,1],[2]]","practice","7732","","","","","","","","","","","","","","",""
"","","","","","single-stim-button","14","111481","0.0-2.0-5.0-1.0","5dea494eb3adb21655dfadf4","E1","batch5","","992","tol_practice","","","","tol_peg_3","992","992","0","[[1,0,0],[3,0],[2]]","2","[[0,0,0],[3,1],[2]]","practice","992","","","","","","","","","","","","","","",""
"","","","","","single-stim-button","15","112088","0.0-2.0-5.1-0.1","5dea494eb3adb21655dfadf4","E1","batch5","","606","tol_practice","","","","tol_peg_1","606","606","0","[[0,0,0],[3,0],[2]]","3","[[0,0,0],[3,1],[2]]","practice","606","","","","","","","","","","","","","","",""
"","","","","","single-stim-button","16","112672","0.0-2.0-5.1-1.1","5dea494eb3adb21655dfadf4","E1","batch5","","583","tol_practice","","","","tol_peg_2","583","583","0","[[0,0,0],[3,1],[2]]","3","[[0,0,0],[3,1],[2]]","practice","583","","","","","","","","","","","","","","",""
"","","","","","poldrack-single-stim","17","113683","0.0-2.0-6.0","5dea494eb3adb21655dfadf4","E1","batch5","","-1","tol_feedback","","","true","","1000","1000","500","","","","","","-1","none","true","","0","","","","","","","","","",""
"","","","","","single-stim-button","18","115648","0.0-2.0-7.0-0.0","5dea494eb3adb21655dfadf4","E1","batch5","","1964","tol_practice","","","","tol_peg_1","1964","1964","0","[[1,0,0],[3,0],[0]]","4","[[1,0,0],[2,0],[3]]","practice","1964","","","","","","","","","","","","","","",""
"","","","","","single-stim-button","19","119313","0.0-2.0-7.0-1.0","5dea494eb3adb21655dfadf4","E1","batch5","","3664","tol_practice","","","","tol_peg_2","3664","3664","0","[[1,0,0],[3,2],[0]]","4","[[1,0,0],[2,0],[3]]","practice","3664","","","","","","","","","","","","","","",""
"","","","","","single-stim-button","20","120425","0.0-2.0-7.1-0.1","5dea494eb3adb21655dfadf4","E1","batch5","","1110","tol_practice","","","","tol_peg_2","1110","1110","0","[[1,0,0],[3,0],[0]]","5","[[1,0,0],[2,0],[3]]","practice","1110","","","","","","","","","","","","","","",""
"","","","","","single-stim-button","21","121681","0.0-2.0-7.1-1.1","5dea494eb3adb21655dfadf4","E1","batch5","","1255","tol_practice","","","","tol_peg_1","1255","1255","0","[[1,2,0],[3,0],[0]]","5","[[1,0,0],[2,0],[3]]","practice","1255","","","","","","","","","","","","","","",""
"","","","","","single-stim-button","22","134089","0.0-2.0-7.2-0.2","5dea494eb3adb21655dfadf4","E1","batch5","","12407","tol_practice","","","","tol_peg_2","12407","12407","0","[[1,2,0],[0,0],[0]]","6","[[1,0,0],[2,0],[3]]","practice","12407","","","","","","","","","","","","","","",""
"","","","","","single-stim-button","23","134945","0.0-2.0-7.2-1.2","5dea494eb3adb21655dfadf4","E1","batch5","","855","tol_practice","","","","tol_peg_3","855","855","0","[[1,2,0],[0,0],[3]]","6","[[1,0,0],[2,0],[3]]","practice","855","","","","","","","","","","","","","","",""
"","","","","","single-stim-button","24","135737","0.0-2.0-7.3-0.3","5dea494eb3adb21655dfadf4","E1","batch5","","791","tol_practice","","","","tol_peg_1","791","791","0","[[1,0,0],[0,0],[3]]","7","[[1,0,0],[2,0],[3]]","practice","791","","","","","","","","","","","","","","",""
"","","","","","single-stim-button","25","136505","0.0-2.0-7.3-1.3","5dea494eb3adb21655dfadf4","E1","batch5","","768","tol_practice","","","","tol_peg_2","768","768","0","[[1,0,0],[2,0],[3]]","7","[[1,0,0],[2,0],[3]]","practice","768","","","","","","","","","","","","","","",""
"","","","","","poldrack-single-stim","26","137515","0.0-2.0-8.0","5dea494eb3adb21655dfadf4","E1","batch5","","-1","tol_feedback","","","true","","1000","1000","500","","","","","","-1","none","true","","0","","","","","","","","","",""
"","","","","","html-button-response","27","141993","0.0-2.0-9.0","5dea494eb3adb21655dfadf4","E1","batch5","","4477","tol_instruction","<div class = centerbox><p class = center-block-text>Great job! You are done with practice trials<br>You are about to start official trials.<br> <br> Problem <strong>1</strong> out of 25 problems</p></div>","0","","","","","","","","","","","","","","","","","","","","","","","","",""
"","","","","","single-stim-button","28","152337","0.0-2.0-10.0-0.0","5dea494eb3adb21655dfadf4","E1","batch5","","9339","tol_tohand","","","","tol_peg_1","9339","9339","0","[[1,0,0],[3,0],[0]]","1","[[1,3,0],[2,0],[0]]","0","0","","","","","","3","","","","","","","","",""
"","","","","","single-stim-button","29","153289","0.0-2.0-10.0-1.0","5dea494eb3adb21655dfadf4","E1","batch5","","950","tol_toboard","","","","tol_peg_3","950","950","0","[[1,0,0],[3,0],[2]]","1","[[1,3,0],[2,0],[0]]","0","0","","","","","","3","","","","","","","","",""
"","","","","","single-stim-button","30","153833","0.0-2.0-10.1-0.1","5dea494eb3adb21655dfadf4","E1","batch5","","543","tol_tohand","","","","tol_peg_2","543","543","0","[[1,0,0],[0,0],[2]]","2","[[1,3,0],[2,0],[0]]","0","0","","","","","","3","","","","","","","","",""
"","","","","","single-stim-button","31","154489","0.0-2.0-10.1-1.1","5dea494eb3adb21655dfadf4","E1","batch5","","655","tol_toboard","","","","tol_peg_1","655","655","0","[[1,3,0],[0,0],[2]]","2","[[1,3,0],[2,0],[0]]","0","0","","","","","","3","","","","","","","","",""
"","","","","","single-stim-button","32","155057","0.0-2.0-10.2-0.2","5dea494eb3adb21655dfadf4","E1","batch5","","567","tol_tohand","","","","tol_peg_3","567","567","0","[[1,3,0],[0,0],[0]]","3","[[1,3,0],[2,0],[0]]","0","0","","","","","","3","","","","","","","","",""
"","","","","","single-stim-button","33","155721","0.0-2.0-10.2-1.2","5dea494eb3adb21655dfadf4","E1","batch5","","663","tol_toboard","","","","tol_peg_2","663","663","0","[[1,3,0],[2,0],[0]]","3","[[1,3,0],[2,0],[0]]","0","0","","","","","","3","","","","","","","","",""
"","","","","","poldrack-single-stim","34","156730","0.0-2.0-11.0","5dea494eb3adb21655dfadf4","E1","batch5","","-1","tol_feedback","","","true","","1000","1000","500","","","","","","-1","none","true","9339","10449","","","","","","","","","",""
"","","","","","html-button-response","35","157873","0.0-2.0-12.0","5dea494eb3adb21655dfadf4","E1","batch5","","1141.5","tol_trial_num","<div class = centerbox><p class = center-block-text>problem <strong>2</strong> out of 25 problems</p></div>","0","","","","","","","","","","","","","","","","","","","","","","","","",""
"","","","","","single-stim-button","36","167809","0.0-2.0-13.0-0.0","5dea494eb3adb21655dfadf4","E1","batch5","","9935","tol_tohand","","","","tol_peg_1","9935","9935","0","[[1,0,0],[3,0],[0]]","1","[[2,1,3],[0,0],[0]]","1","0","","","","","","5","","","","","","","","",""
"","","","","","single-stim-button","37","168737","0.0-2.0-13.0-1.0","5dea494eb3adb21655dfadf4","E1","batch5","","927","tol_toboard","","","","tol_peg_3","927","927","0","[[1,0,0],[3,0],[2]]","1","[[2,1,3],[0,0],[0]]","1","0","","","","","","5","","","","","","","","",""
"","","","","","single-stim-button","38","169353","0.0-2.0-13.1-0.1","5dea494eb3adb21655dfadf4","E1","batch5","","615","tol_tohand","","","","tol_peg_1","615","615","0","[[0,0,0],[3,0],[2]]","2","[[2,1,3],[0,0],[0]]","1","0","","","","","","5","","","","","","","","",""
"","","","","","single-stim-button","39","172377","0.0-2.0-13.1-1.1","5dea494eb3adb21655dfadf4","E1","batch5","","3023","tol_toboard","","","","tol_peg_2","3023","3023","0","[[0,0,0],[3,1],[2]]","2","[[2,1,3],[0,0],[0]]","1","0","","","","","","5","","","","","","","","",""
"","","","","","single-stim-button","40","173081","0.0-2.0-13.2-0.2","5dea494eb3adb21655dfadf4","E1","batch5","","703","tol_tohand","","","","tol_peg_3","703","703","0","[[0,0,0],[3,1],[0]]","3","[[2,1,3],[0,0],[0]]","1","0","","","","","","5","","","","","","","","",""
"","","","","","single-stim-button","41","173913","0.0-2.0-13.2-1.2","5dea494eb3adb21655dfadf4","E1","batch5","","831","tol_toboard","","","","tol_peg_1","831","831","0","[[2,0,0],[3,1],[0]]","3","[[2,1,3],[0,0],[0]]","1","0","","","","","","5","","","","","","","","",""
"","","","","","single-stim-button","42","174969","0.0-2.0-13.3-0.3","5dea494eb3adb21655dfadf4","E1","batch5","","1055","tol_tohand","","","","tol_peg_2","1055","1055","0","[[2,0,0],[3,0],[0]]","4","[[2,1,3],[0,0],[0]]","1","0","","","","","","5","","","","","","","","",""
"","","","","","single-stim-button","43","175537","0.0-2.0-13.3-1.3","5dea494eb3adb21655dfadf4","E1","batch5","","567","tol_toboard","","","","tol_peg_1","567","567","0","[[2,1,0],[3,0],[0]]","4","[[2,1,3],[0,0],[0]]","1","0","","","","","","5","","","","","","","","",""
"","","","","","single-stim-button","44","176161","0.0-2.0-13.4-0.4","5dea494eb3adb21655dfadf4","E1","batch5","","623","tol_tohand","","","","tol_peg_2","623","623","0","[[2,1,0],[0,0],[0]]","5","[[2,1,3],[0,0],[0]]","1","0","","","","","","5","","","","","","","","",""
"","","","","","single-stim-button","45","176953","0.0-2.0-13.4-1.4","5dea494eb3adb21655dfadf4","E1","batch5","","791","tol_toboard","","","","tol_peg_1","791","791","0","[[2,1,3],[0,0],[0]]","5","[[2,1,3],[0,0],[0]]","1","0","","","","","","5","","","","","","","","",""
"","","","","","poldrack-single-stim","46","177957","0.0-2.0-14.0","5dea494eb3adb21655dfadf4","E1","batch5","","-1","tol_feedback","","","true","","1000","1000","500","","","","","","-1","none","true","9935","12931","","","","","","","","","",""
"","","","","","html-button-response","47","179241","0.0-2.0-15.0","5dea494eb3adb21655dfadf4","E1","batch5","","1282.8999999999069","tol_trial_num","<div class = centerbox><p class = center-block-text>problem <strong>3</strong> out of 25 problems</p></div>","0","","","","","","","","","","","","","","","","","","","","","","","","",""
"","","","","","single-stim-button","48","190385","0.0-2.0-16.0-0.0","5dea494eb3adb21655dfadf4","E1","batch5","","11144","tol_tohand","","","","tol_peg_3","11144","11144","0","[[2,3,0],[0,0],[0]]","1","[[1,2,0],[3,0],[0]]","2","0","","","","","","4","","","","","","","","",""
"","","","","","single-stim-button","49","191201","0.0-2.0-16.0-1.0","5dea494eb3adb21655dfadf4","E1","batch5","","814","tol_toboard","","","","tol_peg_2","814","814","0","[[2,3,0],[1,0],[0]]","1","[[1,2,0],[3,0],[0]]","2","0","","","","","","4","","","","","","","","",""
"","","","","","single-stim-button","50","191681","0.0-2.0-16.1-0.1","5dea494eb3adb21655dfadf4","E1","batch5","","479","tol_tohand","","","","tol_peg_1","479","479","0","[[2,0,0],[1,0],[0]]","2","[[1,2,0],[3,0],[0]]","2","0","","","","","","4","","","","","","","","",""
"","","","","","single-stim-button","51","192313","0.0-2.0-16.1-1.1","5dea494eb3adb21655dfadf4","E1","batch5","","631","tol_toboard","","","","tol_peg_3","631","631","0","[[2,0,0],[1,0],[3]]","2","[[1,2,0],[3,0],[0]]","2","0","","","","","","4","","","","","","","","",""
"","","","","","single-stim-button","52","193985","0.0-2.0-16.2-0.2","5dea494eb3adb21655dfadf4","E1","batch5","","1671","tol_tohand","","","","tol_peg_1","1671","1671","0","[[0,0,0],[1,0],[3]]","3","[[1,2,0],[3,0],[0]]","2","0","","","","","","4","","","","","","","","",""
"","","","","","single-stim-button","53","199505","0.0-2.0-16.2-1.2","5dea494eb3adb21655dfadf4","E1","batch5","","5519","tol_toboard","","","","tol_peg_1","5519","5519","0","[[2,0,0],[1,0],[3]]","3","[[1,2,0],[3,0],[0]]","2","0","","","","","","4","","","","","","","","",""
"","","","","","single-stim-button","54","203385","0.0-2.0-16.3-0.3","5dea494eb3adb21655dfadf4","E1","batch5","","3879","tol_tohand","","","","tol_peg_2","3879","3879","0","[[2,0,0],[0,0],[3]]","4","[[1,2,0],[3,0],[0]]","2","0","","","","","","4","","","","","","","","",""
"","","","","","single-stim-button","55","204105","0.0-2.0-16.3-1.3","5dea494eb3adb21655dfadf4","E1","batch5","","719","tol_toboard","","","","tol_peg_1","719","719","0","[[2,1,0],[0,0],[3]]","4","[[1,2,0],[3,0],[0]]","2","0","","","","","","4","","","","","","","","",""
"","","","","","single-stim-button","56","204929","0.0-2.0-16.4-0.4","5dea494eb3adb21655dfadf4","E1","batch5","","823","tol_tohand","","","","tol_peg_3","823","823","0","[[2,1,0],[0,0],[0]]","5","[[1,2,0],[3,0],[0]]","2","0","","","","","","4","","","","","","","","",""
"","","","","","single-stim-button","57","205561","0.0-2.0-16.4-1.4","5dea494eb3adb21655dfadf4","E1","batch5","","631","tol_toboard","","","","tol_peg_2","631","631","0","[[2,1,0],[3,0],[0]]","5","[[1,2,0],[3,0],[0]]","2","0","","","","","","4","","","","","","","","",""
"","","","","","single-stim-button","58","207369","0.0-2.0-16.5-0.5","5dea494eb3adb21655dfadf4","E1","batch5","","1807","tol_tohand","","","","tol_peg_1","1807","1807","0","[[2,0,0],[3,0],[0]]","6","[[1,2,0],[3,0],[0]]","2","0","","","","","","4","","","","","","","","",""
"","","","","","single-stim-button","59","209033","0.0-2.0-16.5-1.5","5dea494eb3adb21655dfadf4","E1","batch5","","1663","tol_toboard","","","","tol_peg_3","1663","1663","0","[[2,0,0],[3,0],[1]]","6","[[1,2,0],[3,0],[0]]","2","0","","","","","","4","","","","","","","","",""
"","","","","","single-stim-button","60","209777","0.0-2.0-16.6-0.6","5dea494eb3adb21655dfadf4","E1","batch5","","743","tol_tohand","","","","tol_peg_1","743","743","0","[[0,0,0],[3,0],[1]]","7","[[1,2,0],[3,0],[0]]","2","0","","","","","","4","","","","","","","","",""
"","","","","","single-stim-button","61","210265","0.0-2.0-16.6-1.6","5dea494eb3adb21655dfadf4","E1","batch5","","487","tol_toboard","","","","tol_peg_2","487","487","0","[[0,0,0],[3,2],[1]]","7","[[1,2,0],[3,0],[0]]","2","0","","","","","","4","","","","","","","","",""
"","","","","","single-stim-button","62","210833","0.0-2.0-16.7-0.7","5dea494eb3adb21655dfadf4","E1","batch5","","567","tol_tohand","","","","tol_peg_3","567","567","0","[[0,0,0],[3,2],[0]]","8","[[1,2,0],[3,0],[0]]","2","0","","","","","","4","","","","","","","","",""
"","","","","","single-stim-button","63","211593","0.0-2.0-16.7-1.7","5dea494eb3adb21655dfadf4","E1","batch5","","759","tol_toboard","","","","tol_peg_1","759","759","0","[[1,0,0],[3,2],[0]]","8","[[1,2,0],[3,0],[0]]","2","0","","","","","","4","","","","","","","","",""
"","","","","","single-stim-button","64","212161","0.0-2.0-16.8-0.8","5dea494eb3adb21655dfadf4","E1","batch5","","567","tol_tohand","","","","tol_peg_2","567","567","0","[[1,0,0],[3,0],[0]]","9","[[1,2,0],[3,0],[0]]","2","0","","","","","","4","","","","","","","","",""
"","","","","","single-stim-button","65","212633","0.0-2.0-16.8-1.8","5dea494eb3adb21655dfadf4","E1","batch5","","471","tol_toboard","","","","tol_peg_1","471","471","0","[[1,2,0],[3,0],[0]]","9","[[1,2,0],[3,0],[0]]","2","0","","","","","","4","","","","","","","","",""
"","","","","","poldrack-single-stim","66","213634","0.0-2.0-17.0","5dea494eb3adb21655dfadf4","E1","batch5","","-1","tol_feedback","","","true","","1000","1000","500","","","","","","-1","none","true","11144","21680","","","","","","","","","",""
"","","","","","html-button-response","67","214681","0.0-2.0-18.0","5dea494eb3adb21655dfadf4","E1","batch5","","1045.6999999997206","tol_trial_num","<div class = centerbox><p class = center-block-text>problem <strong>4</strong> out of 25 problems</p></div>","0","","","","","","","","","","","","","","","","","","","","","","","","",""
"","","","","","single-stim-button","68","223953","0.0-2.0-19.0-0.0","5dea494eb3adb21655dfadf4","E1","batch5","","9271","tol_tohand","","","","tol_peg_2","9271","9271","0","[[3,0,0],[2,0],[0]]","1","[[3,0,0],[1,0],[2]]","3","0","","","","","","3","","","","","","","","",""
"","","","","","single-stim-button","69","224929","0.0-2.0-19.0-1.0","5dea494eb3adb21655dfadf4","E1","batch5","","975","tol_toboard","","","","tol_peg_1","975","975","0","[[3,1,0],[2,0],[0]]","1","[[3,0,0],[1,0],[2]]","3","0","","","","","","3","","","","","","","","",""
"","","","","","single-stim-button","70","225393","0.0-2.0-19.1-0.1","5dea494eb3adb21655dfadf4","E1","batch5","","463","tol_tohand","","","","tol_peg_2","463","463","0","[[3,1,0],[0,0],[0]]","2","[[3,0,0],[1,0],[2]]","3","0","","","","","","3","","","","","","","","",""
"","","","","","single-stim-button","71","226041","0.0-2.0-19.1-1.1","5dea494eb3adb21655dfadf4","E1","batch5","","647","tol_toboard","","","","tol_peg_3","647","647","0","[[3,1,0],[0,0],[2]]","2","[[3,0,0],[1,0],[2]]","3","0","","","","","","3","","","","","","","","",""
"","","","","","single-stim-button","72","226825","0.0-2.0-19.2-0.2","5dea494eb3adb21655dfadf4","E1","batch5","","783","tol_tohand","","","","tol_peg_1","783","783","0","[[3,0,0],[0,0],[2]]","3","[[3,0,0],[1,0],[2]]","3","0","","","","","","3","","","","","","","","",""
"","","","","","single-stim-button","73","227505","0.0-2.0-19.2-1.2","5dea494eb3adb21655dfadf4","E1","batch5","","679","tol_toboard","","","","tol_peg_2","679","679","0","[[3,0,0],[1,0],[2]]","3","[[3,0,0],[1,0],[2]]","3","0","","","","","","3","","","","","","","","",""
"","","","","","poldrack-single-stim","74","228512","0.0-2.0-20.0","5dea494eb3adb21655dfadf4","E1","batch5","","-1","tol_feedback","","","true","","1000","1000","500","","","","","","-1","none","true","9271","10517","","","","","","","","","",""
"","","","","","html-button-response","75","229577","0.0-2.0-21.0","5dea494eb3adb21655dfadf4","E1","batch5","","1063.4000000003725","tol_trial_num","<div class = centerbox><p class = center-block-text>problem <strong>5</strong> out of 25 problems</p></div>","0","","","","","","","","","","","","","","","","","","","","","","","","",""
"","","","","","single-stim-button","76","246535","0.0-2.0-22.0-0.0","5dea494eb3adb21655dfadf4","E1","batch5","","16957","tol_tohand","","","","tol_peg_3","16957","16957","0","[[1,0,0],[2,0],[0]]","1","[[0,0,0],[1,2],[3]]","4","0","","","","","","7","","","","","","","","",""
"","","","","","single-stim-button","77","247111","0.0-2.0-22.0-1.0","5dea494eb3adb21655dfadf4","E1","batch5","","575","tol_toboard","","","","tol_peg_1","575","575","0","[[1,3,0],[2,0],[0]]","1","[[0,0,0],[1,2],[3]]","4","0","","","","","","7","","","","","","","","",""
"","","","","","single-stim-button","78","254223","0.0-2.0-22.1-0.1","5dea494eb3adb21655dfadf4","E1","batch5","","7112","tol_tohand","","","","tol_peg_1","7112","7112","0","[[1,0,0],[2,0],[0]]","2","[[0,0,0],[1,2],[3]]","4","0","","","","","","7","","","","","","","","",""
"","","","","","single-stim-button","79","255422","0.0-2.0-22.1-1.1","5dea494eb3adb21655dfadf4","E1","batch5","","1198","tol_toboard","","","","tol_peg_3","1198","1198","0","[[1,0,0],[2,0],[3]]","2","[[0,0,0],[1,2],[3]]","4","0","","","","","","7","","","","","","","","",""
"","","","","","single-stim-button","80","258887","0.0-2.0-22.2-0.2","5dea494eb3adb21655dfadf4","E1","batch5","","3463","tol_tohand","","","","tol_peg_1","3463","3463","0","[[0,0,0],[2,0],[3]]","3","[[0,0,0],[1,2],[3]]","4","0","","","","","","7","","","","","","","","",""
"","","","","","single-stim-button","81","261238","0.0-2.0-22.2-1.2","5dea494eb3adb21655dfadf4","E1","batch5","","2351","tol_toboard","","","","tol_peg_2","2351","2351","0","[[0,0,0],[2,1],[3]]","3","[[0,0,0],[1,2],[3]]","4","0","","","","","","7","","","","","","","","",""
"","","","","","single-stim-button","82","261814","0.0-2.0-22.3-0.3","5dea494eb3adb21655dfadf4","E1","batch5","","575","tol_tohand","","","","tol_peg_3","575","575","0","[[0,0,0],[2,1],[0]]","4","[[0,0,0],[1,2],[3]]","4","0","","","","","","7","","","","","","","","",""
"","","","","","single-stim-button","83","262327","0.0-2.0-22.3-1.3","5dea494eb3adb21655dfadf4","E1","batch5","","511","tol_toboard","","","","tol_peg_1","511","511","0","[[3,0,0],[2,1],[0]]","4","[[0,0,0],[1,2],[3]]","4","0","","","","","","7","","","","","","","","",""
"","","","","","single-stim-button","84","263838","0.0-2.0-22.4-0.4","5dea494eb3adb21655dfadf4","E1","batch5","","1511","tol_tohand","","","","tol_peg_2","1511","1511","0","[[3,0,0],[2,0],[0]]","5","[[0,0,0],[1,2],[3]]","4","0","","","","","","7","","","","","","","","",""
"","","","","","single-stim-button","85","266670","0.0-2.0-22.4-1.4","5dea494eb3adb21655dfadf4","E1","batch5","","2831","tol_toboard","","","","tol_peg_3","2831","2831","0","[[3,0,0],[2,0],[1]]","5","[[0,0,0],[1,2],[3]]","4","0","","","","","","7","","","","","","","","",""
"","","","","","single-stim-button","86","267318","0.0-2.0-22.5-0.5","5dea494eb3adb21655dfadf4","E1","batch5","","647","tol_tohand","","","","tol_peg_2","647","647","0","[[3,0,0],[0,0],[1]]","6","[[0,0,0],[1,2],[3]]","4","0","","","","","","7","","","","","","","","",""
"","","","","","single-stim-button","87","267846","0.0-2.0-22.5-1.5","5dea494eb3adb21655dfadf4","E1","batch5","","527","tol_toboard","","","","tol_peg_1","527","527","0","[[3,2,0],[0,0],[1]]","6","[[0,0,0],[1,2],[3]]","4","0","","","","","","7","","","","","","","","",""
"","","","","","single-stim-button","88","268854","0.0-2.0-22.6-0.6","5dea494eb3adb21655dfadf4","E1","batch5","","1007","tol_tohand","","","","tol_peg_3","1007","1007","0","[[3,2,0],[0,0],[0]]","7","[[0,0,0],[1,2],[3]]","4","0","","","","","","7","","","","","","","","",""
"","","","","","single-stim-button","89","269559","0.0-2.0-22.6-1.6","5dea494eb3adb21655dfadf4","E1","batch5","","703","tol_toboard","","","","tol_peg_2","703","703","0","[[3,2,0],[1,0],[0]]","7","[[0,0,0],[1,2],[3]]","4","0","","","","","","7","","","","","","","","",""
"","","","","","single-stim-button","90","270791","0.0-2.0-22.7-0.7","5dea494eb3adb21655dfadf4","E1","batch5","","1231","tol_tohand","","","","tol_peg_1","1231","1231","0","[[3,0,0],[1,0],[0]]","8","[[0,0,0],[1,2],[3]]","4","0","","","","","","7","","","","","","","","",""
"","","","","","single-stim-button","91","271422","0.0-2.0-22.7-1.7","5dea494eb3adb21655dfadf4","E1","batch5","","631","tol_toboard","","","","tol_peg_2","631","631","0","[[3,0,0],[1,2],[0]]","8","[[0,0,0],[1,2],[3]]","4","0","","","","","","7","","","","","","","","",""
"","","","","","single-stim-button","92","271975","0.0-2.0-22.8-0.8","5dea494eb3adb21655dfadf4","E1","batch5","","551","tol_tohand","","","","tol_peg_1","551","551","0","[[0,0,0],[1,2],[0]]","9","[[0,0,0],[1,2],[3]]","4","0","","","","","","7","","","","","","","","",""
"","","","","","single-stim-button","93","272815","0.0-2.0-22.8-1.8","5dea494eb3adb21655dfadf4","E1","batch5","","839","tol_toboard","","","","tol_peg_3","839","839","0","[[0,0,0],[1,2],[3]]","9","[[0,0,0],[1,2],[3]]","4","0","","","","","","7","","","","","","","","",""
"","","","","","poldrack-single-stim","94","273816","0.0-2.0-23.0","5dea494eb3adb21655dfadf4","E1","batch5","","-1","tol_feedback","","","true","","1000","1000","500","","","","","","-1","none","true","16957","33054","","","","","","","","","",""
"","","","","","html-button-response","95","274798","0.0-2.0-24.0","5dea494eb3adb21655dfadf4","E1","batch5","","981.8000000002794","tol_trial_num","<div class = centerbox><p class = center-block-text>problem <strong>6</strong> out of 25 problems</p></div>","0","","","","","","","","","","","","","","","","","","","","","","","","",""
"","","","","","single-stim-button","96","289143","0.0-2.0-25.0-0.0","5dea494eb3adb21655dfadf4","E1","batch5","","14343","tol_tohand","","","","tol_peg_3","14343","14343","0","[[0,0,0],[1,2],[0]]","1","[[1,0,0],[2,3],[0]]","5","0","","","","","","6","","","","","","","","",""
"","","","","","single-stim-button","97","289990","0.0-2.0-25.0-1.0","5dea494eb3adb21655dfadf4","E1","batch5","","846","tol_toboard","","","","tol_peg_1","846","846","0","[[3,0,0],[1,2],[0]]","1","[[1,0,0],[2,3],[0]]","5","0","","","","","","6","","","","","","","","",""
"","","","","","single-stim-button","98","300463","0.0-2.0-25.1-0.1","5dea494eb3adb21655dfadf4","E1","batch5","","10471","tol_tohand","","","","tol_peg_2","10471","10471","0","[[3,0,0],[1,0],[0]]","2","[[1,0,0],[2,3],[0]]","5","0","","","","","","6","","","","","","","","",""
"","","","","","single-stim-button","99","301183","0.0-2.0-25.1-1.1","5dea494eb3adb21655dfadf4","E1","batch5","","720","tol_toboard","","","","tol_peg_1","720","720","0","[[3,2,0],[1,0],[0]]","2","[[1,0,0],[2,3],[0]]","5","0","","","","","","6","","","","","","","","",""
"","","","","","single-stim-button","100","301574","0.0-2.0-25.2-0.2","5dea494eb3adb21655dfadf4","E1","batch5","","391","tol_tohand","","","","tol_peg_2","391","391","0","[[3,2,0],[0,0],[0]]","3","[[1,0,0],[2,3],[0]]","5","0","","","","","","6","","","","","","","","",""
"","","","","","single-stim-button","101","302239","0.0-2.0-25.2-1.2","5dea494eb3adb21655dfadf4","E1","batch5","","663","tol_toboard","","","","tol_peg_3","663","663","0","[[3,2,0],[0,0],[1]]","3","[[1,0,0],[2,3],[0]]","5","0","","","","","","6","","","","","","","","",""
"","","","","","single-stim-button","102","303438","0.0-2.0-25.3-0.3","5dea494eb3adb21655dfadf4","E1","batch5","","1199","tol_tohand","","","","tol_peg_1","1199","1199","0","[[3,0,0],[0,0],[1]]","4","[[1,0,0],[2,3],[0]]","5","0","","","","","","6","","","","","","","","",""
"","","","","","single-stim-button","103","304039","0.0-2.0-25.3-1.3","5dea494eb3adb21655dfadf4","E1","batch5","","599","tol_toboard","","","","tol_peg_2","599","599","0","[[3,0,0],[2,0],[1]]","4","[[1,0,0],[2,3],[0]]","5","0","","","","","","6","","","","","","","","",""
"","","","","","single-stim-button","104","304961","0.0-2.0-25.4-0.4","5dea494eb3adb21655dfadf4","E1","batch5","","922","tol_tohand","","","","tol_peg_1","922","922","0","[[0,0,0],[2,0],[1]]","5","[[1,0,0],[2,3],[0]]","5","0","","","","","","6","","","","","","","","",""
"","","","","","single-stim-button","105","305577","0.0-2.0-25.4-1.4","5dea494eb3adb21655dfadf4","E1","batch5","","614","tol_toboard","","","","tol_peg_2","614","614","0","[[0,0,0],[2,3],[1]]","5","[[1,0,0],[2,3],[0]]","5","0","","","","","","6","","","","","","","","",""
"","","","","","single-stim-button","106","306129","0.0-2.0-25.5-0.5","5dea494eb3adb21655dfadf4","E1","batch5","","552","tol_tohand","","","","tol_peg_3","552","552","0","[[0,0,0],[2,3],[0]]","6","[[1,0,0],[2,3],[0]]","5","0","","","","","","6","","","","","","","","",""
"","","","","","single-stim-button","107","306793","0.0-2.0-25.5-1.5","5dea494eb3adb21655dfadf4","E1","batch5","","663","tol_toboard","","","","tol_peg_1","663","663","0","[[1,0,0],[2,3],[0]]","6","[[1,0,0],[2,3],[0]]","5","0","","","","","","6","","","","","","","","",""
"","","","","","poldrack-single-stim","108","307808","0.0-2.0-26.0","5dea494eb3adb21655dfadf4","E1","batch5","","-1","tol_feedback","","","true","","1000","1000","500","","","","","","-1","none","true","14343","27878","","","","","","","","","",""
"","","","","","html-button-response","109","308665","0.0-2.0-27.0","5dea494eb3adb21655dfadf4","E1","batch5","","856.1000000000931","tol_trial_num","<div class = centerbox><p class = center-block-text>problem <strong>7</strong> out of 25 problems</p></div>","0","","","","","","","","","","","","","","","","","","","","","","","","",""
"","","","","","single-stim-button","110","313361","0.0-2.0-28.0-0.0","5dea494eb3adb21655dfadf4","E1","batch5","","4696","tol_tohand","","","","tol_peg_3","4696","4696","0","[[2,1,0],[0,0],[0]]","1","[[1,2,0],[3,0],[0]]","6","0","","","","","","5","","","","","","","","",""
"","","","","","single-stim-button","111","315593","0.0-2.0-28.0-1.0","5dea494eb3adb21655dfadf4","E1","batch5","","2230","tol_toboard","","","","tol_peg_2","2230","2230","0","[[2,1,0],[3,0],[0]]","1","[[1,2,0],[3,0],[0]]","6","0","","","","","","5","","","","","","","","",""
"","","","","","single-stim-button","112","317362","0.0-2.0-28.1-0.1","5dea494eb3adb21655dfadf4","E1","batch5","","1768","tol_tohand","","","","tol_peg_1","1768","1768","0","[[2,0,0],[3,0],[0]]","2","[[1,2,0],[3,0],[0]]","6","0","","","","","","5","","","","","","","","",""
"","","","","","single-stim-button","113","317833","0.0-2.0-28.1-1.1","5dea494eb3adb21655dfadf4","E1","batch5","","470","tol_toboard","","","","tol_peg_2","470","470","0","[[2,0,0],[3,1],[0]]","2","[[1,2,0],[3,0],[0]]","6","0","","","","","","5","","","","","","","","",""
"","","","","","single-stim-button","114","318249","0.0-2.0-28.2-0.2","5dea494eb3adb21655dfadf4","E1","batch5","","415","tol_tohand","","","","tol_peg_1","415","415","0","[[0,0,0],[3,1],[0]]","3","[[1,2,0],[3,0],[0]]","6","0","","","","","","5","","","","","","","","",""
"","","","","","single-stim-button","115","318969","0.0-2.0-28.2-1.2","5dea494eb3adb21655dfadf4","E1","batch5","","719","tol_toboard","","","","tol_peg_3","719","719","0","[[0,0,0],[3,1],[2]]","3","[[1,2,0],[3,0],[0]]","6","0","","","","","","5","","","","","","","","",""
"","","","","","single-stim-button","116","319881","0.0-2.0-28.3-0.3","5dea494eb3adb21655dfadf4","E1","batch5","","911","tol_tohand","","","","tol_peg_2","911","911","0","[[0,0,0],[3,0],[2]]","4","[[1,2,0],[3,0],[0]]","6","0","","","","","","5","","","","","","","","",""
"","","","","","single-stim-button","117","320289","0.0-2.0-28.3-1.3","5dea494eb3adb21655dfadf4","E1","batch5","","407","tol_toboard","","","","tol_peg_1","407","407","0","[[1,0,0],[3,0],[2]]","4","[[1,2,0],[3,0],[0]]","6","0","","","","","","5","","","","","","","","",""
"","","","","","single-stim-button","118","320881","0.0-2.0-28.4-0.4","5dea494eb3adb21655dfadf4","E1","batch5","","591","tol_tohand","","","","tol_peg_3","591","591","0","[[1,0,0],[3,0],[0]]","5","[[1,2,0],[3,0],[0]]","6","0","","","","","","5","","","","","","","","",""
"","","","","","single-stim-button","119","321465","0.0-2.0-28.4-1.4","5dea494eb3adb21655dfadf4","E1","batch5","","583","tol_toboard","","","","tol_peg_1","583","583","0","[[1,2,0],[3,0],[0]]","5","[[1,2,0],[3,0],[0]]","6","0","","","","","","5","","","","","","","","",""
"","","","","","poldrack-single-stim","120","322476","0.0-2.0-29.0","5dea494eb3adb21655dfadf4","E1","batch5","","-1","tol_feedback","","","true","","1000","1000","500","","","","","","-1","none","true","4696","8381","","","","","","","","","",""
"","","","","","html-button-response","121","323561","0.0-2.0-30.0","5dea494eb3adb21655dfadf4","E1","batch5","","1083.3999999999069","tol_trial_num","<div class = centerbox><p class = center-block-text>problem <strong>8</strong> out of 25 problems</p></div>","0","","","","","","","","","","","","","","","","","","","","","","","","",""
"","","","","","single-stim-button","122","326873","0.0-2.0-31.0-0.0","5dea494eb3adb21655dfadf4","E1","batch5","","3310","tol_tohand","","","","tol_peg_3","3310","3310","0","[[0,0,0],[2,3],[0]]","1","[[1,2,0],[3,0],[0]]","7","0","","","","","","4","","","","","","","","",""
"","","","","","single-stim-button","123","327786","0.0-2.0-31.0-1.0","5dea494eb3adb21655dfadf4","E1","batch5","","912","tol_toboard","","","","tol_peg_1","912","912","0","[[1,0,0],[2,3],[0]]","1","[[1,2,0],[3,0],[0]]","7","0","","","","","","4","","","","","","","","",""
"","","","","","single-stim-button","124","328257","0.0-2.0-31.1-0.1","5dea494eb3adb21655dfadf4","E1","batch5","","470","tol_tohand","","","","tol_peg_2","470","470","0","[[1,0,0],[2,0],[0]]","2","[[1,2,0],[3,0],[0]]","7","0","","","","","","4","","","","","","","","",""
"","","","","","single-stim-button","125","328785","0.0-2.0-31.1-1.1","5dea494eb3adb21655dfadf4","E1","batch5","","527","tol_toboard","","","","tol_peg_3","527","527","0","[[1,0,0],[2,0],[3]]","2","[[1,2,0],[3,0],[0]]","7","0","","","","","","4","","","","","","","","",""
"","","","","","single-stim-button","126","329146","0.0-2.0-31.2-0.2","5dea494eb3adb21655dfadf4","E1","batch5","","360","tol_tohand","","","","tol_peg_2","360","360","0","[[1,0,0],[0,0],[3]]","3","[[1,2,0],[3,0],[0]]","7","0","","","","","","4","","","","","","","","",""
"","","","","","single-stim-button","127","329721","0.0-2.0-31.2-1.2","5dea494eb3adb21655dfadf4","E1","batch5","","574","tol_toboard","","","","tol_peg_1","574","574","0","[[1,2,0],[0,0],[3]]","3","[[1,2,0],[3,0],[0]]","7","0","","","","","","4","","","","","","","","",""
"","","","","","single-stim-button","128","330562","0.0-2.0-31.3-0.3","5dea494eb3adb21655dfadf4","E1","batch5","","841","tol_tohand","","","","tol_peg_3","841","841","0","[[1,2,0],[0,0],[0]]","4","[[1,2,0],[3,0],[0]]","7","0","","","","","","4","","","","","","","","",""
"","","","","","single-stim-button","129","331081","0.0-2.0-31.3-1.3","5dea494eb3adb21655dfadf4","E1","batch5","","518","tol_toboard","","","","tol_peg_2","518","518","0","[[1,2,0],[3,0],[0]]","4","[[1,2,0],[3,0],[0]]","7","0","","","","","","4","","","","","","","","",""
"","","","","","poldrack-single-stim","130","332083","0.0-2.0-32.0","5dea494eb3adb21655dfadf4","E1","batch5","","-1","tol_feedback","","","true","","1000","1000","500","","","","","","-1","none","true","3310","4981","","","","","","","","","",""
"","","","","","html-button-response","131","333209","0.0-2.0-33.0","5dea494eb3adb21655dfadf4","E1","batch5","","1125.3999999999069","tol_trial_num","<div class = centerbox><p class = center-block-text>problem <strong>9</strong> out of 25 problems</p></div>","0","","","","","","","","","","","","","","","","","","","","","","","","",""
"","","","","","single-stim-button","132","350265","0.0-2.0-34.0-0.0","5dea494eb3adb21655dfadf4","E1","batch5","","17055","tol_tohand","","","","tol_peg_3","17055","17055","0","[[3,2,0],[0,0],[0]]","1","[[2,1,0],[3,0],[0]]","8","0","","","","","","6","","","","","","","","",""
"","","","","","single-stim-button","133","351009","0.0-2.0-34.0-1.0","5dea494eb3adb21655dfadf4","E1","batch5","","742","tol_toboard","","","","tol_peg_2","742","742","0","[[3,2,0],[1,0],[0]]","1","[[2,1,0],[3,0],[0]]","8","0","","","","","","6","","","","","","","","",""
"","","","","","single-stim-button","134","352145","0.0-2.0-34.1-0.1","5dea494eb3adb21655dfadf4","E1","batch5","","1136","tol_tohand","","","","tol_peg_1","1136","1136","0","[[3,0,0],[1,0],[0]]","2","[[2,1,0],[3,0],[0]]","8","0","","","","","","6","","","","","","","","",""
"","","","","","single-stim-button","135","352769","0.0-2.0-34.1-1.1","5dea494eb3adb21655dfadf4","E1","batch5","","623","tol_toboard","","","","tol_peg_3","623","623","0","[[3,0,0],[1,0],[2]]","2","[[2,1,0],[3,0],[0]]","8","0","","","","","","6","","","","","","","","",""
"","","","","","single-stim-button","136","353481","0.0-2.0-34.2-0.2","5dea494eb3adb21655dfadf4","E1","batch5","","711","tol_tohand","","","","tol_peg_1","711","711","0","[[0,0,0],[1,0],[2]]","3","[[2,1,0],[3,0],[0]]","8","0","","","","","","6","","","","","","","","",""
"","","","","","single-stim-button","137","353953","0.0-2.0-34.2-1.2","5dea494eb3adb21655dfadf4","E1","batch5","","471","tol_toboard","","","","tol_peg_2","471","471","0","[[0,0,0],[1,3],[2]]","3","[[2,1,0],[3,0],[0]]","8","0","","","","","","6","","","","","","","","",""
"","","","","","single-stim-button","138","354993","0.0-2.0-34.3-0.3","5dea494eb3adb21655dfadf4","E1","batch5","","1039","tol_tohand","","","","tol_peg_3","1039","1039","0","[[0,0,0],[1,3],[0]]","4","[[2,1,0],[3,0],[0]]","8","0","","","","","","6","","","","","","","","",""
"","","","","","single-stim-button","139","355593","0.0-2.0-34.3-1.3","5dea494eb3adb21655dfadf4","E1","batch5","","599","tol_toboard","","","","tol_peg_1","599","599","0","[[2,0,0],[1,3],[0]]","4","[[2,1,0],[3,0],[0]]","8","0","","","","","","6","","","","","","","","",""
"","","","","","single-stim-button","140","356049","0.0-2.0-34.4-0.4","5dea494eb3adb21655dfadf4","E1","batch5","","455","tol_tohand","","","","tol_peg_2","455","455","0","[[2,0,0],[1,0],[0]]","5","[[2,1,0],[3,0],[0]]","8","0","","","","","","6","","","","","","","","",""
"","","","","","single-stim-button","141","356833","0.0-2.0-34.4-1.4","5dea494eb3adb21655dfadf4","E1","batch5","","783","tol_toboard","","","","tol_peg_3","783","783","0","[[2,0,0],[1,0],[3]]","5","[[2,1,0],[3,0],[0]]","8","0","","","","","","6","","","","","","","","",""
"","","","","","single-stim-button","142","357233","0.0-2.0-34.5-0.5","5dea494eb3adb21655dfadf4","E1","batch5","","400","tol_tohand","","","","tol_peg_2","400","400","0","[[2,0,0],[0,0],[3]]","6","[[2,1,0],[3,0],[0]]","8","0","","","","","","6","","","","","","","","",""
"","","","","","single-stim-button","143","357681","0.0-2.0-34.5-1.5","5dea494eb3adb21655dfadf4","E1","batch5","","446","tol_toboard","","","","tol_peg_1","446","446","0","[[2,1,0],[0,0],[3]]","6","[[2,1,0],[3,0],[0]]","8","0","","","","","","6","","","","","","","","",""
"","","","","","single-stim-button","144","358545","0.0-2.0-34.6-0.6","5dea494eb3adb21655dfadf4","E1","batch5","","864","tol_tohand","","","","tol_peg_3","864","864","0","[[2,1,0],[0,0],[0]]","7","[[2,1,0],[3,0],[0]]","8","0","","","","","","6","","","","","","","","",""
"","","","","","single-stim-button","145","359161","0.0-2.0-34.6-1.6","5dea494eb3adb21655dfadf4","E1","batch5","","615","tol_toboard","","","","tol_peg_2","615","615","0","[[2,1,0],[3,0],[0]]","7","[[2,1,0],[3,0],[0]]","8","0","","","","","","6","","","","","","","","",""
"","","","","","poldrack-single-stim","146","360164","0.0-2.0-35.0","5dea494eb3adb21655dfadf4","E1","batch5","","-1","tol_feedback","","","true","","1000","1000","500","","","","","","-1","none","true","17055","21660","","","","","","","","","",""
"","","","","","html-button-response","147","361209","0.0-2.0-36.0","5dea494eb3adb21655dfadf4","E1","batch5","","1044.3999999999069","tol_trial_num","<div class = centerbox><p class = center-block-text>problem <strong>10</strong> out of 25 problems</p></div>","0","","","","","","","","","","","","","","","","","","","","","","","","",""
"","","","","","single-stim-button","148","364873","0.0-2.0-37.0-0.0","5dea494eb3adb21655dfadf4","E1","batch5","","3663","tol_tohand","","","","tol_peg_2","3663","3663","0","[[3,0,0],[0,0],[2]]","1","[[3,0,0],[2,1],[0]]","9","0","","","","","","3","","","","","","","","",""
"","","","","","single-stim-button","149","366041","0.0-2.0-37.0-1.0","5dea494eb3adb21655dfadf4","E1","batch5","","1167","tol_toboard","","","","tol_peg_1","1167","1167","0","[[3,1,0],[0,0],[2]]","1","[[3,0,0],[2,1],[0]]","9","0","","","","","","3","","","","","","","","",""
"","","","","","single-stim-button","150","366649","0.0-2.0-37.1-0.1","5dea494eb3adb21655dfadf4","E1","batch5","","607","tol_tohand","","","","tol_peg_3","607","607","0","[[3,1,0],[0,0],[0]]","2","[[3,0,0],[2,1],[0]]","9","0","","","","","","3","","","","","","","","",""
"","","","","","single-stim-button","151","367081","0.0-2.0-37.1-1.1","5dea494eb3adb21655dfadf4","E1","batch5","","431","tol_toboard","","","","tol_peg_2","431","431","0","[[3,1,0],[2,0],[0]]","2","[[3,0,0],[2,1],[0]]","9","0","","","","","","3","","","","","","","","",""
"","","","","","single-stim-button","152","367513","0.0-2.0-37.2-0.2","5dea494eb3adb21655dfadf4","E1","batch5","","431","tol_tohand","","","","tol_peg_1","431","431","0","[[3,0,0],[2,0],[0]]","3","[[3,0,0],[2,1],[0]]","9","0","","","","","","3","","","","","","","","",""
"","","","","","single-stim-button","153","368009","0.0-2.0-37.2-1.2","5dea494eb3adb21655dfadf4","E1","batch5","","495","tol_toboard","","","","tol_peg_2","495","495","0","[[3,0,0],[2,1],[0]]","3","[[3,0,0],[2,1],[0]]","9","0","","","","","","3","","","","","","","","",""
"","","","","","poldrack-single-stim","154","369025","0.0-2.0-38.0","5dea494eb3adb21655dfadf4","E1","batch5","","-1","tol_feedback","","","true","","1000","1000","500","","","","","","-1","none","true","3663","4701","","","","","","","","","",""
"","","","","","html-button-response","155","370041","0.0-2.0-39.0","5dea494eb3adb21655dfadf4","E1","batch5","","1015.2000000001863","tol_trial_num","<div class = centerbox><p class = center-block-text>problem <strong>11</strong> out of 25 problems</p></div>","0","","","","","","","","","","","","","","","","","","","","","","","","",""
"","","","","","single-stim-button","156","406961","0.0-2.0-40.0-0.0","5dea494eb3adb21655dfadf4","E1","batch5","","36919","tol_tohand","","","","tol_peg_1","36919","36919","0","[[1,0,0],[3,0],[0]]","1","[[2,0,0],[1,3],[0]]","10","0","","","","","","6","","","","","","","","",""
"","","","","","single-stim-button","157","407737","0.0-2.0-40.0-1.0","5dea494eb3adb21655dfadf4","E1","batch5","","774","tol_toboard","","","","tol_peg_3","774","774","0","[[1,0,0],[3,0],[2]]","1","[[2,0,0],[1,3],[0]]","10","0","","","","","","6","","","","","","","","",""
"","","","","","single-stim-button","158","411201","0.0-2.0-40.1-0.1","5dea494eb3adb21655dfadf4","E1","batch5","","3463","tol_tohand","","","","tol_peg_1","3463","3463","0","[[0,0,0],[3,0],[2]]","2","[[2,0,0],[1,3],[0]]","10","0","","","","","","6","","","","","","","","",""
"","","","","","single-stim-button","159","412041","0.0-2.0-40.1-1.1","5dea494eb3adb21655dfadf4","E1","batch5","","839","tol_toboard","","","","tol_peg_2","839","839","0","[[0,0,0],[3,1],[2]]","2","[[2,0,0],[1,3],[0]]","10","0","","","","","","6","","","","","","","","",""
"","","","","","single-stim-button","160","414817","0.0-2.0-40.2-0.2","5dea494eb3adb21655dfadf4","E1","batch5","","2775","tol_tohand","","","","tol_peg_3","2775","2775","0","[[0,0,0],[3,1],[0]]","3","[[2,0,0],[1,3],[0]]","10","0","","","","","","6","","","","","","","","",""
"","","","","","single-stim-button","161","415497","0.0-2.0-40.2-1.2","5dea494eb3adb21655dfadf4","E1","batch5","","679","tol_toboard","","","","tol_peg_1","679","679","0","[[2,0,0],[3,1],[0]]","3","[[2,0,0],[1,3],[0]]","10","0","","","","","","6","","","","","","","","",""
"","","","","","single-stim-button","162","417161","0.0-2.0-40.3-0.3","5dea494eb3adb21655dfadf4","E1","batch5","","1662","tol_tohand","","","","tol_peg_2","1662","1662","0","[[2,0,0],[3,0],[0]]","4","[[2,0,0],[1,3],[0]]","10","0","","","","","","6","","","","","","","","",""
"","","","","","single-stim-button","163","417545","0.0-2.0-40.3-1.3","5dea494eb3adb21655dfadf4","E1","batch5","","383","tol_toboard","","","","tol_peg_1","383","383","0","[[2,1,0],[3,0],[0]]","4","[[2,0,0],[1,3],[0]]","10","0","","","","","","6","","","","","","","","",""
"","","","","","single-stim-button","164","418041","0.0-2.0-40.4-0.4","5dea494eb3adb21655dfadf4","E1","batch5","","495","tol_tohand","","","","tol_peg_2","495","495","0","[[2,1,0],[0,0],[0]]","5","[[2,0,0],[1,3],[0]]","10","0","","","","","","6","","","","","","","","",""
"","","","","","single-stim-button","165","419313","0.0-2.0-40.4-1.4","5dea494eb3adb21655dfadf4","E1","batch5","","1271","tol_toboard","","","","tol_peg_3","1271","1271","0","[[2,1,0],[0,0],[3]]","5","[[2,0,0],[1,3],[0]]","10","0","","","","","","6","","","","","","","","",""
"","","","","","single-stim-button","166","419913","0.0-2.0-40.5-0.5","5dea494eb3adb21655dfadf4","E1","batch5","","599","tol_tohand","","","","tol_peg_1","599","599","0","[[2,0,0],[0,0],[3]]","6","[[2,0,0],[1,3],[0]]","10","0","","","","","","6","","","","","","","","",""
"","","","","","single-stim-button","167","420425","0.0-2.0-40.5-1.5","5dea494eb3adb21655dfadf4","E1","batch5","","511","tol_toboard","","","","tol_peg_2","511","511","0","[[2,0,0],[1,0],[3]]","6","[[2,0,0],[1,3],[0]]","10","0","","","","","","6","","","","","","","","",""
"","","","","","single-stim-button","168","420969","0.0-2.0-40.6-0.6","5dea494eb3adb21655dfadf4","E1","batch5","","543","tol_tohand","","","","tol_peg_3","543","543","0","[[2,0,0],[1,0],[0]]","7","[[2,0,0],[1,3],[0]]","10","0","","","","","","6","","","","","","","","",""
"","","","","","single-stim-button","169","421457","0.0-2.0-40.6-1.6","5dea494eb3adb21655dfadf4","E1","batch5","","487","tol_toboard","","","","tol_peg_2","487","487","0","[[2,0,0],[1,3],[0]]","7","[[2,0,0],[1,3],[0]]","10","0","","","","","","6","","","","","","","","",""
"","","","","","poldrack-single-stim","170","422473","0.0-2.0-41.0","5dea494eb3adb21655dfadf4","E1","batch5","","-1","tol_feedback","","","true","","1000","1000","500","","","","","","-1","none","true","36919","46456","","","","","","","","","",""
"","","","","","html-button-response","171","423793","0.0-2.0-42.0","5dea494eb3adb21655dfadf4","E1","batch5","","1319.5","tol_trial_num","<div class = centerbox><p class = center-block-text>problem <strong>12</strong> out of 25 problems</p></div>","0","","","","","","","","","","","","","","","","","","","","","","","","",""
"","","","","","single-stim-button","172","427129","0.0-2.0-43.0-0.0","5dea494eb3adb21655dfadf4","E1","batch5","","3334","tol_tohand","","","","tol_peg_1","3334","3334","0","[[1,0,0],[3,0],[0]]","1","[[2,3,0],[0,0],[1]]","11","0","","","","","","4","","","","","","","","",""
"","","","","","single-stim-button","173","427609","0.0-2.0-43.0-1.0","5dea494eb3adb21655dfadf4","E1","batch5","","479","tol_toboard","","","","tol_peg_2","479","479","0","[[1,0,0],[3,2],[0]]","1","[[2,3,0],[0,0],[1]]","11","0","","","","","","4","","","","","","","","",""
"","","","","","single-stim-button","174","427985","0.0-2.0-43.1-0.1","5dea494eb3adb21655dfadf4","E1","batch5","","375","tol_tohand","","","","tol_peg_1","375","375","0","[[0,0,0],[3,2],[0]]","2","[[2,3,0],[0,0],[1]]","11","0","","","","","","4","","","","","","","","",""
"","","","","","single-stim-button","175","428793","0.0-2.0-43.1-1.1","5dea494eb3adb21655dfadf4","E1","batch5","","807","tol_toboard","","","","tol_peg_3","807","807","0","[[0,0,0],[3,2],[1]]","2","[[2,3,0],[0,0],[1]]","11","0","","","","","","4","","","","","","","","",""
"","","","","","single-stim-button","176","429313","0.0-2.0-43.2-0.2","5dea494eb3adb21655dfadf4","E1","batch5","","519","tol_tohand","","","","tol_peg_2","519","519","0","[[0,0,0],[3,0],[1]]","3","[[2,3,0],[0,0],[1]]","11","0","","","","","","4","","","","","","","","",""
"","","","","","single-stim-button","177","429785","0.0-2.0-43.2-1.2","5dea494eb3adb21655dfadf4","E1","batch5","","471","tol_toboard","","","","tol_peg_1","471","471","0","[[2,0,0],[3,0],[1]]","3","[[2,3,0],[0,0],[1]]","11","0","","","","","","4","","","","","","","","",""
"","","","","","single-stim-button","178","430313","0.0-2.0-43.3-0.3","5dea494eb3adb21655dfadf4","E1","batch5","","527","tol_tohand","","","","tol_peg_2","527","527","0","[[2,0,0],[0,0],[1]]","4","[[2,3,0],[0,0],[1]]","11","0","","","","","","4","","","","","","","","",""
"","","","","","single-stim-button","179","430745","0.0-2.0-43.3-1.3","5dea494eb3adb21655dfadf4","E1","batch5","","431","tol_toboard","","","","tol_peg_1","431","431","0","[[2,3,0],[0,0],[1]]","4","[[2,3,0],[0,0],[1]]","11","0","","","","","","4","","","","","","","","",""
"","","","","","poldrack-single-stim","180","431757","0.0-2.0-44.0","5dea494eb3adb21655dfadf4","E1","batch5","","-1","tol_feedback","","","true","","1000","1000","500","","","","","","-1","none","true","3334","4755","","","","","","","","","",""
"","","","","","html-button-response","181","432753","0.0-2.0-45.0","5dea494eb3adb21655dfadf4","E1","batch5","","995.1000000000931","tol_trial_num","<div class = centerbox><p class = center-block-text>problem <strong>13</strong> out of 25 problems</p></div>","0","","","","","","","","","","","","","","","","","","","","","","","","",""
"","","","","","single-stim-button","182","437761","0.0-2.0-46.0-0.0","5dea494eb3adb21655dfadf4","E1","batch5","","5007","tol_tohand","","","","tol_peg_1","5007","5007","0","[[1,0,0],[3,0],[0]]","1","[[0,0,0],[2,3],[1]]","12","0","","","","","","4","","","","","","","","",""
"","","","","","single-stim-button","183","438257","0.0-2.0-46.0-1.0","5dea494eb3adb21655dfadf4","E1","batch5","","495","tol_toboard","","","","tol_peg_2","495","495","0","[[1,0,0],[3,2],[0]]","1","[[0,0,0],[2,3],[1]]","12","0","","","","","","4","","","","","","","","",""
"","","","","","single-stim-button","184","438721","0.0-2.0-46.1-0.1","5dea494eb3adb21655dfadf4","E1","batch5","","463","tol_tohand","","","","tol_peg_1","463","463","0","[[0,0,0],[3,2],[0]]","2","[[0,0,0],[2,3],[1]]","12","0","","","","","","4","","","","","","","","",""
"","","","","","single-stim-button","185","439777","0.0-2.0-46.1-1.1","5dea494eb3adb21655dfadf4","E1","batch5","","1055","tol_toboard","","","","tol_peg_3","1055","1055","0","[[0,0,0],[3,2],[1]]","2","[[0,0,0],[2,3],[1]]","12","0","","","","","","4","","","","","","","","",""
"","","","","","single-stim-button","186","441009","0.0-2.0-46.2-0.2","5dea494eb3adb21655dfadf4","E1","batch5","","1231","tol_tohand","","","","tol_peg_2","1231","1231","0","[[0,0,0],[3,0],[1]]","3","[[0,0,0],[2,3],[1]]","12","0","","","","","","4","","","","","","","","",""
"","","","","","single-stim-button","187","448513","0.0-2.0-46.2-1.2","5dea494eb3adb21655dfadf4","E1","batch5","","7503","tol_toboard","","","","tol_peg_1","7503","7503","0","[[2,0,0],[3,0],[1]]","3","[[0,0,0],[2,3],[1]]","12","0","","","","","","4","","","","","","","","",""
"","","","","","single-stim-button","188","450401","0.0-2.0-46.3-0.3","5dea494eb3adb21655dfadf4","E1","batch5","","1887","tol_tohand","","","","tol_peg_2","1887","1887","0","[[2,0,0],[0,0],[1]]","4","[[0,0,0],[2,3],[1]]","12","0","","","","","","4","","","","","","","","",""
"","","","","","single-stim-button","189","451665","0.0-2.0-46.3-1.3","5dea494eb3adb21655dfadf4","E1","batch5","","1263","tol_toboard","","","","tol_peg_1","1263","1263","0","[[2,3,0],[0,0],[1]]","4","[[0,0,0],[2,3],[1]]","12","0","","","","","","4","","","","","","","","",""
"","","","","","single-stim-button","190","455577","0.0-2.0-46.4-0.4","5dea494eb3adb21655dfadf4","E1","batch5","","3911","tol_tohand","","","","tol_peg_3","3911","3911","0","[[2,3,0],[0,0],[0]]","5","[[0,0,0],[2,3],[1]]","12","0","","","","","","4","","","","","","","","",""
"","","","","","single-stim-button","191","457841","0.0-2.0-46.4-1.4","5dea494eb3adb21655dfadf4","E1","batch5","","2263","tol_toboard","","","","tol_peg_2","2263","2263","0","[[2,3,0],[1,0],[0]]","5","[[0,0,0],[2,3],[1]]","12","0","","","","","","4","","","","","","","","",""
"","","","","","single-stim-button","192","458321","0.0-2.0-46.5-0.5","5dea494eb3adb21655dfadf4","E1","batch5","","479","tol_tohand","","","","tol_peg_1","479","479","0","[[2,0,0],[1,0],[0]]","6","[[0,0,0],[2,3],[1]]","12","0","","","","","","4","","","","","","","","",""
"","","","","","single-stim-button","193","459001","0.0-2.0-46.5-1.5","5dea494eb3adb21655dfadf4","E1","batch5","","679","tol_toboard","","","","tol_peg_3","679","679","0","[[2,0,0],[1,0],[3]]","6","[[0,0,0],[2,3],[1]]","12","0","","","","","","4","","","","","","","","",""
"","","","","","single-stim-button","194","460537","0.0-2.0-46.6-0.6","5dea494eb3adb21655dfadf4","E1","batch5","","1535","tol_tohand","","","","tol_peg_1","1535","1535","0","[[0,0,0],[1,0],[3]]","7","[[0,0,0],[2,3],[1]]","12","0","","","","","","4","","","","","","","","",""
"","","","","","single-stim-button","195","461081","0.0-2.0-46.6-1.6","5dea494eb3adb21655dfadf4","E1","batch5","","543","tol_toboard","","","","tol_peg_2","543","543","0","[[0,0,0],[1,2],[3]]","7","[[0,0,0],[2,3],[1]]","12","0","","","","","","4","","","","","","","","",""
"","","","","","single-stim-button","196","490801","0.0-2.0-46.7-0.7","5dea494eb3adb21655dfadf4","E1","batch5","","29720","tol_tohand","","","","tol_peg_3","29720","29720","0","[[0,0,0],[1,2],[0]]","8","[[0,0,0],[2,3],[1]]","12","0","","","","","","4","","","","","","","","",""
"","","","","","single-stim-button","197","491617","0.0-2.0-46.7-1.7","5dea494eb3adb21655dfadf4","E1","batch5","","815","tol_toboard","","","","tol_peg_1","815","815","0","[[3,0,0],[1,2],[0]]","8","[[0,0,0],[2,3],[1]]","12","0","","","","","","4","","","","","","","","",""
"","","","","","single-stim-button","198","492137","0.0-2.0-46.8-0.8","5dea494eb3adb21655dfadf4","E1","batch5","","519","tol_tohand","","","","tol_peg_2","519","519","0","[[3,0,0],[1,0],[0]]","9","[[0,0,0],[2,3],[1]]","12","0","","","","","","4","","","","","","","","",""
"","","","","","single-stim-button","199","493073","0.0-2.0-46.8-1.8","5dea494eb3adb21655dfadf4","E1","batch5","","935","tol_toboard","","","","tol_peg_1","935","935","0","[[3,2,0],[1,0],[0]]","9","[[0,0,0],[2,3],[1]]","12","0","","","","","","4","","","","","","","","",""
"","","","","","single-stim-button","200","493505","0.0-2.0-46.9-0.9","5dea494eb3adb21655dfadf4","E1","batch5","","431","tol_tohand","","","","tol_peg_2","431","431","0","[[3,2,0],[0,0],[0]]","10","[[0,0,0],[2,3],[1]]","12","0","","","","","","4","","","","","","","","",""
"","","","","","single-stim-button","201","494073","0.0-2.0-46.9-1.9","5dea494eb3adb21655dfadf4","E1","batch5","","567","tol_toboard","","","","tol_peg_3","567","567","0","[[3,2,0],[0,0],[1]]","10","[[0,0,0],[2,3],[1]]","12","0","","","","","","4","","","","","","","","",""
"","","","","","single-stim-button","202","495577","0.0-2.0-46.10-0.10","5dea494eb3adb21655dfadf4","E1","batch5","","1503","tol_tohand","","","","tol_peg_1","1503","1503","0","[[3,0,0],[0,0],[1]]","11","[[0,0,0],[2,3],[1]]","12","0","","","","","","4","","","","","","","","",""
"","","","","","single-stim-button","203","496225","0.0-2.0-46.10-1.10","5dea494eb3adb21655dfadf4","E1","batch5","","648","tol_toboard","","","","tol_peg_2","648","648","0","[[3,0,0],[2,0],[1]]","11","[[0,0,0],[2,3],[1]]","12","0","","","","","","4","","","","","","","","",""
"","","","","","single-stim-button","204","496657","0.0-2.0-46.11-0.11","5dea494eb3adb21655dfadf4","E1","batch5","","431","tol_tohand","","","","tol_peg_1","431","431","0","[[0,0,0],[2,0],[1]]","12","[[0,0,0],[2,3],[1]]","12","0","","","","","","4","","","","","","","","",""
"","","","","","single-stim-button","205","497193","0.0-2.0-46.11-1.11","5dea494eb3adb21655dfadf4","E1","batch5","","535","tol_toboard","","","","tol_peg_2","535","535","0","[[0,0,0],[2,3],[1]]","12","[[0,0,0],[2,3],[1]]","12","0","","","","","","4","","","","","","","","",""
"","","","","","poldrack-single-stim","206","498194","0.0-2.0-47.0","5dea494eb3adb21655dfadf4","E1","batch5","","-1","tol_feedback","","","true","","1000","1000","500","","","","","","-1","none","true","5007","47117","","","","","","","","","",""
"","","","","","html-button-response","207","501097","0.0-2.0-48.0","5dea494eb3adb21655dfadf4","E1","batch5","","2902.2000000001863","attention_check","<p class = block-text>How many balls are in your board<br></p>","1","true","","","","","","","","","","","","","","","","","","","","","","","",""
"","","","","","html-button-response","208","502257","0.0-2.0-49.0","5dea494eb3adb21655dfadf4","E1","batch5","","1158.5","tol_trial_num","<div class = centerbox><p class = center-block-text>problem <strong>14</strong> out of 25 problems</p></div>","0","","","","","","","","","","","","","","","","","","","","","","","","",""
"","","","","","single-stim-button","209","510809","0.0-2.0-50.0-0.0","5dea494eb3adb21655dfadf4","E1","batch5","","8551","tol_tohand","","","","tol_peg_1","8551","8551","0","[[2,0,0],[3,0],[0]]","1","[[1,2,0],[3,0],[0]]","13","0","","","","","","4","","","","","","","","",""
"","","","","","single-stim-button","210","511633","0.0-2.0-50.0-1.0","5dea494eb3adb21655dfadf4","E1","batch5","","823","tol_toboard","","","","tol_peg_2","823","823","0","[[2,0,0],[3,1],[0]]","1","[[1,2,0],[3,0],[0]]","13","0","","","","","","4","","","","","","","","",""
"","","","","","single-stim-button","211","512425","0.0-2.0-50.1-0.1","5dea494eb3adb21655dfadf4","E1","batch5","","791","tol_tohand","","","","tol_peg_1","791","791","0","[[0,0,0],[3,1],[0]]","2","[[1,2,0],[3,0],[0]]","13","0","","","","","","4","","","","","","","","",""
"","","","","","single-stim-button","212","513274","0.0-2.0-50.1-1.1","5dea494eb3adb21655dfadf4","E1","batch5","","847","tol_toboard","","","","tol_peg_3","847","847","0","[[0,0,0],[3,1],[2]]","2","[[1,2,0],[3,0],[0]]","13","0","","","","","","4","","","","","","","","",""
"","","","","","single-stim-button","213","513721","0.0-2.0-50.2-0.2","5dea494eb3adb21655dfadf4","E1","batch5","","447","tol_tohand","","","","tol_peg_2","447","447","0","[[0,0,0],[3,0],[2]]","3","[[1,2,0],[3,0],[0]]","13","0","","","","","","4","","","","","","","","",""
"","","","","","single-stim-button","214","514089","0.0-2.0-50.2-1.2","5dea494eb3adb21655dfadf4","E1","batch5","","368","tol_toboard","","","","tol_peg_1","368","368","0","[[1,0,0],[3,0],[2]]","3","[[1,2,0],[3,0],[0]]","13","0","","","","","","4","","","","","","","","",""
"","","","","","single-stim-button","215","514617","0.0-2.0-50.3-0.3","5dea494eb3adb21655dfadf4","E1","batch5","","528","tol_tohand","","","","tol_peg_3","528","528","0","[[1,0,0],[3,0],[0]]","4","[[1,2,0],[3,0],[0]]","13","0","","","","","","4","","","","","","","","",""
"","","","","","single-stim-button","216","515217","0.0-2.0-50.3-1.3","5dea494eb3adb21655dfadf4","E1","batch5","","600","tol_toboard","","","","tol_peg_1","600","600","0","[[1,2,0],[3,0],[0]]","4","[[1,2,0],[3,0],[0]]","13","0","","","","","","4","","","","","","","","",""
"","","","","","poldrack-single-stim","217","516222","0.0-2.0-51.0","5dea494eb3adb21655dfadf4","E1","batch5","","-1","tol_feedback","","","true","","1000","1000","500","","","","","","-1","none","true","8551","10317","","","","","","","","","",""
"","","","","","html-button-response","218","517449","0.0-2.0-52.0","5dea494eb3adb21655dfadf4","E1","batch5","","1226","tol_trial_num","<div class = centerbox><p class = center-block-text>problem <strong>15</strong> out of 25 problems</p></div>","0","","","","","","","","","","","","","","","","","","","","","","","","",""
"","","","","","single-stim-button","219","520633","0.0-2.0-53.0-0.0","5dea494eb3adb21655dfadf4","E1","batch5","","3184","tol_tohand","","","","tol_peg_1","3184","3184","0","[[1,0,0],[3,0],[0]]","1","[[2,0,0],[3,0],[1]]","14","0","","","","","","3","","","","","","","","",""
"","","","","","single-stim-button","220","522249","0.0-2.0-53.0-1.0","5dea494eb3adb21655dfadf4","E1","batch5","","1615","tol_toboard","","","","tol_peg_3","1615","1615","0","[[1,0,0],[3,0],[2]]","1","[[2,0,0],[3,0],[1]]","14","0","","","","","","3","","","","","","","","",""
"","","","","","single-stim-button","221","524753","0.0-2.0-53.1-0.1","5dea494eb3adb21655dfadf4","E1","batch5","","2503","tol_tohand","","","","tol_peg_1","2503","2503","0","[[0,0,0],[3,0],[2]]","2","[[2,0,0],[3,0],[1]]","14","0","","","","","","3","","","","","","","","",""
"","","","","","single-stim-button","222","525601","0.0-2.0-53.1-1.1","5dea494eb3adb21655dfadf4","E1","batch5","","848","tol_toboard","","","","tol_peg_2","848","848","0","[[0,0,0],[3,1],[2]]","2","[[2,0,0],[3,0],[1]]","14","0","","","","","","3","","","","","","","","",""
"","","","","","single-stim-button","223","526201","0.0-2.0-53.2-0.2","5dea494eb3adb21655dfadf4","E1","batch5","","600","tol_tohand","","","","tol_peg_3","600","600","0","[[0,0,0],[3,1],[0]]","3","[[2,0,0],[3,0],[1]]","14","0","","","","","","3","","","","","","","","",""
"","","","","","single-stim-button","224","526929","0.0-2.0-53.2-1.2","5dea494eb3adb21655dfadf4","E1","batch5","","728","tol_toboard","","","","tol_peg_1","728","728","0","[[2,0,0],[3,1],[0]]","3","[[2,0,0],[3,0],[1]]","14","0","","","","","","3","","","","","","","","",""
"","","","","","single-stim-button","225","527594","0.0-2.0-53.3-0.3","5dea494eb3adb21655dfadf4","E1","batch5","","663","tol_tohand","","","","tol_peg_2","663","663","0","[[2,0,0],[3,0],[0]]","4","[[2,0,0],[3,0],[1]]","14","0","","","","","","3","","","","","","","","",""
"","","","","","single-stim-button","226","528121","0.0-2.0-53.3-1.3","5dea494eb3adb21655dfadf4","E1","batch5","","527","tol_toboard","","","","tol_peg_3","527","527","0","[[2,0,0],[3,0],[1]]","4","[[2,0,0],[3,0],[1]]","14","0","","","","","","3","","","","","","","","",""
"","","","","","poldrack-single-stim","227","529133","0.0-2.0-54.0","5dea494eb3adb21655dfadf4","E1","batch5","","-1","tol_feedback","","","true","","1000","1000","500","","","","","","-1","none","true","3184","6950","","","","","","","","","",""
"","","","","","html-button-response","228","531609","0.0-2.0-55.0","5dea494eb3adb21655dfadf4","E1","batch5","","2475.7999999998137","tol_trial_num","<div class = centerbox><p class = center-block-text>problem <strong>16</strong> out of 25 problems</p></div>","0","","","","","","","","","","","","","","","","","","","","","","","","",""
"","","","","","single-stim-button","229","549832","0.0-2.0-56.0-0.0","5dea494eb3adb21655dfadf4","E1","batch5","","18221","tol_tohand","","","","tol_peg_2","18221","18221","0","[[0,0,0],[2,0],[1]]","1","[[2,3,0],[1,0],[0]]","15","0","","","","","","7","","","","","","","","",""
"","","","","","single-stim-button","230","550984","0.0-2.0-56.0-1.0","5dea494eb3adb21655dfadf4","E1","batch5","","1151","tol_toboard","","","","tol_peg_1","1151","1151","0","[[3,0,0],[2,0],[1]]","1","[[2,3,0],[1,0],[0]]","15","0","","","","","","7","","","","","","","","",""
"","","","","","single-stim-button","231","552112","0.0-2.0-56.1-0.1","5dea494eb3adb21655dfadf4","E1","batch5","","1127","tol_tohand","","","","tol_peg_3","1127","1127","0","[[3,0,0],[2,0],[0]]","2","[[2,3,0],[1,0],[0]]","15","0","","","","","","7","","","","","","","","",""
"","","","","","single-stim-button","232","552760","0.0-2.0-56.1-1.1","5dea494eb3adb21655dfadf4","E1","batch5","","647","tol_toboard","","","","tol_peg_1","647","647","0","[[3,1,0],[2,0],[0]]","2","[[2,3,0],[1,0],[0]]","15","0","","","","","","7","","","","","","","","",""
"","","","","","single-stim-button","233","553200","0.0-2.0-56.2-0.2","5dea494eb3adb21655dfadf4","E1","batch5","","439","tol_tohand","","","","tol_peg_2","439","439","0","[[3,1,0],[0,0],[0]]","3","[[2,3,0],[1,0],[0]]","15","0","","","","","","7","","","","","","","","",""
"","","","","","single-stim-button","234","553960","0.0-2.0-56.2-1.2","5dea494eb3adb21655dfadf4","E1","batch5","","759","tol_toboard","","","","tol_peg_3","759","759","0","[[3,1,0],[0,0],[2]]","3","[[2,3,0],[1,0],[0]]","15","0","","","","","","7","","","","","","","","",""
"","","","","","single-stim-button","235","555160","0.0-2.0-56.3-0.3","5dea494eb3adb21655dfadf4","E1","batch5","","1199","tol_tohand","","","","tol_peg_1","1199","1199","0","[[3,0,0],[0,0],[2]]","4","[[2,3,0],[1,0],[0]]","15","0","","","","","","7","","","","","","","","",""
"","","","","","single-stim-button","236","555936","0.0-2.0-56.3-1.3","5dea494eb3adb21655dfadf4","E1","batch5","","775","tol_toboard","","","","tol_peg_2","775","775","0","[[3,0,0],[1,0],[2]]","4","[[2,3,0],[1,0],[0]]","15","0","","","","","","7","","","","","","","","",""
"","","","","","single-stim-button","237","556384","0.0-2.0-56.4-0.4","5dea494eb3adb21655dfadf4","E1","batch5","","448","tol_tohand","","","","tol_peg_1","448","448","0","[[0,0,0],[1,0],[2]]","5","[[2,3,0],[1,0],[0]]","15","0","","","","","","7","","","","","","","","",""
"","","","","","single-stim-button","238","556904","0.0-2.0-56.4-1.4","5dea494eb3adb21655dfadf4","E1","batch5","","518","tol_toboard","","","","tol_peg_2","518","518","0","[[0,0,0],[1,3],[2]]","5","[[2,3,0],[1,0],[0]]","15","0","","","","","","7","","","","","","","","",""
"","","","","","single-stim-button","239","557688","0.0-2.0-56.5-0.5","5dea494eb3adb21655dfadf4","E1","batch5","","783","tol_tohand","","","","tol_peg_3","783","783","0","[[0,0,0],[1,3],[0]]","6","[[2,3,0],[1,0],[0]]","15","0","","","","","","7","","","","","","","","",""
"","","","","","single-stim-button","240","558456","0.0-2.0-56.5-1.5","5dea494eb3adb21655dfadf4","E1","batch5","","767","tol_toboard","","","","tol_peg_1","767","767","0","[[2,0,0],[1,3],[0]]","6","[[2,3,0],[1,0],[0]]","15","0","","","","","","7","","","","","","","","",""
"","","","","","single-stim-button","241","558872","0.0-2.0-56.6-0.6","5dea494eb3adb21655dfadf4","E1","batch5","","414","tol_tohand","","","","tol_peg_2","414","414","0","[[2,0,0],[1,0],[0]]","7","[[2,3,0],[1,0],[0]]","15","0","","","","","","7","","","","","","","","",""
"","","","","","single-stim-button","242","559632","0.0-2.0-56.6-1.6","5dea494eb3adb21655dfadf4","E1","batch5","","759","tol_toboard","","","","tol_peg_1","759","759","0","[[2,3,0],[1,0],[0]]","7","[[2,3,0],[1,0],[0]]","15","0","","","","","","7","","","","","","","","",""
"","","","","","poldrack-single-stim","243","560639","0.0-2.0-57.0","5dea494eb3adb21655dfadf4","E1","batch5","","-1","tol_feedback","","","true","","1000","1000","500","","","","","","-1","none","true","18221","22631","","","","","","","","","",""
"","","","","","html-button-response","244","561648","0.0-2.0-58.0","5dea494eb3adb21655dfadf4","E1","batch5","","1008","tol_trial_num","<div class = centerbox><p class = center-block-text>problem <strong>17</strong> out of 25 problems</p></div>","0","","","","","","","","","","","","","","","","","","","","","","","","",""
"","","","","","single-stim-button","245","565152","0.0-2.0-59.0-0.0","5dea494eb3adb21655dfadf4","E1","batch5","","3503","tol_tohand","","","","tol_peg_2","3503","3503","0","[[1,2,0],[0,0],[0]]","1","[[3,1,0],[2,0],[0]]","16","0","","","","","","5","","","","","","","","",""
"","","","","","single-stim-button","246","565832","0.0-2.0-59.0-1.0","5dea494eb3adb21655dfadf4","E1","batch5","","679","tol_toboard","","","","tol_peg_3","679","679","0","[[1,2,0],[0,0],[3]]","1","[[3,1,0],[2,0],[0]]","16","0","","","","","","5","","","","","","","","",""
"","","","","","single-stim-button","247","566792","0.0-2.0-59.1-0.1","5dea494eb3adb21655dfadf4","E1","batch5","","959","tol_tohand","","","","tol_peg_1","959","959","0","[[1,0,0],[0,0],[3]]","2","[[3,1,0],[2,0],[0]]","16","0","","","","","","5","","","","","","","","",""
"","","","","","single-stim-button","248","567496","0.0-2.0-59.1-1.1","5dea494eb3adb21655dfadf4","E1","batch5","","703","tol_toboard","","","","tol_peg_2","703","703","0","[[1,0,0],[2,0],[3]]","2","[[3,1,0],[2,0],[0]]","16","0","","","","","","5","","","","","","","","",""
"","","","","","single-stim-button","249","568160","0.0-2.0-59.2-0.2","5dea494eb3adb21655dfadf4","E1","batch5","","663","tol_tohand","","","","tol_peg_1","663","663","0","[[0,0,0],[2,0],[3]]","3","[[3,1,0],[2,0],[0]]","16","0","","","","","","5","","","","","","","","",""
"","","","","","single-stim-button","250","568960","0.0-2.0-59.2-1.2","5dea494eb3adb21655dfadf4","E1","batch5","","799","tol_toboard","","","","tol_peg_2","799","799","0","[[0,0,0],[2,1],[3]]","3","[[3,1,0],[2,0],[0]]","16","0","","","","","","5","","","","","","","","",""
"","","","","","single-stim-button","251","569488","0.0-2.0-59.3-0.3","5dea494eb3adb21655dfadf4","E1","batch5","","527","tol_tohand","","","","tol_peg_3","527","527","0","[[0,0,0],[2,1],[0]]","4","[[3,1,0],[2,0],[0]]","16","0","","","","","","5","","","","","","","","",""
"","","","","","single-stim-button","252","570136","0.0-2.0-59.3-1.3","5dea494eb3adb21655dfadf4","E1","batch5","","647","tol_toboard","","","","tol_peg_1","647","647","0","[[3,0,0],[2,1],[0]]","4","[[3,1,0],[2,0],[0]]","16","0","","","","","","5","","","","","","","","",""
"","","","","","single-stim-button","253","570760","0.0-2.0-59.4-0.4","5dea494eb3adb21655dfadf4","E1","batch5","","623","tol_tohand","","","","tol_peg_2","623","623","0","[[3,0,0],[2,0],[0]]","5","[[3,1,0],[2,0],[0]]","16","0","","","","","","5","","","","","","","","",""
"","","","","","single-stim-button","254","571192","0.0-2.0-59.4-1.4","5dea494eb3adb21655dfadf4","E1","batch5","","431","tol_toboard","","","","tol_peg_1","431","431","0","[[3,1,0],[2,0],[0]]","5","[[3,1,0],[2,0],[0]]","16","0","","","","","","5","","","","","","","","",""
"","","","","","poldrack-single-stim","255","572199","0.0-2.0-60.0","5dea494eb3adb21655dfadf4","E1","batch5","","-1","tol_feedback","","","true","","1000","1000","500","","","","","","-1","none","true","3503","6275","","","","","","","","","",""
"","","","","","html-button-response","256","573368","0.0-2.0-61.0","5dea494eb3adb21655dfadf4","E1","batch5","","1167.7000000001863","tol_trial_num","<div class = centerbox><p class = center-block-text>problem <strong>18</strong> out of 25 problems</p></div>","0","","","","","","","","","","","","","","","","","","","","","","","","",""
"","","","","","single-stim-button","257","575792","0.0-2.0-62.0-0.0","5dea494eb3adb21655dfadf4","E1","batch5","","2423","tol_tohand","","","","tol_peg_1","2423","2423","0","[[1,0,0],[3,0],[0]]","1","[[3,0,0],[2,0],[1]]","17","0","","","","","","5","","","","","","","","",""
"","","","","","single-stim-button","258","576272","0.0-2.0-62.0-1.0","5dea494eb3adb21655dfadf4","E1","batch5","","479","tol_toboard","","","","tol_peg_2","479","479","0","[[1,0,0],[3,2],[0]]","1","[[3,0,0],[2,0],[1]]","17","0","","","","","","5","","","","","","","","",""
"","","","","","single-stim-button","259","576704","0.0-2.0-62.1-0.1","5dea494eb3adb21655dfadf4","E1","batch5","","431","tol_tohand","","","","tol_peg_1","431","431","0","[[0,0,0],[3,2],[0]]","2","[[3,0,0],[2,0],[1]]","17","0","","","","","","5","","","","","","","","",""
"","","","","","single-stim-button","260","577368","0.0-2.0-62.1-1.1","5dea494eb3adb21655dfadf4","E1","batch5","","663","tol_toboard","","","","tol_peg_3","663","663","0","[[0,0,0],[3,2],[1]]","2","[[3,0,0],[2,0],[1]]","17","0","","","","","","5","","","","","","","","",""
"","","","","","single-stim-button","261","580392","0.0-2.0-62.2-0.2","5dea494eb3adb21655dfadf4","E1","batch5","","3023","tol_tohand","","","","tol_peg_2","3023","3023","0","[[0,0,0],[3,0],[1]]","3","[[3,0,0],[2,0],[1]]","17","0","","","","","","5","","","","","","","","",""
"","","","","","single-stim-button","262","581064","0.0-2.0-62.2-1.2","5dea494eb3adb21655dfadf4","E1","batch5","","671","tol_toboard","","","","tol_peg_1","671","671","0","[[2,0,0],[3,0],[1]]","3","[[3,0,0],[2,0],[1]]","17","0","","","","","","5","","","","","","","","",""
"","","","","","single-stim-button","263","583248","0.0-2.0-62.3-0.3","5dea494eb3adb21655dfadf4","E1","batch5","","2183","tol_tohand","","","","tol_peg_2","2183","2183","0","[[2,0,0],[0,0],[1]]","4","[[3,0,0],[2,0],[1]]","17","0","","","","","","5","","","","","","","","",""
"","","","","","single-stim-button","264","583680","0.0-2.0-62.3-1.3","5dea494eb3adb21655dfadf4","E1","batch5","","431","tol_toboard","","","","tol_peg_1","431","431","0","[[2,3,0],[0,0],[1]]","4","[[3,0,0],[2,0],[1]]","17","0","","","","","","5","","","","","","","","",""
"","","","","","single-stim-button","265","584328","0.0-2.0-62.4-0.4","5dea494eb3adb21655dfadf4","E1","batch5","","647","tol_tohand","","","","tol_peg_3","647","647","0","[[2,3,0],[0,0],[0]]","5","[[3,0,0],[2,0],[1]]","17","0","","","","","","5","","","","","","","","",""
"","","","","","single-stim-button","266","587072","0.0-2.0-62.4-1.4","5dea494eb3adb21655dfadf4","E1","batch5","","2743","tol_toboard","","","","tol_peg_2","2743","2743","0","[[2,3,0],[1,0],[0]]","5","[[3,0,0],[2,0],[1]]","17","0","","","","","","5","","","","","","","","",""
"","","","","","single-stim-button","267","587832","0.0-2.0-62.5-0.5","5dea494eb3adb21655dfadf4","E1","batch5","","758","tol_tohand","","","","tol_peg_1","758","758","0","[[2,0,0],[1,0],[0]]","6","[[3,0,0],[2,0],[1]]","17","0","","","","","","5","","","","","","","","",""
"","","","","","single-stim-button","268","589928","0.0-2.0-62.5-1.5","5dea494eb3adb21655dfadf4","E1","batch5","","2095","tol_toboard","","","","tol_peg_3","2095","2095","0","[[2,0,0],[1,0],[3]]","6","[[3,0,0],[2,0],[1]]","17","0","","","","","","5","","","","","","","","",""
"","","","","","single-stim-button","269","590504","0.0-2.0-62.6-0.6","5dea494eb3adb21655dfadf4","E1","batch5","","575","tol_tohand","","","","tol_peg_1","575","575","0","[[0,0,0],[1,0],[3]]","7","[[3,0,0],[2,0],[1]]","17","0","","","","","","5","","","","","","","","",""
"","","","","","single-stim-button","270","592936","0.0-2.0-62.6-1.6","5dea494eb3adb21655dfadf4","E1","batch5","","2431","tol_toboard","","","","tol_peg_2","2431","2431","0","[[0,0,0],[1,2],[3]]","7","[[3,0,0],[2,0],[1]]","17","0","","","","","","5","","","","","","","","",""
"","","","","","single-stim-button","271","593376","0.0-2.0-62.7-0.7","5dea494eb3adb21655dfadf4","E1","batch5","","439","tol_tohand","","","","tol_peg_3","439","439","0","[[0,0,0],[1,2],[0]]","8","[[3,0,0],[2,0],[1]]","17","0","","","","","","5","","","","","","","","",""
"","","","","","single-stim-button","272","594264","0.0-2.0-62.7-1.7","5dea494eb3adb21655dfadf4","E1","batch5","","887","tol_toboard","","","","tol_peg_1","887","887","0","[[3,0,0],[1,2],[0]]","8","[[3,0,0],[2,0],[1]]","17","0","","","","","","5","","","","","","","","",""
"","","","","","single-stim-button","273","594976","0.0-2.0-62.8-0.8","5dea494eb3adb21655dfadf4","E1","batch5","","711","tol_tohand","","","","tol_peg_2","711","711","0","[[3,0,0],[1,0],[0]]","9","[[3,0,0],[2,0],[1]]","17","0","","","","","","5","","","","","","","","",""
"","","","","","single-stim-button","274","595984","0.0-2.0-62.8-1.8","5dea494eb3adb21655dfadf4","E1","batch5","","1008","tol_toboard","","","","tol_peg_1","1008","1008","0","[[3,2,0],[1,0],[0]]","9","[[3,0,0],[2,0],[1]]","17","0","","","","","","5","","","","","","","","",""
"","","","","","single-stim-button","275","596656","0.0-2.0-62.9-0.9","5dea494eb3adb21655dfadf4","E1","batch5","","671","tol_tohand","","","","tol_peg_2","671","671","0","[[3,2,0],[0,0],[0]]","10","[[3,0,0],[2,0],[1]]","17","0","","","","","","5","","","","","","","","",""
"","","","","","single-stim-button","276","597192","0.0-2.0-62.9-1.9","5dea494eb3adb21655dfadf4","E1","batch5","","534","tol_toboard","","","","tol_peg_3","534","534","0","[[3,2,0],[0,0],[1]]","10","[[3,0,0],[2,0],[1]]","17","0","","","","","","5","","","","","","","","",""
"","","","","","single-stim-button","277","597696","0.0-2.0-62.10-0.10","5dea494eb3adb21655dfadf4","E1","batch5","","503","tol_tohand","","","","tol_peg_1","503","503","0","[[3,0,0],[0,0],[1]]","11","[[3,0,0],[2,0],[1]]","17","0","","","","","","5","","","","","","","","",""
"","","","","","single-stim-button","278","598408","0.0-2.0-62.10-1.10","5dea494eb3adb21655dfadf4","E1","batch5","","712","tol_toboard","","","","tol_peg_2","712","712","0","[[3,0,0],[2,0],[1]]","11","[[3,0,0],[2,0],[1]]","17","0","","","","","","5","","","","","","","","",""
"","","","","","poldrack-single-stim","279","599410","0.0-2.0-63.0","5dea494eb3adb21655dfadf4","E1","batch5","","-1","tol_feedback","","","true","","1000","1000","500","","","","","","-1","none","true","2423","12364","","","","","","","","","",""
"","","","","","html-button-response","280","600544","0.0-2.0-64.0","5dea494eb3adb21655dfadf4","E1","batch5","","1133","tol_trial_num","<div class = centerbox><p class = center-block-text>problem <strong>19</strong> out of 25 problems</p></div>","0","","","","","","","","","","","","","","","","","","","","","","","","",""
"","","","","","single-stim-button","281","602408","0.0-2.0-65.0-0.0","5dea494eb3adb21655dfadf4","E1","batch5","","1863","tol_tohand","","","","tol_peg_2","1863","1863","0","[[1,2,0],[0,0],[0]]","1","[[0,0,0],[1,2],[3]]","18","0","","","","","","7","","","","","","","","",""
"","","","","","single-stim-button","282","611905","0.0-2.0-65.0-1.0","5dea494eb3adb21655dfadf4","E1","batch5","","9497","tol_toboard","","","","tol_peg_2","9497","9497","0","[[1,2,0],[3,0],[0]]","1","[[0,0,0],[1,2],[3]]","18","0","","","","","","7","","","","","","","","",""
"","","","","","single-stim-button","283","613049","0.0-2.0-65.1-0.1","5dea494eb3adb21655dfadf4","E1","batch5","","1142","tol_tohand","","","","tol_peg_1","1142","1142","0","[[1,0,0],[3,0],[0]]","2","[[0,0,0],[1,2],[3]]","18","0","","","","","","7","","","","","","","","",""
"","","","","","single-stim-button","284","614049","0.0-2.0-65.1-1.1","5dea494eb3adb21655dfadf4","E1","batch5","","999","tol_toboard","","","","tol_peg_3","999","999","0","[[1,0,0],[3,0],[2]]","2","[[0,0,0],[1,2],[3]]","18","0","","","","","","7","","","","","","","","",""
"","","","","","single-stim-button","285","621145","0.0-2.0-65.2-0.2","5dea494eb3adb21655dfadf4","E1","batch5","","7095","tol_tohand","","","","tol_peg_1","7095","7095","0","[[0,0,0],[3,0],[2]]","3","[[0,0,0],[1,2],[3]]","18","0","","","","","","7","","","","","","","","",""
"","","","","","single-stim-button","286","621849","0.0-2.0-65.2-1.2","5dea494eb3adb21655dfadf4","E1","batch5","","703","tol_toboard","","","","tol_peg_2","703","703","0","[[0,0,0],[3,1],[2]]","3","[[0,0,0],[1,2],[3]]","18","0","","","","","","7","","","","","","","","",""
"","","","","","single-stim-button","287","622289","0.0-2.0-65.3-0.3","5dea494eb3adb21655dfadf4","E1","batch5","","439","tol_tohand","","","","tol_peg_3","439","439","0","[[0,0,0],[3,1],[0]]","4","[[0,0,0],[1,2],[3]]","18","0","","","","","","7","","","","","","","","",""
"","","","","","single-stim-button","288","623145","0.0-2.0-65.3-1.3","5dea494eb3adb21655dfadf4","E1","batch5","","856","tol_toboard","","","","tol_peg_1","856","856","0","[[2,0,0],[3,1],[0]]","4","[[0,0,0],[1,2],[3]]","18","0","","","","","","7","","","","","","","","",""
"","","","","","single-stim-button","289","624641","0.0-2.0-65.4-0.4","5dea494eb3adb21655dfadf4","E1","batch5","","1494","tol_tohand","","","","tol_peg_2","1494","1494","0","[[2,0,0],[3,0],[0]]","5","[[0,0,0],[1,2],[3]]","18","0","","","","","","7","","","","","","","","",""
"","","","","","single-stim-button","290","625441","0.0-2.0-65.4-1.4","5dea494eb3adb21655dfadf4","E1","batch5","","799","tol_toboard","","","","tol_peg_1","799","799","0","[[2,1,0],[3,0],[0]]","5","[[0,0,0],[1,2],[3]]","18","0","","","","","","7","","","","","","","","",""
"","","","","","single-stim-button","291","626033","0.0-2.0-65.5-0.5","5dea494eb3adb21655dfadf4","E1","batch5","","591","tol_tohand","","","","tol_peg_2","591","591","0","[[2,1,0],[0,0],[0]]","6","[[0,0,0],[1,2],[3]]","18","0","","","","","","7","","","","","","","","",""
"","","","","","single-stim-button","292","626553","0.0-2.0-65.5-1.5","5dea494eb3adb21655dfadf4","E1","batch5","","519","tol_toboard","","","","tol_peg_3","519","519","0","[[2,1,0],[0,0],[3]]","6","[[0,0,0],[1,2],[3]]","18","0","","","","","","7","","","","","","","","",""
"","","","","","single-stim-button","293","627433","0.0-2.0-65.6-0.6","5dea494eb3adb21655dfadf4","E1","batch5","","879","tol_tohand","","","","tol_peg_1","879","879","0","[[2,0,0],[0,0],[3]]","7","[[0,0,0],[1,2],[3]]","18","0","","","","","","7","","","","","","","","",""
"","","","","","single-stim-button","294","628089","0.0-2.0-65.6-1.6","5dea494eb3adb21655dfadf4","E1","batch5","","655","tol_toboard","","","","tol_peg_2","655","655","0","[[2,0,0],[1,0],[3]]","7","[[0,0,0],[1,2],[3]]","18","0","","","","","","7","","","","","","","","",""
"","","","","","single-stim-button","295","628601","0.0-2.0-65.7-0.7","5dea494eb3adb21655dfadf4","E1","batch5","","511","tol_tohand","","","","tol_peg_1","511","511","0","[[0,0,0],[1,0],[3]]","8","[[0,0,0],[1,2],[3]]","18","0","","","","","","7","","","","","","","","",""
"","","","","","single-stim-button","296","629113","0.0-2.0-65.7-1.7","5dea494eb3adb21655dfadf4","E1","batch5","","511","tol_toboard","","","","tol_peg_2","511","511","0","[[0,0,0],[1,2],[3]]","8","[[0,0,0],[1,2],[3]]","18","0","","","","","","7","","","","","","","","",""
"","","","","","poldrack-single-stim","297","630126","0.0-2.0-66.0","5dea494eb3adb21655dfadf4","E1","batch5","","-1","tol_feedback","","","true","","1000","1000","500","","","","","","-1","none","true","1863","14014","","","","","","","","","",""
"","","","","","html-button-response","298","631041","0.0-2.0-67.0","5dea494eb3adb21655dfadf4","E1","batch5","","914.3999999999069","tol_trial_num","<div class = centerbox><p class = center-block-text>problem <strong>20</strong> out of 25 problems</p></div>","0","","","","","","","","","","","","","","","","","","","","","","","","",""
"","","","","","single-stim-button","299","641009","0.0-2.0-68.0-0.0","5dea494eb3adb21655dfadf4","E1","batch5","","9967","tol_tohand","","","","tol_peg_1","9967","9967","0","[[1,0,0],[3,0],[0]]","1","[[2,1,0],[0,0],[3]]","19","0","","","","","","5","","","","","","","","",""
"","","","","","single-stim-button","300","641689","0.0-2.0-68.0-1.0","5dea494eb3adb21655dfadf4","E1","batch5","","679","tol_toboard","","","","tol_peg_3","679","679","0","[[1,0,0],[3,0],[2]]","1","[[2,1,0],[0,0],[3]]","19","0","","","","","","5","","","","","","","","",""
"","","","","","single-stim-button","301","642425","0.0-2.0-68.1-0.1","5dea494eb3adb21655dfadf4","E1","batch5","","735","tol_tohand","","","","tol_peg_1","735","735","0","[[0,0,0],[3,0],[2]]","2","[[2,1,0],[0,0],[3]]","19","0","","","","","","5","","","","","","","","",""
"","","","","","single-stim-button","302","642953","0.0-2.0-68.1-1.1","5dea494eb3adb21655dfadf4","E1","batch5","","527","tol_toboard","","","","tol_peg_2","527","527","0","[[0,0,0],[3,1],[2]]","2","[[2,1,0],[0,0],[3]]","19","0","","","","","","5","","","","","","","","",""
"","","","","","single-stim-button","303","643369","0.0-2.0-68.2-0.2","5dea494eb3adb21655dfadf4","E1","batch5","","415","tol_tohand","","","","tol_peg_3","415","415","0","[[0,0,0],[3,1],[0]]","3","[[2,1,0],[0,0],[3]]","19","0","","","","","","5","","","","","","","","",""
"","","","","","single-stim-button","304","644257","0.0-2.0-68.2-1.2","5dea494eb3adb21655dfadf4","E1","batch5","","887","tol_toboard","","","","tol_peg_1","887","887","0","[[2,0,0],[3,1],[0]]","3","[[2,1,0],[0,0],[3]]","19","0","","","","","","5","","","","","","","","",""
"","","","","","single-stim-button","305","644849","0.0-2.0-68.3-0.3","5dea494eb3adb21655dfadf4","E1","batch5","","590","tol_tohand","","","","tol_peg_2","590","590","0","[[2,0,0],[3,0],[0]]","4","[[2,1,0],[0,0],[3]]","19","0","","","","","","5","","","","","","","","",""
"","","","","","single-stim-button","306","645409","0.0-2.0-68.3-1.3","5dea494eb3adb21655dfadf4","E1","batch5","","559","tol_toboard","","","","tol_peg_1","559","559","0","[[2,1,0],[3,0],[0]]","4","[[2,1,0],[0,0],[3]]","19","0","","","","","","5","","","","","","","","",""
"","","","","","single-stim-button","307","645825","0.0-2.0-68.4-0.4","5dea494eb3adb21655dfadf4","E1","batch5","","415","tol_tohand","","","","tol_peg_2","415","415","0","[[2,1,0],[0,0],[0]]","5","[[2,1,0],[0,0],[3]]","19","0","","","","","","5","","","","","","","","",""
"","","","","","single-stim-button","308","646561","0.0-2.0-68.4-1.4","5dea494eb3adb21655dfadf4","E1","batch5","","735","tol_toboard","","","","tol_peg_3","735","735","0","[[2,1,0],[0,0],[3]]","5","[[2,1,0],[0,0],[3]]","19","0","","","","","","5","","","","","","","","",""
"","","","","","poldrack-single-stim","309","647565","0.0-2.0-69.0","5dea494eb3adb21655dfadf4","E1","batch5","","-1","tol_feedback","","","true","","1000","1000","500","","","","","","-1","none","true","9967","12122","","","","","","","","","",""
"","","","","","html-button-response","310","648409","0.0-2.0-70.0","5dea494eb3adb21655dfadf4","E1","batch5","","843.3000000002794","tol_trial_num","<div class = centerbox><p class = center-block-text>problem <strong>21</strong> out of 25 problems</p></div>","0","","","","","","","","","","","","","","","","","","","","","","","","",""
"","","","","","single-stim-button","311","659257","0.0-2.0-71.0-0.0","5dea494eb3adb21655dfadf4","E1","batch5","","10848","tol_tohand","","","","tol_peg_2","10848","10848","0","[[1,2,0],[0,0],[0]]","1","[[3,2,0],[0,0],[1]]","20","0","","","","","","6","","","","","","","","",""
"","","","","","single-stim-button","312","661897","0.0-2.0-71.0-1.0","5dea494eb3adb21655dfadf4","E1","batch5","","2638","tol_toboard","","","","tol_peg_3","2638","2638","0","[[1,2,0],[0,0],[3]]","1","[[3,2,0],[0,0],[1]]","20","0","","","","","","6","","","","","","","","",""
"","","","","","single-stim-button","313","662849","0.0-2.0-71.1-0.1","5dea494eb3adb21655dfadf4","E1","batch5","","951","tol_tohand","","","","tol_peg_1","951","951","0","[[1,0,0],[0,0],[3]]","2","[[3,2,0],[0,0],[1]]","20","0","","","","","","6","","","","","","","","",""
"","","","","","single-stim-button","314","663441","0.0-2.0-71.1-1.1","5dea494eb3adb21655dfadf4","E1","batch5","","592","tol_toboard","","","","tol_peg_2","592","592","0","[[1,0,0],[2,0],[3]]","2","[[3,2,0],[0,0],[1]]","20","0","","","","","","6","","","","","","","","",""
"","","","","","single-stim-button","315","663905","0.0-2.0-71.2-0.2","5dea494eb3adb21655dfadf4","E1","batch5","","462","tol_tohand","","","","tol_peg_1","462","462","0","[[0,0,0],[2,0],[3]]","3","[[3,2,0],[0,0],[1]]","20","0","","","","","","6","","","","","","","","",""
"","","","","","single-stim-button","316","664921","0.0-2.0-71.2-1.2","5dea494eb3adb21655dfadf4","E1","batch5","","1016","tol_toboard","","","","tol_peg_2","1016","1016","0","[[0,0,0],[2,1],[3]]","3","[[3,2,0],[0,0],[1]]","20","0","","","","","","6","","","","","","","","",""
"","","","","","single-stim-button","317","665289","0.0-2.0-71.3-0.3","5dea494eb3adb21655dfadf4","E1","batch5","","367","tol_tohand","","","","tol_peg_3","367","367","0","[[0,0,0],[2,1],[0]]","4","[[3,2,0],[0,0],[1]]","20","0","","","","","","6","","","","","","","","",""
"","","","","","single-stim-button","318","665809","0.0-2.0-71.3-1.3","5dea494eb3adb21655dfadf4","E1","batch5","","519","tol_toboard","","","","tol_peg_1","519","519","0","[[3,0,0],[2,1],[0]]","4","[[3,2,0],[0,0],[1]]","20","0","","","","","","6","","","","","","","","",""
"","","","","","single-stim-button","319","666537","0.0-2.0-71.4-0.4","5dea494eb3adb21655dfadf4","E1","batch5","","727","tol_tohand","","","","tol_peg_2","727","727","0","[[3,0,0],[2,0],[0]]","5","[[3,2,0],[0,0],[1]]","20","0","","","","","","6","","","","","","","","",""
"","","","","","single-stim-button","320","667033","0.0-2.0-71.4-1.4","5dea494eb3adb21655dfadf4","E1","batch5","","495","tol_toboard","","","","tol_peg_3","495","495","0","[[3,0,0],[2,0],[1]]","5","[[3,2,0],[0,0],[1]]","20","0","","","","","","6","","","","","","","","",""
"","","","","","single-stim-button","321","667433","0.0-2.0-71.5-0.5","5dea494eb3adb21655dfadf4","E1","batch5","","400","tol_tohand","","","","tol_peg_2","400","400","0","[[3,0,0],[0,0],[1]]","6","[[3,2,0],[0,0],[1]]","20","0","","","","","","6","","","","","","","","",""
"","","","","","single-stim-button","322","668065","0.0-2.0-71.5-1.5","5dea494eb3adb21655dfadf4","E1","batch5","","630","tol_toboard","","","","tol_peg_1","630","630","0","[[3,2,0],[0,0],[1]]","6","[[3,2,0],[0,0],[1]]","20","0","","","","","","6","","","","","","","","",""
"","","","","","poldrack-single-stim","323","669074","0.0-2.0-72.0","5dea494eb3adb21655dfadf4","E1","batch5","","-1","tol_feedback","","","true","","1000","1000","500","","","","","","-1","none","true","10848","13755","","","","","","","","","",""
"","","","","","html-button-response","324","670049","0.0-2.0-73.0","5dea494eb3adb21655dfadf4","E1","batch5","","973.5","tol_trial_num","<div class = centerbox><p class = center-block-text>problem <strong>22</strong> out of 25 problems</p></div>","0","","","","","","","","","","","","","","","","","","","","","","","","",""
"","","","","","single-stim-button","325","691729","0.0-2.0-74.0-0.0","5dea494eb3adb21655dfadf4","E1","batch5","","21680","tol_tohand","","","","tol_peg_1","21680","21680","0","[[0,0,0],[2,3],[0]]","1","[[0,0,0],[1,2],[3]]","21","0","","","","","","6","","","","","","","","",""
"","","","","","single-stim-button","326","693377","0.0-2.0-74.0-1.0","5dea494eb3adb21655dfadf4","E1","batch5","","1646","tol_toboard","","","","tol_peg_3","1646","1646","0","[[0,0,0],[2,3],[1]]","1","[[0,0,0],[1,2],[3]]","21","0","","","","","","6","","","","","","","","",""
"","","","","","single-stim-button","327","694593","0.0-2.0-74.1-0.1","5dea494eb3adb21655dfadf4","E1","batch5","","1215","tol_tohand","","","","tol_peg_2","1215","1215","0","[[0,0,0],[2,0],[1]]","2","[[0,0,0],[1,2],[3]]","21","0","","","","","","6","","","","","","","","",""
"","","","","","single-stim-button","328","695145","0.0-2.0-74.1-1.1","5dea494eb3adb21655dfadf4","E1","batch5","","552","tol_toboard","","","","tol_peg_1","552","552","0","[[3,0,0],[2,0],[1]]","2","[[0,0,0],[1,2],[3]]","21","0","","","","","","6","","","","","","","","",""
"","","","","","single-stim-button","329","697865","0.0-2.0-74.2-0.2","5dea494eb3adb21655dfadf4","E1","batch5","","2718","tol_tohand","","","","tol_peg_2","2718","2718","0","[[3,0,0],[0,0],[1]]","3","[[0,0,0],[1,2],[3]]","21","0","","","","","","6","","","","","","","","",""
"","","","","","single-stim-button","330","698577","0.0-2.0-74.2-1.2","5dea494eb3adb21655dfadf4","E1","batch5","","711","tol_toboard","","","","tol_peg_1","711","711","0","[[3,2,0],[0,0],[1]]","3","[[0,0,0],[1,2],[3]]","21","0","","","","","","6","","","","","","","","",""
"","","","","","single-stim-button","331","699089","0.0-2.0-74.3-0.3","5dea494eb3adb21655dfadf4","E1","batch5","","512","tol_tohand","","","","tol_peg_3","512","512","0","[[3,2,0],[0,0],[0]]","4","[[0,0,0],[1,2],[3]]","21","0","","","","","","6","","","","","","","","",""
"","","","","","single-stim-button","332","699681","0.0-2.0-74.3-1.3","5dea494eb3adb21655dfadf4","E1","batch5","","590","tol_toboard","","","","tol_peg_2","590","590","0","[[3,2,0],[1,0],[0]]","4","[[0,0,0],[1,2],[3]]","21","0","","","","","","6","","","","","","","","",""
"","","","","","single-stim-button","333","700081","0.0-2.0-74.4-0.4","5dea494eb3adb21655dfadf4","E1","batch5","","399","tol_tohand","","","","tol_peg_1","399","399","0","[[3,0,0],[1,0],[0]]","5","[[0,0,0],[1,2],[3]]","21","0","","","","","","6","","","","","","","","",""
"","","","","","single-stim-button","334","700737","0.0-2.0-74.4-1.4","5dea494eb3adb21655dfadf4","E1","batch5","","656","tol_toboard","","","","tol_peg_2","656","656","0","[[3,0,0],[1,2],[0]]","5","[[0,0,0],[1,2],[3]]","21","0","","","","","","6","","","","","","","","",""
"","","","","","single-stim-button","335","701201","0.0-2.0-74.5-0.5","5dea494eb3adb21655dfadf4","E1","batch5","","463","tol_tohand","","","","tol_peg_1","463","463","0","[[0,0,0],[1,2],[0]]","6","[[0,0,0],[1,2],[3]]","21","0","","","","","","6","","","","","","","","",""
"","","","","","single-stim-button","336","702153","0.0-2.0-74.5-1.5","5dea494eb3adb21655dfadf4","E1","batch5","","951","tol_toboard","","","","tol_peg_3","951","951","0","[[0,0,0],[1,2],[3]]","6","[[0,0,0],[1,2],[3]]","21","0","","","","","","6","","","","","","","","",""
"","","","","","poldrack-single-stim","337","703154","0.0-2.0-75.0","5dea494eb3adb21655dfadf4","E1","batch5","","-1","tol_feedback","","","true","","1000","1000","500","","","","","","-1","none","true","21680","26987","","","","","","","","","",""
"","","","","","html-button-response","338","703913","0.0-2.0-76.0","5dea494eb3adb21655dfadf4","E1","batch5","","757.5","tol_trial_num","<div class = centerbox><p class = center-block-text>problem <strong>23</strong> out of 25 problems</p></div>","0","","","","","","","","","","","","","","","","","","","","","","","","",""
"","","","","","single-stim-button","339","710097","0.0-2.0-77.0-0.0","5dea494eb3adb21655dfadf4","E1","batch5","","6183","tol_tohand","","","","tol_peg_1","6183","6183","0","[[1,0,0],[3,0],[0]]","1","[[1,3,2],[0,0],[0]]","22","0","","","","","","3","","","","","","","","",""
"","","","","","single-stim-button","340","710793","0.0-2.0-77.0-1.0","5dea494eb3adb21655dfadf4","E1","batch5","","695","tol_toboard","","","","tol_peg_3","695","695","0","[[1,0,0],[3,0],[2]]","1","[[1,3,2],[0,0],[0]]","22","0","","","","","","3","","","","","","","","",""
"","","","","","single-stim-button","341","711633","0.0-2.0-77.1-0.1","5dea494eb3adb21655dfadf4","E1","batch5","","839","tol_tohand","","","","tol_peg_2","839","839","0","[[1,0,0],[0,0],[2]]","2","[[1,3,2],[0,0],[0]]","22","0","","","","","","3","","","","","","","","",""
"","","","","","single-stim-button","342","712241","0.0-2.0-77.1-1.1","5dea494eb3adb21655dfadf4","E1","batch5","","607","tol_toboard","","","","tol_peg_1","607","607","0","[[1,3,0],[0,0],[2]]","2","[[1,3,2],[0,0],[0]]","22","0","","","","","","3","","","","","","","","",""
"","","","","","single-stim-button","343","712721","0.0-2.0-77.2-0.2","5dea494eb3adb21655dfadf4","E1","batch5","","479","tol_tohand","","","","tol_peg_3","479","479","0","[[1,3,0],[0,0],[0]]","3","[[1,3,2],[0,0],[0]]","22","0","","","","","","3","","","","","","","","",""
"","","","","","single-stim-button","344","713361","0.0-2.0-77.2-1.2","5dea494eb3adb21655dfadf4","E1","batch5","","638","tol_toboard","","","","tol_peg_1","638","638","0","[[1,3,2],[0,0],[0]]","3","[[1,3,2],[0,0],[0]]","22","0","","","","","","3","","","","","","","","",""
"","","","","","poldrack-single-stim","345","714369","0.0-2.0-78.0","5dea494eb3adb21655dfadf4","E1","batch5","","-1","tol_feedback","","","true","","1000","1000","500","","","","","","-1","none","true","6183","7501","","","","","","","","","",""
"","","","","","html-button-response","346","715209","0.0-2.0-79.0","5dea494eb3adb21655dfadf4","E1","batch5","","839.2999999998137","tol_trial_num","<div class = centerbox><p class = center-block-text>problem <strong>24</strong> out of 25 problems</p></div>","0","","","","","","","","","","","","","","","","","","","","","","","","",""
"","","","","","single-stim-button","347","722537","0.0-2.0-80.0-0.0","5dea494eb3adb21655dfadf4","E1","batch5","","7328","tol_tohand","","","","tol_peg_3","7328","7328","0","[[0,0,0],[2,3],[0]]","1","[[2,0,0],[3,0],[1]]","23","0","","","","","","7","","","","","","","","",""
"","","","","","single-stim-button","348","740832","0.0-2.0-80.0-1.0","5dea494eb3adb21655dfadf4","E1","batch5","","18293","tol_toboard","","","","tol_peg_1","18293","18293","0","[[1,0,0],[2,3],[0]]","1","[[2,0,0],[3,0],[1]]","23","0","","","","","","7","","","","","","","","",""
"","","","","","single-stim-button","349","745744","0.0-2.0-80.1-0.1","5dea494eb3adb21655dfadf4","E1","batch5","","4910","tol_tohand","","","","tol_peg_2","4910","4910","0","[[1,0,0],[2,0],[0]]","2","[[2,0,0],[3,0],[1]]","23","0","","","","","","7","","","","","","","","",""
"","","","","","single-stim-button","350","748136","0.0-2.0-80.1-1.1","5dea494eb3adb21655dfadf4","E1","batch5","","2391","tol_toboard","","","","tol_peg_3","2391","2391","0","[[1,0,0],[2,0],[3]]","2","[[2,0,0],[3,0],[1]]","23","0","","","","","","7","","","","","","","","",""
"","","","","","single-stim-button","351","749121","0.0-2.0-80.2-0.2","5dea494eb3adb21655dfadf4","E1","batch5","","984","tol_tohand","","","","tol_peg_2","984","984","0","[[1,0,0],[0,0],[3]]","3","[[2,0,0],[3,0],[1]]","23","0","","","","","","7","","","","","","","","",""
"","","","","","single-stim-button","352","749648","0.0-2.0-80.2-1.2","5dea494eb3adb21655dfadf4","E1","batch5","","526","tol_toboard","","","","tol_peg_1","526","526","0","[[1,2,0],[0,0],[3]]","3","[[2,0,0],[3,0],[1]]","23","0","","","","","","7","","","","","","","","",""
"","","","","","single-stim-button","353","750560","0.0-2.0-80.3-0.3","5dea494eb3adb21655dfadf4","E1","batch5","","911","tol_tohand","","","","tol_peg_3","911","911","0","[[1,2,0],[0,0],[0]]","4","[[2,0,0],[3,0],[1]]","23","0","","","","","","7","","","","","","","","",""
"","","","","","single-stim-button","354","750944","0.0-2.0-80.3-1.3","5dea494eb3adb21655dfadf4","E1","batch5","","383","tol_toboard","","","","tol_peg_2","383","383","0","[[1,2,0],[3,0],[0]]","4","[[2,0,0],[3,0],[1]]","23","0","","","","","","7","","","","","","","","",""
"","","","","","single-stim-button","355","753264","0.0-2.0-80.4-0.4","5dea494eb3adb21655dfadf4","E1","batch5","","2319","tol_tohand","","","","tol_peg_1","2319","2319","0","[[1,0,0],[3,0],[0]]","5","[[2,0,0],[3,0],[1]]","23","0","","","","","","7","","","","","","","","",""
