"success","timeout","failed_images","failed_audio","failed_video","trial_type","trial_index","time_elapsed","internal_node_id","subject_id","study_id","session_id","view_history","rt","task","stimulus","response","correct","mouse_click","stim_duration","block_duration","timing_post_trial","current_position","tol_num_moves_made","tol_target","tol_problem_id","tol_rt","key_press","possible_responses","tol_correct","preplanning","tol_rt_per_trial","tol_min_moves","item","answer","spm_correct","spm_rt","fiar_detect_rt","fiar_detect_correct","total_correct_fiar_detect","post_trial_gap","choices"
"true","false","[]","[]","[]","preload","0","1387","0.0-0.0","5df441f8dc853530e500adc1","E1","batch5","","","","","","","","","","","","","","","","","","","","","","","","","","","","","",""
"true","","","","","fullscreen","1","8429","0.0-1.0-0.0","5df441f8dc853530e500adc1","E1","batch5","","","","","","","","","","","","","","","","","","","","","","","","","","","","","",""
"true","","","","","fullscreen","2","10906","0.0-2.0-0.0","5df441f8dc853530e500adc1","E1","batch5","","","","","","","","","","","","","","","","","","","","","","","","","","","","","",""
"","","","","","instructions","3","62526","0.0-2.0-1.0-0.0-0.0","5df441f8dc853530e500adc1","E1","batch5","[{""page_index"":0,""viewing_time"":7780},{""page_index"":1,""viewing_time"":5770},{""page_index"":2,""viewing_time"":4300.999999999996},{""page_index"":3,""viewing_time"":13513.000000000004},{""page_index"":4,""viewing_time"":7412},{""page_index"":5,""viewing_time"":11084.000000000007},{""page_index"":6,""viewing_time"":1756.9999999999927}]","51617","tol-instructions","","","","","","","","","","","","","","","","","","","","","","","","","","",""
"","","","","","html-button-response","4","63447","0.0-2.0-1.0-1.0-0.0","5df441f8dc853530e500adc1","E1","batch5","","920","tol_enter_quiz","<p class=block-text> Let's answer a few questions <br>","0","","","","","","","","","","","","","","","","","","","","","","","","",""
"","","","","","html-button-response","5","76285","0.0-2.0-1.0-1.0-1.0","5df441f8dc853530e500adc1","E1","batch5","","12836","tol_quiz","<p class = block-text>True or False: You can only move the ball on top of a peg. <br></p>","0","true","","","","","","","","","","","","","","","","","","","","","","","",""
"","","","","","html-button-response","6","77460","0.0-2.0-1.0-1.0-2.0","5df441f8dc853530e500adc1","E1","batch5","","1173.0000000000146","tol_quiz_feedback","<p class = block-text>Correct! You can only move the ball on top of a peg.</p>","0","","","","","","","","","","","","","","","","","","","","","","","","",""
"","","","","","html-button-response","7","80302","0.0-2.0-1.0-1.0-3.0","5df441f8dc853530e500adc1","E1","batch5","","2841","tol_quiz","<p class = block-text>True or False: You should try to match your board with the target board with fewest moves possible. <br></p>","0","true","","","","","","","","","","","","","","","","","","","","","","","",""
"","","","","","html-button-response","8","80900","0.0-2.0-1.0-1.0-4.0","5df441f8dc853530e500adc1","E1","batch5","","596","tol_quiz_feedback","<p class = block-text>Correct! </p>","0","","","","","","","","","","","","","","","","","","","","","","","","",""
"","","","","","html-button-response","9","82885","0.0-2.0-2.0","5df441f8dc853530e500adc1","E1","batch5","","1983","","<p class=block-text> Now that you've understood the game, let's practice a few easier examples before we start!<br> <br>","0","","","","","","","","","","","","","","","","","","","","","","","","",""
"","","","","","single-stim-button","10","87080","0.0-2.0-3.0-0.0","5df441f8dc853530e500adc1","E1","batch5","","4192","tol_practice","","","","tol_peg_2","4192","4192","0","[[1,2,0],[0,0],[0]]","1","[[1,2,0],[0,0],[3]]","practice","4192","","","","","","","","","","","","","","",""
"","","","","","single-stim-button","11","90897","0.0-2.0-3.0-1.0","5df441f8dc853530e500adc1","E1","batch5","","3814","tol_practice","","","","tol_peg_3","3814","3814","0","[[1,2,0],[0,0],[3]]","1","[[1,2,0],[0,0],[3]]","practice","3814","","","","","","","","","","","","","","",""
"","","","","","poldrack-single-stim","12","91901","0.0-2.0-4.0","5df441f8dc853530e500adc1","E1","batch5","","-1","tol_feedback","","","true","","1000","1000","500","","","","","","-1","none","true","","0","","","","","","","","","",""
"","","","","","single-stim-button","13","97966","0.0-2.0-5.0-0.0","5df441f8dc853530e500adc1","E1","batch5","","6064","tol_practice","","","","tol_peg_1","6064","6064","0","[[1,0,0],[3,0],[0]]","2","[[0,0,0],[3,1],[2]]","practice","6064","","","","","","","","","","","","","","",""
"","","","","","single-stim-button","14","99371","0.0-2.0-5.0-1.0","5df441f8dc853530e500adc1","E1","batch5","","1403","tol_practice","","","","tol_peg_3","1403","1403","0","[[1,0,0],[3,0],[2]]","2","[[0,0,0],[3,1],[2]]","practice","1403","","","","","","","","","","","","","","",""
"","","","","","single-stim-button","15","102147","0.0-2.0-5.1-0.1","5df441f8dc853530e500adc1","E1","batch5","","2771","tol_practice","","","","tol_peg_1","2771","2771","0","[[0,0,0],[3,0],[2]]","3","[[0,0,0],[3,1],[2]]","practice","2771","","","","","","","","","","","","","","",""
"","","","","","single-stim-button","16","102901","0.0-2.0-5.1-1.1","5df441f8dc853530e500adc1","E1","batch5","","751","tol_practice","","","","tol_peg_2","751","751","0","[[0,0,0],[3,1],[2]]","3","[[0,0,0],[3,1],[2]]","practice","751","","","","","","","","","","","","","","",""
"","","","","","poldrack-single-stim","17","103905","0.0-2.0-6.0","5df441f8dc853530e500adc1","E1","batch5","","-1","tol_feedback","","","true","","1000","1000","500","","","","","","-1","none","true","","0","","","","","","","","","",""
"","","","","","single-stim-button","18","108209","0.0-2.0-7.0-0.0","5df441f8dc853530e500adc1","E1","batch5","","4302","tol_practice","","","","tol_peg_2","4302","4302","0","[[1,2,0],[0,0],[0]]","4","[[1,0,0],[2,0],[3]]","practice","4302","","","","","","","","","","","","","","",""
"","","","","","single-stim-button","19","108789","0.0-2.0-7.0-1.0","5df441f8dc853530e500adc1","E1","batch5","","579","tol_practice","","","","tol_peg_3","579","579","0","[[1,2,0],[0,0],[3]]","4","[[1,0,0],[2,0],[3]]","practice","579","","","","","","","","","","","","","","",""
"","","","","","single-stim-button","20","110722","0.0-2.0-7.1-0.1","5df441f8dc853530e500adc1","E1","batch5","","1929","tol_practice","","","","tol_peg_1","1929","1929","0","[[1,0,0],[0,0],[3]]","5","[[1,0,0],[2,0],[3]]","practice","1929","","","","","","","","","","","","","","",""
"","","","","","single-stim-button","21","111410","0.0-2.0-7.1-1.1","5df441f8dc853530e500adc1","E1","batch5","","686","tol_practice","","","","tol_peg_2","686","686","0","[[1,0,0],[2,0],[3]]","5","[[1,0,0],[2,0],[3]]","practice","686","","","","","","","","","","","","","","",""
"","","","","","poldrack-single-stim","22","112415","0.0-2.0-8.0","5df441f8dc853530e500adc1","E1","batch5","","-1","tol_feedback","","","true","","1000","1000","500","","","","","","-1","none","true","","0","","","","","","","","","",""
"","","","","","html-button-response","23","115780","0.0-2.0-9.0","5df441f8dc853530e500adc1","E1","batch5","","3363","tol_instruction","<div class = centerbox><p class = center-block-text>Great job! You are done with practice trials<br>You are about to start official trials.<br> <br> Problem <strong>1</strong> out of 25 problems</p></div>","0","","","","","","","","","","","","","","","","","","","","","","","","",""
"","","","","","single-stim-button","24","124918","0.0-2.0-10.0-0.0","5df441f8dc853530e500adc1","E1","batch5","","8135","tol_tohand","","","","tol_peg_1","8135","8135","0","[[1,0,0],[3,0],[0]]","1","[[1,3,0],[2,0],[0]]","0","0","","","","","","3","","","","","","","","",""
"","","","","","single-stim-button","25","126380","0.0-2.0-10.0-1.0","5df441f8dc853530e500adc1","E1","batch5","","1461","tol_toboard","","","","tol_peg_3","1461","1461","0","[[1,0,0],[3,0],[2]]","1","[[1,3,0],[2,0],[0]]","0","0","","","","","","3","","","","","","","","",""
"","","","","","single-stim-button","26","127197","0.0-2.0-10.1-0.1","5df441f8dc853530e500adc1","E1","batch5","","813","tol_tohand","","","","tol_peg_2","813","813","0","[[1,0,0],[0,0],[2]]","2","[[1,3,0],[2,0],[0]]","0","0","","","","","","3","","","","","","","","",""
"","","","","","single-stim-button","27","127888","0.0-2.0-10.1-1.1","5df441f8dc853530e500adc1","E1","batch5","","689","tol_toboard","","","","tol_peg_1","689","689","0","[[1,3,0],[0,0],[2]]","2","[[1,3,0],[2,0],[0]]","0","0","","","","","","3","","","","","","","","",""
"","","","","","single-stim-button","28","128880","0.0-2.0-10.2-0.2","5df441f8dc853530e500adc1","E1","batch5","","989","tol_tohand","","","","tol_peg_3","989","989","0","[[1,3,0],[0,0],[0]]","3","[[1,3,0],[2,0],[0]]","0","0","","","","","","3","","","","","","","","",""
"","","","","","single-stim-button","29","129488","0.0-2.0-10.2-1.2","5df441f8dc853530e500adc1","E1","batch5","","605","tol_toboard","","","","tol_peg_2","605","605","0","[[1,3,0],[2,0],[0]]","3","[[1,3,0],[2,0],[0]]","0","0","","","","","","3","","","","","","","","",""
"","","","","","poldrack-single-stim","30","130492","0.0-2.0-11.0","5df441f8dc853530e500adc1","E1","batch5","","-1","tol_feedback","","","true","","1000","1000","500","","","","","","-1","none","true","8135","9937","","","","","","","","","",""
"","","","","","html-button-response","31","131404","0.0-2.0-12.0","5df441f8dc853530e500adc1","E1","batch5","","911","tol_trial_num","<div class = centerbox><p class = center-block-text>problem <strong>2</strong> out of 25 problems</p></div>","0","","","","","","","","","","","","","","","","","","","","","","","","",""
"","","","","","single-stim-button","32","139463","0.0-2.0-13.0-0.0","5df441f8dc853530e500adc1","E1","batch5","","8058","tol_tohand","","","","tol_peg_1","8058","8058","0","[[1,0,0],[3,0],[0]]","1","[[2,1,3],[0,0],[0]]","1","0","","","","","","5","","","","","","","","",""
"","","","","","single-stim-button","33","140376","0.0-2.0-13.0-1.0","5df441f8dc853530e500adc1","E1","batch5","","910","tol_toboard","","","","tol_peg_3","910","910","0","[[1,0,0],[3,0],[2]]","1","[[2,1,3],[0,0],[0]]","1","0","","","","","","5","","","","","","","","",""
"","","","","","single-stim-button","34","144764","0.0-2.0-13.1-0.1","5df441f8dc853530e500adc1","E1","batch5","","4385","tol_tohand","","","","tol_peg_1","4385","4385","0","[[0,0,0],[3,0],[2]]","2","[[2,1,3],[0,0],[0]]","1","0","","","","","","5","","","","","","","","",""
"","","","","","single-stim-button","35","145580","0.0-2.0-13.1-1.1","5df441f8dc853530e500adc1","E1","batch5","","814","tol_toboard","","","","tol_peg_2","814","814","0","[[0,0,0],[3,1],[2]]","2","[[2,1,3],[0,0],[0]]","1","0","","","","","","5","","","","","","","","",""
"","","","","","single-stim-button","36","146710","0.0-2.0-13.2-0.2","5df441f8dc853530e500adc1","E1","batch5","","1126","tol_tohand","","","","tol_peg_3","1126","1126","0","[[0,0,0],[3,1],[0]]","3","[[2,1,3],[0,0],[0]]","1","0","","","","","","5","","","","","","","","",""
"","","","","","single-stim-button","37","147313","0.0-2.0-13.2-1.2","5df441f8dc853530e500adc1","E1","batch5","","602","tol_toboard","","","","tol_peg_1","602","602","0","[[2,0,0],[3,1],[0]]","3","[[2,1,3],[0,0],[0]]","1","0","","","","","","5","","","","","","","","",""
"","","","","","single-stim-button","38","148051","0.0-2.0-13.3-0.3","5df441f8dc853530e500adc1","E1","batch5","","734","tol_tohand","","","","tol_peg_2","734","734","0","[[2,0,0],[3,0],[0]]","4","[[2,1,3],[0,0],[0]]","1","0","","","","","","5","","","","","","","","",""
"","","","","","single-stim-button","39","148505","0.0-2.0-13.3-1.3","5df441f8dc853530e500adc1","E1","batch5","","450","tol_toboard","","","","tol_peg_1","450","450","0","[[2,1,0],[3,0],[0]]","4","[[2,1,3],[0,0],[0]]","1","0","","","","","","5","","","","","","","","",""
"","","","","","single-stim-button","40","149051","0.0-2.0-13.4-0.4","5df441f8dc853530e500adc1","E1","batch5","","544","tol_tohand","","","","tol_peg_2","544","544","0","[[2,1,0],[0,0],[0]]","5","[[2,1,3],[0,0],[0]]","1","0","","","","","","5","","","","","","","","",""
"","","","","","single-stim-button","41","149630","0.0-2.0-13.4-1.4","5df441f8dc853530e500adc1","E1","batch5","","577","tol_toboard","","","","tol_peg_1","577","577","0","[[2,1,3],[0,0],[0]]","5","[[2,1,3],[0,0],[0]]","1","0","","","","","","5","","","","","","","","",""
"","","","","","poldrack-single-stim","42","150635","0.0-2.0-14.0","5df441f8dc853530e500adc1","E1","batch5","","-1","tol_feedback","","","true","","1000","1000","500","","","","","","-1","none","true","8058","14847","","","","","","","","","",""
"","","","","","html-button-response","43","151176","0.0-2.0-15.0","5df441f8dc853530e500adc1","E1","batch5","","538","tol_trial_num","<div class = centerbox><p class = center-block-text>problem <strong>3</strong> out of 25 problems</p></div>","0","","","","","","","","","","","","","","","","","","","","","","","","",""
"","","","","","single-stim-button","44","155822","0.0-2.0-16.0-0.0","5df441f8dc853530e500adc1","E1","batch5","","4645","tol_tohand","","","","tol_peg_1","4645","4645","0","[[2,0,0],[0,0],[1]]","1","[[1,2,0],[3,0],[0]]","2","0","","","","","","4","","","","","","","","",""
"","","","","","single-stim-button","45","156351","0.0-2.0-16.0-1.0","5df441f8dc853530e500adc1","E1","batch5","","526","tol_toboard","","","","tol_peg_2","526","526","0","[[2,0,0],[3,0],[1]]","1","[[1,2,0],[3,0],[0]]","2","0","","","","","","4","","","","","","","","",""
"","","","","","single-stim-button","46","159484","0.0-2.0-16.1-0.1","5df441f8dc853530e500adc1","E1","batch5","","3131","tol_tohand","","","","tol_peg_1","3131","3131","0","[[0,0,0],[3,0],[1]]","2","[[1,2,0],[3,0],[0]]","2","0","","","","","","4","","","","","","","","",""
"","","","","","single-stim-button","47","160167","0.0-2.0-16.1-1.1","5df441f8dc853530e500adc1","E1","batch5","","680","tol_toboard","","","","tol_peg_2","680","680","0","[[0,0,0],[3,2],[1]]","2","[[1,2,0],[3,0],[0]]","2","0","","","","","","4","","","","","","","","",""
"","","","","","single-stim-button","48","160688","0.0-2.0-16.2-0.2","5df441f8dc853530e500adc1","E1","batch5","","518","tol_tohand","","","","tol_peg_3","518","518","0","[[0,0,0],[3,2],[0]]","3","[[1,2,0],[3,0],[0]]","2","0","","","","","","4","","","","","","","","",""
"","","","","","single-stim-button","49","161288","0.0-2.0-16.2-1.2","5df441f8dc853530e500adc1","E1","batch5","","597","tol_toboard","","","","tol_peg_1","597","597","0","[[1,0,0],[3,2],[0]]","3","[[1,2,0],[3,0],[0]]","2","0","","","","","","4","","","","","","","","",""
"","","","","","single-stim-button","50","161722","0.0-2.0-16.3-0.3","5df441f8dc853530e500adc1","E1","batch5","","431","tol_tohand","","","","tol_peg_2","431","431","0","[[1,0,0],[3,0],[0]]","4","[[1,2,0],[3,0],[0]]","2","0","","","","","","4","","","","","","","","",""
"","","","","","single-stim-button","51","162130","0.0-2.0-16.3-1.3","5df441f8dc853530e500adc1","E1","batch5","","406","tol_toboard","","","","tol_peg_1","406","406","0","[[1,2,0],[3,0],[0]]","4","[[1,2,0],[3,0],[0]]","2","0","","","","","","4","","","","","","","","",""
"","","","","","poldrack-single-stim","52","163134","0.0-2.0-17.0","5df441f8dc853530e500adc1","E1","batch5","","-1","tol_feedback","","","true","","1000","1000","500","","","","","","-1","none","true","4645","8725","","","","","","","","","",""
"","","","","","html-button-response","53","163951","0.0-2.0-18.0","5df441f8dc853530e500adc1","E1","batch5","","815","tol_trial_num","<div class = centerbox><p class = center-block-text>problem <strong>4</strong> out of 25 problems</p></div>","0","","","","","","","","","","","","","","","","","","","","","","","","",""
"","","","","","single-stim-button","54","169522","0.0-2.0-19.0-0.0","5df441f8dc853530e500adc1","E1","batch5","","5570","tol_tohand","","","","tol_peg_2","5570","5570","0","[[3,0,0],[2,0],[0]]","1","[[3,0,0],[1,0],[2]]","3","0","","","","","","3","","","","","","","","",""
"","","","","","single-stim-button","55","170042","0.0-2.0-19.0-1.0","5df441f8dc853530e500adc1","E1","batch5","","519","tol_toboard","","","","tol_peg_1","519","519","0","[[3,1,0],[2,0],[0]]","1","[[3,0,0],[1,0],[2]]","3","0","","","","","","3","","","","","","","","",""
"","","","","","single-stim-button","56","170446","0.0-2.0-19.1-0.1","5df441f8dc853530e500adc1","E1","batch5","","402","tol_tohand","","","","tol_peg_2","402","402","0","[[3,1,0],[0,0],[0]]","2","[[3,0,0],[1,0],[2]]","3","0","","","","","","3","","","","","","","","",""
"","","","","","single-stim-button","57","170882","0.0-2.0-19.1-1.1","5df441f8dc853530e500adc1","E1","batch5","","433","tol_toboard","","","","tol_peg_3","433","433","0","[[3,1,0],[0,0],[2]]","2","[[3,0,0],[1,0],[2]]","3","0","","","","","","3","","","","","","","","",""
"","","","","","single-stim-button","58","171359","0.0-2.0-19.2-0.2","5df441f8dc853530e500adc1","E1","batch5","","473","tol_tohand","","","","tol_peg_1","473","473","0","[[3,0,0],[0,0],[2]]","3","[[3,0,0],[1,0],[2]]","3","0","","","","","","3","","","","","","","","",""
"","","","","","single-stim-button","59","171775","0.0-2.0-19.2-1.2","5df441f8dc853530e500adc1","E1","batch5","","414","tol_toboard","","","","tol_peg_2","414","414","0","[[3,0,0],[1,0],[2]]","3","[[3,0,0],[1,0],[2]]","3","0","","","","","","3","","","","","","","","",""
"","","","","","poldrack-single-stim","60","172779","0.0-2.0-20.0","5df441f8dc853530e500adc1","E1","batch5","","-1","tol_feedback","","","true","","1000","1000","500","","","","","","-1","none","true","5570","6445","","","","","","","","","",""
"","","","","","html-button-response","61","173433","0.0-2.0-21.0","5df441f8dc853530e500adc1","E1","batch5","","652","tol_trial_num","<div class = centerbox><p class = center-block-text>problem <strong>5</strong> out of 25 problems</p></div>","0","","","","","","","","","","","","","","","","","","","","","","","","",""
"","","","","","single-stim-button","62","202910","0.0-2.0-22.0-0.0","5df441f8dc853530e500adc1","E1","batch5","","29476","tol_tohand","","","","tol_peg_1","29476","29476","0","[[0,0,0],[2,0],[3]]","1","[[0,0,0],[1,2],[3]]","4","0","","","","","","7","","","","","","","","",""
"","","","","","single-stim-button","63","203868","0.0-2.0-22.0-1.0","5df441f8dc853530e500adc1","E1","batch5","","956","tol_toboard","","","","tol_peg_2","956","956","0","[[0,0,0],[2,1],[3]]","1","[[0,0,0],[1,2],[3]]","4","0","","","","","","7","","","","","","","","",""
"","","","","","single-stim-button","64","206124","0.0-2.0-22.1-0.1","5df441f8dc853530e500adc1","E1","batch5","","2252","tol_tohand","","","","tol_peg_3","2252","2252","0","[[0,0,0],[2,1],[0]]","2","[[0,0,0],[1,2],[3]]","4","0","","","","","","7","","","","","","","","",""
"","","","","","single-stim-button","65","206755","0.0-2.0-22.1-1.1","5df441f8dc853530e500adc1","E1","batch5","","628","tol_toboard","","","","tol_peg_1","628","628","0","[[3,0,0],[2,1],[0]]","2","[[0,0,0],[1,2],[3]]","4","0","","","","","","7","","","","","","","","",""
"","","","","","single-stim-button","66","209401","0.0-2.0-22.2-0.2","5df441f8dc853530e500adc1","E1","batch5","","2643","tol_tohand","","","","tol_peg_2","2643","2643","0","[[3,0,0],[2,0],[0]]","3","[[0,0,0],[1,2],[3]]","4","0","","","","","","7","","","","","","","","",""
"","","","","","single-stim-button","67","213363","0.0-2.0-22.2-1.2","5df441f8dc853530e500adc1","E1","batch5","","3960","tol_toboard","","","","tol_peg_3","3960","3960","0","[[3,0,0],[2,0],[1]]","3","[[0,0,0],[1,2],[3]]","4","0","","","","","","7","","","","","","","","",""
"","","","","","single-stim-button","68","213859","0.0-2.0-22.3-0.3","5df441f8dc853530e500adc1","E1","batch5","","493","tol_tohand","","","","tol_peg_2","493","493","0","[[3,0,0],[0,0],[1]]","4","[[0,0,0],[1,2],[3]]","4","0","","","","","","7","","","","","","","","",""
"","","","","","single-stim-button","69","214438","0.0-2.0-22.3-1.3","5df441f8dc853530e500adc1","E1","batch5","","576","tol_toboard","","","","tol_peg_1","576","576","0","[[3,2,0],[0,0],[1]]","4","[[0,0,0],[1,2],[3]]","4","0","","","","","","7","","","","","","","","",""
"","","","","","single-stim-button","70","215038","0.0-2.0-22.4-0.4","5df441f8dc853530e500adc1","E1","batch5","","598","tol_tohand","","","","tol_peg_3","598","598","0","[[3,2,0],[0,0],[0]]","5","[[0,0,0],[1,2],[3]]","4","0","","","","","","7","","","","","","","","",""
"","","","","","single-stim-button","71","215543","0.0-2.0-22.4-1.4","5df441f8dc853530e500adc1","E1","batch5","","501","tol_toboard","","","","tol_peg_2","501","501","0","[[3,2,0],[1,0],[0]]","5","[[0,0,0],[1,2],[3]]","4","0","","","","","","7","","","","","","","","",""
"","","","","","single-stim-button","72","216489","0.0-2.0-22.5-0.5","5df441f8dc853530e500adc1","E1","batch5","","944","tol_tohand","","","","tol_peg_1","944","944","0","[[3,0,0],[1,0],[0]]","6","[[0,0,0],[1,2],[3]]","4","0","","","","","","7","","","","","","","","",""
"","","","","","single-stim-button","73","216905","0.0-2.0-22.5-1.5","5df441f8dc853530e500adc1","E1","batch5","","414","tol_toboard","","","","tol_peg_2","414","414","0","[[3,0,0],[1,2],[0]]","6","[[0,0,0],[1,2],[3]]","4","0","","","","","","7","","","","","","","","",""
"","","","","","single-stim-button","74","217451","0.0-2.0-22.6-0.6","5df441f8dc853530e500adc1","E1","batch5","","543","tol_tohand","","","","tol_peg_1","543","543","0","[[0,0,0],[1,2],[0]]","7","[[0,0,0],[1,2],[3]]","4","0","","","","","","7","","","","","","","","",""
"","","","","","single-stim-button","75","217988","0.0-2.0-22.6-1.6","5df441f8dc853530e500adc1","E1","batch5","","535","tol_toboard","","","","tol_peg_3","535","535","0","[[0,0,0],[1,2],[3]]","7","[[0,0,0],[1,2],[3]]","4","0","","","","","","7","","","","","","","","",""
"","","","","","poldrack-single-stim","76","218993","0.0-2.0-23.0","5df441f8dc853530e500adc1","E1","batch5","","-1","tol_feedback","","","true","","1000","1000","500","","","","","","-1","none","true","29476","36949","","","","","","","","","",""
"","","","","","html-button-response","77","219843","0.0-2.0-24.0","5df441f8dc853530e500adc1","E1","batch5","","848","tol_trial_num","<div class = centerbox><p class = center-block-text>problem <strong>6</strong> out of 25 problems</p></div>","0","","","","","","","","","","","","","","","","","","","","","","","","",""
"","","","","","single-stim-button","78","227875","0.0-2.0-25.0-0.0","5df441f8dc853530e500adc1","E1","batch5","","8032","tol_tohand","","","","tol_peg_2","8032","8032","0","[[0,0,0],[1,0],[3]]","1","[[1,0,0],[2,3],[0]]","5","0","","","","","","6","","","","","","","","",""
"","","","","","single-stim-button","79","230697","0.0-2.0-25.0-1.0","5df441f8dc853530e500adc1","E1","batch5","","2819","tol_toboard","","","","tol_peg_2","2819","2819","0","[[0,0,0],[1,2],[3]]","1","[[1,0,0],[2,3],[0]]","5","0","","","","","","6","","","","","","","","",""
"","","","","","single-stim-button","80","231815","0.0-2.0-25.1-0.1","5df441f8dc853530e500adc1","E1","batch5","","1115","tol_tohand","","","","tol_peg_3","1115","1115","0","[[0,0,0],[1,2],[0]]","2","[[1,0,0],[2,3],[0]]","5","0","","","","","","6","","","","","","","","",""
"","","","","","single-stim-button","81","233872","0.0-2.0-25.1-1.1","5df441f8dc853530e500adc1","E1","batch5","","2054","tol_toboard","","","","tol_peg_1","2054","2054","0","[[3,0,0],[1,2],[0]]","2","[[1,0,0],[2,3],[0]]","5","0","","","","","","6","","","","","","","","",""
"","","","","","single-stim-button","82","234903","0.0-2.0-25.2-0.2","5df441f8dc853530e500adc1","E1","batch5","","1030","tol_tohand","","","","tol_peg_2","1030","1030","0","[[3,0,0],[1,0],[0]]","3","[[1,0,0],[2,3],[0]]","5","0","","","","","","6","","","","","","","","",""
"","","","","","single-stim-button","83","237034","0.0-2.0-25.2-1.2","5df441f8dc853530e500adc1","E1","batch5","","2127","tol_toboard","","","","tol_peg_1","2127","2127","0","[[3,2,0],[1,0],[0]]","3","[[1,0,0],[2,3],[0]]","5","0","","","","","","6","","","","","","","","",""
"","","","","","single-stim-button","84","238171","0.0-2.0-25.3-0.3","5df441f8dc853530e500adc1","E1","batch5","","1135","tol_tohand","","","","tol_peg_2","1135","1135","0","[[3,2,0],[0,0],[0]]","4","[[1,0,0],[2,3],[0]]","5","0","","","","","","6","","","","","","","","",""
"","","","","","single-stim-button","85","238726","0.0-2.0-25.3-1.3","5df441f8dc853530e500adc1","E1","batch5","","552","tol_toboard","","","","tol_peg_3","552","552","0","[[3,2,0],[0,0],[1]]","4","[[1,0,0],[2,3],[0]]","5","0","","","","","","6","","","","","","","","",""
"","","","","","single-stim-button","86","239517","0.0-2.0-25.4-0.4","5df441f8dc853530e500adc1","E1","batch5","","788","tol_tohand","","","","tol_peg_1","788","788","0","[[3,0,0],[0,0],[1]]","5","[[1,0,0],[2,3],[0]]","5","0","","","","","","6","","","","","","","","",""
"","","","","","single-stim-button","87","240038","0.0-2.0-25.4-1.4","5df441f8dc853530e500adc1","E1","batch5","","518","tol_toboard","","","","tol_peg_2","518","518","0","[[3,0,0],[2,0],[1]]","5","[[1,0,0],[2,3],[0]]","5","0","","","","","","6","","","","","","","","",""
"","","","","","single-stim-button","88","240601","0.0-2.0-25.5-0.5","5df441f8dc853530e500adc1","E1","batch5","","561","tol_tohand","","","","tol_peg_1","561","561","0","[[0,0,0],[2,0],[1]]","6","[[1,0,0],[2,3],[0]]","5","0","","","","","","6","","","","","","","","",""
"","","","","","single-stim-button","89","241822","0.0-2.0-25.5-1.5","5df441f8dc853530e500adc1","E1","batch5","","1217","tol_toboard","","","","tol_peg_2","1217","1217","0","[[0,0,0],[2,3],[1]]","6","[[1,0,0],[2,3],[0]]","5","0","","","","","","6","","","","","","","","",""
"","","","","","single-stim-button","90","242438","0.0-2.0-25.6-0.6","5df441f8dc853530e500adc1","E1","batch5","","614","tol_tohand","","","","tol_peg_3","614","614","0","[[0,0,0],[2,3],[0]]","7","[[1,0,0],[2,3],[0]]","5","0","","","","","","6","","","","","","","","",""
"","","","","","single-stim-button","91","242992","0.0-2.0-25.6-1.6","5df441f8dc853530e500adc1","E1","batch5","","551","tol_toboard","","","","tol_peg_1","551","551","0","[[1,0,0],[2,3],[0]]","7","[[1,0,0],[2,3],[0]]","5","0","","","","","","6","","","","","","","","",""
"","","","","","poldrack-single-stim","92","243997","0.0-2.0-26.0","5df441f8dc853530e500adc1","E1","batch5","","-1","tol_feedback","","","true","","1000","1000","500","","","","","","-1","none","true","8032","13275","","","","","","","","","",""
"","","","","","html-button-response","93","244851","0.0-2.0-27.0","5df441f8dc853530e500adc1","E1","batch5","","852","tol_trial_num","<div class = centerbox><p class = center-block-text>problem <strong>7</strong> out of 25 problems</p></div>","0","","","","","","","","","","","","","","","","","","","","","","","","",""
"","","","","","single-stim-button","94","252743","0.0-2.0-28.0-0.0","5df441f8dc853530e500adc1","E1","batch5","","7888","tol_tohand","","","","tol_peg_3","7888","7888","0","[[2,1,0],[0,0],[0]]","1","[[1,2,0],[3,0],[0]]","6","0","","","","","","5","","","","","","","","",""
"","","","","","single-stim-button","95","253292","0.0-2.0-28.0-1.0","5df441f8dc853530e500adc1","E1","batch5","","547","tol_toboard","","","","tol_peg_2","547","547","0","[[2,1,0],[3,0],[0]]","1","[[1,2,0],[3,0],[0]]","6","0","","","","","","5","","","","","","","","",""
"","","","","","single-stim-button","96","253889","0.0-2.0-28.1-0.1","5df441f8dc853530e500adc1","E1","batch5","","594","tol_tohand","","","","tol_peg_1","594","594","0","[[2,0,0],[3,0],[0]]","2","[[1,2,0],[3,0],[0]]","6","0","","","","","","5","","","","","","","","",""
"","","","","","single-stim-button","97","257729","0.0-2.0-28.1-1.1","5df441f8dc853530e500adc1","E1","batch5","","3837","tol_toboard","","","","tol_peg_2","3837","3837","0","[[2,0,0],[3,1],[0]]","2","[[1,2,0],[3,0],[0]]","6","0","","","","","","5","","","","","","","","",""
"","","","","","single-stim-button","98","261209","0.0-2.0-28.2-0.2","5df441f8dc853530e500adc1","E1","batch5","","3477","tol_tohand","","","","tol_peg_1","3477","3477","0","[[0,0,0],[3,1],[0]]","3","[[1,2,0],[3,0],[0]]","6","0","","","","","","5","","","","","","","","",""
"","","","","","single-stim-button","99","261746","0.0-2.0-28.2-1.2","5df441f8dc853530e500adc1","E1","batch5","","536","tol_toboard","","","","tol_peg_3","536","536","0","[[0,0,0],[3,1],[2]]","3","[[1,2,0],[3,0],[0]]","6","0","","","","","","5","","","","","","","","",""
"","","","","","single-stim-button","100","264880","0.0-2.0-28.3-0.3","5df441f8dc853530e500adc1","E1","batch5","","3131","tol_tohand","","","","tol_peg_3","3131","3131","0","[[0,0,0],[3,1],[0]]","4","[[1,2,0],[3,0],[0]]","6","0","","","","","","5","","","","","","","","",""
"","","","","","single-stim-button","101","265622","0.0-2.0-28.3-1.3","5df441f8dc853530e500adc1","E1","batch5","","739","tol_toboard","","","","tol_peg_1","739","739","0","[[2,0,0],[3,1],[0]]","4","[[1,2,0],[3,0],[0]]","6","0","","","","","","5","","","","","","","","",""
"","","","","","single-stim-button","102","266142","0.0-2.0-28.4-0.4","5df441f8dc853530e500adc1","E1","batch5","","517","tol_tohand","","","","tol_peg_2","517","517","0","[[2,0,0],[3,0],[0]]","5","[[1,2,0],[3,0],[0]]","6","0","","","","","","5","","","","","","","","",""
"","","","","","single-stim-button","103","269864","0.0-2.0-28.4-1.4","5df441f8dc853530e500adc1","E1","batch5","","3720","tol_toboard","","","","tol_peg_1","3720","3720","0","[[2,1,0],[3,0],[0]]","5","[[1,2,0],[3,0],[0]]","6","0","","","","","","5","","","","","","","","",""
"","","","","","single-stim-button","104","272639","0.0-2.0-28.5-0.5","5df441f8dc853530e500adc1","E1","batch5","","2773","tol_tohand","","","","tol_peg_1","2773","2773","0","[[2,0,0],[3,0],[0]]","6","[[1,2,0],[3,0],[0]]","6","0","","","","","","5","","","","","","","","",""
"","","","","","single-stim-button","105","273118","0.0-2.0-28.5-1.5","5df441f8dc853530e500adc1","E1","batch5","","478","tol_toboard","","","","tol_peg_3","478","478","0","[[2,0,0],[3,0],[1]]","6","[[1,2,0],[3,0],[0]]","6","0","","","","","","5","","","","","","","","",""
"","","","","","single-stim-button","106","273544","0.0-2.0-28.6-0.6","5df441f8dc853530e500adc1","E1","batch5","","423","tol_tohand","","","","tol_peg_1","423","423","0","[[0,0,0],[3,0],[1]]","7","[[1,2,0],[3,0],[0]]","6","0","","","","","","5","","","","","","","","",""
"","","","","","single-stim-button","107","273921","0.0-2.0-28.6-1.6","5df441f8dc853530e500adc1","E1","batch5","","371","tol_toboard","","","","tol_peg_2","371","371","0","[[0,0,0],[3,2],[1]]","7","[[1,2,0],[3,0],[0]]","6","0","","","","","","5","","","","","","","","",""
"","","","","","single-stim-button","108","274331","0.0-2.0-28.7-0.7","5df441f8dc853530e500adc1","E1","batch5","","406","tol_tohand","","","","tol_peg_3","406","406","0","[[0,0,0],[3,2],[0]]","8","[[1,2,0],[3,0],[0]]","6","0","","","","","","5","","","","","","","","",""
"","","","","","single-stim-button","109","275025","0.0-2.0-28.7-1.7","5df441f8dc853530e500adc1","E1","batch5","","692","tol_toboard","","","","tol_peg_1","692","692","0","[[1,0,0],[3,2],[0]]","8","[[1,2,0],[3,0],[0]]","6","0","","","","","","5","","","","","","","","",""
"","","","","","single-stim-button","110","275430","0.0-2.0-28.8-0.8","5df441f8dc853530e500adc1","E1","batch5","","404","tol_tohand","","","","tol_peg_2","404","404","0","[[1,0,0],[3,0],[0]]","9","[[1,2,0],[3,0],[0]]","6","0","","","","","","5","","","","","","","","",""
"","","","","","single-stim-button","111","275805","0.0-2.0-28.8-1.8","5df441f8dc853530e500adc1","E1","batch5","","372","tol_toboard","","","","tol_peg_1","372","372","0","[[1,2,0],[3,0],[0]]","9","[[1,2,0],[3,0],[0]]","6","0","","","","","","5","","","","","","","","",""
"","","","","","poldrack-single-stim","112","276810","0.0-2.0-29.0","5df441f8dc853530e500adc1","E1","batch5","","-1","tol_feedback","","","true","","1000","1000","500","","","","","","-1","none","true","7888","19613","","","","","","","","","",""
"","","","","","html-button-response","113","277642","0.0-2.0-30.0","5df441f8dc853530e500adc1","E1","batch5","","830","tol_trial_num","<div class = centerbox><p class = center-block-text>problem <strong>8</strong> out of 25 problems</p></div>","0","","","","","","","","","","","","","","","","","","","","","","","","",""
"","","","","","single-stim-button","114","280880","0.0-2.0-31.0-0.0","5df441f8dc853530e500adc1","E1","batch5","","3238","tol_tohand","","","","tol_peg_3","3238","3238","0","[[0,0,0],[2,3],[0]]","1","[[1,2,0],[3,0],[0]]","7","0","","","","","","4","","","","","","","","",""
"","","","","","single-stim-button","115","281467","0.0-2.0-31.0-1.0","5df441f8dc853530e500adc1","E1","batch5","","585","tol_toboard","","","","tol_peg_1","585","585","0","[[1,0,0],[2,3],[0]]","1","[[1,2,0],[3,0],[0]]","7","0","","","","","","4","","","","","","","","",""
"","","","","","single-stim-button","116","282014","0.0-2.0-31.1-0.1","5df441f8dc853530e500adc1","E1","batch5","","543","tol_tohand","","","","tol_peg_2","543","543","0","[[1,0,0],[2,0],[0]]","2","[[1,2,0],[3,0],[0]]","7","0","","","","","","4","","","","","","","","",""
"","","","","","single-stim-button","117","282559","0.0-2.0-31.1-1.1","5df441f8dc853530e500adc1","E1","batch5","","543","tol_toboard","","","","tol_peg_3","543","543","0","[[1,0,0],[2,0],[3]]","2","[[1,2,0],[3,0],[0]]","7","0","","","","","","4","","","","","","","","",""
"","","","","","single-stim-button","118","283021","0.0-2.0-31.2-0.2","5df441f8dc853530e500adc1","E1","batch5","","459","tol_tohand","","","","tol_peg_2","459","459","0","[[1,0,0],[0,0],[3]]","3","[[1,2,0],[3,0],[0]]","7","0","","","","","","4","","","","","","","","",""
"","","","","","single-stim-button","119","283504","0.0-2.0-31.2-1.2","5df441f8dc853530e500adc1","E1","batch5","","480","tol_toboard","","","","tol_peg_1","480","480","0","[[1,2,0],[0,0],[3]]","3","[[1,2,0],[3,0],[0]]","7","0","","","","","","4","","","","","","","","",""
"","","","","","single-stim-button","120","284009","0.0-2.0-31.3-0.3","5df441f8dc853530e500adc1","E1","batch5","","502","tol_tohand","","","","tol_peg_3","502","502","0","[[1,2,0],[0,0],[0]]","4","[[1,2,0],[3,0],[0]]","7","0","","","","","","4","","","","","","","","",""
"","","","","","single-stim-button","121","284467","0.0-2.0-31.3-1.3","5df441f8dc853530e500adc1","E1","batch5","","455","tol_toboard","","","","tol_peg_2","455","455","0","[[1,2,0],[3,0],[0]]","4","[[1,2,0],[3,0],[0]]","7","0","","","","","","4","","","","","","","","",""
"","","","","","poldrack-single-stim","122","285473","0.0-2.0-32.0","5df441f8dc853530e500adc1","E1","batch5","","-1","tol_feedback","","","true","","1000","1000","500","","","","","","-1","none","true","3238","4742","","","","","","","","","",""
"","","","","","html-button-response","123","286609","0.0-2.0-33.0","5df441f8dc853530e500adc1","E1","batch5","","1132.9999999999418","tol_trial_num","<div class = centerbox><p class = center-block-text>problem <strong>9</strong> out of 25 problems</p></div>","0","","","","","","","","","","","","","","","","","","","","","","","","",""
"","","","","","single-stim-button","124","290784","0.0-2.0-34.0-0.0","5df441f8dc853530e500adc1","E1","batch5","","4172","tol_tohand","","","","tol_peg_3","4172","4172","0","[[3,2,0],[0,0],[0]]","1","[[2,1,0],[3,0],[0]]","8","0","","","","","","6","","","","","","","","",""
"","","","","","single-stim-button","125","291610","0.0-2.0-34.0-1.0","5df441f8dc853530e500adc1","E1","batch5","","823","tol_toboard","","","","tol_peg_2","823","823","0","[[3,2,0],[1,0],[0]]","1","[[2,1,0],[3,0],[0]]","8","0","","","","","","6","","","","","","","","",""
"","","","","","single-stim-button","126","292276","0.0-2.0-34.1-0.1","5df441f8dc853530e500adc1","E1","batch5","","664","tol_tohand","","","","tol_peg_1","664","664","0","[[3,0,0],[1,0],[0]]","2","[[2,1,0],[3,0],[0]]","8","0","","","","","","6","","","","","","","","",""
"","","","","","single-stim-button","127","294235","0.0-2.0-34.1-1.1","5df441f8dc853530e500adc1","E1","batch5","","1956","tol_toboard","","","","tol_peg_3","1956","1956","0","[[3,0,0],[1,0],[2]]","2","[[2,1,0],[3,0],[0]]","8","0","","","","","","6","","","","","","","","",""
"","","","","","single-stim-button","128","302480","0.0-2.0-34.2-0.2","5df441f8dc853530e500adc1","E1","batch5","","8241","tol_tohand","","","","tol_peg_3","8241","8241","0","[[3,0,0],[1,0],[0]]","3","[[2,1,0],[3,0],[0]]","8","0","","","","","","6","","","","","","","","",""
"","","","","","single-stim-button","129","303305","0.0-2.0-34.2-1.2","5df441f8dc853530e500adc1","E1","batch5","","821","tol_toboard","","","","tol_peg_2","821","821","0","[[3,0,0],[1,2],[0]]","3","[[2,1,0],[3,0],[0]]","8","0","","","","","","6","","","","","","","","",""
"","","","","","single-stim-button","130","303748","0.0-2.0-34.3-0.3","5df441f8dc853530e500adc1","E1","batch5","","441","tol_tohand","","","","tol_peg_1","441","441","0","[[0,0,0],[1,2],[0]]","4","[[2,1,0],[3,0],[0]]","8","0","","","","","","6","","","","","","","","",""
"","","","","","single-stim-button","131","304330","0.0-2.0-34.3-1.3","5df441f8dc853530e500adc1","E1","batch5","","576","tol_toboard","","","","tol_peg_3","576","576","0","[[0,0,0],[1,2],[3]]","4","[[2,1,0],[3,0],[0]]","8","0","","","","","","6","","","","","","","","",""
"","","","","","single-stim-button","132","304930","0.0-2.0-34.4-0.4","5df441f8dc853530e500adc1","E1","batch5","","596","tol_tohand","","","","tol_peg_2","596","596","0","[[0,0,0],[1,0],[3]]","5","[[2,1,0],[3,0],[0]]","8","0","","","","","","6","","","","","","","","",""
"","","","","","single-stim-button","133","307059","0.0-2.0-34.4-1.4","5df441f8dc853530e500adc1","E1","batch5","","2127","tol_toboard","","","","tol_peg_1","2127","2127","0","[[2,0,0],[1,0],[3]]","5","[[2,1,0],[3,0],[0]]","8","0","","","","","","6","","","","","","","","",""
"","","","","","single-stim-button","134","307393","0.0-2.0-34.5-0.5","5df441f8dc853530e500adc1","E1","batch5","","331","tol_tohand","","","","tol_peg_2","331","331","0","[[2,0,0],[0,0],[3]]","6","[[2,1,0],[3,0],[0]]","8","0","","","","","","6","","","","","","","","",""
"","","","","","single-stim-button","135","307788","0.0-2.0-34.5-1.5","5df441f8dc853530e500adc1","E1","batch5","","393","tol_toboard","","","","tol_peg_1","393","393","0","[[2,1,0],[0,0],[3]]","6","[[2,1,0],[3,0],[0]]","8","0","","","","","","6","","","","","","","","",""
"","","","","","single-stim-button","136","308188","0.0-2.0-34.6-0.6","5df441f8dc853530e500adc1","E1","batch5","","397","tol_tohand","","","","tol_peg_3","397","397","0","[[2,1,0],[0,0],[0]]","7","[[2,1,0],[3,0],[0]]","8","0","","","","","","6","","","","","","","","",""
"","","","","","single-stim-button","137","308526","0.0-2.0-34.6-1.6","5df441f8dc853530e500adc1","E1","batch5","","335","tol_toboard","","","","tol_peg_2","335","335","0","[[2,1,0],[3,0],[0]]","7","[[2,1,0],[3,0],[0]]","8","0","","","","","","6","","","","","","","","",""
"","","","","","poldrack-single-stim","138","309531","0.0-2.0-35.0","5df441f8dc853530e500adc1","E1","batch5","","-1","tol_feedback","","","true","","1000","1000","500","","","","","","-1","none","true","4172","14842","","","","","","","","","",""
"","","","","","html-button-response","139","310427","0.0-2.0-36.0","5df441f8dc853530e500adc1","E1","batch5","","893","tol_trial_num","<div class = centerbox><p class = center-block-text>problem <strong>10</strong> out of 25 problems</p></div>","0","","","","","","","","","","","","","","","","","","","","","","","","",""
"","","","","","single-stim-button","140","315213","0.0-2.0-37.0-0.0","5df441f8dc853530e500adc1","E1","batch5","","4786","tol_tohand","","","","tol_peg_3","4786","4786","0","[[3,0,0],[1,0],[0]]","1","[[3,0,0],[2,1],[0]]","9","0","","","","","","3","","","","","","","","",""
"","","","","","single-stim-button","141","317113","0.0-2.0-37.0-1.0","5df441f8dc853530e500adc1","E1","batch5","","1897","tol_toboard","","","","tol_peg_1","1897","1897","0","[[3,2,0],[1,0],[0]]","1","[[3,0,0],[2,1],[0]]","9","0","","","","","","3","","","","","","","","",""
"","","","","","single-stim-button","142","317547","0.0-2.0-37.1-0.1","5df441f8dc853530e500adc1","E1","batch5","","432","tol_tohand","","","","tol_peg_2","432","432","0","[[3,2,0],[0,0],[0]]","2","[[3,0,0],[2,1],[0]]","9","0","","","","","","3","","","","","","","","",""
"","","","","","single-stim-button","143","317859","0.0-2.0-37.1-1.1","5df441f8dc853530e500adc1","E1","batch5","","309","tol_toboard","","","","tol_peg_3","309","309","0","[[3,2,0],[0,0],[1]]","2","[[3,0,0],[2,1],[0]]","9","0","","","","","","3","","","","","","","","",""
"","","","","","single-stim-button","144","318343","0.0-2.0-37.2-0.2","5df441f8dc853530e500adc1","E1","batch5","","481","tol_tohand","","","","tol_peg_1","481","481","0","[[3,0,0],[0,0],[1]]","3","[[3,0,0],[2,1],[0]]","9","0","","","","","","3","","","","","","","","",""
"","","","","","single-stim-button","145","318663","0.0-2.0-37.2-1.2","5df441f8dc853530e500adc1","E1","batch5","","317","tol_toboard","","","","tol_peg_2","317","317","0","[[3,0,0],[2,0],[1]]","3","[[3,0,0],[2,1],[0]]","9","0","","","","","","3","","","","","","","","",""
"","","","","","single-stim-button","146","319013","0.0-2.0-37.3-0.3","5df441f8dc853530e500adc1","E1","batch5","","349","tol_tohand","","","","tol_peg_3","349","349","0","[[3,0,0],[2,0],[0]]","4","[[3,0,0],[2,1],[0]]","9","0","","","","","","3","","","","","","","","",""
"","","","","","single-stim-button","147","319385","0.0-2.0-37.3-1.3","5df441f8dc853530e500adc1","E1","batch5","","369","tol_toboard","","","","tol_peg_2","369","369","0","[[3,0,0],[2,1],[0]]","4","[[3,0,0],[2,1],[0]]","9","0","","","","","","3","","","","","","","","",""
"","","","","","poldrack-single-stim","148","320390","0.0-2.0-38.0","5df441f8dc853530e500adc1","E1","batch5","","-1","tol_feedback","","","true","","1000","1000","500","","","","","","-1","none","true","4786","6048","","","","","","","","","",""
"","","","","","html-button-response","149","321126","0.0-2.0-39.0","5df441f8dc853530e500adc1","E1","batch5","","734","tol_trial_num","<div class = centerbox><p class = center-block-text>problem <strong>11</strong> out of 25 problems</p></div>","0","","","","","","","","","","","","","","","","","","","","","","","","",""
"","","","","","single-stim-button","150","324443","0.0-2.0-40.0-0.0","5df441f8dc853530e500adc1","E1","batch5","","3317","tol_tohand","","","","tol_peg_2","3317","3317","0","[[1,2,0],[0,0],[0]]","1","[[2,0,0],[1,3],[0]]","10","0","","","","","","6","","","","","","","","",""
"","","","","","single-stim-button","151","325197","0.0-2.0-40.0-1.0","5df441f8dc853530e500adc1","E1","batch5","","747","tol_toboard","","","","tol_peg_3","747","747","0","[[1,2,0],[0,0],[3]]","1","[[2,0,0],[1,3],[0]]","10","0","","","","","","6","","","","","","","","",""
"","","","","","single-stim-button","152","327830","0.0-2.0-40.1-0.1","5df441f8dc853530e500adc1","E1","batch5","","2630","tol_tohand","","","","tol_peg_3","2630","2630","0","[[1,2,0],[0,0],[0]]","2","[[2,0,0],[1,3],[0]]","10","0","","","","","","6","","","","","","","","",""
"","","","","","single-stim-button","153","328384","0.0-2.0-40.1-1.1","5df441f8dc853530e500adc1","E1","batch5","","551","tol_toboard","","","","tol_peg_2","551","551","0","[[1,2,0],[3,0],[0]]","2","[[2,0,0],[1,3],[0]]","10","0","","","","","","6","","","","","","","","",""
"","","","","","single-stim-button","154","328889","0.0-2.0-40.2-0.2","5df441f8dc853530e500adc1","E1","batch5","","501","tol_tohand","","","","tol_peg_1","501","501","0","[[1,0,0],[3,0],[0]]","3","[[2,0,0],[1,3],[0]]","10","0","","","","","","6","","","","","","","","",""
"","","","","","single-stim-button","155","329455","0.0-2.0-40.2-1.2","5df441f8dc853530e500adc1","E1","batch5","","563","tol_toboard","","","","tol_peg_3","563","563","0","[[1,0,0],[3,0],[2]]","3","[[2,0,0],[1,3],[0]]","10","0","","","","","","6","","","","","","","","",""
"","","","","","single-stim-button","156","333376","0.0-2.0-40.3-0.3","5df441f8dc853530e500adc1","E1","batch5","","3918","tol_tohand","","","","tol_peg_3","3918","3918","0","[[1,0,0],[3,0],[0]]","4","[[2,0,0],[1,3],[0]]","10","0","","","","","","6","","","","","","","","",""
"","","","","","single-stim-button","157","333923","0.0-2.0-40.3-1.3","5df441f8dc853530e500adc1","E1","batch5","","545","tol_toboard","","","","tol_peg_1","545","545","0","[[1,2,0],[3,0],[0]]","4","[[2,0,0],[1,3],[0]]","10","0","","","","","","6","","","","","","","","",""
"","","","","","single-stim-button","158","335377","0.0-2.0-40.4-0.4","5df441f8dc853530e500adc1","E1","batch5","","1450","tol_tohand","","","","tol_peg_1","1450","1450","0","[[1,0,0],[3,0],[0]]","5","[[2,0,0],[1,3],[0]]","10","0","","","","","","6","","","","","","","","",""
"","","","","","single-stim-button","159","337210","0.0-2.0-40.4-1.4","5df441f8dc853530e500adc1","E1","batch5","","1830","tol_toboard","","","","tol_peg_2","1830","1830","0","[[1,0,0],[3,2],[0]]","5","[[2,0,0],[1,3],[0]]","10","0","","","","","","6","","","","","","","","",""
"","","","","","single-stim-button","160","337693","0.0-2.0-40.5-0.5","5df441f8dc853530e500adc1","E1","batch5","","481","tol_tohand","","","","tol_peg_1","481","481","0","[[0,0,0],[3,2],[0]]","6","[[2,0,0],[1,3],[0]]","10","0","","","","","","6","","","","","","","","",""
"","","","","","single-stim-button","161","338259","0.0-2.0-40.5-1.5","5df441f8dc853530e500adc1","E1","batch5","","564","tol_toboard","","","","tol_peg_3","564","564","0","[[0,0,0],[3,2],[1]]","6","[[2,0,0],[1,3],[0]]","10","0","","","","","","6","","","","","","","","",""
"","","","","","single-stim-button","162","338864","0.0-2.0-40.6-0.6","5df441f8dc853530e500adc1","E1","batch5","","602","tol_tohand","","","","tol_peg_2","602","602","0","[[0,0,0],[3,0],[1]]","7","[[2,0,0],[1,3],[0]]","10","0","","","","","","6","","","","","","","","",""
"","","","","","single-stim-button","163","339351","0.0-2.0-40.6-1.6","5df441f8dc853530e500adc1","E1","batch5","","483","tol_toboard","","","","tol_peg_1","483","483","0","[[2,0,0],[3,0],[1]]","7","[[2,0,0],[1,3],[0]]","10","0","","","","","","6","","","","","","","","",""
"","","","","","single-stim-button","164","339743","0.0-2.0-40.7-0.7","5df441f8dc853530e500adc1","E1","batch5","","390","tol_tohand","","","","tol_peg_2","390","390","0","[[2,0,0],[0,0],[1]]","8","[[2,0,0],[1,3],[0]]","10","0","","","","","","6","","","","","","","","",""
"","","","","","single-stim-button","165","340130","0.0-2.0-40.7-1.7","5df441f8dc853530e500adc1","E1","batch5","","381","tol_toboard","","","","tol_peg_1","381","381","0","[[2,3,0],[0,0],[1]]","8","[[2,0,0],[1,3],[0]]","10","0","","","","","","6","","","","","","","","",""
"","","","","","single-stim-button","166","340572","0.0-2.0-40.8-0.8","5df441f8dc853530e500adc1","E1","batch5","","439","tol_tohand","","","","tol_peg_3","439","439","0","[[2,3,0],[0,0],[0]]","9","[[2,0,0],[1,3],[0]]","10","0","","","","","","6","","","","","","","","",""
"","","","","","single-stim-button","167","341005","0.0-2.0-40.8-1.8","5df441f8dc853530e500adc1","E1","batch5","","429","tol_toboard","","","","tol_peg_2","429","429","0","[[2,3,0],[1,0],[0]]","9","[[2,0,0],[1,3],[0]]","10","0","","","","","","6","","","","","","","","",""
"","","","","","single-stim-button","168","342280","0.0-2.0-40.9-0.9","5df441f8dc853530e500adc1","E1","batch5","","1271","tol_tohand","","","","tol_peg_1","1271","1271","0","[[2,0,0],[1,0],[0]]","10","[[2,0,0],[1,3],[0]]","10","0","","","","","","6","","","","","","","","",""
"","","","","","single-stim-button","169","342689","0.0-2.0-40.9-1.9","5df441f8dc853530e500adc1","E1","batch5","","406","tol_toboard","","","","tol_peg_2","406","406","0","[[2,0,0],[1,3],[0]]","10","[[2,0,0],[1,3],[0]]","10","0","","","","","","6","","","","","","","","",""
"","","","","","poldrack-single-stim","170","343694","0.0-2.0-41.0","5df441f8dc853530e500adc1","E1","batch5","","-1","tol_feedback","","","true","","1000","1000","500","","","","","","-1","none","true","3317","14999","","","","","","","","","",""
"","","","","","html-button-response","171","344467","0.0-2.0-42.0","5df441f8dc853530e500adc1","E1","batch5","","772","tol_trial_num","<div class = centerbox><p class = center-block-text>problem <strong>12</strong> out of 25 problems</p></div>","0","","","","","","","","","","","","","","","","","","","","","","","","",""
"","","","","","single-stim-button","172","347634","0.0-2.0-43.0-0.0","5df441f8dc853530e500adc1","E1","batch5","","3165","tol_tohand","","","","tol_peg_1","3165","3165","0","[[1,0,0],[3,0],[0]]","1","[[2,3,0],[0,0],[1]]","11","0","","","","","","4","","","","","","","","",""
"","","","","","single-stim-button","173","348693","0.0-2.0-43.0-1.0","5df441f8dc853530e500adc1","E1","batch5","","1055","tol_toboard","","","","tol_peg_2","1055","1055","0","[[1,0,0],[3,2],[0]]","1","[[2,3,0],[0,0],[1]]","11","0","","","","","","4","","","","","","","","",""
"","","","","","single-stim-button","174","349126","0.0-2.0-43.1-0.1","5df441f8dc853530e500adc1","E1","batch5","","431","tol_tohand","","","","tol_peg_1","431","431","0","[[0,0,0],[3,2],[0]]","2","[[2,3,0],[0,0],[1]]","11","0","","","","","","4","","","","","","","","",""
"","","","","","single-stim-button","175","349505","0.0-2.0-43.1-1.1","5df441f8dc853530e500adc1","E1","batch5","","377","tol_toboard","","","","tol_peg_3","377","377","0","[[0,0,0],[3,2],[1]]","2","[[2,3,0],[0,0],[1]]","11","0","","","","","","4","","","","","","","","",""
"","","","","","single-stim-button","176","358143","0.0-2.0-43.2-0.2","5df441f8dc853530e500adc1","E1","batch5","","8635","tol_tohand","","","","tol_peg_3","8635","8635","0","[[0,0,0],[3,2],[0]]","3","[[2,3,0],[0,0],[1]]","11","0","","","","","","4","","","","","","","","",""
"","","","","","single-stim-button","177","359080","0.0-2.0-43.2-1.2","5df441f8dc853530e500adc1","E1","batch5","","933","tol_toboard","","","","tol_peg_1","933","933","0","[[1,0,0],[3,2],[0]]","3","[[2,3,0],[0,0],[1]]","11","0","","","","","","4","","","","","","","","",""
"","","","","","single-stim-button","178","359989","0.0-2.0-43.3-0.3","5df441f8dc853530e500adc1","E1","batch5","","906","tol_tohand","","","","tol_peg_2","906","906","0","[[1,0,0],[3,0],[0]]","4","[[2,3,0],[0,0],[1]]","11","0","","","","","","4","","","","","","","","",""
"","","","","","single-stim-button","179","363397","0.0-2.0-43.3-1.3","5df441f8dc853530e500adc1","E1","batch5","","3405","tol_toboard","","","","tol_peg_3","3405","3405","0","[[1,0,0],[3,0],[2]]","4","[[2,3,0],[0,0],[1]]","11","0","","","","","","4","","","","","","","","",""
"","","","","","single-stim-button","180","363909","0.0-2.0-43.4-0.4","5df441f8dc853530e500adc1","E1","batch5","","508","tol_tohand","","","","tol_peg_1","508","508","0","[[0,0,0],[3,0],[2]]","5","[[2,3,0],[0,0],[1]]","11","0","","","","","","4","","","","","","","","",""
"","","","","","single-stim-button","181","364326","0.0-2.0-43.4-1.4","5df441f8dc853530e500adc1","E1","batch5","","414","tol_toboard","","","","tol_peg_2","414","414","0","[[0,0,0],[3,1],[2]]","5","[[2,3,0],[0,0],[1]]","11","0","","","","","","4","","","","","","","","",""
"","","","","","single-stim-button","182","364684","0.0-2.0-43.5-0.5","5df441f8dc853530e500adc1","E1","batch5","","355","tol_tohand","","","","tol_peg_3","355","355","0","[[0,0,0],[3,1],[0]]","6","[[2,3,0],[0,0],[1]]","11","0","","","","","","4","","","","","","","","",""
"","","","","","single-stim-button","183","365080","0.0-2.0-43.5-1.5","5df441f8dc853530e500adc1","E1","batch5","","393","tol_toboard","","","","tol_peg_1","393","393","0","[[2,0,0],[3,1],[0]]","6","[[2,3,0],[0,0],[1]]","11","0","","","","","","4","","","","","","","","",""
"","","","","","single-stim-button","184","369173","0.0-2.0-43.6-0.6","5df441f8dc853530e500adc1","E1","batch5","","4089","tol_tohand","","","","tol_peg_2","4089","4089","0","[[2,0,0],[3,0],[0]]","7","[[2,3,0],[0,0],[1]]","11","0","","","","","","4","","","","","","","","",""
"","","","","","single-stim-button","185","369580","0.0-2.0-43.6-1.6","5df441f8dc853530e500adc1","E1","batch5","","406","tol_toboard","","","","tol_peg_3","406","406","0","[[2,0,0],[3,0],[1]]","7","[[2,3,0],[0,0],[1]]","11","0","","","","","","4","","","","","","","","",""
"","","","","","single-stim-button","186","369967","0.0-2.0-43.7-0.7","5df441f8dc853530e500adc1","E1","batch5","","384","tol_tohand","","","","tol_peg_2","384","384","0","[[2,0,0],[0,0],[1]]","8","[[2,3,0],[0,0],[1]]","11","0","","","","","","4","","","","","","","","",""
"","","","","","single-stim-button","187","370368","0.0-2.0-43.7-1.7","5df441f8dc853530e500adc1","E1","batch5","","397","tol_toboard","","","","tol_peg_1","397","397","0","[[2,3,0],[0,0],[1]]","8","[[2,3,0],[0,0],[1]]","11","0","","","","","","4","","","","","","","","",""
"","","","","","poldrack-single-stim","188","371373","0.0-2.0-44.0","5df441f8dc853530e500adc1","E1","batch5","","-1","tol_feedback","","","true","","1000","1000","500","","","","","","-1","none","true","3165","18473","","","","","","","","","",""
"","","","","","html-button-response","189","371842","0.0-2.0-45.0","5df441f8dc853530e500adc1","E1","batch5","","466.9999999999418","tol_trial_num","<div class = centerbox><p class = center-block-text>problem <strong>13</strong> out of 25 problems</p></div>","0","","","","","","","","","","","","","","","","","","","","","","","","",""
"","","","","","single-stim-button","190","374747","0.0-2.0-46.0-0.0","5df441f8dc853530e500adc1","E1","batch5","","2904","tol_tohand","","","","tol_peg_1","2904","2904","0","[[1,0,0],[3,0],[0]]","1","[[0,0,0],[2,3],[1]]","12","0","","","","","","4","","","","","","","","",""
"","","","","","single-stim-button","191","375113","0.0-2.0-46.0-1.0","5df441f8dc853530e500adc1","E1","batch5","","363","tol_toboard","","","","tol_peg_2","363","363","0","[[1,0,0],[3,2],[0]]","1","[[0,0,0],[2,3],[1]]","12","0","","","","","","4","","","","","","","","",""
"","","","","","single-stim-button","192","375518","0.0-2.0-46.1-0.1","5df441f8dc853530e500adc1","E1","batch5","","401","tol_tohand","","","","tol_peg_1","401","401","0","[[0,0,0],[3,2],[0]]","2","[[0,0,0],[2,3],[1]]","12","0","","","","","","4","","","","","","","","",""
"","","","","","single-stim-button","193","375947","0.0-2.0-46.1-1.1","5df441f8dc853530e500adc1","E1","batch5","","426","tol_toboard","","","","tol_peg_3","426","426","0","[[0,0,0],[3,2],[1]]","2","[[0,0,0],[2,3],[1]]","12","0","","","","","","4","","","","","","","","",""
"","","","","","single-stim-button","194","381601","0.0-2.0-46.2-0.2","5df441f8dc853530e500adc1","E1","batch5","","5652","tol_tohand","","","","tol_peg_3","5652","5652","0","[[0,0,0],[3,2],[0]]","3","[[0,0,0],[2,3],[1]]","12","0","","","","","","4","","","","","","","","",""
"","","","","","single-stim-button","195","382352","0.0-2.0-46.2-1.2","5df441f8dc853530e500adc1","E1","batch5","","749","tol_toboard","","","","tol_peg_1","749","749","0","[[1,0,0],[3,2],[0]]","3","[[0,0,0],[2,3],[1]]","12","0","","","","","","4","","","","","","","","",""
"","","","","","single-stim-button","196","383743","0.0-2.0-46.3-0.3","5df441f8dc853530e500adc1","E1","batch5","","1388","tol_tohand","","","","tol_peg_2","1388","1388","0","[[1,0,0],[3,0],[0]]","4","[[0,0,0],[2,3],[1]]","12","0","","","","","","4","","","","","","","","",""
"","","","","","single-stim-button","197","384097","0.0-2.0-46.3-1.3","5df441f8dc853530e500adc1","E1","batch5","","352","tol_toboard","","","","tol_peg_3","352","352","0","[[1,0,0],[3,0],[2]]","4","[[0,0,0],[2,3],[1]]","12","0","","","","","","4","","","","","","","","",""
"","","","","","single-stim-button","198","384455","0.0-2.0-46.4-0.4","5df441f8dc853530e500adc1","E1","batch5","","355","tol_tohand","","","","tol_peg_2","355","355","0","[[1,0,0],[0,0],[2]]","5","[[0,0,0],[2,3],[1]]","12","0","","","","","","4","","","","","","","","",""
"","","","","","single-stim-button","199","384843","0.0-2.0-46.4-1.4","5df441f8dc853530e500adc1","E1","batch5","","384","tol_toboard","","","","tol_peg_1","384","384","0","[[1,3,0],[0,0],[2]]","5","[[0,0,0],[2,3],[1]]","12","0","","","","","","4","","","","","","","","",""
"","","","","","single-stim-button","200","386651","0.0-2.0-46.5-0.5","5df441f8dc853530e500adc1","E1","batch5","","1806","tol_tohand","","","","tol_peg_3","1806","1806","0","[[1,3,0],[0,0],[0]]","6","[[0,0,0],[2,3],[1]]","12","0","","","","","","4","","","","","","","","",""
"","","","","","single-stim-button","201","387080","0.0-2.0-46.5-1.5","5df441f8dc853530e500adc1","E1","batch5","","427","tol_toboard","","","","tol_peg_2","427","427","0","[[1,3,0],[2,0],[0]]","6","[[0,0,0],[2,3],[1]]","12","0","","","","","","4","","","","","","","","",""
"","","","","","single-stim-button","202","387593","0.0-2.0-46.6-0.6","5df441f8dc853530e500adc1","E1","batch5","","509","tol_tohand","","","","tol_peg_1","509","509","0","[[1,0,0],[2,0],[0]]","7","[[0,0,0],[2,3],[1]]","12","0","","","","","","4","","","","","","","","",""
"","","","","","single-stim-button","203","391589","0.0-2.0-46.6-1.6","5df441f8dc853530e500adc1","E1","batch5","","3993","tol_toboard","","","","tol_peg_2","3993","3993","0","[[1,0,0],[2,3],[0]]","7","[[0,0,0],[2,3],[1]]","12","0","","","","","","4","","","","","","","","",""
"","","","","","single-stim-button","204","392259","0.0-2.0-46.7-0.7","5df441f8dc853530e500adc1","E1","batch5","","668","tol_tohand","","","","tol_peg_1","668","668","0","[[0,0,0],[2,3],[0]]","8","[[0,0,0],[2,3],[1]]","12","0","","","","","","4","","","","","","","","",""
"","","","","","single-stim-button","205","392680","0.0-2.0-46.7-1.7","5df441f8dc853530e500adc1","E1","batch5","","418","tol_toboard","","","","tol_peg_3","418","418","0","[[0,0,0],[2,3],[1]]","8","[[0,0,0],[2,3],[1]]","12","0","","","","","","4","","","","","","","","",""
"","","","","","poldrack-single-stim","206","393684","0.0-2.0-47.0","5df441f8dc853530e500adc1","E1","batch5","","-1","tol_feedback","","","true","","1000","1000","500","","","","","","-1","none","true","2904","13683","","","","","","","","","",""
"","","","","","html-button-response","207","395951","0.0-2.0-48.0","5df441f8dc853530e500adc1","E1","batch5","","2265.999999999942","attention_check","<p class = block-text>How many balls are in your board<br></p>","1","true","","","","","","","","","","","","","","","","","","","","","","","",""
"","","","","","html-button-response","208","396622","0.0-2.0-49.0","5df441f8dc853530e500adc1","E1","batch5","","669.9999999999418","tol_trial_num","<div class = centerbox><p class = center-block-text>problem <strong>14</strong> out of 25 problems</p></div>","0","","","","","","","","","","","","","","","","","","","","","","","","",""
"","","","","","single-stim-button","209","405460","0.0-2.0-50.0-0.0","5df441f8dc853530e500adc1","E1","batch5","","8836","tol_tohand","","","","tol_peg_1","8836","8836","0","[[2,0,0],[3,0],[0]]","1","[[1,2,0],[3,0],[0]]","13","0","","","","","","4","","","","","","","","",""
"","","","","","single-stim-button","210","406318","0.0-2.0-50.0-1.0","5df441f8dc853530e500adc1","E1","batch5","","856","tol_toboard","","","","tol_peg_2","856","856","0","[[2,0,0],[3,1],[0]]","1","[[1,2,0],[3,0],[0]]","13","0","","","","","","4","","","","","","","","",""
"","","","","","single-stim-button","211","406726","0.0-2.0-50.1-0.1","5df441f8dc853530e500adc1","E1","batch5","","406","tol_tohand","","","","tol_peg_1","406","406","0","[[0,0,0],[3,1],[0]]","2","[[1,2,0],[3,0],[0]]","13","0","","","","","","4","","","","","","","","",""
"","","","","","single-stim-button","212","407109","0.0-2.0-50.1-1.1","5df441f8dc853530e500adc1","E1","batch5","","381","tol_toboard","","","","tol_peg_3","381","381","0","[[0,0,0],[3,1],[2]]","2","[[1,2,0],[3,0],[0]]","13","0","","","","","","4","","","","","","","","",""
"","","","","","single-stim-button","213","407530","0.0-2.0-50.2-0.2","5df441f8dc853530e500adc1","E1","batch5","","418","tol_tohand","","","","tol_peg_2","418","418","0","[[0,0,0],[3,0],[2]]","3","[[1,2,0],[3,0],[0]]","13","0","","","","","","4","","","","","","","","",""
"","","","","","single-stim-button","214","407888","0.0-2.0-50.2-1.2","5df441f8dc853530e500adc1","E1","batch5","","355","tol_toboard","","","","tol_peg_1","355","355","0","[[1,0,0],[3,0],[2]]","3","[[1,2,0],[3,0],[0]]","13","0","","","","","","4","","","","","","","","",""
"","","","","","single-stim-button","215","408947","0.0-2.0-50.3-0.3","5df441f8dc853530e500adc1","E1","batch5","","1057","tol_tohand","","","","tol_peg_3","1057","1057","0","[[1,0,0],[3,0],[0]]","4","[[1,2,0],[3,0],[0]]","13","0","","","","","","4","","","","","","","","",""
"","","","","","single-stim-button","216","409472","0.0-2.0-50.3-1.3","5df441f8dc853530e500adc1","E1","batch5","","523","tol_toboard","","","","tol_peg_1","523","523","0","[[1,2,0],[3,0],[0]]","4","[[1,2,0],[3,0],[0]]","13","0","","","","","","4","","","","","","","","",""
"","","","","","poldrack-single-stim","217","410477","0.0-2.0-51.0","5df441f8dc853530e500adc1","E1","batch5","","-1","tol_feedback","","","true","","1000","1000","500","","","","","","-1","none","true","8836","10717","","","","","","","","","",""
"","","","","","html-button-response","218","411322","0.0-2.0-52.0","5df441f8dc853530e500adc1","E1","batch5","","843.0000000000582","tol_trial_num","<div class = centerbox><p class = center-block-text>problem <strong>15</strong> out of 25 problems</p></div>","0","","","","","","","","","","","","","","","","","","","","","","","","",""
"","","","","","single-stim-button","219","416297","0.0-2.0-53.0-0.0","5df441f8dc853530e500adc1","E1","batch5","","4974","tol_tohand","","","","tol_peg_1","4974","4974","0","[[1,0,0],[3,0],[0]]","1","[[2,0,0],[3,0],[1]]","14","0","","","","","","3","","","","","","","","",""
"","","","","","single-stim-button","220","416940","0.0-2.0-53.0-1.0","5df441f8dc853530e500adc1","E1","batch5","","639","tol_toboard","","","","tol_peg_2","639","639","0","[[1,0,0],[3,2],[0]]","1","[[2,0,0],[3,0],[1]]","14","0","","","","","","3","","","","","","","","",""
"","","","","","single-stim-button","221","417376","0.0-2.0-53.1-0.1","5df441f8dc853530e500adc1","E1","batch5","","433","tol_tohand","","","","tol_peg_1","433","433","0","[[0,0,0],[3,2],[0]]","2","[[2,0,0],[3,0],[1]]","14","0","","","","","","3","","","","","","","","",""
"","","","","","single-stim-button","222","417876","0.0-2.0-53.1-1.1","5df441f8dc853530e500adc1","E1","batch5","","497","tol_toboard","","","","tol_peg_3","497","497","0","[[0,0,0],[3,2],[1]]","2","[[2,0,0],[3,0],[1]]","14","0","","","","","","3","","","","","","","","",""
"","","","","","single-stim-button","223","418293","0.0-2.0-53.2-0.2","5df441f8dc853530e500adc1","E1","batch5","","414","tol_tohand","","","","tol_peg_2","414","414","0","[[0,0,0],[3,0],[1]]","3","[[2,0,0],[3,0],[1]]","14","0","","","","","","3","","","","","","","","",""
"","","","","","single-stim-button","224","418684","0.0-2.0-53.2-1.2","5df441f8dc853530e500adc1","E1","batch5","","388","tol_toboard","","","","tol_peg_1","388","388","0","[[2,0,0],[3,0],[1]]","3","[[2,0,0],[3,0],[1]]","14","0","","","","","","3","","","","","","","","",""
"","","","","","poldrack-single-stim","225","419689","0.0-2.0-54.0","5df441f8dc853530e500adc1","E1","batch5","","-1","tol_feedback","","","true","","1000","1000","500","","","","","","-1","none","true","4974","5821","","","","","","","","","",""
"","","","","","html-button-response","226","420351","0.0-2.0-55.0","5df441f8dc853530e500adc1","E1","batch5","","660.0000000000582","tol_trial_num","<div class = centerbox><p class = center-block-text>problem <strong>16</strong> out of 25 problems</p></div>","0","","","","","","","","","","","","","","","","","","","","","","","","",""
"","","","","","single-stim-button","227","430243","0.0-2.0-56.0-0.0","5df441f8dc853530e500adc1","E1","batch5","","9891","tol_tohand","","","","tol_peg_2","9891","9891","0","[[0,0,0],[2,0],[1]]","1","[[2,3,0],[1,0],[0]]","15","0","","","","","","7","","","","","","","","",""
"","","","","","single-stim-button","228","430884","0.0-2.0-56.0-1.0","5df441f8dc853530e500adc1","E1","batch5","","640","tol_toboard","","","","tol_peg_1","640","640","0","[[3,0,0],[2,0],[1]]","1","[[2,3,0],[1,0],[0]]","15","0","","","","","","7","","","","","","","","",""
"","","","","","single-stim-button","229","432801","0.0-2.0-56.1-0.1","5df441f8dc853530e500adc1","E1","batch5","","1913","tol_tohand","","","","tol_peg_2","1913","1913","0","[[3,0,0],[0,0],[1]]","2","[[2,3,0],[1,0],[0]]","15","0","","","","","","7","","","","","","","","",""
"","","","","","single-stim-button","230","433297","0.0-2.0-56.1-1.1","5df441f8dc853530e500adc1","E1","batch5","","495","tol_toboard","","","","tol_peg_1","495","495","0","[[3,2,0],[0,0],[1]]","2","[[2,3,0],[1,0],[0]]","15","0","","","","","","7","","","","","","","","",""
"","","","","","single-stim-button","231","434268","0.0-2.0-56.2-0.2","5df441f8dc853530e500adc1","E1","batch5","","969","tol_tohand","","","","tol_peg_3","969","969","0","[[3,2,0],[0,0],[0]]","3","[[2,3,0],[1,0],[0]]","15","0","","","","","","7","","","","","","","","",""
"","","","","","single-stim-button","232","434926","0.0-2.0-56.2-1.2","5df441f8dc853530e500adc1","E1","batch5","","656","tol_toboard","","","","tol_peg_2","656","656","0","[[3,2,0],[1,0],[0]]","3","[[2,3,0],[1,0],[0]]","15","0","","","","","","7","","","","","","","","",""
"","","","","","single-stim-button","233","435751","0.0-2.0-56.3-0.3","5df441f8dc853530e500adc1","E1","batch5","","823","tol_tohand","","","","tol_peg_1","823","823","0","[[3,0,0],[1,0],[0]]","4","[[2,3,0],[1,0],[0]]","15","0","","","","","","7","","","","","","","","",""
"","","","","","single-stim-button","234","436480","0.0-2.0-56.3-1.3","5df441f8dc853530e500adc1","E1","batch5","","728","tol_toboard","","","","tol_peg_3","728","728","0","[[3,0,0],[1,0],[2]]","4","[[2,3,0],[1,0],[0]]","15","0","","","","","","7","","","","","","","","",""
"","","","","","single-stim-button","235","438188","0.0-2.0-56.4-0.4","5df441f8dc853530e500adc1","E1","batch5","","1705","tol_tohand","","","","tol_peg_1","1705","1705","0","[[0,0,0],[1,0],[2]]","5","[[2,3,0],[1,0],[0]]","15","0","","","","","","7","","","","","","","","",""
"","","","","","single-stim-button","236","438717","0.0-2.0-56.4-1.4","5df441f8dc853530e500adc1","E1","batch5","","526","tol_toboard","","","","tol_peg_2","526","526","0","[[0,0,0],[1,3],[2]]","5","[[2,3,0],[1,0],[0]]","15","0","","","","","","7","","","","","","","","",""
"","","","","","single-stim-button","237","439151","0.0-2.0-56.5-0.5","5df441f8dc853530e500adc1","E1","batch5","","431","tol_tohand","","","","tol_peg_3","431","431","0","[[0,0,0],[1,3],[0]]","6","[[2,3,0],[1,0],[0]]","15","0","","","","","","7","","","","","","","","",""
"","","","","","single-stim-button","238","439551","0.0-2.0-56.5-1.5","5df441f8dc853530e500adc1","E1","batch5","","397","tol_toboard","","","","tol_peg_1","397","397","0","[[2,0,0],[1,3],[0]]","6","[[2,3,0],[1,0],[0]]","15","0","","","","","","7","","","","","","","","",""
"","","","","","single-stim-button","239","439967","0.0-2.0-56.6-0.6","5df441f8dc853530e500adc1","E1","batch5","","414","tol_tohand","","","","tol_peg_2","414","414","0","[[2,0,0],[1,0],[0]]","7","[[2,3,0],[1,0],[0]]","15","0","","","","","","7","","","","","","","","",""
"","","","","","single-stim-button","240","440930","0.0-2.0-56.6-1.6","5df441f8dc853530e500adc1","E1","batch5","","960","tol_toboard","","","","tol_peg_1","960","960","0","[[2,3,0],[1,0],[0]]","7","[[2,3,0],[1,0],[0]]","15","0","","","","","","7","","","","","","","","",""
"","","","","","poldrack-single-stim","241","441936","0.0-2.0-57.0","5df441f8dc853530e500adc1","E1","batch5","","-1","tol_feedback","","","true","","1000","1000","500","","","","","","-1","none","true","9891","16146","","","","","","","","","",""
"","","","","","html-button-response","242","442951","0.0-2.0-58.0","5df441f8dc853530e500adc1","E1","batch5","","1014","tol_trial_num","<div class = centerbox><p class = center-block-text>problem <strong>17</strong> out of 25 problems</p></div>","0","","","","","","","","","","","","","","","","","","","","","","","","",""
"","","","","","single-stim-button","243","448335","0.0-2.0-59.0-0.0","5df441f8dc853530e500adc1","E1","batch5","","5378","tol_tohand","","","","tol_peg_2","5378","5378","0","[[1,2,0],[0,0],[0]]","1","[[3,1,0],[2,0],[0]]","16","0","","","","","","5","","","","","","","","",""
"","","","","","single-stim-button","244","448910","0.0-2.0-59.0-1.0","5df441f8dc853530e500adc1","E1","batch5","","573","tol_toboard","","","","tol_peg_3","573","573","0","[[1,2,0],[0,0],[3]]","1","[[3,1,0],[2,0],[0]]","16","0","","","","","","5","","","","","","","","",""
"","","","","","single-stim-button","245","449568","0.0-2.0-59.1-0.1","5df441f8dc853530e500adc1","E1","batch5","","654","tol_tohand","","","","tol_peg_1","654","654","0","[[1,0,0],[0,0],[3]]","2","[[3,1,0],[2,0],[0]]","16","0","","","","","","5","","","","","","","","",""
"","","","","","single-stim-button","246","450105","0.0-2.0-59.1-1.1","5df441f8dc853530e500adc1","E1","batch5","","535","tol_toboard","","","","tol_peg_2","535","535","0","[[1,0,0],[2,0],[3]]","2","[[3,1,0],[2,0],[0]]","16","0","","","","","","5","","","","","","","","",""
"","","","","","single-stim-button","247","451373","0.0-2.0-59.2-0.2","5df441f8dc853530e500adc1","E1","batch5","","1266","tol_tohand","","","","tol_peg_1","1266","1266","0","[[0,0,0],[2,0],[3]]","3","[[3,1,0],[2,0],[0]]","16","0","","","","","","5","","","","","","","","",""
"","","","","","single-stim-button","248","452322","0.0-2.0-59.2-1.2","5df441f8dc853530e500adc1","E1","batch5","","941","tol_toboard","","","","tol_peg_2","941","941","0","[[0,0,0],[2,1],[3]]","3","[[3,1,0],[2,0],[0]]","16","0","","","","","","5","","","","","","","","",""
"","","","","","single-stim-button","249","452655","0.0-2.0-59.3-0.3","5df441f8dc853530e500adc1","E1","batch5","","331","tol_tohand","","","","tol_peg_3","331","331","0","[[0,0,0],[2,1],[0]]","4","[[3,1,0],[2,0],[0]]","16","0","","","","","","5","","","","","","","","",""
"","","","","","single-stim-button","250","453051","0.0-2.0-59.3-1.3","5df441f8dc853530e500adc1","E1","batch5","","393","tol_toboard","","","","tol_peg_1","393","393","0","[[3,0,0],[2,1],[0]]","4","[[3,1,0],[2,0],[0]]","16","0","","","","","","5","","","","","","","","",""
"","","","","","single-stim-button","251","453384","0.0-2.0-59.4-0.4","5df441f8dc853530e500adc1","E1","batch5","","330","tol_tohand","","","","tol_peg_2","330","330","0","[[3,0,0],[2,0],[0]]","5","[[3,1,0],[2,0],[0]]","16","0","","","","","","5","","","","","","","","",""
"","","","","","single-stim-button","252","454230","0.0-2.0-59.4-1.4","5df441f8dc853530e500adc1","E1","batch5","","843","tol_toboard","","","","tol_peg_1","843","843","0","[[3,1,0],[2,0],[0]]","5","[[3,1,0],[2,0],[0]]","16","0","","","","","","5","","","","","","","","",""
"","","","","","poldrack-single-stim","253","455236","0.0-2.0-60.0","5df441f8dc853530e500adc1","E1","batch5","","-1","tol_feedback","","","true","","1000","1000","500","","","","","","-1","none","true","5378","7959","","","","","","","","","",""
"","","","","","html-button-response","254","456047","0.0-2.0-61.0","5df441f8dc853530e500adc1","E1","batch5","","810","tol_trial_num","<div class = centerbox><p class = center-block-text>problem <strong>18</strong> out of 25 problems</p></div>","0","","","","","","","","","","","","","","","","","","","","","","","","",""
"","","","","","single-stim-button","255","459989","0.0-2.0-62.0-0.0","5df441f8dc853530e500adc1","E1","batch5","","3942","tol_tohand","","","","tol_peg_1","3942","3942","0","[[1,0,0],[3,0],[0]]","1","[[3,0,0],[2,0],[1]]","17","0","","","","","","5","","","","","","","","",""
"","","","","","single-stim-button","256","460347","0.0-2.0-62.0-1.0","5df441f8dc853530e500adc1","E1","batch5","","355","tol_toboard","","","","tol_peg_2","355","355","0","[[1,0,0],[3,2],[0]]","1","[[3,0,0],[2,0],[1]]","17","0","","","","","","5","","","","","","","","",""
"","","","","","single-stim-button","257","460989","0.0-2.0-62.1-0.1","5df441f8dc853530e500adc1","E1","batch5","","639","tol_tohand","","","","tol_peg_1","639","639","0","[[0,0,0],[3,2],[0]]","2","[[3,0,0],[2,0],[1]]","17","0","","","","","","5","","","","","","","","",""
"","","","","","single-stim-button","258","461484","0.0-2.0-62.1-1.1","5df441f8dc853530e500adc1","E1","batch5","","492","tol_toboard","","","","tol_peg_3","492","492","0","[[0,0,0],[3,2],[1]]","2","[[3,0,0],[2,0],[1]]","17","0","","","","","","5","","","","","","","","",""
"","","","","","single-stim-button","259","469314","0.0-2.0-62.2-0.2","5df441f8dc853530e500adc1","E1","batch5","","7826","tol_tohand","","","","tol_peg_3","7826","7826","0","[[0,0,0],[3,2],[0]]","3","[[3,0,0],[2,0],[1]]","17","0","","","","","","5","","","","","","","","",""
"","","","","","single-stim-button","260","469771","0.0-2.0-62.2-1.2","5df441f8dc853530e500adc1","E1","batch5","","455","tol_toboard","","","","tol_peg_1","455","455","0","[[1,0,0],[3,2],[0]]","3","[[3,0,0],[2,0],[1]]","17","0","","","","","","5","","","","","","","","",""
"","","","","","single-stim-button","261","471768","0.0-2.0-62.3-0.3","5df441f8dc853530e500adc1","E1","batch5","","1994","tol_tohand","","","","tol_peg_2","1994","1994","0","[[1,0,0],[3,0],[0]]","4","[[3,0,0],[2,0],[1]]","17","0","","","","","","5","","","","","","","","",""
"","","","","","single-stim-button","262","472272","0.0-2.0-62.3-1.3","5df441f8dc853530e500adc1","E1","batch5","","503","tol_toboard","","","","tol_peg_3","503","503","0","[[1,0,0],[3,0],[2]]","4","[[3,0,0],[2,0],[1]]","17","0","","","","","","5","","","","","","","","",""
"","","","","","single-stim-button","263","476514","0.0-2.0-62.4-0.4","5df441f8dc853530e500adc1","E1","batch5","","4238","tol_tohand","","","","tol_peg_3","4238","4238","0","[[1,0,0],[3,0],[0]]","5","[[3,0,0],[2,0],[1]]","17","0","","","","","","5","","","","","","","","",""
"","","","","","single-stim-button","264","476909","0.0-2.0-62.4-1.4","5df441f8dc853530e500adc1","E1","batch5","","393","tol_toboard","","","","tol_peg_2","393","393","0","[[1,0,0],[3,2],[0]]","5","[[3,0,0],[2,0],[1]]","17","0","","","","","","5","","","","","","","","",""
"","","","","","single-stim-button","265","477568","0.0-2.0-62.5-0.5","5df441f8dc853530e500adc1","E1","batch5","","656","tol_tohand","","","","tol_peg_1","656","656","0","[[0,0,0],[3,2],[0]]","6","[[3,0,0],[2,0],[1]]","17","0","","","","","","5","","","","","","","","",""
"","","","","","single-stim-button","266","478127","0.0-2.0-62.5-1.5","5df441f8dc853530e500adc1","E1","batch5","","554","tol_toboard","","","","tol_peg_3","554","554","0","[[0,0,0],[3,2],[1]]","6","[[3,0,0],[2,0],[1]]","17","0","","","","","","5","","","","","","","","",""
"","","","","","single-stim-button","267","480068","0.0-2.0-62.6-0.6","5df441f8dc853530e500adc1","E1","batch5","","1936","tol_tohand","","","","tol_peg_2","1936","1936","0","[[0,0,0],[3,0],[1]]","7","[[3,0,0],[2,0],[1]]","17","0","","","","","","5","","","","","","","","",""
"","","","","","single-stim-button","268","481993","0.0-2.0-62.6-1.6","5df441f8dc853530e500adc1","E1","batch5","","1923","tol_toboard","","","","tol_peg_2","1923","1923","0","[[0,0,0],[3,2],[1]]","7","[[3,0,0],[2,0],[1]]","17","0","","","","","","5","","","","","","","","",""
"","","","","","single-stim-button","269","483214","0.0-2.0-62.7-0.7","5df441f8dc853530e500adc1","E1","batch5","","1219","tol_tohand","","","","tol_peg_2","1219","1219","0","[[0,0,0],[3,0],[1]]","8","[[3,0,0],[2,0],[1]]","17","0","","","","","","5","","","","","","","","",""
"","","","","","single-stim-button","270","484168","0.0-2.0-62.7-1.7","5df441f8dc853530e500adc1","E1","batch5","","951","tol_toboard","","","","tol_peg_1","951","951","0","[[2,0,0],[3,0],[1]]","8","[[3,0,0],[2,0],[1]]","17","0","","","","","","5","","","","","","","","",""
"","","","","","single-stim-button","271","485009","0.0-2.0-62.8-0.8","5df441f8dc853530e500adc1","E1","batch5","","838","tol_tohand","","","","tol_peg_2","838","838","0","[[2,0,0],[0,0],[1]]","9","[[3,0,0],[2,0],[1]]","17","0","","","","","","5","","","","","","","","",""
"","","","","","single-stim-button","272","487081","0.0-2.0-62.8-1.8","5df441f8dc853530e500adc1","E1","batch5","","2069","tol_toboard","","","","tol_peg_1","2069","2069","0","[[2,3,0],[0,0],[1]]","9","[[3,0,0],[2,0],[1]]","17","0","","","","","","5","","","","","","","","",""
"","","","","","single-stim-button","273","489952","0.0-2.0-62.9-0.9","5df441f8dc853530e500adc1","E1","batch5","","2867","tol_tohand","","","","tol_peg_1","2867","2867","0","[[2,0,0],[0,0],[1]]","10","[[3,0,0],[2,0],[1]]","17","0","","","","","","5","","","","","","","","",""
"","","","","","single-stim-button","274","490985","0.0-2.0-62.9-1.9","5df441f8dc853530e500adc1","E1","batch5","","1031","tol_toboard","","","","tol_peg_1","1031","1031","0","[[2,3,0],[0,0],[1]]","10","[[3,0,0],[2,0],[1]]","17","0","","","","","","5","","","","","","","","",""
"","","","","","single-stim-button","275","492138","0.0-2.0-62.10-0.10","5df441f8dc853530e500adc1","E1","batch5","","1150","tol_tohand","","","","tol_peg_3","1150","1150","0","[[2,3,0],[0,0],[0]]","11","[[3,0,0],[2,0],[1]]","17","0","","","","","","5","","","","","","","","",""
"","","","","","single-stim-button","276","492518","0.0-2.0-62.10-1.10","5df441f8dc853530e500adc1","E1","batch5","","376","tol_toboard","","","","tol_peg_2","376","376","0","[[2,3,0],[1,0],[0]]","11","[[3,0,0],[2,0],[1]]","17","0","","","","","","5","","","","","","","","",""
"","","","","","single-stim-button","277","493023","0.0-2.0-62.11-0.11","5df441f8dc853530e500adc1","E1","batch5","","501","tol_tohand","","","","tol_peg_1","501","501","0","[[2,0,0],[1,0],[0]]","12","[[3,0,0],[2,0],[1]]","17","0","","","","","","5","","","","","","","","",""
"","","","","","single-stim-button","278","493388","0.0-2.0-62.11-1.11","5df441f8dc853530e500adc1","E1","batch5","","363","tol_toboard","","","","tol_peg_3","363","363","0","[[2,0,0],[1,0],[3]]","12","[[3,0,0],[2,0],[1]]","17","0","","","","","","5","","","","","","","","",""
"","","","","","single-stim-button","279","494297","0.0-2.0-62.12-0.12","5df441f8dc853530e500adc1","E1","batch5","","908","tol_tohand","","","","tol_peg_1","908","908","0","[[0,0,0],[1,0],[3]]","13","[[3,0,0],[2,0],[1]]","17","0","","","","","","5","","","","","","","","",""
"","","","","","single-stim-button","280","494723","0.0-2.0-62.12-1.12","5df441f8dc853530e500adc1","E1","batch5","","423","tol_toboard","","","","tol_peg_2","423","423","0","[[0,0,0],[1,2],[3]]","13","[[3,0,0],[2,0],[1]]","17","0","","","","","","5","","","","","","","","",""
"","","","","","single-stim-button","281","495910","0.0-2.0-62.13-0.13","5df441f8dc853530e500adc1","E1","batch5","","1183","tol_tohand","","","","tol_peg_3","1183","1183","0","[[0,0,0],[1,2],[0]]","14","[[3,0,0],[2,0],[1]]","17","0","","","","","","5","","","","","","","","",""
"","","","","","single-stim-button","282","496364","0.0-2.0-62.13-1.13","5df441f8dc853530e500adc1","E1","batch5","","451","tol_toboard","","","","tol_peg_1","451","451","0","[[3,0,0],[1,2],[0]]","14","[[3,0,0],[2,0],[1]]","17","0","","","","","","5","","","","","","","","",""
"","","","","","single-stim-button","283","497743","0.0-2.0-62.14-0.14","5df441f8dc853530e500adc1","E1","batch5","","1376","tol_tohand","","","","tol_peg_2","1376","1376","0","[[3,0,0],[1,0],[0]]","15","[[3,0,0],[2,0],[1]]","17","0","","","","","","5","","","","","","","","",""
"","","","","","single-stim-button","284","498626","0.0-2.0-62.14-1.14","5df441f8dc853530e500adc1","E1","batch5","","882","tol_toboard","","","","tol_peg_1","882","882","0","[[3,2,0],[1,0],[0]]","15","[[3,0,0],[2,0],[1]]","17","0","","","","","","5","","","","","","","","",""
"","","","","","single-stim-button","285","499118","0.0-2.0-62.15-0.15","5df441f8dc853530e500adc1","E1","batch5","","490","tol_tohand","","","","tol_peg_2","490","490","0","[[3,2,0],[0,0],[0]]","16","[[3,0,0],[2,0],[1]]","17","0","","","","","","5","","","","","","","","",""
"","","","","","single-stim-button","286","499664","0.0-2.0-62.15-1.15","5df441f8dc853530e500adc1","E1","batch5","","543","tol_toboard","","","","tol_peg_3","543","543","0","[[3,2,0],[0,0],[1]]","16","[[3,0,0],[2,0],[1]]","17","0","","","","","","5","","","","","","","","",""
"","","","","","single-stim-button","287","500239","0.0-2.0-62.16-0.16","5df441f8dc853530e500adc1","E1","batch5","","571","tol_tohand","","","","tol_peg_1","571","571","0","[[3,0,0],[0,0],[1]]","17","[[3,0,0],[2,0],[1]]","17","0","","","","","","5","","","","","","","","",""
"","","","","","single-stim-button","288","500601","0.0-2.0-62.16-1.16","5df441f8dc853530e500adc1","E1","batch5","","359","tol_toboard","","","","tol_peg_2","359","359","0","[[3,0,0],[2,0],[1]]","17","[[3,0,0],[2,0],[1]]","17","0","","","","","","5","","","","","","","","",""
"","","","","","poldrack-single-stim","289","501603","0.0-2.0-63.0","5df441f8dc853530e500adc1","E1","batch5","","-1","tol_feedback","","","true","","1000","1000","500","","","","","","-1","none","true","3942","32334","","","","","","","","","",""
"","","","","","html-button-response","290","502622","0.0-2.0-64.0","5df441f8dc853530e500adc1","E1","batch5","","1017","tol_trial_num","<div class = centerbox><p class = center-block-text>problem <strong>19</strong> out of 25 problems</p></div>","0","","","","","","","","","","","","","","","","","","","","","","","","",""
"","","","","","single-stim-button","291","505797","0.0-2.0-65.0-0.0","5df441f8dc853530e500adc1","E1","batch5","","3174","tol_tohand","","","","tol_peg_2","3174","3174","0","[[1,2,0],[0,0],[0]]","1","[[0,0,0],[1,2],[3]]","18","0","","","","","","7","","","","","","","","",""
"","","","","","single-stim-button","292","507368","0.0-2.0-65.0-1.0","5df441f8dc853530e500adc1","E1","batch5","","1568","tol_toboard","","","","tol_peg_3","1568","1568","0","[[1,2,0],[0,0],[3]]","1","[[0,0,0],[1,2],[3]]","18","0","","","","","","7","","","","","","","","",""
"","","","","","single-stim-button","293","512622","0.0-2.0-65.1-0.1","5df441f8dc853530e500adc1","E1","batch5","","5252","tol_tohand","","","","tol_peg_3","5252","5252","0","[[1,2,0],[0,0],[0]]","2","[[0,0,0],[1,2],[3]]","18","0","","","","","","7","","","","","","","","",""
"","","","","","single-stim-button","294","513030","0.0-2.0-65.1-1.1","5df441f8dc853530e500adc1","E1","batch5","","406","tol_toboard","","","","tol_peg_2","406","406","0","[[1,2,0],[3,0],[0]]","2","[[0,0,0],[1,2],[3]]","18","0","","","","","","7","","","","","","","","",""
"","","","","","single-stim-button","295","513868","0.0-2.0-65.2-0.2","5df441f8dc853530e500adc1","E1","batch5","","835","tol_tohand","","","","tol_peg_1","835","835","0","[[1,0,0],[3,0],[0]]","3","[[0,0,0],[1,2],[3]]","18","0","","","","","","7","","","","","","","","",""
"","","","","","single-stim-button","296","514451","0.0-2.0-65.2-1.2","5df441f8dc853530e500adc1","E1","batch5","","579","tol_toboard","","","","tol_peg_3","579","579","0","[[1,0,0],[3,0],[2]]","3","[[0,0,0],[1,2],[3]]","18","0","","","","","","7","","","","","","","","",""
"","","","","","single-stim-button","297","516081","0.0-2.0-65.3-0.3","5df441f8dc853530e500adc1","E1","batch5","","1627","tol_tohand","","","","tol_peg_1","1627","1627","0","[[0,0,0],[3,0],[2]]","4","[[0,0,0],[1,2],[3]]","18","0","","","","","","7","","","","","","","","",""
"","","","","","single-stim-button","298","518806","0.0-2.0-65.3-1.3","5df441f8dc853530e500adc1","E1","batch5","","2723","tol_toboard","","","","tol_peg_2","2723","2723","0","[[0,0,0],[3,1],[2]]","4","[[0,0,0],[1,2],[3]]","18","0","","","","","","7","","","","","","","","",""
"","","","","","single-stim-button","299","520893","0.0-2.0-65.4-0.4","5df441f8dc853530e500adc1","E1","batch5","","2085","tol_tohand","","","","tol_peg_3","2085","2085","0","[[0,0,0],[3,1],[0]]","5","[[0,0,0],[1,2],[3]]","18","0","","","","","","7","","","","","","","","",""
"","","","","","single-stim-button","300","521459","0.0-2.0-65.4-1.4","5df441f8dc853530e500adc1","E1","batch5","","562","tol_toboard","","","","tol_peg_1","562","562","0","[[2,0,0],[3,1],[0]]","5","[[0,0,0],[1,2],[3]]","18","0","","","","","","7","","","","","","","","",""
"","","","","","single-stim-button","301","522247","0.0-2.0-65.5-0.5","5df441f8dc853530e500adc1","E1","batch5","","787","tol_tohand","","","","tol_peg_2","787","787","0","[[2,0,0],[3,0],[0]]","6","[[0,0,0],[1,2],[3]]","18","0","","","","","","7","","","","","","","","",""
"","","","","","single-stim-button","302","522943","0.0-2.0-65.5-1.5","5df441f8dc853530e500adc1","E1","batch5","","693","tol_toboard","","","","tol_peg_1","693","693","0","[[2,1,0],[3,0],[0]]","6","[[0,0,0],[1,2],[3]]","18","0","","","","","","7","","","","","","","","",""
"","","","","","single-stim-button","303","523600","0.0-2.0-65.6-0.6","5df441f8dc853530e500adc1","E1","batch5","","654","tol_tohand","","","","tol_peg_2","654","654","0","[[2,1,0],[0,0],[0]]","7","[[0,0,0],[1,2],[3]]","18","0","","","","","","7","","","","","","","","",""
"","","","","","single-stim-button","304","524050","0.0-2.0-65.6-1.6","5df441f8dc853530e500adc1","E1","batch5","","447","tol_toboard","","","","tol_peg_3","447","447","0","[[2,1,0],[0,0],[3]]","7","[[0,0,0],[1,2],[3]]","18","0","","","","","","7","","","","","","","","",""
"","","","","","single-stim-button","305","524233","0.0-2.0-65.7-0.7","5df441f8dc853530e500adc1","E1","batch5","","180","tol_tohand","","","","tol_peg_3","180","180","0","[[2,1,0],[0,0],[0]]","8","[[0,0,0],[1,2],[3]]","18","0","","","","","","7","","","","","","","","",""
"","","","","","single-stim-button","306","525229","0.0-2.0-65.7-1.7","5df441f8dc853530e500adc1","E1","batch5","","994","tol_toboard","","","","tol_peg_3","994","994","0","[[2,1,0],[0,0],[3]]","8","[[0,0,0],[1,2],[3]]","18","0","","","","","","7","","","","","","","","",""
"","","","","","single-stim-button","307","525870","0.0-2.0-65.8-0.8","5df441f8dc853530e500adc1","E1","batch5","","637","tol_tohand","","","","tol_peg_1","637","637","0","[[2,0,0],[0,0],[3]]","9","[[0,0,0],[1,2],[3]]","18","0","","","","","","7","","","","","","","","",""
"","","","","","single-stim-button","308","526366","0.0-2.0-65.8-1.8","5df441f8dc853530e500adc1","E1","batch5","","493","tol_toboard","","","","tol_peg_2","493","493","0","[[2,0,0],[1,0],[3]]","9","[[0,0,0],[1,2],[3]]","18","0","","","","","","7","","","","","","","","",""
"","","","","","single-stim-button","309","526799","0.0-2.0-65.9-0.9","5df441f8dc853530e500adc1","E1","batch5","","429","tol_tohand","","","","tol_peg_1","429","429","0","[[0,0,0],[1,0],[3]]","10","[[0,0,0],[1,2],[3]]","18","0","","","","","","7","","","","","","","","",""
"","","","","","single-stim-button","310","527527","0.0-2.0-65.9-1.9","5df441f8dc853530e500adc1","E1","batch5","","726","tol_toboard","","","","tol_peg_2","726","726","0","[[0,0,0],[1,2],[3]]","10","[[0,0,0],[1,2],[3]]","18","0","","","","","","7","","","","","","","","",""
"","","","","","poldrack-single-stim","311","528532","0.0-2.0-66.0","5df441f8dc853530e500adc1","E1","batch5","","-1","tol_feedback","","","true","","1000","1000","500","","","","","","-1","none","true","3174","15660","","","","","","","","","",""
"","","","","","html-button-response","312","529235","0.0-2.0-67.0","5df441f8dc853530e500adc1","E1","batch5","","702","tol_trial_num","<div class = centerbox><p class = center-block-text>problem <strong>20</strong> out of 25 problems</p></div>","0","","","","","","","","","","","","","","","","","","","","","","","","",""
"","","","","","single-stim-button","313","530784","0.0-2.0-68.0-0.0","5df441f8dc853530e500adc1","E1","batch5","","1549","tol_tohand","","","","tol_peg_2","1549","1549","0","[[1,2,0],[0,0],[0]]","1","[[2,1,0],[0,0],[3]]","19","0","","","","","","5","","","","","","","","",""
"","","","","","single-stim-button","314","531468","0.0-2.0-68.0-1.0","5df441f8dc853530e500adc1","E1","batch5","","680","tol_toboard","","","","tol_peg_3","680","680","0","[[1,2,0],[0,0],[3]]","1","[[2,1,0],[0,0],[3]]","19","0","","","","","","5","","","","","","","","",""
"","","","","","single-stim-button","315","532316","0.0-2.0-68.1-0.1","5df441f8dc853530e500adc1","E1","batch5","","846","tol_tohand","","","","tol_peg_1","846","846","0","[[1,0,0],[0,0],[3]]","2","[[2,1,0],[0,0],[3]]","19","0","","","","","","5","","","","","","","","",""
"","","","","","single-stim-button","316","532925","0.0-2.0-68.1-1.1","5df441f8dc853530e500adc1","E1","batch5","","605","tol_toboard","","","","tol_peg_2","605","605","0","[[1,0,0],[2,0],[3]]","2","[[2,1,0],[0,0],[3]]","19","0","","","","","","5","","","","","","","","",""
"","","","","","single-stim-button","317","533375","0.0-2.0-68.2-0.2","5df441f8dc853530e500adc1","E1","batch5","","447","tol_tohand","","","","tol_peg_1","447","447","0","[[0,0,0],[2,0],[3]]","3","[[2,1,0],[0,0],[3]]","19","0","","","","","","5","","","","","","","","",""
"","","","","","single-stim-button","318","533766","0.0-2.0-68.2-1.2","5df441f8dc853530e500adc1","E1","batch5","","387","tol_toboard","","","","tol_peg_2","387","387","0","[[0,0,0],[2,1],[3]]","3","[[2,1,0],[0,0],[3]]","19","0","","","","","","5","","","","","","","","",""
"","","","","","single-stim-button","319","538165","0.0-2.0-68.3-0.3","5df441f8dc853530e500adc1","E1","batch5","","4395","tol_tohand","","","","tol_peg_3","4395","4395","0","[[0,0,0],[2,1],[0]]","4","[[2,1,0],[0,0],[3]]","19","0","","","","","","5","","","","","","","","",""
"","","","","","single-stim-button","320","538790","0.0-2.0-68.3-1.3","5df441f8dc853530e500adc1","E1","batch5","","621","tol_toboard","","","","tol_peg_1","621","621","0","[[3,0,0],[2,1],[0]]","4","[[2,1,0],[0,0],[3]]","19","0","","","","","","5","","","","","","","","",""
"","","","","","single-stim-button","321","539318","0.0-2.0-68.4-0.4","5df441f8dc853530e500adc1","E1","batch5","","526","tol_tohand","","","","tol_peg_2","526","526","0","[[3,0,0],[2,0],[0]]","5","[[2,1,0],[0,0],[3]]","19","0","","","","","","5","","","","","","","","",""
"","","","","","single-stim-button","322","541298","0.0-2.0-68.4-1.4","5df441f8dc853530e500adc1","E1","batch5","","1976","tol_toboard","","","","tol_peg_3","1976","1976","0","[[3,0,0],[2,0],[1]]","5","[[2,1,0],[0,0],[3]]","19","0","","","","","","5","","","","","","","","",""
"","","","","","single-stim-button","323","542190","0.0-2.0-68.5-0.5","5df441f8dc853530e500adc1","E1","batch5","","891","tol_tohand","","","","tol_peg_3","891","891","0","[[3,0,0],[2,0],[0]]","6","[[2,1,0],[0,0],[3]]","19","0","","","","","","5","","","","","","","","",""
"","","","","","single-stim-button","324","543159","0.0-2.0-68.5-1.5","5df441f8dc853530e500adc1","E1","batch5","","962","tol_toboard","","","","tol_peg_1","962","962","0","[[3,1,0],[2,0],[0]]","6","[[2,1,0],[0,0],[3]]","19","0","","","","","","5","","","","","","","","",""
"","","","","","single-stim-button","325","543584","0.0-2.0-68.6-0.6","5df441f8dc853530e500adc1","E1","batch5","","422","tol_tohand","","","","tol_peg_2","422","422","0","[[3,1,0],[0,0],[0]]","7","[[2,1,0],[0,0],[3]]","19","0","","","","","","5","","","","","","","","",""
"","","","","","single-stim-button","326","543976","0.0-2.0-68.6-1.6","5df441f8dc853530e500adc1","E1","batch5","","389","tol_toboard","","","","tol_peg_3","389","389","0","[[3,1,0],[0,0],[2]]","7","[[2,1,0],[0,0],[3]]","19","0","","","","","","5","","","","","","","","",""
"","","","","","single-stim-button","327","546663","0.0-2.0-68.7-0.7","5df441f8dc853530e500adc1","E1","batch5","","2684","tol_tohand","","","","tol_peg_1","2684","2684","0","[[3,0,0],[0,0],[2]]","8","[[2,1,0],[0,0],[3]]","19","0","","","","","","5","","","","","","","","",""
"","","","","","single-stim-button","328","547046","0.0-2.0-68.7-1.7","5df441f8dc853530e500adc1","E1","batch5","","381","tol_toboard","","","","tol_peg_2","381","381","0","[[3,0,0],[1,0],[2]]","8","[[2,1,0],[0,0],[3]]","19","0","","","","","","5","","","","","","","","",""
"","","","","","single-stim-button","329","547534","0.0-2.0-68.8-0.8","5df441f8dc853530e500adc1","E1","batch5","","485","tol_tohand","","","","tol_peg_1","485","485","0","[[0,0,0],[1,0],[2]]","9","[[2,1,0],[0,0],[3]]","19","0","","","","","","5","","","","","","","","",""
"","","","","","single-stim-button","330","548017","0.0-2.0-68.8-1.8","5df441f8dc853530e500adc1","E1","batch5","","480","tol_toboard","","","","tol_peg_2","480","480","0","[[0,0,0],[1,3],[2]]","9","[[2,1,0],[0,0],[3]]","19","0","","","","","","5","","","","","","","","",""
"","","","","","single-stim-button","331","548818","0.0-2.0-68.9-0.9","5df441f8dc853530e500adc1","E1","batch5","","799","tol_tohand","","","","tol_peg_3","799","799","0","[[0,0,0],[1,3],[0]]","10","[[2,1,0],[0,0],[3]]","19","0","","","","","","5","","","","","","","","",""
"","","","","","single-stim-button","332","549509","0.0-2.0-68.9-1.9","5df441f8dc853530e500adc1","E1","batch5","","684","tol_toboard","","","","tol_peg_1","684","684","0","[[2,0,0],[1,3],[0]]","10","[[2,1,0],[0,0],[3]]","19","0","","","","","","5","","","","","","","","",""
"","","","","","single-stim-button","333","550904","0.0-2.0-68.10-0.10","5df441f8dc853530e500adc1","E1","batch5","","1393","tol_tohand","","","","tol_peg_2","1393","1393","0","[[2,0,0],[1,0],[0]]","11","[[2,1,0],[0,0],[3]]","19","0","","","","","","5","","","","","","","","",""
"","","","","","single-stim-button","334","551262","0.0-2.0-68.10-1.10","5df441f8dc853530e500adc1","E1","batch5","","352","tol_toboard","","","","tol_peg_3","352","352","0","[[2,0,0],[1,0],[3]]","11","[[2,1,0],[0,0],[3]]","19","0","","","","","","5","","","","","","","","",""
"","","","","","single-stim-button","335","551808","0.0-2.0-68.11-0.11","5df441f8dc853530e500adc1","E1","batch5","","544","tol_tohand","","","","tol_peg_2","544","544","0","[[2,0,0],[0,0],[3]]","12","[[2,1,0],[0,0],[3]]","19","0","","","","","","5","","","","","","","","",""
"","","","","","single-stim-button","336","552324","0.0-2.0-68.11-1.11","5df441f8dc853530e500adc1","E1","batch5","","513","tol_toboard","","","","tol_peg_1","513","513","0","[[2,1,0],[0,0],[3]]","12","[[2,1,0],[0,0],[3]]","19","0","","","","","","5","","","","","","","","",""
"","","","","","poldrack-single-stim","337","553329","0.0-2.0-69.0","5df441f8dc853530e500adc1","E1","batch5","","-1","tol_feedback","","","true","","1000","1000","500","","","","","","-1","none","true","1549","14981","","","","","","","","","",""
"","","","","","html-button-response","338","554433","0.0-2.0-70.0","5df441f8dc853530e500adc1","E1","batch5","","1101.9999999998836","tol_trial_num","<div class = centerbox><p class = center-block-text>problem <strong>21</strong> out of 25 problems</p></div>","0","","","","","","","","","","","","","","","","","","","","","","","","",""
"","","","","","single-stim-button","339","557574","0.0-2.0-71.0-0.0","5df441f8dc853530e500adc1","E1","batch5","","3141","tol_tohand","","","","tol_peg_1","3141","3141","0","[[1,0,0],[3,0],[0]]","1","[[3,2,0],[0,0],[1]]","20","0","","","","","","6","","","","","","","","",""
"","","","","","single-stim-button","340","558299","0.0-2.0-71.0-1.0","5df441f8dc853530e500adc1","E1","batch5","","722","tol_toboard","","","","tol_peg_2","722","722","0","[[1,0,0],[3,2],[0]]","1","[[3,2,0],[0,0],[1]]","20","0","","","","","","6","","","","","","","","",""
"","","","","","single-stim-button","341","558841","0.0-2.0-71.1-0.1","5df441f8dc853530e500adc1","E1","batch5","","539","tol_tohand","","","","tol_peg_1","539","539","0","[[0,0,0],[3,2],[0]]","2","[[3,2,0],[0,0],[1]]","20","0","","","","","","6","","","","","","","","",""
"","","","","","single-stim-button","342","559317","0.0-2.0-71.1-1.1","5df441f8dc853530e500adc1","E1","batch5","","473","tol_toboard","","","","tol_peg_3","473","473","0","[[0,0,0],[3,2],[1]]","2","[[3,2,0],[0,0],[1]]","20","0","","","","","","6","","","","","","","","",""
"","","","","","single-stim-button","343","562749","0.0-2.0-71.2-0.2","5df441f8dc853530e500adc1","E1","batch5","","3429","tol_tohand","","","","tol_peg_3","3429","3429","0","[[0,0,0],[3,2],[0]]","3","[[3,2,0],[0,0],[1]]","20","0","","","","","","6","","","","","","","","",""
"","","","","","single-stim-button","344","563245","0.0-2.0-71.2-1.2","5df441f8dc853530e500adc1","E1","batch5","","492","tol_toboard","","","","tol_peg_1","492","492","0","[[1,0,0],[3,2],[0]]","3","[[3,2,0],[0,0],[1]]","20","0","","","","","","6","","","","","","","","",""
"","","","","","single-stim-button","345","563665","0.0-2.0-71.3-0.3","5df441f8dc853530e500adc1","E1","batch5","","417","tol_tohand","","","","tol_peg_2","417","417","0","[[1,0,0],[3,0],[0]]","4","[[3,2,0],[0,0],[1]]","20","0","","","","","","6","","","","","","","","",""
"","","","","","single-stim-button","346","564108","0.0-2.0-71.3-1.3","5df441f8dc853530e500adc1","E1","batch5","","440","tol_toboard","","","","tol_peg_3","440","440","0","[[1,0,0],[3,0],[2]]","4","[[3,2,0],[0,0],[1]]","20","0","","","","","","6","","","","","","","","",""
"","","","","","single-stim-button","347","565303","0.0-2.0-71.4-0.4","5df441f8dc853530e500adc1","E1","batch5","","1192","tol_tohand","","","","tol_peg_1","1192","1192","0","[[0,0,0],[3,0],[2]]","5","[[3,2,0],[0,0],[1]]","20","0","","","","","","6","","","","","","","","",""
"","","","","","single-stim-button","348","569216","0.0-2.0-71.4-1.4","5df441f8dc853530e500adc1","E1","batch5","","3910","tol_toboard","","","","tol_peg_1","3910","3910","0","[[1,0,0],[3,0],[2]]","5","[[3,2,0],[0,0],[1]]","20","0","","","","","","6","","","","","","","","",""
"","","","","","single-stim-button","349","569865","0.0-2.0-71.5-0.5","5df441f8dc853530e500adc1","E1","batch5","","645","tol_tohand","","","","tol_peg_3","645","645","0","[[1,0,0],[3,0],[0]]","6","[[3,2,0],[0,0],[1]]","20","0","","","","","","6","","","","","","","","",""
"","","","","","single-stim-button","350","573300","0.0-2.0-71.5-1.5","5df441f8dc853530e500adc1","E1","batch5","","3432","tol_toboard","","","","tol_peg_3","3432","3432","0","[[1,0,0],[3,0],[2]]","6","[[3,2,0],[0,0],[1]]","20","0","","","","","","6","","","","","","","","",""
"","","","","","single-stim-button","351","574365","0.0-2.0-71.6-0.6","5df441f8dc853530e500adc1","E1","batch5","","1061","tol_tohand","","","","tol_peg_1","1061","1061","0","[[0,0,0],[3,0],[2]]","7","[[3,2,0],[0,0],[1]]","20","0","","","","","","6","","","","","","","","",""
"","","","","","single-stim-button","352","574854","0.0-2.0-71.6-1.6","5df441f8dc853530e500adc1","E1","batch5","","487","tol_toboard","","","","tol_peg_2","487","487","0","[[0,0,0],[3,1],[2]]","7","[[3,2,0],[0,0],[1]]","20","0","","","","","","6","","","","","","","","",""
"","","","","","single-stim-button","353","578244","0.0-2.0-71.7-0.7","5df441f8dc853530e500adc1","E1","batch5","","3387","tol_tohand","","","","tol_peg_3","3387","3387","0","[[0,0,0],[3,1],[0]]","8","[[3,2,0],[0,0],[1]]","20","0","","","","","","6","","","","","","","","",""
"","","","","","single-stim-button","354","578815","0.0-2.0-71.7-1.7","5df441f8dc853530e500adc1","E1","batch5","","567","tol_toboard","","","","tol_peg_1","567","567","0","[[2,0,0],[3,1],[0]]","8","[[3,2,0],[0,0],[1]]","20","0","","","","","","6","","","","","","","","",""
"","","","","","single-stim-button","355","579265","0.0-2.0-71.8-0.8","5df441f8dc853530e500adc1","E1","batch5","","449","tol_tohand","","","","tol_peg_2","449","449","0","[[2,0,0],[3,0],[0]]","9","[[3,2,0],[0,0],[1]]","20","0","","","","","","6","","","","","","","","",""
"","","","","","single-stim-button","356","579770","0.0-2.0-71.8-1.8","5df441f8dc853530e500adc1","E1","batch5","","501","tol_toboard","","","","tol_peg_3","501","501","0","[[2,0,0],[3,0],[1]]","9","[[3,2,0],[0,0],[1]]","20","0","","","","","","6","","","","","","","","",""
"","","","","","single-stim-button","357","580352","0.0-2.0-71.9-0.9","5df441f8dc853530e500adc1","E1","batch5","","579","tol_tohand","","","","tol_peg_2","579","579","0","[[2,0,0],[0,0],[1]]","10","[[3,2,0],[0,0],[1]]","20","0","","","","","","6","","","","","","","","",""
