"success","timeout","failed_images","failed_audio","failed_video","trial_type","trial_index","time_elapsed","internal_node_id","subject_id","study_id","session_id","task","rt","stimulus","response","item","answer","correct","spm_correct","spm_rt","view_history","fiar_detect_rt","fiar_detect_correct","total_correct_fiar_detect","post_trial_gap","choices","mouse_click","stim_duration","block_duration","timing_post_trial","current_position","tol_num_moves_made","tol_target","tol_problem_id","tol_rt","key_press","possible_responses","tol_correct","preplanning","tol_rt_per_trial","tol_min_moves"
"true","false","[]","[]","[]","preload","0","1460","0.0-0.0","5e0413f6d62abeed46e254f6","B2","batch2","","","","","","","","","","","","","","","","","","","","","","","","","","","","","",""
"true","","","","","fullscreen","1","7404","0.0-1.0-0.0","5e0413f6d62abeed46e254f6","B2","batch2","","","","","","","","","","","","","","","","","","","","","","","","","","","","","",""
"true","","","","","fullscreen","2","10275","0.0-2.0-0.0","5e0413f6d62abeed46e254f6","B2","batch2","spm_fullscreen","","","","","","","","","","","","","","","","","","","","","","","","","","","","",""
"","","","","","html-button-response","3","16870","0.0-2.0-1.0","5e0413f6d62abeed46e254f6","B2","batch2","","6593.100000023842","<p class = block-text><b>Instructions</b> <br>This is a widely used intelligence test in research. <br>In this test, a figure with a missing piece will be presented.<br>Below the figure are alternative pieces to complete the figure, only one of which is correct.<br> Different figures might involve different principles for obtaining the missing piece<br>Your job is to select the most logical piece to complete the figure.</p>","0","","","","","","","","","","","","","","","","","","","","","","","","","",""
"","","","","","html-keyboard-response","4","17674","0.0-2.0-2.0-0.0","5e0413f6d62abeed46e254f6","B2","batch2","spm_show_trial_num","null","<p class=block-text>Trial 1 out of 60</p>","null","","","","","","","","","","","","","","","","","","","","","","","","","",""
"","","","","","image-button-response","5","27911","0.0-2.0-2.0-1.0","5e0413f6d62abeed46e254f6","B2","batch2","spm_respsonse","10224.700000017881","img/question_1_1.jpeg","3","mat_01","4","1","1","10224.700000017881","","","","","","","","","","","","","","","","","","","","",""
"","","","","","html-keyboard-response","6","28982","0.0-2.0-2.0-0.1","5e0413f6d62abeed46e254f6","B2","batch2","spm_show_trial_num","null","<p class=block-text>Trial 2 out of 60</p>","null","","","","","","","","","","","","","","","","","","","","","","","","","",""
"","","","","","image-button-response","7","32566","0.0-2.0-2.0-1.1","5e0413f6d62abeed46e254f6","B2","batch2","spm_respsonse","3582","img/question_1_2.jpeg","4","mat_02","5","1","1","3582","","","","","","","","","","","","","","","","","","","","",""
"","","","","","html-keyboard-response","8","33623","0.0-2.0-2.0-0.2","5e0413f6d62abeed46e254f6","B2","batch2","spm_show_trial_num","null","<p class=block-text>Trial 3 out of 60</p>","null","","","","","","","","","","","","","","","","","","","","","","","","","",""
"","","","","","image-button-response","9","41856","0.0-2.0-2.0-1.2","5e0413f6d62abeed46e254f6","B2","batch2","spm_respsonse","8230.800000011921","img/question_1_3.jpeg","0","mat_03","1","1","1","8230.800000011921","","","","","","","","","","","","","","","","","","","","",""
"","","","","","html-keyboard-response","10","42932","0.0-2.0-2.0-0.3","5e0413f6d62abeed46e254f6","B2","batch2","spm_show_trial_num","null","<p class=block-text>Trial 4 out of 60</p>","null","","","","","","","","","","","","","","","","","","","","","","","","","",""
"","","","","","image-button-response","11","49866","0.0-2.0-2.0-1.3","5e0413f6d62abeed46e254f6","B2","batch2","spm_respsonse","6930.9000000059605","img/question_1_4.jpeg","1","mat_04","2","1","1","6930.9000000059605","","","","","","","","","","","","","","","","","","","","",""
"","","","","","html-keyboard-response","12","50922","0.0-2.0-2.0-0.4","5e0413f6d62abeed46e254f6","B2","batch2","spm_show_trial_num","null","<p class=block-text>Trial 5 out of 60</p>","null","","","","","","","","","","","","","","","","","","","","","","","","","",""
"","","","","","image-button-response","13","54826","0.0-2.0-2.0-1.4","5e0413f6d62abeed46e254f6","B2","batch2","spm_respsonse","3900.5","img/question_1_5.jpeg","5","mat_05","6","1","1","3900.5","","","","","","","","","","","","","","","","","","","","",""
"","","","","","html-keyboard-response","14","55879","0.0-2.0-2.0-0.5","5e0413f6d62abeed46e254f6","B2","batch2","spm_show_trial_num","null","<p class=block-text>Trial 6 out of 60</p>","null","","","","","","","","","","","","","","","","","","","","","","","","","",""
"","","","","","image-button-response","15","60547","0.0-2.0-2.0-1.5","5e0413f6d62abeed46e254f6","B2","batch2","spm_respsonse","4664.5999999940395","img/question_1_6.jpeg","2","mat_06","3","1","1","4664.5999999940395","","","","","","","","","","","","","","","","","","","","",""
"","","","","","html-keyboard-response","16","61619","0.0-2.0-2.0-0.6","5e0413f6d62abeed46e254f6","B2","batch2","spm_show_trial_num","null","<p class=block-text>Trial 7 out of 60</p>","null","","","","","","","","","","","","","","","","","","","","","","","","","",""
"","","","","","image-button-response","17","71052","0.0-2.0-2.0-1.6","5e0413f6d62abeed46e254f6","B2","batch2","spm_respsonse","9427.40000000596","img/question_1_7.jpeg","5","mat_07","6","1","1","9427.40000000596","","","","","","","","","","","","","","","","","","","","",""
"","","","","","html-keyboard-response","18","72109","0.0-2.0-2.0-0.7","5e0413f6d62abeed46e254f6","B2","batch2","spm_show_trial_num","null","<p class=block-text>Trial 8 out of 60</p>","null","","","","","","","","","","","","","","","","","","","","","","","","","",""
"","","","","","image-button-response","19","80494","0.0-2.0-2.0-1.7","5e0413f6d62abeed46e254f6","B2","batch2","spm_respsonse","8380.600000023842","img/question_1_8.jpeg","1","mat_08","2","1","1","8380.600000023842","","","","","","","","","","","","","","","","","","","","",""
"","","","","","html-keyboard-response","20","81558","0.0-2.0-2.0-0.8","5e0413f6d62abeed46e254f6","B2","batch2","spm_show_trial_num","null","<p class=block-text>Trial 9 out of 60</p>","null","","","","","","","","","","","","","","","","","","","","","","","","","",""
"","","","","","image-button-response","21","92724","0.0-2.0-2.0-1.8","5e0413f6d62abeed46e254f6","B2","batch2","spm_respsonse","11161.800000011921","img/question_1_9.jpeg","0","mat_09","1","1","1","11161.800000011921","","","","","","","","","","","","","","","","","","","","",""
"","","","","","html-keyboard-response","22","93782","0.0-2.0-2.0-0.9","5e0413f6d62abeed46e254f6","B2","batch2","spm_show_trial_num","null","<p class=block-text>Trial 10 out of 60</p>","null","","","","","","","","","","","","","","","","","","","","","","","","","",""
"","","","","","image-button-response","23","105351","0.0-2.0-2.0-1.9","5e0413f6d62abeed46e254f6","B2","batch2","spm_respsonse","11564.199999988079","img/question_1_10.jpeg","2","mat_10","3","1","1","11564.199999988079","","","","","","","","","","","","","","","","","","","","",""
"","","","","","html-keyboard-response","24","106410","0.0-2.0-2.0-0.10","5e0413f6d62abeed46e254f6","B2","batch2","spm_show_trial_num","null","<p class=block-text>Trial 11 out of 60</p>","null","","","","","","","","","","","","","","","","","","","","","","","","","",""
"","","","","","image-button-response","25","142076","0.0-2.0-2.0-1.10","5e0413f6d62abeed46e254f6","B2","batch2","spm_respsonse","35661.5","img/question_1_11.jpeg","3","mat_11","4","1","1","35661.5","","","","","","","","","","","","","","","","","","","","",""
"","","","","","html-keyboard-response","26","143129","0.0-2.0-2.0-0.11","5e0413f6d62abeed46e254f6","B2","batch2","spm_show_trial_num","null","<p class=block-text>Trial 12 out of 60</p>","null","","","","","","","","","","","","","","","","","","","","","","","","","",""
"","","","","","image-button-response","27","173091","0.0-2.0-2.0-1.11","5e0413f6d62abeed46e254f6","B2","batch2","spm_respsonse","29958.09999999404","img/question_1_12.jpeg","4","mat_12","5","1","1","29958.09999999404","","","","","","","","","","","","","","","","","","","","",""
"","","","","","html-keyboard-response","28","174156","0.0-2.0-2.0-0.12","5e0413f6d62abeed46e254f6","B2","batch2","spm_show_trial_num","null","<p class=block-text>Trial 13 out of 60</p>","null","","","","","","","","","","","","","","","","","","","","","","","","","",""
"","","","","","image-button-response","29","177687","0.0-2.0-2.0-1.12","5e0413f6d62abeed46e254f6","B2","batch2","spm_respsonse","3527.199999988079","img/question_2_1.jpeg","1","mat_13","2","1","1","3527.199999988079","","","","","","","","","","","","","","","","","","","","",""
"","","","","","html-keyboard-response","30","178751","0.0-2.0-2.0-0.13","5e0413f6d62abeed46e254f6","B2","batch2","spm_show_trial_num","null","<p class=block-text>Trial 14 out of 60</p>","null","","","","","","","","","","","","","","","","","","","","","","","","","",""
"","","","","","image-button-response","31","186100","0.0-2.0-2.0-1.13","5e0413f6d62abeed46e254f6","B2","batch2","spm_respsonse","7344.800000011921","img/question_2_2.jpeg","5","mat_14","6","1","1","7344.800000011921","","","","","","","","","","","","","","","","","","","","",""
"","","","","","html-keyboard-response","32","187154","0.0-2.0-2.0-0.14","5e0413f6d62abeed46e254f6","B2","batch2","spm_show_trial_num","null","<p class=block-text>Trial 15 out of 60</p>","null","","","","","","","","","","","","","","","","","","","","","","","","","",""
"","","","","","image-button-response","33","191052","0.0-2.0-2.0-1.14","5e0413f6d62abeed46e254f6","B2","batch2","spm_respsonse","3896.399999976158","img/question_2_3.jpeg","0","mat_15","1","1","1","3896.399999976158","","","","","","","","","","","","","","","","","","","","",""
"","","","","","html-keyboard-response","34","192108","0.0-2.0-2.0-0.15","5e0413f6d62abeed46e254f6","B2","batch2","spm_show_trial_num","null","<p class=block-text>Trial 16 out of 60</p>","null","","","","","","","","","","","","","","","","","","","","","","","","","",""
"","","","","","image-button-response","35","197302","0.0-2.0-2.0-1.15","5e0413f6d62abeed46e254f6","B2","batch2","spm_respsonse","5189.300000011921","img/question_2_4.jpeg","1","mat_16","2","1","1","5189.300000011921","","","","","","","","","","","","","","","","","","","","",""
"","","","","","html-keyboard-response","36","198355","0.0-2.0-2.0-0.16","5e0413f6d62abeed46e254f6","B2","batch2","spm_show_trial_num","null","<p class=block-text>Trial 17 out of 60</p>","null","","","","","","","","","","","","","","","","","","","","","","","","","",""
"","","","","","image-button-response","37","203728","0.0-2.0-2.0-1.16","5e0413f6d62abeed46e254f6","B2","batch2","spm_respsonse","5367.300000011921","img/question_2_5.jpeg","0","mat_17","1","1","1","5367.300000011921","","","","","","","","","","","","","","","","","","","","",""
"","","","","","html-keyboard-response","38","204786","0.0-2.0-2.0-0.17","5e0413f6d62abeed46e254f6","B2","batch2","spm_show_trial_num","null","<p class=block-text>Trial 18 out of 60</p>","null","","","","","","","","","","","","","","","","","","","","","","","","","",""
"","","","","","image-button-response","39","211193","0.0-2.0-2.0-1.17","5e0413f6d62abeed46e254f6","B2","batch2","spm_respsonse","6402.0999999940395","img/question_2_6.jpeg","2","mat_18","3","1","1","6402.0999999940395","","","","","","","","","","","","","","","","","","","","",""
"","","","","","html-keyboard-response","40","212248","0.0-2.0-2.0-0.18","5e0413f6d62abeed46e254f6","B2","batch2","spm_show_trial_num","null","<p class=block-text>Trial 19 out of 60</p>","null","","","","","","","","","","","","","","","","","","","","","","","","","",""
"","","","","","image-button-response","41","217146","0.0-2.0-2.0-1.18","5e0413f6d62abeed46e254f6","B2","batch2","spm_respsonse","4896.4000000059605","img/question_2_7.jpeg","4","mat_19","5","1","1","4896.4000000059605","","","","","","","","","","","","","","","","","","","","",""
"","","","","","html-keyboard-response","42","218205","0.0-2.0-2.0-0.19","5e0413f6d62abeed46e254f6","B2","batch2","spm_show_trial_num","null","<p class=block-text>Trial 20 out of 60</p>","null","","","","","","","","","","","","","","","","","","","","","","","","","",""
"","","","","","image-button-response","43","226235","0.0-2.0-2.0-1.19","5e0413f6d62abeed46e254f6","B2","batch2","spm_respsonse","8024.9000000059605","img/question_2_8.jpeg","5","mat_20","6","1","1","8024.9000000059605","","","","","","","","","","","","","","","","","","","","",""
"","","","","","html-keyboard-response","44","227312","0.0-2.0-2.0-0.20","5e0413f6d62abeed46e254f6","B2","batch2","spm_show_trial_num","null","<p class=block-text>Trial 21 out of 60</p>","null","","","","","","","","","","","","","","","","","","","","","","","","","",""
"","","","","","image-button-response","45","232295","0.0-2.0-2.0-1.20","5e0413f6d62abeed46e254f6","B2","batch2","spm_respsonse","4979","img/question_2_9.jpeg","3","mat_21","4","1","1","4979","","","","","","","","","","","","","","","","","","","","",""
"","","","","","html-keyboard-response","46","233355","0.0-2.0-2.0-0.21","5e0413f6d62abeed46e254f6","B2","batch2","spm_show_trial_num","null","<p class=block-text>Trial 22 out of 60</p>","null","","","","","","","","","","","","","","","","","","","","","","","","","",""
"","","","","","image-button-response","47","238943","0.0-2.0-2.0-1.21","5e0413f6d62abeed46e254f6","B2","batch2","spm_respsonse","5582.9000000059605","img/question_2_10.jpeg","2","mat_22","3","1","1","5582.9000000059605","","","","","","","","","","","","","","","","","","","","",""
"","","","","","html-keyboard-response","48","240002","0.0-2.0-2.0-0.22","5e0413f6d62abeed46e254f6","B2","batch2","spm_show_trial_num","null","<p class=block-text>Trial 23 out of 60</p>","null","","","","","","","","","","","","","","","","","","","","","","","","","",""
"","","","","","image-button-response","49","253548","0.0-2.0-2.0-1.22","5e0413f6d62abeed46e254f6","B2","batch2","spm_respsonse","13541.5","img/question_2_11.jpeg","3","mat_23","4","1","1","13541.5","","","","","","","","","","","","","","","","","","","","",""
"","","","","","html-keyboard-response","50","254610","0.0-2.0-2.0-0.23","5e0413f6d62abeed46e254f6","B2","batch2","spm_show_trial_num","null","<p class=block-text>Trial 24 out of 60</p>","null","","","","","","","","","","","","","","","","","","","","","","","","","",""
"","","","","","image-button-response","51","267499","0.0-2.0-2.0-1.23","5e0413f6d62abeed46e254f6","B2","batch2","spm_respsonse","12882.199999988079","img/question_2_12.jpeg","4","mat_24","5","1","1","12882.199999988079","","","","","","","","","","","","","","","","","","","","",""
"","","","","","html-button-response","52","269156","0.0-2.0-3.0","5e0413f6d62abeed46e254f6","B2","batch2","attention_check","1390.2999999821186","<p class = block-text>Attention check: Please choose 1<br></p>","0","","","true","","","","","","","","","","","","","","","","","","","","","","",""
"","","","","","html-keyboard-response","53","269960","0.0-2.0-4.0-0.0","5e0413f6d62abeed46e254f6","B2","batch2","spm_show_trial_num","null","<p class=block-text>Trial 25 out of 60</p>","null","","","","","","","","","","","","","","","","","","","","","","","","","",""
"","","","","","image-button-response","54","277765","0.0-2.0-4.0-1.0","5e0413f6d62abeed46e254f6","B2","batch2","spm_respsonse","7799.5","img/question_3_1.jpeg","7","mat_25","8","1","1","7799.5","","","","","","","","","","","","","","","","","","","","",""
"","","","","","html-keyboard-response","55","278828","0.0-2.0-4.0-0.1","5e0413f6d62abeed46e254f6","B2","batch2","spm_show_trial_num","null","<p class=block-text>Trial 26 out of 60</p>","null","","","","","","","","","","","","","","","","","","","","","","","","","",""
"","","","","","image-button-response","56","290496","0.0-2.0-4.0-1.1","5e0413f6d62abeed46e254f6","B2","batch2","spm_respsonse","11664.09999999404","img/question_3_2.jpeg","1","mat_26","2","1","1","11664.09999999404","","","","","","","","","","","","","","","","","","","","",""
"","","","","","html-keyboard-response","57","291550","0.0-2.0-4.0-0.2","5e0413f6d62abeed46e254f6","B2","batch2","spm_show_trial_num","null","<p class=block-text>Trial 27 out of 60</p>","null","","","","","","","","","","","","","","","","","","","","","","","","","",""
"","","","","","image-button-response","58","299657","0.0-2.0-4.0-1.2","5e0413f6d62abeed46e254f6","B2","batch2","spm_respsonse","8101.300000011921","img/question_3_3.jpeg","2","mat_27","3","1","1","8101.300000011921","","","","","","","","","","","","","","","","","","","","",""
"","","","","","html-keyboard-response","59","300722","0.0-2.0-4.0-0.3","5e0413f6d62abeed46e254f6","B2","batch2","spm_show_trial_num","null","<p class=block-text>Trial 28 out of 60</p>","null","","","","","","","","","","","","","","","","","","","","","","","","","",""
"","","","","","image-button-response","60","312936","0.0-2.0-4.0-1.3","5e0413f6d62abeed46e254f6","B2","batch2","spm_respsonse","12211.90000000596","img/question_3_4.jpeg","7","mat_28","8","1","1","12211.90000000596","","","","","","","","","","","","","","","","","","","","",""
"","","","","","html-keyboard-response","61","313994","0.0-2.0-4.0-0.4","5e0413f6d62abeed46e254f6","B2","batch2","spm_show_trial_num","null","<p class=block-text>Trial 29 out of 60</p>","null","","","","","","","","","","","","","","","","","","","","","","","","","",""
"","","","","","image-button-response","62","343512","0.0-2.0-4.0-1.4","5e0413f6d62abeed46e254f6","B2","batch2","spm_respsonse","29513.70000001788","img/question_3_5.jpeg","6","mat_29","7","1","1","29513.70000001788","","","","","","","","","","","","","","","","","","","","",""
"","","","","","html-keyboard-response","63","344574","0.0-2.0-4.0-0.5","5e0413f6d62abeed46e254f6","B2","batch2","spm_show_trial_num","null","<p class=block-text>Trial 30 out of 60</p>","null","","","","","","","","","","","","","","","","","","","","","","","","","",""
"","","","","","image-button-response","64","363478","0.0-2.0-4.0-1.5","5e0413f6d62abeed46e254f6","B2","batch2","spm_respsonse","18899.09999999404","img/question_3_6.jpeg","3","mat_30","4","1","1","18899.09999999404","","","","","","","","","","","","","","","","","","","","",""
"","","","","","html-keyboard-response","65","364536","0.0-2.0-4.0-0.6","5e0413f6d62abeed46e254f6","B2","batch2","spm_show_trial_num","null","<p class=block-text>Trial 31 out of 60</p>","null","","","","","","","","","","","","","","","","","","","","","","","","","",""
"","","","","","image-button-response","66","370343","0.0-2.0-4.0-1.6","5e0413f6d62abeed46e254f6","B2","batch2","spm_respsonse","5803.100000023842","img/question_3_7.jpeg","4","mat_31","5","1","1","5803.100000023842","","","","","","","","","","","","","","","","","","","","",""
"","","","","","html-keyboard-response","67","371404","0.0-2.0-4.0-0.7","5e0413f6d62abeed46e254f6","B2","batch2","spm_show_trial_num","null","<p class=block-text>Trial 32 out of 60</p>","null","","","","","","","","","","","","","","","","","","","","","","","","","",""
"","","","","","image-button-response","68","407353","0.0-2.0-4.0-1.7","5e0413f6d62abeed46e254f6","B2","batch2","spm_respsonse","35945.09999999404","img/question_3_8.jpeg","0","mat_32","1","1","1","35945.09999999404","","","","","","","","","","","","","","","","","","","","",""
"","","","","","html-keyboard-response","69","408416","0.0-2.0-4.0-0.8","5e0413f6d62abeed46e254f6","B2","batch2","spm_show_trial_num","null","<p class=block-text>Trial 33 out of 60</p>","null","","","","","","","","","","","","","","","","","","","","","","","","","",""
"","","","","","image-button-response","70","419910","0.0-2.0-4.0-1.8","5e0413f6d62abeed46e254f6","B2","batch2","spm_respsonse","11490.09999999404","img/question_3_9.jpeg","6","mat_33","7","1","1","11490.09999999404","","","","","","","","","","","","","","","","","","","","",""
"","","","","","html-keyboard-response","71","420975","0.0-2.0-4.0-0.9","5e0413f6d62abeed46e254f6","B2","batch2","spm_show_trial_num","null","<p class=block-text>Trial 34 out of 60</p>","null","","","","","","","","","","","","","","","","","","","","","","","","","",""
"","","","","","image-button-response","72","431255","0.0-2.0-4.0-1.9","5e0413f6d62abeed46e254f6","B2","batch2","spm_respsonse","10275.09999999404","img/question_3_10.jpeg","5","mat_34","6","1","1","10275.09999999404","","","","","","","","","","","","","","","","","","","","",""
"","","","","","html-keyboard-response","73","432327","0.0-2.0-4.0-0.10","5e0413f6d62abeed46e254f6","B2","batch2","spm_show_trial_num","null","<p class=block-text>Trial 35 out of 60</p>","null","","","","","","","","","","","","","","","","","","","","","","","","","",""
"","","","","","image-button-response","74","444239","0.0-2.0-4.0-1.10","5e0413f6d62abeed46e254f6","B2","batch2","spm_respsonse","11907","img/question_3_11.jpeg","0","mat_35","1","1","1","11907","","","","","","","","","","","","","","","","","","","","",""
"","","","","","html-keyboard-response","75","445299","0.0-2.0-4.0-0.11","5e0413f6d62abeed46e254f6","B2","batch2","spm_show_trial_num","null","<p class=block-text>Trial 36 out of 60</p>","null","","","","","","","","","","","","","","","","","","","","","","","","","",""
"","","","","","image-button-response","76","485538","0.0-2.0-4.0-1.11","5e0413f6d62abeed46e254f6","B2","batch2","spm_respsonse","40237.19999998808","img/question_3_12.jpeg","1","mat_36","2","1","1","40237.19999998808","","","","","","","","","","","","","","","","","","","","",""
"","","","","","html-keyboard-response","77","486590","0.0-2.0-4.0-0.12","5e0413f6d62abeed46e254f6","B2","batch2","spm_show_trial_num","null","<p class=block-text>Trial 37 out of 60</p>","null","","","","","","","","","","","","","","","","","","","","","","","","","",""
"","","","","","image-button-response","78","492373","0.0-2.0-4.0-1.12","5e0413f6d62abeed46e254f6","B2","batch2","spm_respsonse","5778.5","img/question_4_1.jpeg","2","mat_37","3","1","1","5778.5","","","","","","","","","","","","","","","","","","","","",""
"","","","","","html-keyboard-response","79","493432","0.0-2.0-4.0-0.13","5e0413f6d62abeed46e254f6","B2","batch2","spm_show_trial_num","null","<p class=block-text>Trial 38 out of 60</p>","null","","","","","","","","","","","","","","","","","","","","","","","","","",""
"","","","","","image-button-response","80","500768","0.0-2.0-4.0-1.13","5e0413f6d62abeed46e254f6","B2","batch2","spm_respsonse","7330.800000011921","img/question_4_2.jpeg","3","mat_38","4","1","1","7330.800000011921","","","","","","","","","","","","","","","","","","","","",""
"","","","","","html-keyboard-response","81","501826","0.0-2.0-4.0-0.14","5e0413f6d62abeed46e254f6","B2","batch2","spm_show_trial_num","null","<p class=block-text>Trial 39 out of 60</p>","null","","","","","","","","","","","","","","","","","","","","","","","","","",""
"","","","","","image-button-response","82","507264","0.0-2.0-4.0-1.14","5e0413f6d62abeed46e254f6","B2","batch2","spm_respsonse","5435.0999999940395","img/question_4_3.jpeg","2","mat_39","3","1","1","5435.0999999940395","","","","","","","","","","","","","","","","","","","","",""
"","","","","","html-keyboard-response","83","508330","0.0-2.0-4.0-0.15","5e0413f6d62abeed46e254f6","B2","batch2","spm_show_trial_num","null","<p class=block-text>Trial 40 out of 60</p>","null","","","","","","","","","","","","","","","","","","","","","","","","","",""
"","","","","","image-button-response","84","517161","0.0-2.0-4.0-1.15","5e0413f6d62abeed46e254f6","B2","batch2","spm_respsonse","8827.899999976158","img/question_4_4.jpeg","6","mat_40","7","1","1","8827.899999976158","","","","","","","","","","","","","","","","","","","","",""
"","","","","","html-keyboard-response","85","518228","0.0-2.0-4.0-0.16","5e0413f6d62abeed46e254f6","B2","batch2","spm_show_trial_num","null","<p class=block-text>Trial 41 out of 60</p>","null","","","","","","","","","","","","","","","","","","","","","","","","","",""
"","","","","","image-button-response","86","535012","0.0-2.0-4.0-1.16","5e0413f6d62abeed46e254f6","B2","batch2","spm_respsonse","16779.09999999404","img/question_4_5.jpeg","7","mat_41","8","1","1","16779.09999999404","","","","","","","","","","","","","","","","","","","","",""
"","","","","","html-keyboard-response","87","536082","0.0-2.0-4.0-0.17","5e0413f6d62abeed46e254f6","B2","batch2","spm_show_trial_num","null","<p class=block-text>Trial 42 out of 60</p>","null","","","","","","","","","","","","","","","","","","","","","","","","","",""
"","","","","","image-button-response","88","547970","0.0-2.0-4.0-1.17","5e0413f6d62abeed46e254f6","B2","batch2","spm_respsonse","11882.40000000596","img/question_4_6.jpeg","5","mat_42","6","1","1","11882.40000000596","","","","","","","","","","","","","","","","","","","","",""
"","","","","","html-keyboard-response","89","549038","0.0-2.0-4.0-0.18","5e0413f6d62abeed46e254f6","B2","batch2","spm_show_trial_num","null","<p class=block-text>Trial 43 out of 60</p>","null","","","","","","","","","","","","","","","","","","","","","","","","","",""
"","","","","","image-button-response","90","564025","0.0-2.0-4.0-1.18","5e0413f6d62abeed46e254f6","B2","batch2","spm_respsonse","14981.5","img/question_4_7.jpeg","4","mat_43","5","1","1","14981.5","","","","","","","","","","","","","","","","","","","","",""
"","","","","","html-keyboard-response","91","565083","0.0-2.0-4.0-0.19","5e0413f6d62abeed46e254f6","B2","batch2","spm_show_trial_num","null","<p class=block-text>Trial 44 out of 60</p>","null","","","","","","","","","","","","","","","","","","","","","","","","","",""
"","","","","","image-button-response","92","580244","0.0-2.0-4.0-1.19","5e0413f6d62abeed46e254f6","B2","batch2","spm_respsonse","15155.600000023842","img/question_4_8.jpeg","3","mat_44","4","1","1","15155.600000023842","","","","","","","","","","","","","","","","","","","","",""
"","","","","","html-keyboard-response","93","581296","0.0-2.0-4.0-0.20","5e0413f6d62abeed46e254f6","B2","batch2","spm_show_trial_num","null","<p class=block-text>Trial 45 out of 60</p>","null","","","","","","","","","","","","","","","","","","","","","","","","","",""
"","","","","","image-button-response","94","596027","0.0-2.0-4.0-1.20","5e0413f6d62abeed46e254f6","B2","batch2","spm_respsonse","14728","img/question_4_9.jpeg","0","mat_45","1","1","1","14728","","","","","","","","","","","","","","","","","","","","",""
"","","","","","html-keyboard-response","95","597092","0.0-2.0-4.0-0.21","5e0413f6d62abeed46e254f6","B2","batch2","spm_show_trial_num","null","<p class=block-text>Trial 46 out of 60</p>","null","","","","","","","","","","","","","","","","","","","","","","","","","",""
"","","","","","image-button-response","96","623059","0.0-2.0-4.0-1.21","5e0413f6d62abeed46e254f6","B2","batch2","spm_respsonse","25963.59999999404","img/question_4_10.jpeg","1","mat_46","2","1","1","25963.59999999404","","","","","","","","","","","","","","","","","","","","",""
"","","","","","html-keyboard-response","97","624123","0.0-2.0-4.0-0.22","5e0413f6d62abeed46e254f6","B2","batch2","spm_show_trial_num","null","<p class=block-text>Trial 47 out of 60</p>","null","","","","","","","","","","","","","","","","","","","","","","","","","",""
"","","","","","image-button-response","98","759823","0.0-2.0-4.0-1.22","5e0413f6d62abeed46e254f6","B2","batch2","spm_respsonse","135694.80000001192","img/question_4_11.jpeg","1","mat_47","5","0","0","135694.80000001192","","","","","","","","","","","","","","","","","","","","",""
"","","","","","html-keyboard-response","99","760876","0.0-2.0-4.0-0.23","5e0413f6d62abeed46e254f6","B2","batch2","spm_show_trial_num","null","<p class=block-text>Trial 48 out of 60</p>","null","","","","","","","","","","","","","","","","","","","","","","","","","",""
"","","","","","image-button-response","100","803762","0.0-2.0-4.0-1.23","5e0413f6d62abeed46e254f6","B2","batch2","spm_respsonse","42880.5","img/question_4_12.jpeg","5","mat_48","6","1","1","42880.5","","","","","","","","","","","","","","","","","","","","",""
"","","","","","html-keyboard-response","101","804820","0.0-2.0-4.0-0.24","5e0413f6d62abeed46e254f6","B2","batch2","spm_show_trial_num","null","<p class=block-text>Trial 49 out of 60</p>","null","","","","","","","","","","","","","","","","","","","","","","","","","",""
"","","","","","image-button-response","102","813730","0.0-2.0-4.0-1.24","5e0413f6d62abeed46e254f6","B2","batch2","spm_respsonse","8905.799999982119","img/question_5_1.jpeg","6","mat_49","7","1","1","8905.799999982119","","","","","","","","","","","","","","","","","","","","",""
"","","","","","html-keyboard-response","103","814791","0.0-2.0-4.0-0.25","5e0413f6d62abeed46e254f6","B2","batch2","spm_show_trial_num","null","<p class=block-text>Trial 50 out of 60</p>","null","","","","","","","","","","","","","","","","","","","","","","","","","",""
"","","","","","image-button-response","104","832856","0.0-2.0-4.0-1.25","5e0413f6d62abeed46e254f6","B2","batch2","spm_respsonse","18059.90000000596","img/question_5_2.jpeg","5","mat_50","6","1","1","18059.90000000596","","","","","","","","","","","","","","","","","","","","",""
"","","","","","html-keyboard-response","105","833921","0.0-2.0-4.0-0.26","5e0413f6d62abeed46e254f6","B2","batch2","spm_show_trial_num","null","<p class=block-text>Trial 51 out of 60</p>","null","","","","","","","","","","","","","","","","","","","","","","","","","",""
"","","","","","image-button-response","106","847188","0.0-2.0-4.0-1.26","5e0413f6d62abeed46e254f6","B2","batch2","spm_respsonse","13261.09999999404","img/question_5_3.jpeg","7","mat_51","8","1","1","13261.09999999404","","","","","","","","","","","","","","","","","","","","",""
"","","","","","html-keyboard-response","107","848256","0.0-2.0-4.0-0.27","5e0413f6d62abeed46e254f6","B2","batch2","spm_show_trial_num","null","<p class=block-text>Trial 52 out of 60</p>","null","","","","","","","","","","","","","","","","","","","","","","","","","",""
"","","","","","image-button-response","108","857646","0.0-2.0-4.0-1.27","5e0413f6d62abeed46e254f6","B2","batch2","spm_respsonse","9386.199999988079","img/question_5_4.jpeg","1","mat_52","2","1","1","9386.199999988079","","","","","","","","","","","","","","","","","","","","",""
"","","","","","html-keyboard-response","109","858699","0.0-2.0-4.0-0.28","5e0413f6d62abeed46e254f6","B2","batch2","spm_show_trial_num","null","<p class=block-text>Trial 53 out of 60</p>","null","","","","","","","","","","","","","","","","","","","","","","","","","",""
"","","","","","image-button-response","110","867745","0.0-2.0-4.0-1.28","5e0413f6d62abeed46e254f6","B2","batch2","spm_respsonse","9041.40000000596","img/question_5_5.jpeg","0","mat_53","1","1","1","9041.40000000596","","","","","","","","","","","","","","","","","","","","",""
"","","","","","html-keyboard-response","111","868810","0.0-2.0-4.0-0.29","5e0413f6d62abeed46e254f6","B2","batch2","spm_show_trial_num","null","<p class=block-text>Trial 54 out of 60</p>","null","","","","","","","","","","","","","","","","","","","","","","","","","",""
"","","","","","image-button-response","112","887052","0.0-2.0-4.0-1.29","5e0413f6d62abeed46e254f6","B2","batch2","spm_respsonse","18236.5","img/question_5_6.jpeg","4","mat_54","5","1","1","18236.5","","","","","","","","","","","","","","","","","","","","",""
"","","","","","html-keyboard-response","113","888111","0.0-2.0-4.0-0.30","5e0413f6d62abeed46e254f6","B2","batch2","spm_show_trial_num","null","<p class=block-text>Trial 55 out of 60</p>","null","","","","","","","","","","","","","","","","","","","","","","","","","",""
"","","","","","image-button-response","114","924143","0.0-2.0-4.0-1.30","5e0413f6d62abeed46e254f6","B2","batch2","spm_respsonse","36028.80000001192","img/question_5_7.jpeg","0","mat_55","1","1","1","36028.80000001192","","","","","","","","","","","","","","","","","","","","",""
"","","","","","html-keyboard-response","115","925199","0.0-2.0-4.0-0.31","5e0413f6d62abeed46e254f6","B2","batch2","spm_show_trial_num","null","<p class=block-text>Trial 56 out of 60</p>","null","","","","","","","","","","","","","","","","","","","","","","","","","",""
"","","","","","image-button-response","116","946417","0.0-2.0-4.0-1.31","5e0413f6d62abeed46e254f6","B2","batch2","spm_respsonse","21216.19999998808","img/question_5_8.jpeg","5","mat_56","6","1","1","21216.19999998808","","","","","","","","","","","","","","","","","","","","",""
"","","","","","html-keyboard-response","117","947486","0.0-2.0-4.0-0.32","5e0413f6d62abeed46e254f6","B2","batch2","spm_show_trial_num","null","<p class=block-text>Trial 57 out of 60</p>","null","","","","","","","","","","","","","","","","","","","","","","","","","",""
"","","","","","image-button-response","118","1024655","0.0-2.0-4.0-1.32","5e0413f6d62abeed46e254f6","B2","batch2","spm_respsonse","77164.40000000596","img/question_5_9.jpeg","3","mat_57","3","0","0","77164.40000000596","","","","","","","","","","","","","","","","","","","","",""
"","","","","","html-keyboard-response","119","1025708","0.0-2.0-4.0-0.33","5e0413f6d62abeed46e254f6","B2","batch2","spm_show_trial_num","null","<p class=block-text>Trial 58 out of 60</p>","null","","","","","","","","","","","","","","","","","","","","","","","","","",""
"","","","","","image-button-response","120","1045252","0.0-2.0-4.0-1.33","5e0413f6d62abeed46e254f6","B2","batch2","spm_respsonse","19542.5","img/question_5_10.jpeg","1","mat_58","2","1","1","19542.5","","","","","","","","","","","","","","","","","","","","",""
"","","","","","html-keyboard-response","121","1046312","0.0-2.0-4.0-0.34","5e0413f6d62abeed46e254f6","B2","batch2","spm_show_trial_num","null","<p class=block-text>Trial 59 out of 60</p>","null","","","","","","","","","","","","","","","","","","","","","","","","","",""
"","","","","","image-button-response","122","1073960","0.0-2.0-4.0-1.34","5e0413f6d62abeed46e254f6","B2","batch2","spm_respsonse","27644.09999999404","img/question_5_11.jpeg","3","mat_59","4","1","1","27644.09999999404","","","","","","","","","","","","","","","","","","","","",""
"","","","","","html-keyboard-response","123","1075013","0.0-2.0-4.0-0.35","5e0413f6d62abeed46e254f6","B2","batch2","spm_show_trial_num","null","<p class=block-text>Trial 60 out of 60</p>","null","","","","","","","","","","","","","","","","","","","","","","","","","",""
"","","","","","image-button-response","124","1117263","0.0-2.0-4.0-1.35","5e0413f6d62abeed46e254f6","B2","batch2","spm_respsonse","42247.79999998212","img/question_5_12.jpeg","1","mat_60","5","0","0","42247.79999998212","","","","","","","","","","","","","","","","","","","","",""
"","","","","","html-button-response","125","1119412","0.0-2.0-5.0","5e0413f6d62abeed46e254f6","B2","batch2","spm_goodbye","1894","<p class= block-text>This concludes the Standard Progressive Matrix game. Thank you for your responses!<br> When you are ready, click the button continue</p>","0","","","","","","","","","","","","","","","","","","","","","","","","","",""
"true","","","","","fullscreen","126","1122532","0.0-3.0-0.0","5e0413f6d62abeed46e254f6","B2","batch2","","","","","","","","","","","","","","","","","","","","","","","","","","","","","",""
"","","","","","instructions","127","1138046","0.0-3.0-1.0-0.0","5e0413f6d62abeed46e254f6","B2","batch2","","15512.299999982119","","","","","","","","[{""page_index"":0,""viewing_time"":7175.5999999940395},{""page_index"":1,""viewing_time"":8336.300000011921}]","","","","","","","","","","","","","","","","","","","",""
"","","","","","html-button-response","128","1139176","0.0-3.0-1.0-1.0-0.0","5e0413f6d62abeed46e254f6","B2","batch2","pattern_enter_quiz","1129.7000000178814","<p class=block-text> Let's answer a few questions <br>","0","","","","","","","","","","","","","","","","","","","","","","","","","",""
"","","","","","html-button-response","129","1145497","0.0-3.0-1.0-1.0-1.0","5e0413f6d62abeed46e254f6","B2","batch2","pattern_quiz","6319.4000000059605","<p class = block-text>True or False: You will have as much time as you want to make each choice. <br></p>","1","","","true","","","","","","","","","","","","","","","","","","","","","","",""
"","","","","","html-button-response","130","1146496","0.0-3.0-1.0-1.0-2.0","5e0413f6d62abeed46e254f6","B2","batch2","pattern_quiz_feedback","998.5","<p class = block-text>Correct! You should make your choice <strong> as fast as you can</strong>.</p>","0","","","","","","","","","","","","","","","","","","","","","","","","","",""
"","","","","","html-button-response","131","1148809","0.0-3.0-1.0-1.0-3.0","5e0413f6d62abeed46e254f6","B2","batch2","pattern_quiz","2312","<p class = block-text>True or False: You will look for 4 pieces in black or white color connected in a row either horizontally, vertically or diagonally. <br></p>","0","","","true","","","","","","","","","","","","","","","","","","","","","","",""
"","","","","","html-button-response","132","1149501","0.0-3.0-1.0-1.0-4.0","5e0413f6d62abeed46e254f6","B2","batch2","pattern_quiz_feedback","690.8000000119209","<p class = block-text>Correct! </p>","0","","","","","","","","","","","","","","","","","","","","","","","","","",""
"","","","","","html-button-response","133","1150702","0.0-3.0-2.0","5e0413f6d62abeed46e254f6","B2","batch2","pattern_enter_practice","1199.2999999821186","<p class=block-text> Now that you've understood the game, let's do a few practice trials before we start!<br> <br>","0","","","","","","","","","","","","","","","","","","","","","","","","","",""
"","","","","","image-keyboard-response","134","1153546","0.0-3.0-3.0-0.0","5e0413f6d62abeed46e254f6","B2","batch2","pattern_practice","2841.399999976158","stim/prac_yes_20_dia_b1.png","j","","f","false","","","","","","","","","","","","","","","","","","","","","","",""
"","","","","","html-keyboard-response","135","1154569","0.0-3.0-3.0-1.0","5e0413f6d62abeed46e254f6","B2","batch2","pattern_feedback","null","<p style=""font-size:30px;color:red;"">Wrong.</p>","null","","","","","","","","","","","","","","","","","","","","","","","","","",""
"","","","","","image-keyboard-response","136","1155776","0.0-3.0-3.0-0.1","5e0413f6d62abeed46e254f6","B2","batch2","pattern_practice","1204.3999999761581","stim/prac_yes_18_hor_w1.png","f","","f","true","","","","","","","","","","","","","","","","","","","","","","",""
"","","","","","html-keyboard-response","137","1156802","0.0-3.0-3.0-1.1","5e0413f6d62abeed46e254f6","B2","batch2","pattern_feedback","null","<p style=""font-size:30px;color:green;"">Correct!</p>","null","","","","","","","","","","","","","","","","","","","","","","","","","",""
"","","","","","image-keyboard-response","138","1157619","0.0-3.0-3.0-0.2","5e0413f6d62abeed46e254f6","B2","batch2","pattern_practice","813.1999999880791","stim/prac_yes_16_ver_w1.png","f","","f","true","","","","","","","","","","","","","","","","","","","","","","",""
"","","","","","html-keyboard-response","139","1158635","0.0-3.0-3.0-1.2","5e0413f6d62abeed46e254f6","B2","batch2","pattern_feedback","null","<p style=""font-size:30px;color:green;"">Correct!</p>","null","","","","","","","","","","","","","","","","","","","","","","","","","",""
"","","","","","image-keyboard-response","140","1160843","0.0-3.0-3.0-0.3","5e0413f6d62abeed46e254f6","B2","batch2","pattern_practice","2206.699999988079","stim/prac_no_16_1.png","j","","j","true","","","","","","","","","","","","","","","","","","","","","","",""
"","","","","","html-keyboard-response","141","1161870","0.0-3.0-3.0-1.3","5e0413f6d62abeed46e254f6","B2","batch2","pattern_feedback","null","<p style=""font-size:30px;color:green;"">Correct!</p>","null","","","","","","","","","","","","","","","","","","","","","","","","","",""
"","","","","","image-keyboard-response","142","1163661","0.0-3.0-3.0-0.4","5e0413f6d62abeed46e254f6","B2","batch2","pattern_practice","1787.5999999940395","stim/prac_no_18_1.png","j","","j","true","","","","","","","","","","","","","","","","","","","","","","",""
"","","","","","html-keyboard-response","143","1164676","0.0-3.0-3.0-1.4","5e0413f6d62abeed46e254f6","B2","batch2","pattern_feedback","null","<p style=""font-size:30px;color:green;"">Correct!</p>","null","","","","","","","","","","","","","","","","","","","","","","","","","",""
"","","","","","html-button-response","144","1168223","0.0-3.0-4.0","5e0413f6d62abeed46e254f6","B2","batch2","pattern_enter_official_trials","3546.7000000178814","<p class=block-text> Good job! You are done with practice trials!<br>
        You responded correctly on 80% of the trials.<br>
        Press the button below to start official trials. Now you won't see any feedback about your response</p>","0","","","","","","","","","","","","","","","","","","","","","","","","","",""
"","","","","","html-keyboard-response","145","1169027","0.0-3.0-5.0-0.0","5e0413f6d62abeed46e254f6","B2","batch2","pattern_show_trial_num","null","<p class=block-text>Trial 1 out of 78</p>","null","","","","","","","","","","","","","","","","","","","","","","","","","",""
"","","","","","image-keyboard-response","146","1171199","0.0-3.0-5.0-1.0","5e0413f6d62abeed46e254f6","B2","batch2","pattern_response","2167","stim/no_22_1_b.png","j","pattern_07","j","true","","","","2167","true","1","","","","","","","","","","","","","","","","",""
"","","","","","html-keyboard-response","147","1172516","0.0-3.0-5.0-0.1","5e0413f6d62abeed46e254f6","B2","batch2","pattern_show_trial_num","null","<p class=block-text>Trial 2 out of 78</p>","null","","","","","","","","","","","","","","","","","","","","","","","","","",""
"","","","","","image-keyboard-response","148","1174854","0.0-3.0-5.0-1.1","5e0413f6d62abeed46e254f6","B2","batch2","pattern_response","2333.7000000178814","stim/no_25_1_b.png","j","pattern_09","j","true","","","","2333.7000000178814","true","2","","","","","","","","","","","","","","","","",""
"","","","","","html-keyboard-response","149","1176169","0.0-3.0-5.0-0.2","5e0413f6d62abeed46e254f6","B2","batch2","pattern_show_trial_num","null","<p class=block-text>Trial 3 out of 78</p>","null","","","","","","","","","","","","","","","","","","","","","","","","","",""
"","","","","","image-keyboard-response","150","1177931","0.0-3.0-5.0-1.2","5e0413f6d62abeed46e254f6","B2","batch2","pattern_response","1757.4000000059605","stim/yes_53_ver_b1_b.png","f","pattern_74","f","true","","","","1757.4000000059605","true","3","","","","","","","","","","","","","","","","",""
"","","","","","html-keyboard-response","151","1179252","0.0-3.0-5.0-0.3","5e0413f6d62abeed46e254f6","B2","batch2","pattern_show_trial_num","null","<p class=block-text>Trial 4 out of 78</p>","null","","","","","","","","","","","","","","","","","","","","","","","","","",""
"","","","","","image-keyboard-response","152","1183363","0.0-3.0-5.0-1.3","5e0413f6d62abeed46e254f6","B2","batch2","pattern_response","4109.399999976158","stim/no_43_2_b.png","j","pattern_23","j","true","","","","4109.399999976158","true","4","","","","","","","","","","","","","","","","",""
"","","","","","html-keyboard-response","153","1184689","0.0-3.0-5.0-0.4","5e0413f6d62abeed46e254f6","B2","batch2","pattern_show_trial_num","null","<p class=block-text>Trial 5 out of 78</p>","null","","","","","","","","","","","","","","","","","","","","","","","","","",""
"","","","","","image-keyboard-response","154","1187990","0.0-3.0-5.0-1.4","5e0413f6d62abeed46e254f6","B2","batch2","pattern_response","3296.199999988079","stim/yes_42_dia_w1_w.png","j","pattern_64","f","false","","","","3296.199999988079","false","4","","","","","","","","","","","","","","","","",""
"","","","","","html-keyboard-response","155","1189308","0.0-3.0-5.0-0.5","5e0413f6d62abeed46e254f6","B2","batch2","pattern_show_trial_num","null","<p class=block-text>Trial 6 out of 78</p>","null","","","","","","","","","","","","","","","","","","","","","","","","","",""
"","","","","","image-keyboard-response","156","1190181","0.0-3.0-5.0-1.5","5e0413f6d62abeed46e254f6","B2","batch2","pattern_response","869.6999999880791","stim/yes_12_hor_w1_w.png","f","pattern_42","f","true","","","","869.6999999880791","true","5","","","","","","","","","","","","","","","","",""
"","","","","","html-keyboard-response","157","1191505","0.0-3.0-5.0-0.6","5e0413f6d62abeed46e254f6","B2","batch2","pattern_show_trial_num","null","<p class=block-text>Trial 7 out of 78</p>","null","","","","","","","","","","","","","","","","","","","","","","","","","",""
"","","","","","image-keyboard-response","158","1192735","0.0-3.0-5.0-1.6","5e0413f6d62abeed46e254f6","B2","batch2","pattern_response","1228.5","stim/no_12_1.png","j","pattern_01","j","true","","","","1228.5","true","6","","","","","","","","","","","","","","","","",""
"","","","","","html-keyboard-response","159","1194044","0.0-3.0-5.0-0.7","5e0413f6d62abeed46e254f6","B2","batch2","pattern_show_trial_num","null","<p class=block-text>Trial 8 out of 78</p>","null","","","","","","","","","","","","","","","","","","","","","","","","","",""
"","","","","","image-keyboard-response","160","1197209","0.0-3.0-5.0-1.7","5e0413f6d62abeed46e254f6","B2","batch2","pattern_response","3161.4000000059605","stim/no_36_1_b.png","j","pattern_17","j","true","","","","3161.4000000059605","true","7","","","","","","","","","","","","","","","","",""
"","","","","","html-keyboard-response","161","1198513","0.0-3.0-5.0-0.8","5e0413f6d62abeed46e254f6","B2","batch2","pattern_show_trial_num","null","<p class=block-text>Trial 9 out of 78</p>","null","","","","","","","","","","","","","","","","","","","","","","","","","",""
"","","","","","image-keyboard-response","162","1200287","0.0-3.0-5.0-1.8","5e0413f6d62abeed46e254f6","B2","batch2","pattern_response","1770.300000011921","stim/yes_49_hor_w1_b.png","f","pattern_70","f","true","","","","1770.300000011921","true","8","","","","","","","","","","","","","","","","",""
"","","","","","html-keyboard-response","163","1201606","0.0-3.0-5.0-0.9","5e0413f6d62abeed46e254f6","B2","batch2","pattern_show_trial_num","null","<p class=block-text>Trial 10 out of 78</p>","null","","","","","","","","","","","","","","","","","","","","","","","","","",""
"","","","","","image-keyboard-response","164","1205685","0.0-3.0-5.0-1.9","5e0413f6d62abeed46e254f6","B2","batch2","pattern_response","4074.300000011921","stim/no_45_1_w.png","j","pattern_25","j","true","","","","4074.300000011921","true","9","","","","","","","","","","","","","","","","",""
"","","","","","html-keyboard-response","165","1206993","0.0-3.0-5.0-0.10","5e0413f6d62abeed46e254f6","B2","batch2","pattern_show_trial_num","null","<p class=block-text>Trial 11 out of 78</p>","null","","","","","","","","","","","","","","","","","","","","","","","","","",""
"","","","","","image-keyboard-response","166","1209534","0.0-3.0-5.0-1.10","5e0413f6d62abeed46e254f6","B2","batch2","pattern_response","2536.7999999821186","stim/yes_33_dia_w1_w.png","j","pattern_56","f","false","","","","2536.7999999821186","false","9","","","","","","","","","","","","","","","","",""
"","","","","","html-keyboard-response","167","1210842","0.0-3.0-5.0-0.11","5e0413f6d62abeed46e254f6","B2","batch2","pattern_show_trial_num","null","<p class=block-text>Trial 12 out of 78</p>","null","","","","","","","","","","","","","","","","","","","","","","","","","",""
"","","","","","image-keyboard-response","168","1214149","0.0-3.0-5.0-1.11","5e0413f6d62abeed46e254f6","B2","batch2","pattern_response","3302.0999999940395","stim/no_33_1_b.png","j","pattern_15","j","true","","","","3302.0999999940395","true","10","","","","","","","","","","","","","","","","",""
"","","","","","html-keyboard-response","169","1215474","0.0-3.0-5.0-0.12","5e0413f6d62abeed46e254f6","B2","batch2","pattern_show_trial_num","null","<p class=block-text>Trial 13 out of 78</p>","null","","","","","","","","","","","","","","","","","","","","","","","","","",""
"","","","","","image-keyboard-response","170","1221180","0.0-3.0-5.0-1.12","5e0413f6d62abeed46e254f6","B2","batch2","pattern_response","5701.699999988079","stim/yes_58_dia_w1_w.png","j","pattern_76","f","false","","","","5701.699999988079","false","10","","","","","","","","","","","","","","","","",""
"","","","","","html-keyboard-response","171","1222500","0.0-3.0-5.0-0.13","5e0413f6d62abeed46e254f6","B2","batch2","pattern_show_trial_num","null","<p class=block-text>Trial 14 out of 78</p>","null","","","","","","","","","","","","","","","","","","","","","","","","","",""
"","","","","","image-keyboard-response","172","1227015","0.0-3.0-5.0-1.13","5e0413f6d62abeed46e254f6","B2","batch2","pattern_response","4510.799999982119","stim/no_49_2_b.png","j","pattern_29","j","true","","","","4510.799999982119","true","11","","","","","","","","","","","","","","","","",""
"","","","","","html-keyboard-response","173","1228336","0.0-3.0-5.0-0.14","5e0413f6d62abeed46e254f6","B2","batch2","pattern_show_trial_num","null","<p class=block-text>Trial 15 out of 78</p>","null","","","","","","","","","","","","","","","","","","","","","","","","","",""
"","","","","","image-keyboard-response","174","1231993","0.0-3.0-5.0-1.14","5e0413f6d62abeed46e254f6","B2","batch2","pattern_response","3653.2999999821186","stim/no_47_1_b.png","j","pattern_27","j","true","","","","3653.2999999821186","true","12","","","","","","","","","","","","","","","","",""
"","","","","","html-keyboard-response","175","1233318","0.0-3.0-5.0-0.15","5e0413f6d62abeed46e254f6","B2","batch2","pattern_show_trial_num","null","<p class=block-text>Trial 16 out of 78</p>","null","","","","","","","","","","","","","","","","","","","","","","","","","",""
"","","","","","image-keyboard-response","176","1234222","0.0-3.0-5.0-1.15","5e0413f6d62abeed46e254f6","B2","batch2","pattern_response","902.0999999940395","stim/yes_29_hor_b1_b.png","f","pattern_52","f","true","","","","902.0999999940395","true","13","","","","","","","","","","","","","","","","",""
"","","","","","html-keyboard-response","177","1235539","0.0-3.0-5.0-0.16","5e0413f6d62abeed46e254f6","B2","batch2","pattern_show_trial_num","null","<p class=block-text>Trial 17 out of 78</p>","null","","","","","","","","","","","","","","","","","","","","","","","","","",""
"","","","","","image-keyboard-response","178","1239126","0.0-3.0-5.0-1.16","5e0413f6d62abeed46e254f6","B2","batch2","pattern_response","3584.199999988079","stim/no_39_1_w.png","j","pattern_21","j","true","","","","3584.199999988079","true","14","","","","","","","","","","","","","","","","",""
"","","","","","html-keyboard-response","179","1240437","0.0-3.0-5.0-0.17","5e0413f6d62abeed46e254f6","B2","batch2","pattern_show_trial_num","null","<p class=block-text>Trial 18 out of 78</p>","null","","","","","","","","","","","","","","","","","","","","","","","","","",""
"","","","","","image-keyboard-response","180","1241804","0.0-3.0-5.0-1.17","5e0413f6d62abeed46e254f6","B2","batch2","pattern_response","1363.5","stim/yes_46_ver_b1_b.png","f","pattern_68","f","true","","","","1363.5","true","15","","","","","","","","","","","","","","","","",""
"","","","","","html-keyboard-response","181","1243126","0.0-3.0-5.0-0.18","5e0413f6d62abeed46e254f6","B2","batch2","pattern_show_trial_num","null","<p class=block-text>Trial 19 out of 78</p>","null","","","","","","","","","","","","","","","","","","","","","","","","","",""
"","","","","","image-keyboard-response","182","1246652","0.0-3.0-5.0-1.18","5e0413f6d62abeed46e254f6","B2","batch2","pattern_response","3524.2000000178814","stim/no_58_1_w.png","j","pattern_35","j","true","","","","3524.2000000178814","true","16","","","","","","","","","","","","","","","","",""
"","","","","","html-keyboard-response","183","1247972","0.0-3.0-5.0-0.19","5e0413f6d62abeed46e254f6","B2","batch2","pattern_show_trial_num","null","<p class=block-text>Trial 20 out of 78</p>","null","","","","","","","","","","","","","","","","","","","","","","","","","",""
"","","","","","image-keyboard-response","184","1248775","0.0-3.0-5.0-1.19","5e0413f6d62abeed46e254f6","B2","batch2","pattern_response","798.9000000059605","stim/no_15_1_w.png","j","pattern_03","j","true","","","","798.9000000059605","true","17","","","","","","","","","","","","","","","","",""
"","","","","","html-keyboard-response","185","1250097","0.0-3.0-5.0-0.20","5e0413f6d62abeed46e254f6","B2","batch2","pattern_show_trial_num","null","<p class=block-text>Trial 21 out of 78</p>","null","","","","","","","","","","","","","","","","","","","","","","","","","",""
"","","","","","image-keyboard-response","186","1252769","0.0-3.0-5.0-1.20","5e0413f6d62abeed46e254f6","B2","batch2","pattern_response","2668.5","stim/yes_51_dia_b1.png","j","pattern_72","f","false","","","","2668.5","false","17","","","","","","","","","","","","","","","","",""
"","","","","","html-keyboard-response","187","1254078","0.0-3.0-5.0-0.21","5e0413f6d62abeed46e254f6","B2","batch2","pattern_show_trial_num","null","<p class=block-text>Trial 22 out of 78</p>","null","","","","","","","","","","","","","","","","","","","","","","","","","",""
"","","","","","image-keyboard-response","188","1258472","0.0-3.0-5.0-1.21","5e0413f6d62abeed46e254f6","B2","batch2","pattern_response","4389.9000000059605","stim/no_51_1.png","j","pattern_31","j","true","","","","4389.9000000059605","true","18","","","","","","","","","","","","","","","","",""
"","","","","","html-keyboard-response","189","1259798","0.0-3.0-5.0-0.22","5e0413f6d62abeed46e254f6","B2","batch2","pattern_show_trial_num","null","<p class=block-text>Trial 23 out of 78</p>","null","","","","","","","","","","","","","","","","","","","","","","","","","",""
"","","","","","image-keyboard-response","190","1260735","0.0-3.0-5.0-1.22","5e0413f6d62abeed46e254f6","B2","batch2","pattern_response","932.0999999940395","stim/yes_44_ver_w1_w.png","f","pattern_66","f","true","","","","932.0999999940395","true","19","","","","","","","","","","","","","","","","",""
"","","","","","html-keyboard-response","191","1262055","0.0-3.0-5.0-0.23","5e0413f6d62abeed46e254f6","B2","batch2","pattern_show_trial_num","null","<p class=block-text>Trial 24 out of 78</p>","null","","","","","","","","","","","","","","","","","","","","","","","","","",""
"","","","","","image-keyboard-response","192","1262857","0.0-3.0-5.0-1.23","5e0413f6d62abeed46e254f6","B2","batch2","pattern_response","799.5","stim/yes_26_dia_w2_w.png","f","pattern_50","f","true","","","","799.5","true","20","","","","","","","","","","","","","","","","",""
"","","","","","html-keyboard-response","193","1264171","0.0-3.0-5.0-0.24","5e0413f6d62abeed46e254f6","B2","batch2","pattern_show_trial_num","null","<p class=block-text>Trial 25 out of 78</p>","null","","","","","","","","","","","","","","","","","","","","","","","","","",""
"","","","","","image-keyboard-response","194","1264920","0.0-3.0-5.0-1.24","5e0413f6d62abeed46e254f6","B2","batch2","pattern_response","746.7999999821186","stim/yes_37_hor_w1_w.png","f","pattern_60","f","true","","","","746.7999999821186","true","21","","","","","","","","","","","","","","","","",""
"","","","","","html-keyboard-response","195","1266230","0.0-3.0-5.0-0.25","5e0413f6d62abeed46e254f6","B2","batch2","pattern_show_trial_num","null","<p class=block-text>Trial 26 out of 78</p>","null","","","","","","","","","","","","","","","","","","","","","","","","","",""
"","","","","","image-keyboard-response","196","1266944","0.0-3.0-5.0-1.25","5e0413f6d62abeed46e254f6","B2","batch2","pattern_response","710.4000000059605","stim/no_18_1_b.png","j","pattern_05","j","true","","","","710.4000000059605","true","22","","","","","","","","","","","","","","","","",""
"","","","","","html-keyboard-response","197","1268270","0.0-3.0-5.0-0.26","5e0413f6d62abeed46e254f6","B2","batch2","pattern_show_trial_num","null","<p class=block-text>Trial 27 out of 78</p>","null","","","","","","","","","","","","","","","","","","","","","","","","","",""
"","","","","","image-keyboard-response","198","1269028","0.0-3.0-5.0-1.26","5e0413f6d62abeed46e254f6","B2","batch2","pattern_response","756.8999999761581","stim/yes_70_ver_b1.png","f","pattern_80","f","true","","","","756.8999999761581","true","23","","","","","","","","","","","","","","","","",""
"","","","","","html-keyboard-response","199","1270343","0.0-3.0-5.0-0.27","5e0413f6d62abeed46e254f6","B2","batch2","pattern_show_trial_num","null","<p class=block-text>Trial 28 out of 78</p>","null","","","","","","","","","","","","","","","","","","","","","","","","","",""
"","","","","","image-keyboard-response","200","1273596","0.0-3.0-5.0-1.27","5e0413f6d62abeed46e254f6","B2","batch2","pattern_response","3249.2999999821186","stim/no_37_2_w.png","j","pattern_19","j","true","","","","3249.2999999821186","true","24","","","","","","","","","","","","","","","","",""
"","","","","","html-keyboard-response","201","1274909","0.0-3.0-5.0-0.28","5e0413f6d62abeed46e254f6","B2","batch2","pattern_show_trial_num","null","<p class=block-text>Trial 29 out of 78</p>","null","","","","","","","","","","","","","","","","","","","","","","","","","",""
"","","","","","image-keyboard-response","202","1275633","0.0-3.0-5.0-1.28","5e0413f6d62abeed46e254f6","B2","batch2","pattern_response","720.4000000059605","stim/yes_39_hor_w1_w.png","f","pattern_62","f","true","","","","720.4000000059605","true","25","","","","","","","","","","","","","","","","",""
"","","","","","html-keyboard-response","203","1276948","0.0-3.0-5.0-0.29","5e0413f6d62abeed46e254f6","B2","batch2","pattern_show_trial_num","null","<p class=block-text>Trial 30 out of 78</p>","null","","","","","","","","","","","","","","","","","","","","","","","","","",""
"","","","","","image-keyboard-response","204","1277649","0.0-3.0-5.0-1.29","5e0413f6d62abeed46e254f6","B2","batch2","pattern_response","696.8000000119209","stim/yes_15_dia_b1u_b.png","f","pattern_44","f","true","","","","696.8000000119209","true","26","","","","","","","","","","","","","","","","",""
"","","","","","html-keyboard-response","205","1278974","0.0-3.0-5.0-0.30","5e0413f6d62abeed46e254f6","B2","batch2","pattern_show_trial_num","null","<p class=block-text>Trial 31 out of 78</p>","null","","","","","","","","","","","","","","","","","","","","","","","","","",""
"","","","","","image-keyboard-response","206","1281944","0.0-3.0-5.0-1.30","5e0413f6d62abeed46e254f6","B2","batch2","pattern_response","2968.5999999940395","stim/no_67_1.png","j","pattern_39","j","true","","","","2968.5999999940395","true","27","","","","","","","","","","","","","","","","",""
"","","","","","html-keyboard-response","207","1283263","0.0-3.0-5.0-0.31","5e0413f6d62abeed46e254f6","B2","batch2","pattern_show_trial_num","null","<p class=block-text>Trial 32 out of 78</p>","null","","","","","","","","","","","","","","","","","","","","","","","","","",""
"","","","","","image-keyboard-response","208","1284053","0.0-3.0-5.0-1.31","5e0413f6d62abeed46e254f6","B2","batch2","pattern_response","786.4000000059605","stim/yes_17_ver_b1_b.png","f","pattern_46","f","true","","","","786.4000000059605","true","28","","","","","","","","","","","","","","","","",""
"","","","","","html-keyboard-response","209","1285370","0.0-3.0-5.0-0.32","5e0413f6d62abeed46e254f6","B2","batch2","pattern_show_trial_num","null","<p class=block-text>Trial 33 out of 78</p>","null","","","","","","","","","","","","","","","","","","","","","","","","","",""
"","","","","","image-keyboard-response","210","1286751","0.0-3.0-5.0-1.32","5e0413f6d62abeed46e254f6","B2","batch2","pattern_response","1379","stim/no_30_1_b.png","j","pattern_13","j","true","","","","1379","true","29","","","","","","","","","","","","","","","","",""
"","","","","","html-keyboard-response","211","1288062","0.0-3.0-5.0-0.33","5e0413f6d62abeed46e254f6","B2","batch2","pattern_show_trial_num","null","<p class=block-text>Trial 34 out of 78</p>","null","","","","","","","","","","","","","","","","","","","","","","","","","",""
"","","","","","image-keyboard-response","212","1289551","0.0-3.0-5.0-1.33","5e0413f6d62abeed46e254f6","B2","batch2","pattern_response","1483.9000000059605","stim/no_28_2.png","j","pattern_11","j","true","","","","1483.9000000059605","true","30","","","","","","","","","","","","","","","","",""
"","","","","","html-keyboard-response","213","1290858","0.0-3.0-5.0-0.34","5e0413f6d62abeed46e254f6","B2","batch2","pattern_show_trial_num","null","<p class=block-text>Trial 35 out of 78</p>","null","","","","","","","","","","","","","","","","","","","","","","","","","",""
"","","","","","image-keyboard-response","214","1291563","0.0-3.0-5.0-1.34","5e0413f6d62abeed46e254f6","B2","batch2","pattern_response","702.9000000059605","stim/yes_23_ver_b1.png","f","pattern_48","f","true","","","","702.9000000059605","true","31","","","","","","","","","","","","","","","","",""
"","","","","","html-keyboard-response","215","1292880","0.0-3.0-5.0-0.35","5e0413f6d62abeed46e254f6","B2","batch2","pattern_show_trial_num","null","<p class=block-text>Trial 36 out of 78</p>","null","","","","","","","","","","","","","","","","","","","","","","","","","",""
"","","","","","image-keyboard-response","216","1295967","0.0-3.0-5.0-1.35","5e0413f6d62abeed46e254f6","B2","batch2","pattern_response","3084.9000000059605","stim/no_53_1_b.png","j","pattern_33","j","true","","","","3084.9000000059605","true","32","","","","","","","","","","","","","","","","",""
"","","","","","html-keyboard-response","217","1297281","0.0-3.0-5.0-0.36","5e0413f6d62abeed46e254f6","B2","batch2","pattern_show_trial_num","null","<p class=block-text>Trial 37 out of 78</p>","null","","","","","","","","","","","","","","","","","","","","","","","","","",""
"","","","","","image-keyboard-response","218","1298155","0.0-3.0-5.0-1.36","5e0413f6d62abeed46e254f6","B2","batch2","pattern_response","869.1999999880791","stim/yes_30_ver_b1_b.png","f","pattern_54","f","true","","","","869.1999999880791","true","33","","","","","","","","","","","","","","","","",""
"","","","","","html-keyboard-response","219","1299466","0.0-3.0-5.0-0.37","5e0413f6d62abeed46e254f6","B2","batch2","pattern_show_trial_num","null","<p class=block-text>Trial 38 out of 78</p>","null","","","","","","","","","","","","","","","","","","","","","","","","","",""
"","","","","","image-keyboard-response","220","1302379","0.0-3.0-5.0-1.37","5e0413f6d62abeed46e254f6","B2","batch2","pattern_response","2911.399999976158","stim/yes_63_dia_b1.png","j","pattern_78","f","false","","","","2911.399999976158","false","33","","","","","","","","","","","","","","","","",""
"","","","","","html-keyboard-response","221","1303695","0.0-3.0-5.0-0.38","5e0413f6d62abeed46e254f6","B2","batch2","pattern_show_trial_num","null","<p class=block-text>Trial 39 out of 78</p>","null","","","","","","","","","","","","","","","","","","","","","","","","","",""
"","","","","","image-keyboard-response","222","1304392","0.0-3.0-5.0-1.38","5e0413f6d62abeed46e254f6","B2","batch2","pattern_response","694.5","stim/yes_36_ver_w1_w.png","f","pattern_58","f","true","","","","694.5","true","34","","","","","","","","","","","","","","","","",""
"","","","","","image-keyboard-response","223","1305903","0.0-3.0-6.0","5e0413f6d62abeed46e254f6","B2","batch2","attention_check","994.9000000059605","stim/empty_board.png","j","","j","true","","","","","","","500","[""f"",""j""]","","","","","","","","","","","","","","",""
"","","","","","html-keyboard-response","224","1306707","0.0-3.0-7.0-0.0","5e0413f6d62abeed46e254f6","B2","batch2","pattern_show_trial_num","null","<p class=block-text>Trial 40 out of 78</p>","null","","","","","","","","","","","","","","","","","","","","","","","","","",""
"","","","","","image-keyboard-response","225","1307771","0.0-3.0-7.0-1.0","5e0413f6d62abeed46e254f6","B2","batch2","pattern_response","1059.7999999821186","stim/yes_35_dia_b1.png","f","pattern_57","f","true","","","","1059.7999999821186","true","35","","","","","","","","","","","","","","","","",""
"","","","","","html-keyboard-response","226","1309077","0.0-3.0-7.0-0.1","5e0413f6d62abeed46e254f6","B2","batch2","pattern_show_trial_num","null","<p class=block-text>Trial 41 out of 78</p>","null","","","","","","","","","","","","","","","","","","","","","","","","","",""
"","","","","","image-keyboard-response","227","1311457","0.0-3.0-7.0-1.1","5e0413f6d62abeed46e254f6","B2","batch2","pattern_response","2378.2999999821186","stim/no_34_1_b.png","j","pattern_16","j","true","","","","2378.2999999821186","true","36","","","","","","","","","","","","","","","","",""
"","","","","","html-keyboard-response","228","1312778","0.0-3.0-7.0-0.2","5e0413f6d62abeed46e254f6","B2","batch2","pattern_show_trial_num","null","<p class=block-text>Trial 42 out of 78</p>","null","","","","","","","","","","","","","","","","","","","","","","","","","",""
"","","","","","image-keyboard-response","229","1313444","0.0-3.0-7.0-1.2","5e0413f6d62abeed46e254f6","B2","batch2","pattern_response","662.3000000119209","stim/yes_25_hor_b1_b.png","f","pattern_49","f","true","","","","662.3000000119209","true","37","","","","","","","","","","","","","","","","",""
"","","","","","html-keyboard-response","230","1314763","0.0-3.0-7.0-0.3","5e0413f6d62abeed46e254f6","B2","batch2","pattern_show_trial_num","null","<p class=block-text>Trial 43 out of 78</p>","null","","","","","","","","","","","","","","","","","","","","","","","","","",""
"","","","","","image-keyboard-response","231","1315596","0.0-3.0-7.0-1.3","5e0413f6d62abeed46e254f6","B2","batch2","pattern_response","829.3000000119209","stim/yes_45_hor_b2_b.png","f","pattern_67","f","true","","","","829.3000000119209","true","38","","","","","","","","","","","","","","","","",""
"","","","","","html-keyboard-response","232","1316917","0.0-3.0-7.0-0.4","5e0413f6d62abeed46e254f6","B2","batch2","pattern_show_trial_num","null","<p class=block-text>Trial 44 out of 78</p>","null","","","","","","","","","","","","","","","","","","","","","","","","","",""
"","","","","","image-keyboard-response","233","1318282","0.0-3.0-7.0-1.4","5e0413f6d62abeed46e254f6","B2","batch2","pattern_response","1361","stim/yes_55_hor_w1_w.png","f","pattern_75","f","true","","","","1361","true","39","","","","","","","","","","","","","","","","",""
"","","","","","html-keyboard-response","234","1319603","0.0-3.0-7.0-0.5","5e0413f6d62abeed46e254f6","B2","batch2","pattern_show_trial_num","null","<p class=block-text>Trial 45 out of 78</p>","null","","","","","","","","","","","","","","","","","","","","","","","","","",""
"","","","","","image-keyboard-response","235","1320671","0.0-3.0-7.0-1.5","5e0413f6d62abeed46e254f6","B2","batch2","pattern_response","1064.2999999821186","stim/no_23_1.png","j","pattern_08","j","true","","","","1064.2999999821186","true","40","","","","","","","","","","","","","","","","",""
"","","","","","html-keyboard-response","236","1321987","0.0-3.0-7.0-0.6","5e0413f6d62abeed46e254f6","B2","batch2","pattern_show_trial_num","null","<p class=block-text>Trial 46 out of 78</p>","null","","","","","","","","","","","","","","","","","","","","","","","","","",""
"","","","","","image-keyboard-response","237","1323708","0.0-3.0-7.0-1.6","5e0413f6d62abeed46e254f6","B2","batch2","pattern_response","1719.5999999940395","stim/no_32_1_w.png","j","pattern_14","j","true","","","","1719.5999999940395","true","41","","","","","","","","","","","","","","","","",""
"","","","","","html-keyboard-response","238","1325017","0.0-3.0-7.0-0.7","5e0413f6d62abeed46e254f6","B2","batch2","pattern_show_trial_num","null","<p class=block-text>Trial 47 out of 78</p>","null","","","","","","","","","","","","","","","","","","","","","","","","","",""
"","","","","","image-keyboard-response","239","1328267","0.0-3.0-7.0-1.7","5e0413f6d62abeed46e254f6","B2","batch2","pattern_response","3246.5999999940395","stim/no_65_1_b.png","j","pattern_38","j","true","","","","3246.5999999940395","true","42","","","","","","","","","","","","","","","","",""
"","","","","","html-keyboard-response","240","1329582","0.0-3.0-7.0-0.8","5e0413f6d62abeed46e254f6","B2","batch2","pattern_show_trial_num","null","<p class=block-text>Trial 48 out of 78</p>","null","","","","","","","","","","","","","","","","","","","","","","","","","",""
"","","","","","image-keyboard-response","241","1331784","0.0-3.0-7.0-1.8","5e0413f6d62abeed46e254f6","B2","batch2","pattern_response","2197.300000011921","stim/no_48_1_w.png","j","pattern_28","j","true","","","","2197.300000011921","true","43","","","","","","","","","","","","","","","","",""
"","","","","","html-keyboard-response","242","1333103","0.0-3.0-7.0-0.9","5e0413f6d62abeed46e254f6","B2","batch2","pattern_show_trial_num","null","<p class=block-text>Trial 49 out of 78</p>","null","","","","","","","","","","","","","","","","","","","","","","","","","",""
"","","","","","image-keyboard-response","243","1334370","0.0-3.0-7.0-1.9","5e0413f6d62abeed46e254f6","B2","batch2","pattern_response","1262.0999999940395","stim/yes_52_ver_w1.png","f","pattern_73","f","true","","","","1262.0999999940395","true","44","","","","","","","","","","","","","","","","",""
"","","","","","html-keyboard-response","244","1335682","0.0-3.0-7.0-0.10","5e0413f6d62abeed46e254f6","B2","batch2","pattern_show_trial_num","null","<p class=block-text>Trial 50 out of 78</p>","null","","","","","","","","","","","","","","","","","","","","","","","","","",""
"","","","","","image-keyboard-response","245","1337007","0.0-3.0-7.0-1.10","5e0413f6d62abeed46e254f6","B2","batch2","pattern_response","1322.800000011921","stim/yes_60_ver_b1_b.png","f","pattern_77","f","true","","","","1322.800000011921","true","45","","","","","","","","","","","","","","","","",""
"","","","","","html-keyboard-response","246","1338322","0.0-3.0-7.0-0.11","5e0413f6d62abeed46e254f6","B2","batch2","pattern_show_trial_num","null","<p class=block-text>Trial 51 out of 78</p>","null","","","","","","","","","","","","","","","","","","","","","","","","","",""
"","","","","","image-keyboard-response","247","1341045","0.0-3.0-7.0-1.11","5e0413f6d62abeed46e254f6","B2","batch2","pattern_response","2719.899999976158","stim/no_55_1_w.png","j","pattern_34","j","true","","","","2719.899999976158","true","46","","","","","","","","","","","","","","","","",""
"","","","","","html-keyboard-response","248","1342356","0.0-3.0-7.0-0.12","5e0413f6d62abeed46e254f6","B2","batch2","pattern_show_trial_num","null","<p class=block-text>Trial 52 out of 78</p>","null","","","","","","","","","","","","","","","","","","","","","","","","","",""
"","","","","","image-keyboard-response","249","1345057","0.0-3.0-7.0-1.12","5e0413f6d62abeed46e254f6","B2","batch2","pattern_response","2699.5999999940395","stim/yes_50_dia_w1.png","j","pattern_71","f","false","","","","2699.5999999940395","false","46","","","","","","","","","","","","","","","","",""
"","","","","","html-keyboard-response","250","1346361","0.0-3.0-7.0-0.13","5e0413f6d62abeed46e254f6","B2","batch2","pattern_show_trial_num","null","<p class=block-text>Trial 53 out of 78</p>","null","","","","","","","","","","","","","","","","","","","","","","","","","",""
"","","","","","image-keyboard-response","251","1347921","0.0-3.0-7.0-1.13","5e0413f6d62abeed46e254f6","B2","batch2","pattern_response","1558.300000011921","stim/no_46_1_b.png","j","pattern_26","j","true","","","","1558.300000011921","true","47","","","","","","","","","","","","","","","","",""
"","","","","","html-keyboard-response","252","1349244","0.0-3.0-7.0-0.14","5e0413f6d62abeed46e254f6","B2","batch2","pattern_show_trial_num","null","<p class=block-text>Trial 54 out of 78</p>","null","","","","","","","","","","","","","","","","","","","","","","","","","",""
"","","","","","image-keyboard-response","253","1351026","0.0-3.0-7.0-1.14","5e0413f6d62abeed46e254f6","B2","batch2","pattern_response","1778.5999999940395","stim/no_38_1_b.png","j","pattern_20","j","true","","","","1778.5999999940395","true","48","","","","","","","","","","","","","","","","",""
"","","","","","html-keyboard-response","254","1352341","0.0-3.0-7.0-0.15","5e0413f6d62abeed46e254f6","B2","batch2","pattern_show_trial_num","null","<p class=block-text>Trial 55 out of 78</p>","null","","","","","","","","","","","","","","","","","","","","","","","","","",""
"","","","","","image-keyboard-response","255","1354243","0.0-3.0-7.0-1.15","5e0413f6d62abeed46e254f6","B2","batch2","pattern_response","1897.5999999940395","stim/no_52_1.png","j","pattern_32","j","true","","","","1897.5999999940395","true","49","","","","","","","","","","","","","","","","",""
"","","","","","html-keyboard-response","256","1355552","0.0-3.0-7.0-0.16","5e0413f6d62abeed46e254f6","B2","batch2","pattern_show_trial_num","null","<p class=block-text>Trial 56 out of 78</p>","null","","","","","","","","","","","","","","","","","","","","","","","","","",""
"","","","","","image-keyboard-response","257","1357139","0.0-3.0-7.0-1.16","5e0413f6d62abeed46e254f6","B2","batch2","pattern_response","1583.4000000059605","stim/yes_31_hor_b1.png","f","pattern_55","f","true","","","","1583.4000000059605","true","50","","","","","","","","","","","","","","","","",""
"","","","","","html-keyboard-response","258","1358449","0.0-3.0-7.0-0.17","5e0413f6d62abeed46e254f6","B2","batch2","pattern_show_trial_num","null","<p class=block-text>Trial 57 out of 78</p>","null","","","","","","","","","","","","","","","","","","","","","","","","","",""
"","","","","","image-keyboard-response","259","1359669","0.0-3.0-7.0-1.17","5e0413f6d62abeed46e254f6","B2","batch2","pattern_response","1217.300000011921","stim/yes_17_dia_w1.png","f","pattern_45","f","true","","","","1217.300000011921","true","51","","","","","","","","","","","","","","","","",""
"","","","","","html-keyboard-response","260","1360988","0.0-3.0-7.0-0.18","5e0413f6d62abeed46e254f6","B2","batch2","pattern_show_trial_num","null","<p class=block-text>Trial 58 out of 78</p>","null","","","","","","","","","","","","","","","","","","","","","","","","","",""
"","","","","","image-keyboard-response","261","1362654","0.0-3.0-7.0-1.18","5e0413f6d62abeed46e254f6","B2","batch2","pattern_response","1661.5999999940395","stim/no_42_1_w.png","j","pattern_22","j","true","","","","1661.5999999940395","true","52","","","","","","","","","","","","","","","","",""
"","","","","","html-keyboard-response","262","1363970","0.0-3.0-7.0-0.19","5e0413f6d62abeed46e254f6","B2","batch2","pattern_show_trial_num","null","<p class=block-text>Trial 59 out of 78</p>","null","","","","","","","","","","","","","","","","","","","","","","","","","",""
"","","","","","image-keyboard-response","263","1366853","0.0-3.0-7.0-1.19","5e0413f6d62abeed46e254f6","B2","batch2","pattern_response","2881.4000000059605","stim/no_36_2_w.png","j","pattern_18","j","true","","","","2881.4000000059605","true","53","","","","","","","","","","","","","","","","",""
"","","","","","html-keyboard-response","264","1368165","0.0-3.0-7.0-0.20","5e0413f6d62abeed46e254f6","B2","batch2","pattern_show_trial_num","null","<p class=block-text>Trial 60 out of 78</p>","null","","","","","","","","","","","","","","","","","","","","","","","","","",""
"","","","","","image-keyboard-response","265","1370870","0.0-3.0-7.0-1.20","5e0413f6d62abeed46e254f6","B2","batch2","pattern_response","2704","stim/yes_48_dia_w1_w.png","j","pattern_69","f","false","","","","2704","false","53","","","","","","","","","","","","","","","","",""
"","","","","","html-keyboard-response","266","1372187","0.0-3.0-7.0-0.21","5e0413f6d62abeed46e254f6","B2","batch2","pattern_show_trial_num","null","<p class=block-text>Trial 61 out of 78</p>","null","","","","","","","","","","","","","","","","","","","","","","","","","",""
"","","","","","image-keyboard-response","267","1374586","0.0-3.0-7.0-1.21","5e0413f6d62abeed46e254f6","B2","batch2","pattern_response","2394.2000000178814","stim/no_62_1_w.png","j","pattern_36","j","true","","","","2394.2000000178814","true","54","","","","","","","","","","","","","","","","",""
"","","","","","html-keyboard-response","268","1375904","0.0-3.0-7.0-0.22","5e0413f6d62abeed46e254f6","B2","batch2","pattern_show_trial_num","null","<p class=block-text>Trial 62 out of 78</p>","null","","","","","","","","","","","","","","","","","","","","","","","","","",""
"","","","","","image-keyboard-response","269","1379340","0.0-3.0-7.0-1.22","5e0413f6d62abeed46e254f6","B2","batch2","pattern_response","3432.5","stim/no_70_2.png","j","pattern_40","j","true","","","","3432.5","true","55","","","","","","","","","","","","","","","","",""
"","","","","","html-keyboard-response","270","1380658","0.0-3.0-7.0-0.23","5e0413f6d62abeed46e254f6","B2","batch2","pattern_show_trial_num","null","<p class=block-text>Trial 63 out of 78</p>","null","","","","","","","","","","","","","","","","","","","","","","","","","",""
"","","","","","image-keyboard-response","271","1381531","0.0-3.0-7.0-1.23","5e0413f6d62abeed46e254f6","B2","batch2","pattern_response","871","stim/yes_29_ver_w1.png","f","pattern_53","f","true","","","","871","true","56","","","","","","","","","","","","","","","","",""
"","","","","","html-keyboard-response","272","1382845","0.0-3.0-7.0-0.24","5e0413f6d62abeed46e254f6","B2","batch2","pattern_show_trial_num","null","<p class=block-text>Trial 64 out of 78</p>","null","","","","","","","","","","","","","","","","","","","","","","","","","",""
"","","","","","image-keyboard-response","273","1384426","0.0-3.0-7.0-1.24","5e0413f6d62abeed46e254f6","B2","batch2","pattern_response","1578.199999988079","stim/yes_40_dia_b1_b.png","j","pattern_63","f","false","","","","1578.199999988079","false","56","","","","","","","","","","","","","","","","",""
"","","","","","html-keyboard-response","274","1385755","0.0-3.0-7.0-0.25","5e0413f6d62abeed46e254f6","B2","batch2","pattern_show_trial_num","null","<p class=block-text>Trial 65 out of 78</p>","null","","","","","","","","","","","","","","","","","","","","","","","","","",""
"","","","","","image-keyboard-response","275","1386639","0.0-3.0-7.0-1.25","5e0413f6d62abeed46e254f6","B2","batch2","pattern_response","881.2999999821186","stim/no_26_1_w.png","j","pattern_10","j","true","","","","881.2999999821186","true","57","","","","","","","","","","","","","","","","",""
"","","","","","html-keyboard-response","276","1387959","0.0-3.0-7.0-0.26","5e0413f6d62abeed46e254f6","B2","batch2","pattern_show_trial_num","null","<p class=block-text>Trial 66 out of 78</p>","null","","","","","","","","","","","","","","","","","","","","","","","","","",""
"","","","","","image-keyboard-response","277","1388905","0.0-3.0-7.0-1.26","5e0413f6d62abeed46e254f6","B2","batch2","pattern_response","944.7999999821186","stim/yes_22_ver_w1.png","f","pattern_47","f","true","","","","944.7999999821186","true","58","","","","","","","","","","","","","","","","",""
"","","","","","html-keyboard-response","278","1390225","0.0-3.0-7.0-0.27","5e0413f6d62abeed46e254f6","B2","batch2","pattern_show_trial_num","null","<p class=block-text>Trial 67 out of 78</p>","null","","","","","","","","","","","","","","","","","","","","","","","","","",""
"","","","","","image-keyboard-response","279","1391471","0.0-3.0-7.0-1.27","5e0413f6d62abeed46e254f6","B2","batch2","pattern_response","1242.800000011921","stim/yes_67_hor_b1.png","f","pattern_79","f","true","","","","1242.800000011921","true","59","","","","","","","","","","","","","","","","",""
"","","","","","html-keyboard-response","280","1392792","0.0-3.0-7.0-0.28","5e0413f6d62abeed46e254f6","B2","batch2","pattern_show_trial_num","null","<p class=block-text>Trial 68 out of 78</p>","null","","","","","","","","","","","","","","","","","","","","","","","","","",""
"","","","","","image-keyboard-response","281","1393770","0.0-3.0-7.0-1.28","5e0413f6d62abeed46e254f6","B2","batch2","pattern_response","976.5999999940395","stim/no_20_1_w.png","j","pattern_06","j","true","","","","976.5999999940395","true","60","","","","","","","","","","","","","","","","",""
"","","","","","html-keyboard-response","282","1395080","0.0-3.0-7.0-0.29","5e0413f6d62abeed46e254f6","B2","batch2","pattern_show_trial_num","null","<p class=block-text>Trial 69 out of 78</p>","null","","","","","","","","","","","","","","","","","","","","","","","","","",""
"","","","","","image-keyboard-response","283","1395785","0.0-3.0-7.0-1.29","5e0413f6d62abeed46e254f6","B2","batch2","pattern_response","701.7999999821186","stim/no_17_1_w.png","j","pattern_04","j","true","","","","701.7999999821186","true","61","","","","","","","","","","","","","","","","",""
"","","","","","html-keyboard-response","284","1397102","0.0-3.0-7.0-0.30","5e0413f6d62abeed46e254f6","B2","batch2","pattern_show_trial_num","null","<p class=block-text>Trial 70 out of 78</p>","null","","","","","","","","","","","","","","","","","","","","","","","","","",""
"","","","","","image-keyboard-response","285","1399156","0.0-3.0-7.0-1.30","5e0413f6d62abeed46e254f6","B2","batch2","pattern_response","2050.2000000178814","stim/no_50_1.png","j","pattern_30","j","true","","","","2050.2000000178814","true","62","","","","","","","","","","","","","","","","",""
"","","","","","html-keyboard-response","286","1400477","0.0-3.0-7.0-0.31","5e0413f6d62abeed46e254f6","B2","batch2","pattern_show_trial_num","null","<p class=block-text>Trial 71 out of 78</p>","null","","","","","","","","","","","","","","","","","","","","","","","","","",""
"","","","","","image-keyboard-response","287","1401476","0.0-3.0-7.0-1.31","5e0413f6d62abeed46e254f6","B2","batch2","pattern_response","995.0999999940395","stim/yes_43_ver_w1_w.png","f","pattern_65","f","true","","","","995.0999999940395","true","63","","","","","","","","","","","","","","","","",""
"","","","","","html-keyboard-response","288","1402788","0.0-3.0-7.0-0.32","5e0413f6d62abeed46e254f6","B2","batch2","pattern_show_trial_num","null","<p class=block-text>Trial 72 out of 78</p>","null","","","","","","","","","","","","","","","","","","","","","","","","","",""
"","","","","","image-keyboard-response","289","1403544","0.0-3.0-7.0-1.32","5e0413f6d62abeed46e254f6","B2","batch2","pattern_response","754","stim/yes_14_hor_b1_w.png","f","pattern_43","f","true","","","","754","true","64","","","","","","","","","","","","","","","","",""
"","","","","","html-keyboard-response","290","1404852","0.0-3.0-7.0-0.33","5e0413f6d62abeed46e254f6","B2","batch2","pattern_show_trial_num","null","<p class=block-text>Trial 73 out of 78</p>","null","","","","","","","","","","","","","","","","","","","","","","","","","",""
"","","","","","image-keyboard-response","291","1405619","0.0-3.0-7.0-1.33","5e0413f6d62abeed46e254f6","B2","batch2","pattern_response","765.5","stim/yes_28_ver_b1.png","f","pattern_51","f","true","","","","765.5","true","65","","","","","","","","","","","","","","","","",""
"","","","","","html-keyboard-response","292","1406934","0.0-3.0-7.0-0.34","5e0413f6d62abeed46e254f6","B2","batch2","pattern_show_trial_num","null","<p class=block-text>Trial 74 out of 78</p>","null","","","","","","","","","","","","","","","","","","","","","","","","","",""
"","","","","","image-keyboard-response","293","1407519","0.0-3.0-7.0-1.34","5e0413f6d62abeed46e254f6","B2","batch2","pattern_response","581.5999999940395","stim/no_13_2_b.png","j","pattern_02","j","true","","","","581.5999999940395","true","66","","","","","","","","","","","","","","","","",""
"","","","","","html-keyboard-response","294","1408830","0.0-3.0-7.0-0.35","5e0413f6d62abeed46e254f6","B2","batch2","pattern_show_trial_num","null","<p class=block-text>Trial 75 out of 78</p>","null","","","","","","","","","","","","","","","","","","","","","","","","","",""
"","","","","","image-keyboard-response","295","1410779","0.0-3.0-7.0-1.35","5e0413f6d62abeed46e254f6","B2","batch2","pattern_response","1947.300000011921","stim/no_44_1.png","j","pattern_24","j","true","","","","1947.300000011921","true","67","","","","","","","","","","","","","","","","",""
"","","","","","html-keyboard-response","296","1412096","0.0-3.0-7.0-0.36","5e0413f6d62abeed46e254f6","B2","batch2","pattern_show_trial_num","null","<p class=block-text>Trial 76 out of 78</p>","null","","","","","","","","","","","","","","","","","","","","","","","","","",""
"","","","","","image-keyboard-response","297","1413611","0.0-3.0-7.0-1.36","5e0413f6d62abeed46e254f6","B2","batch2","pattern_response","1510.7000000178814","stim/yes_38_hor_b1_b.png","f","pattern_61","f","true","","","","1510.7000000178814","true","68","","","","","","","","","","","","","","","","",""
"","","","","","html-keyboard-response","298","1414928","0.0-3.0-7.0-0.37","5e0413f6d62abeed46e254f6","B2","batch2","pattern_show_trial_num","null","<p class=block-text>Trial 77 out of 78</p>","null","","","","","","","","","","","","","","","","","","","","","","","","","",""
"","","","","","image-keyboard-response","299","1417040","0.0-3.0-7.0-1.37","5e0413f6d62abeed46e254f6","B2","batch2","pattern_response","2110.800000011921","stim/no_29_1_b.png","j","pattern_12","j","true","","","","2110.800000011921","true","69","","","","","","","","","","","","","","","","",""
"","","","","","html-keyboard-response","300","1418349","0.0-3.0-7.0-0.38","5e0413f6d62abeed46e254f6","B2","batch2","pattern_show_trial_num","null","<p class=block-text>Trial 78 out of 78</p>","null","","","","","","","","","","","","","","","","","","","","","","","","","",""
"","","","","","image-keyboard-response","301","1420008","0.0-3.0-7.0-1.38","5e0413f6d62abeed46e254f6","B2","batch2","pattern_response","1656.0999999940395","stim/yes_37_dia_w1.png","j","pattern_59","f","false","","","","1656.0999999940395","false","69","","","","","","","","","","","","","","","","",""
"","","","","","html-button-response","302","1425233","0.0-3.0-8.0","5e0413f6d62abeed46e254f6","B2","batch2","","4709","<p class = block-text>This concludes the 4-in-a-row detection game.Thank you for your responses!<br>
            You responded correctly on 88% of the trials.<br>
            When you are ready, press ""Continue"" button to continue </p>","0","","","","","","","","","","","","","","","","","","","","","","","","","",""
"true","","","","","fullscreen","303","1427360","0.0-4.0-0.0","5e0413f6d62abeed46e254f6","B2","batch2","","","","","","","","","","","","","","","","","","","","","","","","","","","","","",""
"","","","","","instructions","304","1468320","0.0-4.0-1.0-0.0-0.0","5e0413f6d62abeed46e254f6","B2","batch2","tol-instructions","40960.10000002384","","","","","","","","[{""page_index"":0,""viewing_time"":7752},{""page_index"":1,""viewing_time"":5619.300000011921},{""page_index"":2,""viewing_time"":3880.9000000059605},{""page_index"":3,""viewing_time"":8201.699999988079},{""page_index"":4,""viewing_time"":2431.800000011921},{""page_index"":5,""viewing_time"":11057.799999982119},{""page_index"":6,""viewing_time"":2016.300000011921}]","","","","","","","","","","","","","","","","","","","",""
"","","","","","html-button-response","305","1469344","0.0-4.0-1.0-1.0-0.0","5e0413f6d62abeed46e254f6","B2","batch2","tol_enter_quiz","1022.6999999880791","<p class=block-text> Let's answer a few questions <br>","0","","","","","","","","","","","","","","","","","","","","","","","","","",""
"","","","","","html-button-response","306","1475898","0.0-4.0-1.0-1.0-1.0","5e0413f6d62abeed46e254f6","B2","batch2","tol_quiz","6553.0999999940395","<p class = block-text>True or False: You can only move the ball on top of a peg. <br></p>","0","","","true","","","","","","","","","","","","","","","","","","","","","","",""
"","","","","","html-button-response","307","1476561","0.0-4.0-1.0-1.0-2.0","5e0413f6d62abeed46e254f6","B2","batch2","tol_quiz_feedback","661.4000000059605","<p class = block-text>Correct! You can only move the ball on top of a peg.</p>","0","","","","","","","","","","","","","","","","","","","","","","","","","",""
"","","","","","html-button-response","308","1478353","0.0-4.0-1.0-1.0-3.0","5e0413f6d62abeed46e254f6","B2","batch2","tol_quiz","1791.7999999821186","<p class = block-text>True or False: You should try to match your board with the target board with fewest moves possible. <br></p>","0","","","true","","","","","","","","","","","","","","","","","","","","","","",""
"","","","","","html-button-response","309","1478906","0.0-4.0-1.0-1.0-4.0","5e0413f6d62abeed46e254f6","B2","batch2","tol_quiz_feedback","551.5","<p class = block-text>Correct! </p>","0","","","","","","","","","","","","","","","","","","","","","","","","","",""
"","","","","","html-button-response","310","1480346","0.0-4.0-2.0","5e0413f6d62abeed46e254f6","B2","batch2","","1439.0999999940395","<p class=block-text> Now that you've understood the game, let's practice a few easier examples before we start!<br> <br>","0","","","","","","","","","","","","","","","","","","","","","","","","","",""
"","","","","","single-stim-button","311","1482940","0.0-4.0-3.0-0.0","5e0413f6d62abeed46e254f6","B2","batch2","tol_practice","2592","","","","","","","","","","","","","","tol_peg_2","2592","2592","0","[[1,2,0],[0,0],[0]]","1","[[1,2,0],[0,0],[3]]","practice","2592","","","","","",""
"","","","","","single-stim-button","312","1484906","0.0-4.0-3.0-1.0","5e0413f6d62abeed46e254f6","B2","batch2","tol_practice","1965","","","","","","","","","","","","","","tol_peg_3","1965","1965","0","[[1,2,0],[0,0],[3]]","1","[[1,2,0],[0,0],[3]]","practice","1965","","","","","",""
"","","","","","poldrack-single-stim","313","1485921","0.0-4.0-4.0","5e0413f6d62abeed46e254f6","B2","batch2","tol_feedback","-1","","","","","true","","","","","","","","","","1000","1000","500","","","","","","-1","none","true","","0",""
"","","","","","single-stim-button","314","1489619","0.0-4.0-5.0-0.0","5e0413f6d62abeed46e254f6","B2","batch2","tol_practice","3696","","","","","","","","","","","","","","tol_peg_1","3696","3696","0","[[1,0,0],[3,0],[0]]","2","[[0,0,0],[3,1],[2]]","practice","3696","","","","","",""
"","","","","","single-stim-button","315","1491715","0.0-4.0-5.0-1.0","5e0413f6d62abeed46e254f6","B2","batch2","tol_practice","2095","","","","","","","","","","","","","","tol_peg_3","2095","2095","0","[[1,0,0],[3,0],[2]]","2","[[0,0,0],[3,1],[2]]","practice","2095","","","","","",""
"","","","","","single-stim-button","316","1492531","0.0-4.0-5.1-0.1","5e0413f6d62abeed46e254f6","B2","batch2","tol_practice","815","","","","","","","","","","","","","","tol_peg_1","815","815","0","[[0,0,0],[3,0],[2]]","3","[[0,0,0],[3,1],[2]]","practice","815","","","","","",""
"","","","","","single-stim-button","317","1493179","0.0-4.0-5.1-1.1","5e0413f6d62abeed46e254f6","B2","batch2","tol_practice","647","","","","","","","","","","","","","","tol_peg_2","647","647","0","[[0,0,0],[3,1],[2]]","3","[[0,0,0],[3,1],[2]]","practice","647","","","","","",""
"","","","","","poldrack-single-stim","318","1494181","0.0-4.0-6.0","5e0413f6d62abeed46e254f6","B2","batch2","tol_feedback","-1","","","","","true","","","","","","","","","","1000","1000","500","","","","","","-1","none","true","","0",""
"","","","","","single-stim-button","319","1497547","0.0-4.0-7.0-0.0","5e0413f6d62abeed46e254f6","B2","batch2","tol_practice","3366","","","","","","","","","","","","","","tol_peg_2","3366","3366","0","[[1,2,0],[0,0],[0]]","4","[[1,0,0],[2,0],[3]]","practice","3366","","","","","",""
"","","","","","single-stim-button","320","1498652","0.0-4.0-7.0-1.0","5e0413f6d62abeed46e254f6","B2","batch2","tol_practice","1104","","","","","","","","","","","","","","tol_peg_3","1104","1104","0","[[1,2,0],[0,0],[3]]","4","[[1,0,0],[2,0],[3]]","practice","1104","","","","","",""
"","","","","","single-stim-button","321","1499284","0.0-4.0-7.1-0.1","5e0413f6d62abeed46e254f6","B2","batch2","tol_practice","631","","","","","","","","","","","","","","tol_peg_1","631","631","0","[[1,0,0],[0,0],[3]]","5","[[1,0,0],[2,0],[3]]","practice","631","","","","","",""
"","","","","","single-stim-button","322","1500117","0.0-4.0-7.1-1.1","5e0413f6d62abeed46e254f6","B2","batch2","tol_practice","832","","","","","","","","","","","","","","tol_peg_2","832","832","0","[[1,0,0],[2,0],[3]]","5","[[1,0,0],[2,0],[3]]","practice","832","","","","","",""
"","","","","","poldrack-single-stim","323","1501119","0.0-4.0-8.0","5e0413f6d62abeed46e254f6","B2","batch2","tol_feedback","-1","","","","","true","","","","","","","","","","1000","1000","500","","","","","","-1","none","true","","0",""
"","","","","","html-button-response","324","1502484","0.0-4.0-9.0","5e0413f6d62abeed46e254f6","B2","batch2","tol_instruction","1363.7000000178814","<div class = centerbox><p class = center-block-text>Great job! You are done with practice trials<br>You are about to start official trials.<br> <br> Problem <strong>1</strong> out of 25 problems</p></div>","0","","","","","","","","","","","","","","","","","","","","","","","","","",""
"","","","","","single-stim-button","325","1507413","0.0-4.0-10.0-0.0","5e0413f6d62abeed46e254f6","B2","batch2","tol_tohand","3919","","","","","","","","","","","","","","tol_peg_1","3919","3919","0","[[1,0,0],[3,0],[0]]","1","[[1,3,0],[2,0],[0]]","0","0","","","","","","3"
"","","","","","single-stim-button","326","1508966","0.0-4.0-10.0-1.0","5e0413f6d62abeed46e254f6","B2","batch2","tol_toboard","1552","","","","","","","","","","","","","","tol_peg_3","1552","1552","0","[[1,0,0],[3,0],[2]]","1","[[1,3,0],[2,0],[0]]","0","0","","","","","","3"
"","","","","","single-stim-button","327","1509541","0.0-4.0-10.1-0.1","5e0413f6d62abeed46e254f6","B2","batch2","tol_tohand","574","","","","","","","","","","","","","","tol_peg_2","574","574","0","[[1,0,0],[0,0],[2]]","2","[[1,3,0],[2,0],[0]]","0","0","","","","","","3"
"","","","","","single-stim-button","328","1510349","0.0-4.0-10.1-1.1","5e0413f6d62abeed46e254f6","B2","batch2","tol_toboard","807","","","","","","","","","","","","","","tol_peg_1","807","807","0","[[1,3,0],[0,0],[2]]","2","[[1,3,0],[2,0],[0]]","0","0","","","","","","3"
"","","","","","single-stim-button","329","1511031","0.0-4.0-10.2-0.2","5e0413f6d62abeed46e254f6","B2","batch2","tol_tohand","680","","","","","","","","","","","","","","tol_peg_3","680","680","0","[[1,3,0],[0,0],[0]]","3","[[1,3,0],[2,0],[0]]","0","0","","","","","","3"
"","","","","","single-stim-button","330","1511678","0.0-4.0-10.2-1.2","5e0413f6d62abeed46e254f6","B2","batch2","tol_toboard","646","","","","","","","","","","","","","","tol_peg_2","646","646","0","[[1,3,0],[2,0],[0]]","3","[[1,3,0],[2,0],[0]]","0","0","","","","","","3"
"","","","","","poldrack-single-stim","331","1512685","0.0-4.0-11.0","5e0413f6d62abeed46e254f6","B2","batch2","tol_feedback","-1","","","","","true","","","","","","","","","","1000","1000","500","","","","","","-1","none","true","3919","5173",""
"","","","","","html-button-response","332","1513509","0.0-4.0-12.0","5e0413f6d62abeed46e254f6","B2","batch2","tol_trial_num","823.3000000119209","<div class = centerbox><p class = center-block-text>problem <strong>2</strong> out of 25 problems</p></div>","0","","","","","","","","","","","","","","","","","","","","","","","","","",""
"","","","","","single-stim-button","333","1520823","0.0-4.0-13.0-0.0","5e0413f6d62abeed46e254f6","B2","batch2","tol_tohand","7313","","","","","","","","","","","","","","tol_peg_1","7313","7313","0","[[1,0,0],[3,0],[0]]","1","[[2,1,3],[0,0],[0]]","1","0","","","","","","5"
"","","","","","single-stim-button","334","1522216","0.0-4.0-13.0-1.0","5e0413f6d62abeed46e254f6","B2","batch2","tol_toboard","1392","","","","","","","","","","","","","","tol_peg_3","1392","1392","0","[[1,0,0],[3,0],[2]]","1","[[2,1,3],[0,0],[0]]","1","0","","","","","","5"
"","","","","","single-stim-button","335","1522743","0.0-4.0-13.1-0.1","5e0413f6d62abeed46e254f6","B2","batch2","tol_tohand","526","","","","","","","","","","","","","","tol_peg_1","526","526","0","[[0,0,0],[3,0],[2]]","2","[[2,1,3],[0,0],[0]]","1","0","","","","","","5"
"","","","","","single-stim-button","336","1523463","0.0-4.0-13.1-1.1","5e0413f6d62abeed46e254f6","B2","batch2","tol_toboard","719","","","","","","","","","","","","","","tol_peg_2","719","719","0","[[0,0,0],[3,1],[2]]","2","[[2,1,3],[0,0],[0]]","1","0","","","","","","5"
"","","","","","single-stim-button","337","1523999","0.0-4.0-13.2-0.2","5e0413f6d62abeed46e254f6","B2","batch2","tol_tohand","534","","","","","","","","","","","","","","tol_peg_3","534","534","0","[[0,0,0],[3,1],[0]]","3","[[2,1,3],[0,0],[0]]","1","0","","","","","","5"
"","","","","","single-stim-button","338","1525185","0.0-4.0-13.2-1.2","5e0413f6d62abeed46e254f6","B2","batch2","tol_toboard","1186","","","","","","","","","","","","","","tol_peg_1","1186","1186","0","[[2,0,0],[3,1],[0]]","3","[[2,1,3],[0,0],[0]]","1","0","","","","","","5"
"","","","","","single-stim-button","339","1525807","0.0-4.0-13.3-0.3","5e0413f6d62abeed46e254f6","B2","batch2","tol_tohand","620","","","","","","","","","","","","","","tol_peg_2","620","620","0","[[2,0,0],[3,0],[0]]","4","[[2,1,3],[0,0],[0]]","1","0","","","","","","5"
"","","","","","single-stim-button","340","1526248","0.0-4.0-13.3-1.3","5e0413f6d62abeed46e254f6","B2","batch2","tol_toboard","441","","","","","","","","","","","","","","tol_peg_1","441","441","0","[[2,1,0],[3,0],[0]]","4","[[2,1,3],[0,0],[0]]","1","0","","","","","","5"
"","","","","","single-stim-button","341","1526928","0.0-4.0-13.4-0.4","5e0413f6d62abeed46e254f6","B2","batch2","tol_tohand","679","","","","","","","","","","","","","","tol_peg_2","679","679","0","[[2,1,0],[0,0],[0]]","5","[[2,1,3],[0,0],[0]]","1","0","","","","","","5"
"","","","","","single-stim-button","342","1527537","0.0-4.0-13.4-1.4","5e0413f6d62abeed46e254f6","B2","batch2","tol_toboard","608","","","","","","","","","","","","","","tol_peg_1","608","608","0","[[2,1,3],[0,0],[0]]","5","[[2,1,3],[0,0],[0]]","1","0","","","","","","5"
"","","","","","poldrack-single-stim","343","1528553","0.0-4.0-14.0","5e0413f6d62abeed46e254f6","B2","batch2","tol_feedback","-1","","","","","true","","","","","","","","","","1000","1000","500","","","","","","-1","none","true","7313","9672",""
"","","","","","html-button-response","344","1529320","0.0-4.0-15.0","5e0413f6d62abeed46e254f6","B2","batch2","tol_trial_num","765.4000000059605","<div class = centerbox><p class = center-block-text>problem <strong>3</strong> out of 25 problems</p></div>","0","","","","","","","","","","","","","","","","","","","","","","","","","",""
"","","","","","single-stim-button","345","1536129","0.0-4.0-16.0-0.0","5e0413f6d62abeed46e254f6","B2","batch2","tol_tohand","6809","","","","","","","","","","","","","","tol_peg_1","6809","6809","0","[[2,0,0],[0,0],[1]]","1","[[1,2,0],[3,0],[0]]","2","0","","","","","","4"
"","","","","","single-stim-button","346","1537705","0.0-4.0-16.0-1.0","5e0413f6d62abeed46e254f6","B2","batch2","tol_toboard","1576","","","","","","","","","","","","","","tol_peg_2","1576","1576","0","[[2,0,0],[3,0],[1]]","1","[[1,2,0],[3,0],[0]]","2","0","","","","","","4"
