"success","timeout","failed_images","failed_audio","failed_video","trial_type","trial_index","time_elapsed","internal_node_id","subject_id","study_id","session_id","view_history","rt","stimulus","response","task","correct","answer","item","fiar_detect_rt","fiar_detect_correct","total_correct_fiar_detect","post_trial_gap","choices","mouse_click","stim_duration","block_duration","timing_post_trial","current_position","tol_num_moves_made","tol_target","tol_problem_id","tol_rt","key_press","possible_responses","tol_correct","preplanning","tol_rt_per_trial","tol_min_moves","spm_correct","spm_rt"
"true","false","[]","[]","[]","preload","0","2812","0.0-0.0","5e065c9fe78021031a4b1d59","D2","batch4","","","","","","","","","","","","","","","","","","","","","","","","","","","","","",""
"true","","","","","fullscreen","1","12624","0.0-1.0-0.0","5e065c9fe78021031a4b1d59","D2","batch4","","","","","","","","","","","","","","","","","","","","","","","","","","","","","",""
"true","","","","","fullscreen","2","16183","0.0-2.0-0.0","5e065c9fe78021031a4b1d59","D2","batch4","","","","","","","","","","","","","","","","","","","","","","","","","","","","","",""
"","","","","","instructions","3","37107","0.0-2.0-1.0-0.0","5e065c9fe78021031a4b1d59","D2","batch4","[{""page_index"":0,""viewing_time"":13640.699999988079},{""page_index"":1,""viewing_time"":7280.0999999940395}]","20921.40000000596","","","","","","","","","","","","","","","","","","","","","","","","","","","",""
"","","","","","html-button-response","4","38140","0.0-2.0-1.0-1.0-0.0","5e065c9fe78021031a4b1d59","D2","batch4","","1029.800000011921","<p class=block-text> Let's answer a few questions <br>","0","pattern_enter_quiz","","","","","","","","","","","","","","","","","","","","","","","","",""
"","","","","","html-button-response","5","40356","0.0-2.0-1.0-1.0-1.0","5e065c9fe78021031a4b1d59","D2","batch4","","2213.5","<p class = block-text>True or False: You will have as much time as you want to make each choice. <br></p>","1","pattern_quiz","true","","","","","","","","","","","","","","","","","","","","","","","",""
"","","","","","html-button-response","6","41280","0.0-2.0-1.0-1.0-2.0","5e065c9fe78021031a4b1d59","D2","batch4","","921.0999999940395","<p class = block-text>Correct! You should make your choice <strong> as fast as you can</strong>.</p>","0","pattern_quiz_feedback","","","","","","","","","","","","","","","","","","","","","","","","",""
"","","","","","html-button-response","7","43907","0.0-2.0-1.0-1.0-3.0","5e065c9fe78021031a4b1d59","D2","batch4","","2624.2999999821186","<p class = block-text>True or False: You will look for 4 pieces in black or white color connected in a row either horizontally, vertically or diagonally. <br></p>","0","pattern_quiz","true","","","","","","","","","","","","","","","","","","","","","","","",""
"","","","","","html-button-response","8","44517","0.0-2.0-1.0-1.0-4.0","5e065c9fe78021031a4b1d59","D2","batch4","","609.0999999940395","<p class = block-text>Correct! </p>","0","pattern_quiz_feedback","","","","","","","","","","","","","","","","","","","","","","","","",""
"","","","","","html-button-response","9","45560","0.0-2.0-2.0","5e065c9fe78021031a4b1d59","D2","batch4","","1040.5999999940395","<p class=block-text> Now that you've understood the game, let's do a few practice trials before we start!<br> <br>","0","pattern_enter_practice","","","","","","","","","","","","","","","","","","","","","","","","",""
"","","","","","image-keyboard-response","10","48368","0.0-2.0-3.0-0.0","5e065c9fe78021031a4b1d59","D2","batch4","","2795.5","stim/prac_no_18_1.png","j","pattern_practice","true","j","","","","","","","","","","","","","","","","","","","","","","",""
"","","","","","html-keyboard-response","11","49377","0.0-2.0-3.0-1.0","5e065c9fe78021031a4b1d59","D2","batch4","","null","<p style=""font-size:30px;color:green;"">Correct!</p>","null","pattern_feedback","","","","","","","","","","","","","","","","","","","","","","","","",""
"","","","","","image-keyboard-response","12","50083","0.0-2.0-3.0-0.1","5e065c9fe78021031a4b1d59","D2","batch4","","703.5999999940395","stim/prac_yes_16_ver_w1.png","f","pattern_practice","true","f","","","","","","","","","","","","","","","","","","","","","","",""
"","","","","","html-keyboard-response","13","51103","0.0-2.0-3.0-1.1","5e065c9fe78021031a4b1d59","D2","batch4","","null","<p style=""font-size:30px;color:green;"">Correct!</p>","null","pattern_feedback","","","","","","","","","","","","","","","","","","","","","","","","",""
"","","","","","image-keyboard-response","14","52137","0.0-2.0-3.0-0.2","5e065c9fe78021031a4b1d59","D2","batch4","","1031","stim/prac_no_16_1.png","j","pattern_practice","true","j","","","","","","","","","","","","","","","","","","","","","","",""
"","","","","","html-keyboard-response","15","53154","0.0-2.0-3.0-1.2","5e065c9fe78021031a4b1d59","D2","batch4","","null","<p style=""font-size:30px;color:green;"">Correct!</p>","null","pattern_feedback","","","","","","","","","","","","","","","","","","","","","","","","",""
"","","","","","image-keyboard-response","16","54264","0.0-2.0-3.0-0.3","5e065c9fe78021031a4b1d59","D2","batch4","","1107.5999999940395","stim/prac_yes_18_hor_w1.png","f","pattern_practice","true","f","","","","","","","","","","","","","","","","","","","","","","",""
"","","","","","html-keyboard-response","17","55273","0.0-2.0-3.0-1.3","5e065c9fe78021031a4b1d59","D2","batch4","","null","<p style=""font-size:30px;color:green;"">Correct!</p>","null","pattern_feedback","","","","","","","","","","","","","","","","","","","","","","","","",""
"","","","","","image-keyboard-response","18","57407","0.0-2.0-3.0-0.4","5e065c9fe78021031a4b1d59","D2","batch4","","2130.7999999821186","stim/prac_yes_20_dia_b1.png","j","pattern_practice","false","f","","","","","","","","","","","","","","","","","","","","","","",""
"","","","","","html-keyboard-response","19","58425","0.0-2.0-3.0-1.4","5e065c9fe78021031a4b1d59","D2","batch4","","null","<p style=""font-size:30px;color:red;"">Wrong.</p>","null","pattern_feedback","","","","","","","","","","","","","","","","","","","","","","","","",""
"","","","","","html-button-response","20","60698","0.0-2.0-4.0","5e065c9fe78021031a4b1d59","D2","batch4","","2270.5","<p class=block-text> Good job! You are done with practice trials!<br>
        You responded correctly on 80% of the trials.<br>
        Press the button below to start official trials. Now you won't see any feedback about your response</p>","0","pattern_enter_official_trials","","","","","","","","","","","","","","","","","","","","","","","","",""
"","","","","","html-keyboard-response","21","61506","0.0-2.0-5.0-0.0","5e065c9fe78021031a4b1d59","D2","batch4","","null","<p class=block-text>Trial 1 out of 78</p>","null","pattern_show_trial_num","","","","","","","","","","","","","","","","","","","","","","","","",""
"","","","","","image-keyboard-response","22","62860","0.0-2.0-5.0-1.0","5e065c9fe78021031a4b1d59","D2","batch4","","1349.4000000059605","stim/no_12_1.png","j","pattern_response","true","j","pattern_01","1349.4000000059605","true","1","","","","","","","","","","","","","","","","","","",""
"","","","","","html-keyboard-response","23","64179","0.0-2.0-5.0-0.1","5e065c9fe78021031a4b1d59","D2","batch4","","null","<p class=block-text>Trial 2 out of 78</p>","null","pattern_show_trial_num","","","","","","","","","","","","","","","","","","","","","","","","",""
"","","","","","image-keyboard-response","24","67332","0.0-2.0-5.0-1.1","5e065c9fe78021031a4b1d59","D2","batch4","","3149.800000011921","stim/yes_53_ver_b1_b.png","f","pattern_response","true","f","pattern_74","3149.800000011921","true","2","","","","","","","","","","","","","","","","","","",""
"","","","","","html-keyboard-response","25","68650","0.0-2.0-5.0-0.2","5e065c9fe78021031a4b1d59","D2","batch4","","null","<p class=block-text>Trial 3 out of 78</p>","null","pattern_show_trial_num","","","","","","","","","","","","","","","","","","","","","","","","",""
"","","","","","image-keyboard-response","26","70457","0.0-2.0-5.0-1.2","5e065c9fe78021031a4b1d59","D2","batch4","","1806.2000000178814","stim/yes_46_ver_b1_b.png","f","pattern_response","true","f","pattern_68","1806.2000000178814","true","3","","","","","","","","","","","","","","","","","","",""
"","","","","","html-keyboard-response","27","71767","0.0-2.0-5.0-0.3","5e065c9fe78021031a4b1d59","D2","batch4","","null","<p class=block-text>Trial 4 out of 78</p>","null","pattern_show_trial_num","","","","","","","","","","","","","","","","","","","","","","","","",""
"","","","","","image-keyboard-response","28","73401","0.0-2.0-5.0-1.3","5e065c9fe78021031a4b1d59","D2","batch4","","1629.5","stim/yes_44_ver_w1_w.png","f","pattern_response","true","f","pattern_66","1629.5","true","4","","","","","","","","","","","","","","","","","","",""
"","","","","","html-keyboard-response","29","74712","0.0-2.0-5.0-0.4","5e065c9fe78021031a4b1d59","D2","batch4","","null","<p class=block-text>Trial 5 out of 78</p>","null","pattern_show_trial_num","","","","","","","","","","","","","","","","","","","","","","","","",""
"","","","","","image-keyboard-response","30","76782","0.0-2.0-5.0-1.4","5e065c9fe78021031a4b1d59","D2","batch4","","2067.0999999940395","stim/no_37_2_w.png","j","pattern_response","true","j","pattern_19","2067.0999999940395","true","5","","","","","","","","","","","","","","","","","","",""
"","","","","","html-keyboard-response","31","78099","0.0-2.0-5.0-0.5","5e065c9fe78021031a4b1d59","D2","batch4","","null","<p class=block-text>Trial 6 out of 78</p>","null","pattern_show_trial_num","","","","","","","","","","","","","","","","","","","","","","","","",""
"","","","","","image-keyboard-response","32","80081","0.0-2.0-5.0-1.5","5e065c9fe78021031a4b1d59","D2","batch4","","1977.7000000178814","stim/no_22_1_b.png","j","pattern_response","true","j","pattern_07","1977.7000000178814","true","6","","","","","","","","","","","","","","","","","","",""
"","","","","","html-keyboard-response","33","81392","0.0-2.0-5.0-0.6","5e065c9fe78021031a4b1d59","D2","batch4","","null","<p class=block-text>Trial 7 out of 78</p>","null","pattern_show_trial_num","","","","","","","","","","","","","","","","","","","","","","","","",""
"","","","","","image-keyboard-response","34","82302","0.0-2.0-5.0-1.6","5e065c9fe78021031a4b1d59","D2","batch4","","906.3999999761581","stim/yes_70_ver_b1.png","f","pattern_response","true","f","pattern_80","906.3999999761581","true","7","","","","","","","","","","","","","","","","","","",""
"","","","","","html-keyboard-response","35","83617","0.0-2.0-5.0-0.7","5e065c9fe78021031a4b1d59","D2","batch4","","null","<p class=block-text>Trial 8 out of 78</p>","null","pattern_show_trial_num","","","","","","","","","","","","","","","","","","","","","","","","",""
"","","","","","image-keyboard-response","36","85312","0.0-2.0-5.0-1.7","5e065c9fe78021031a4b1d59","D2","batch4","","1692.5","stim/no_25_1_b.png","j","pattern_response","true","j","pattern_09","1692.5","true","8","","","","","","","","","","","","","","","","","","",""
"","","","","","html-keyboard-response","37","86625","0.0-2.0-5.0-0.8","5e065c9fe78021031a4b1d59","D2","batch4","","null","<p class=block-text>Trial 9 out of 78</p>","null","pattern_show_trial_num","","","","","","","","","","","","","","","","","","","","","","","","",""
"","","","","","image-keyboard-response","38","88050","0.0-2.0-5.0-1.8","5e065c9fe78021031a4b1d59","D2","batch4","","1422.2999999821186","stim/yes_49_hor_w1_b.png","f","pattern_response","true","f","pattern_70","1422.2999999821186","true","9","","","","","","","","","","","","","","","","","","",""
"","","","","","html-keyboard-response","39","89362","0.0-2.0-5.0-0.9","5e065c9fe78021031a4b1d59","D2","batch4","","null","<p class=block-text>Trial 10 out of 78</p>","null","pattern_show_trial_num","","","","","","","","","","","","","","","","","","","","","","","","",""
"","","","","","image-keyboard-response","40","90644","0.0-2.0-5.0-1.9","5e065c9fe78021031a4b1d59","D2","batch4","","1278.5","stim/yes_30_ver_b1_b.png","f","pattern_response","true","f","pattern_54","1278.5","true","10","","","","","","","","","","","","","","","","","","",""
"","","","","","html-keyboard-response","41","91960","0.0-2.0-5.0-0.10","5e065c9fe78021031a4b1d59","D2","batch4","","null","<p class=block-text>Trial 11 out of 78</p>","null","pattern_show_trial_num","","","","","","","","","","","","","","","","","","","","","","","","",""
"","","","","","image-keyboard-response","42","93139","0.0-2.0-5.0-1.10","5e065c9fe78021031a4b1d59","D2","batch4","","1175.2999999821186","stim/no_15_1_w.png","j","pattern_response","true","j","pattern_03","1175.2999999821186","true","11","","","","","","","","","","","","","","","","","","",""
"","","","","","html-keyboard-response","43","94456","0.0-2.0-5.0-0.11","5e065c9fe78021031a4b1d59","D2","batch4","","null","<p class=block-text>Trial 12 out of 78</p>","null","pattern_show_trial_num","","","","","","","","","","","","","","","","","","","","","","","","",""
"","","","","","image-keyboard-response","44","95414","0.0-2.0-5.0-1.11","5e065c9fe78021031a4b1d59","D2","batch4","","954.9000000059605","stim/yes_37_hor_w1_w.png","f","pattern_response","true","f","pattern_60","954.9000000059605","true","12","","","","","","","","","","","","","","","","","","",""
"","","","","","html-keyboard-response","45","96727","0.0-2.0-5.0-0.12","5e065c9fe78021031a4b1d59","D2","batch4","","null","<p class=block-text>Trial 13 out of 78</p>","null","pattern_show_trial_num","","","","","","","","","","","","","","","","","","","","","","","","",""
"","","","","","image-keyboard-response","46","98095","0.0-2.0-5.0-1.12","5e065c9fe78021031a4b1d59","D2","batch4","","1365.4000000059605","stim/no_18_1_b.png","j","pattern_response","true","j","pattern_05","1365.4000000059605","true","13","","","","","","","","","","","","","","","","","","",""
"","","","","","html-keyboard-response","47","99410","0.0-2.0-5.0-0.13","5e065c9fe78021031a4b1d59","D2","batch4","","null","<p class=block-text>Trial 14 out of 78</p>","null","pattern_show_trial_num","","","","","","","","","","","","","","","","","","","","","","","","",""
"","","","","","image-keyboard-response","48","101093","0.0-2.0-5.0-1.13","5e065c9fe78021031a4b1d59","D2","batch4","","1679.9000000059605","stim/no_36_1_b.png","j","pattern_response","true","j","pattern_17","1679.9000000059605","true","14","","","","","","","","","","","","","","","","","","",""
"","","","","","html-keyboard-response","49","102410","0.0-2.0-5.0-0.14","5e065c9fe78021031a4b1d59","D2","batch4","","null","<p class=block-text>Trial 15 out of 78</p>","null","pattern_show_trial_num","","","","","","","","","","","","","","","","","","","","","","","","",""
"","","","","","image-keyboard-response","50","104707","0.0-2.0-5.0-1.14","5e065c9fe78021031a4b1d59","D2","batch4","","2294","stim/yes_42_dia_w1_w.png","j","pattern_response","false","f","pattern_64","2294","false","14","","","","","","","","","","","","","","","","","","",""
"","","","","","html-keyboard-response","51","106026","0.0-2.0-5.0-0.15","5e065c9fe78021031a4b1d59","D2","batch4","","null","<p class=block-text>Trial 16 out of 78</p>","null","pattern_show_trial_num","","","","","","","","","","","","","","","","","","","","","","","","",""
"","","","","","image-keyboard-response","52","110490","0.0-2.0-5.0-1.15","5e065c9fe78021031a4b1d59","D2","batch4","","4460.5","stim/no_67_1.png","j","pattern_response","true","j","pattern_39","4460.5","true","15","","","","","","","","","","","","","","","","","","",""
"","","","","","html-keyboard-response","53","111802","0.0-2.0-5.0-0.16","5e065c9fe78021031a4b1d59","D2","batch4","","null","<p class=block-text>Trial 17 out of 78</p>","null","pattern_show_trial_num","","","","","","","","","","","","","","","","","","","","","","","","",""
"","","","","","image-keyboard-response","54","117019","0.0-2.0-5.0-1.16","5e065c9fe78021031a4b1d59","D2","batch4","","5215.399999976158","stim/yes_63_dia_b1.png","j","pattern_response","false","f","pattern_78","5215.399999976158","false","15","","","","","","","","","","","","","","","","","","",""
"","","","","","html-keyboard-response","55","118338","0.0-2.0-5.0-0.17","5e065c9fe78021031a4b1d59","D2","batch4","","null","<p class=block-text>Trial 18 out of 78</p>","null","pattern_show_trial_num","","","","","","","","","","","","","","","","","","","","","","","","",""
"","","","","","image-keyboard-response","56","119599","0.0-2.0-5.0-1.17","5e065c9fe78021031a4b1d59","D2","batch4","","1256.7000000178814","stim/yes_15_dia_b1u_b.png","f","pattern_response","true","f","pattern_44","1256.7000000178814","true","16","","","","","","","","","","","","","","","","","","",""
"","","","","","html-keyboard-response","57","120916","0.0-2.0-5.0-0.18","5e065c9fe78021031a4b1d59","D2","batch4","","null","<p class=block-text>Trial 19 out of 78</p>","null","pattern_show_trial_num","","","","","","","","","","","","","","","","","","","","","","","","",""
"","","","","","image-keyboard-response","58","122112","0.0-2.0-5.0-1.18","5e065c9fe78021031a4b1d59","D2","batch4","","1193.800000011921","stim/no_28_2.png","j","pattern_response","true","j","pattern_11","1193.800000011921","true","17","","","","","","","","","","","","","","","","","","",""
"","","","","","html-keyboard-response","59","123428","0.0-2.0-5.0-0.19","5e065c9fe78021031a4b1d59","D2","batch4","","null","<p class=block-text>Trial 20 out of 78</p>","null","pattern_show_trial_num","","","","","","","","","","","","","","","","","","","","","","","","",""
"","","","","","image-keyboard-response","60","124759","0.0-2.0-5.0-1.19","5e065c9fe78021031a4b1d59","D2","batch4","","1328.7999999821186","stim/yes_26_dia_w2_w.png","f","pattern_response","true","f","pattern_50","1328.7999999821186","true","18","","","","","","","","","","","","","","","","","","",""
"","","","","","html-keyboard-response","61","126076","0.0-2.0-5.0-0.20","5e065c9fe78021031a4b1d59","D2","batch4","","null","<p class=block-text>Trial 21 out of 78</p>","null","pattern_show_trial_num","","","","","","","","","","","","","","","","","","","","","","","","",""
"","","","","","image-keyboard-response","62","126686","0.0-2.0-5.0-1.20","5e065c9fe78021031a4b1d59","D2","batch4","","608.2999999821186","stim/yes_17_ver_b1_b.png","f","pattern_response","true","f","pattern_46","608.2999999821186","true","19","","","","","","","","","","","","","","","","","","",""
"","","","","","html-keyboard-response","63","128003","0.0-2.0-5.0-0.21","5e065c9fe78021031a4b1d59","D2","batch4","","null","<p class=block-text>Trial 22 out of 78</p>","null","pattern_show_trial_num","","","","","","","","","","","","","","","","","","","","","","","","",""
"","","","","","image-keyboard-response","64","130210","0.0-2.0-5.0-1.21","5e065c9fe78021031a4b1d59","D2","batch4","","2204.0999999940395","stim/no_33_1_b.png","j","pattern_response","true","j","pattern_15","2204.0999999940395","true","20","","","","","","","","","","","","","","","","","","",""
"","","","","","html-keyboard-response","65","131523","0.0-2.0-5.0-0.22","5e065c9fe78021031a4b1d59","D2","batch4","","null","<p class=block-text>Trial 23 out of 78</p>","null","pattern_show_trial_num","","","","","","","","","","","","","","","","","","","","","","","","",""
"","","","","","image-keyboard-response","66","132822","0.0-2.0-5.0-1.22","5e065c9fe78021031a4b1d59","D2","batch4","","1295.5","stim/yes_33_dia_w1_w.png","f","pattern_response","true","f","pattern_56","1295.5","true","21","","","","","","","","","","","","","","","","","","",""
"","","","","","html-keyboard-response","67","134138","0.0-2.0-5.0-0.23","5e065c9fe78021031a4b1d59","D2","batch4","","null","<p class=block-text>Trial 24 out of 78</p>","null","pattern_show_trial_num","","","","","","","","","","","","","","","","","","","","","","","","",""
"","","","","","image-keyboard-response","68","134804","0.0-2.0-5.0-1.23","5e065c9fe78021031a4b1d59","D2","batch4","","662.8000000119209","stim/yes_12_hor_w1_w.png","f","pattern_response","true","f","pattern_42","662.8000000119209","true","22","","","","","","","","","","","","","","","","","","",""
"","","","","","html-keyboard-response","69","136123","0.0-2.0-5.0-0.24","5e065c9fe78021031a4b1d59","D2","batch4","","null","<p class=block-text>Trial 25 out of 78</p>","null","pattern_show_trial_num","","","","","","","","","","","","","","","","","","","","","","","","",""
"","","","","","image-keyboard-response","70","139208","0.0-2.0-5.0-1.24","5e065c9fe78021031a4b1d59","D2","batch4","","3081.9000000059605","stim/no_49_2_b.png","j","pattern_response","true","j","pattern_29","3081.9000000059605","true","23","","","","","","","","","","","","","","","","","","",""
"","","","","","html-keyboard-response","71","140524","0.0-2.0-5.0-0.25","5e065c9fe78021031a4b1d59","D2","batch4","","null","<p class=block-text>Trial 26 out of 78</p>","null","pattern_show_trial_num","","","","","","","","","","","","","","","","","","","","","","","","",""
"","","","","","image-keyboard-response","72","143480","0.0-2.0-5.0-1.25","5e065c9fe78021031a4b1d59","D2","batch4","","2952.2999999821186","stim/yes_51_dia_b1.png","j","pattern_response","false","f","pattern_72","2952.2999999821186","false","23","","","","","","","","","","","","","","","","","","",""
"","","","","","html-keyboard-response","73","144792","0.0-2.0-5.0-0.26","5e065c9fe78021031a4b1d59","D2","batch4","","null","<p class=block-text>Trial 27 out of 78</p>","null","pattern_show_trial_num","","","","","","","","","","","","","","","","","","","","","","","","",""
"","","","","","image-keyboard-response","74","148307","0.0-2.0-5.0-1.26","5e065c9fe78021031a4b1d59","D2","batch4","","3511.300000011921","stim/yes_58_dia_w1_w.png","j","pattern_response","false","f","pattern_76","3511.300000011921","false","23","","","","","","","","","","","","","","","","","","",""
"","","","","","html-keyboard-response","75","149618","0.0-2.0-5.0-0.27","5e065c9fe78021031a4b1d59","D2","batch4","","null","<p class=block-text>Trial 28 out of 78</p>","null","pattern_show_trial_num","","","","","","","","","","","","","","","","","","","","","","","","",""
"","","","","","image-keyboard-response","76","153336","0.0-2.0-5.0-1.27","5e065c9fe78021031a4b1d59","D2","batch4","","3715.100000023842","stim/no_53_1_b.png","j","pattern_response","true","j","pattern_33","3715.100000023842","true","24","","","","","","","","","","","","","","","","","","",""
"","","","","","html-keyboard-response","77","154649","0.0-2.0-5.0-0.28","5e065c9fe78021031a4b1d59","D2","batch4","","null","<p class=block-text>Trial 29 out of 78</p>","null","pattern_show_trial_num","","","","","","","","","","","","","","","","","","","","","","","","",""
"","","","","","image-keyboard-response","78","155293","0.0-2.0-5.0-1.28","5e065c9fe78021031a4b1d59","D2","batch4","","641.8000000119209","stim/yes_39_hor_w1_w.png","f","pattern_response","true","f","pattern_62","641.8000000119209","true","25","","","","","","","","","","","","","","","","","","",""
"","","","","","html-keyboard-response","79","156611","0.0-2.0-5.0-0.29","5e065c9fe78021031a4b1d59","D2","batch4","","null","<p class=block-text>Trial 30 out of 78</p>","null","pattern_show_trial_num","","","","","","","","","","","","","","","","","","","","","","","","",""
"","","","","","image-keyboard-response","80","158266","0.0-2.0-5.0-1.29","5e065c9fe78021031a4b1d59","D2","batch4","","1652.2000000178814","stim/no_30_1_b.png","j","pattern_response","true","j","pattern_13","1652.2000000178814","true","26","","","","","","","","","","","","","","","","","","",""
"","","","","","html-keyboard-response","81","159580","0.0-2.0-5.0-0.30","5e065c9fe78021031a4b1d59","D2","batch4","","null","<p class=block-text>Trial 31 out of 78</p>","null","pattern_show_trial_num","","","","","","","","","","","","","","","","","","","","","","","","",""
"","","","","","image-keyboard-response","82","162624","0.0-2.0-5.0-1.30","5e065c9fe78021031a4b1d59","D2","batch4","","3041.2999999821186","stim/no_43_2_b.png","j","pattern_response","true","j","pattern_23","3041.2999999821186","true","27","","","","","","","","","","","","","","","","","","",""
"","","","","","html-keyboard-response","83","163939","0.0-2.0-5.0-0.31","5e065c9fe78021031a4b1d59","D2","batch4","","null","<p class=block-text>Trial 32 out of 78</p>","null","pattern_show_trial_num","","","","","","","","","","","","","","","","","","","","","","","","",""
"","","","","","image-keyboard-response","84","165929","0.0-2.0-5.0-1.31","5e065c9fe78021031a4b1d59","D2","batch4","","1986.5","stim/no_58_1_w.png","j","pattern_response","true","j","pattern_35","1986.5","true","28","","","","","","","","","","","","","","","","","","",""
"","","","","","html-keyboard-response","85","167241","0.0-2.0-5.0-0.32","5e065c9fe78021031a4b1d59","D2","batch4","","null","<p class=block-text>Trial 33 out of 78</p>","null","pattern_show_trial_num","","","","","","","","","","","","","","","","","","","","","","","","",""
"","","","","","image-keyboard-response","86","169115","0.0-2.0-5.0-1.32","5e065c9fe78021031a4b1d59","D2","batch4","","1871.0999999940395","stim/no_47_1_b.png","j","pattern_response","true","j","pattern_27","1871.0999999940395","true","29","","","","","","","","","","","","","","","","","","",""
"","","","","","html-keyboard-response","87","170424","0.0-2.0-5.0-0.33","5e065c9fe78021031a4b1d59","D2","batch4","","null","<p class=block-text>Trial 34 out of 78</p>","null","pattern_show_trial_num","","","","","","","","","","","","","","","","","","","","","","","","",""
"","","","","","image-keyboard-response","88","171109","0.0-2.0-5.0-1.33","5e065c9fe78021031a4b1d59","D2","batch4","","681.5999999940395","stim/yes_36_ver_w1_w.png","f","pattern_response","true","f","pattern_58","681.5999999940395","true","30","","","","","","","","","","","","","","","","","","",""
"","","","","","html-keyboard-response","89","172427","0.0-2.0-5.0-0.34","5e065c9fe78021031a4b1d59","D2","batch4","","null","<p class=block-text>Trial 35 out of 78</p>","null","pattern_show_trial_num","","","","","","","","","","","","","","","","","","","","","","","","",""
"","","","","","image-keyboard-response","90","175059","0.0-2.0-5.0-1.34","5e065c9fe78021031a4b1d59","D2","batch4","","2629.2999999821186","stim/no_51_1.png","j","pattern_response","true","j","pattern_31","2629.2999999821186","true","31","","","","","","","","","","","","","","","","","","",""
"","","","","","html-keyboard-response","91","176372","0.0-2.0-5.0-0.35","5e065c9fe78021031a4b1d59","D2","batch4","","null","<p class=block-text>Trial 36 out of 78</p>","null","pattern_show_trial_num","","","","","","","","","","","","","","","","","","","","","","","","",""
"","","","","","image-keyboard-response","92","178128","0.0-2.0-5.0-1.35","5e065c9fe78021031a4b1d59","D2","batch4","","1752.9000000059605","stim/no_45_1_w.png","j","pattern_response","true","j","pattern_25","1752.9000000059605","true","32","","","","","","","","","","","","","","","","","","",""
"","","","","","html-keyboard-response","93","179440","0.0-2.0-5.0-0.36","5e065c9fe78021031a4b1d59","D2","batch4","","null","<p class=block-text>Trial 37 out of 78</p>","null","pattern_show_trial_num","","","","","","","","","","","","","","","","","","","","","","","","",""
"","","","","","image-keyboard-response","94","180255","0.0-2.0-5.0-1.36","5e065c9fe78021031a4b1d59","D2","batch4","","811.5999999940395","stim/yes_23_ver_b1.png","f","pattern_response","true","f","pattern_48","811.5999999940395","true","33","","","","","","","","","","","","","","","","","","",""
"","","","","","html-keyboard-response","95","181570","0.0-2.0-5.0-0.37","5e065c9fe78021031a4b1d59","D2","batch4","","null","<p class=block-text>Trial 38 out of 78</p>","null","pattern_show_trial_num","","","","","","","","","","","","","","","","","","","","","","","","",""
"","","","","","image-keyboard-response","96","182228","0.0-2.0-5.0-1.37","5e065c9fe78021031a4b1d59","D2","batch4","","654.9000000059605","stim/yes_29_hor_b1_b.png","f","pattern_response","true","f","pattern_52","654.9000000059605","true","34","","","","","","","","","","","","","","","","","","",""
"","","","","","html-keyboard-response","97","183549","0.0-2.0-5.0-0.38","5e065c9fe78021031a4b1d59","D2","batch4","","null","<p class=block-text>Trial 39 out of 78</p>","null","pattern_show_trial_num","","","","","","","","","","","","","","","","","","","","","","","","",""
"","","","","","image-keyboard-response","98","185196","0.0-2.0-5.0-1.38","5e065c9fe78021031a4b1d59","D2","batch4","","1644.5","stim/no_39_1_w.png","j","pattern_response","true","j","pattern_21","1644.5","true","35","","","","","","","","","","","","","","","","","","",""
"","","","","","image-keyboard-response","99","187258","0.0-2.0-6.0","5e065c9fe78021031a4b1d59","D2","batch4","","1551.800000011921","stim/empty_board.png","j","attention_check","true","j","","","","","500","[""f"",""j""]","","","","","","","","","","","","","","","","",""
"","","","","","html-keyboard-response","100","188069","0.0-2.0-7.0-0.0","5e065c9fe78021031a4b1d59","D2","batch4","","null","<p class=block-text>Trial 40 out of 78</p>","null","pattern_show_trial_num","","","","","","","","","","","","","","","","","","","","","","","","",""
"","","","","","image-keyboard-response","101","190593","0.0-2.0-7.0-1.0","5e065c9fe78021031a4b1d59","D2","batch4","","2521.5","stim/yes_43_ver_w1_w.png","f","pattern_response","true","f","pattern_65","2521.5","true","36","","","","","","","","","","","","","","","","","","",""
"","","","","","html-keyboard-response","102","191906","0.0-2.0-7.0-0.1","5e065c9fe78021031a4b1d59","D2","batch4","","null","<p class=block-text>Trial 41 out of 78</p>","null","pattern_show_trial_num","","","","","","","","","","","","","","","","","","","","","","","","",""
"","","","","","image-keyboard-response","103","193502","0.0-2.0-7.0-1.1","5e065c9fe78021031a4b1d59","D2","batch4","","1592.4000000059605","stim/no_32_1_w.png","j","pattern_response","true","j","pattern_14","1592.4000000059605","true","37","","","","","","","","","","","","","","","","","","",""
"","","","","","html-keyboard-response","104","194811","0.0-2.0-7.0-0.2","5e065c9fe78021031a4b1d59","D2","batch4","","null","<p class=block-text>Trial 42 out of 78</p>","null","pattern_show_trial_num","","","","","","","","","","","","","","","","","","","","","","","","",""
"","","","","","image-keyboard-response","105","198207","0.0-2.0-7.0-1.2","5e065c9fe78021031a4b1d59","D2","batch4","","3392.800000011921","stim/no_36_2_w.png","j","pattern_response","true","j","pattern_18","3392.800000011921","true","38","","","","","","","","","","","","","","","","","","",""
"","","","","","html-keyboard-response","106","199524","0.0-2.0-7.0-0.3","5e065c9fe78021031a4b1d59","D2","batch4","","null","<p class=block-text>Trial 43 out of 78</p>","null","pattern_show_trial_num","","","","","","","","","","","","","","","","","","","","","","","","",""
"","","","","","image-keyboard-response","107","200178","0.0-2.0-7.0-1.3","5e065c9fe78021031a4b1d59","D2","batch4","","650.5","stim/yes_14_hor_b1_w.png","f","pattern_response","true","f","pattern_43","650.5","true","39","","","","","","","","","","","","","","","","","","",""
"","","","","","html-keyboard-response","108","201489","0.0-2.0-7.0-0.4","5e065c9fe78021031a4b1d59","D2","batch4","","null","<p class=block-text>Trial 44 out of 78</p>","null","pattern_show_trial_num","","","","","","","","","","","","","","","","","","","","","","","","",""
"","","","","","image-keyboard-response","109","204650","0.0-2.0-7.0-1.4","5e065c9fe78021031a4b1d59","D2","batch4","","3157.5999999940395","stim/no_38_1_b.png","j","pattern_response","true","j","pattern_20","3157.5999999940395","true","40","","","","","","","","","","","","","","","","","","",""
"","","","","","html-keyboard-response","110","205961","0.0-2.0-7.0-0.5","5e065c9fe78021031a4b1d59","D2","batch4","","null","<p class=block-text>Trial 45 out of 78</p>","null","pattern_show_trial_num","","","","","","","","","","","","","","","","","","","","","","","","",""
"","","","","","image-keyboard-response","111","207614","0.0-2.0-7.0-1.5","5e065c9fe78021031a4b1d59","D2","batch4","","1649.300000011921","stim/yes_38_hor_b1_b.png","f","pattern_response","true","f","pattern_61","1649.300000011921","true","41","","","","","","","","","","","","","","","","","","",""
"","","","","","html-keyboard-response","112","208929","0.0-2.0-7.0-0.6","5e065c9fe78021031a4b1d59","D2","batch4","","null","<p class=block-text>Trial 46 out of 78</p>","null","pattern_show_trial_num","","","","","","","","","","","","","","","","","","","","","","","","",""
"","","","","","image-keyboard-response","113","209993","0.0-2.0-7.0-1.6","5e065c9fe78021031a4b1d59","D2","batch4","","1060.7000000178814","stim/yes_60_ver_b1_b.png","f","pattern_response","true","f","pattern_77","1060.7000000178814","true","42","","","","","","","","","","","","","","","","","","",""
"","","","","","html-keyboard-response","114","211309","0.0-2.0-7.0-0.7","5e065c9fe78021031a4b1d59","D2","batch4","","null","<p class=block-text>Trial 47 out of 78</p>","null","pattern_show_trial_num","","","","","","","","","","","","","","","","","","","","","","","","",""
"","","","","","image-keyboard-response","115","212014","0.0-2.0-7.0-1.7","5e065c9fe78021031a4b1d59","D2","batch4","","702.1999999880791","stim/yes_28_ver_b1.png","f","pattern_response","true","f","pattern_51","702.1999999880791","true","43","","","","","","","","","","","","","","","","","","",""
"","","","","","html-keyboard-response","116","213333","0.0-2.0-7.0-0.8","5e065c9fe78021031a4b1d59","D2","batch4","","null","<p class=block-text>Trial 48 out of 78</p>","null","pattern_show_trial_num","","","","","","","","","","","","","","","","","","","","","","","","",""
"","","","","","image-keyboard-response","117","218086","0.0-2.0-7.0-1.8","5e065c9fe78021031a4b1d59","D2","batch4","","4751.5999999940395","stim/no_65_1_b.png","j","pattern_response","true","j","pattern_38","4751.5999999940395","true","44","","","","","","","","","","","","","","","","","","",""
"","","","","","html-keyboard-response","118","219403","0.0-2.0-7.0-0.9","5e065c9fe78021031a4b1d59","D2","batch4","","null","<p class=block-text>Trial 49 out of 78</p>","null","pattern_show_trial_num","","","","","","","","","","","","","","","","","","","","","","","","",""
"","","","","","image-keyboard-response","119","221040","0.0-2.0-7.0-1.9","5e065c9fe78021031a4b1d59","D2","batch4","","1633.5999999940395","stim/yes_45_hor_b2_b.png","f","pattern_response","true","f","pattern_67","1633.5999999940395","true","45","","","","","","","","","","","","","","","","","","",""
"","","","","","html-keyboard-response","120","222354","0.0-2.0-7.0-0.10","5e065c9fe78021031a4b1d59","D2","batch4","","null","<p class=block-text>Trial 50 out of 78</p>","null","pattern_show_trial_num","","","","","","","","","","","","","","","","","","","","","","","","",""
"","","","","","image-keyboard-response","121","224565","0.0-2.0-7.0-1.10","5e065c9fe78021031a4b1d59","D2","batch4","","2207.5","stim/yes_40_dia_b1_b.png","f","pattern_response","true","f","pattern_63","2207.5","true","46","","","","","","","","","","","","","","","","","","",""
"","","","","","html-keyboard-response","122","225885","0.0-2.0-7.0-0.11","5e065c9fe78021031a4b1d59","D2","batch4","","null","<p class=block-text>Trial 51 out of 78</p>","null","pattern_show_trial_num","","","","","","","","","","","","","","","","","","","","","","","","",""
"","","","","","image-keyboard-response","123","229010","0.0-2.0-7.0-1.11","5e065c9fe78021031a4b1d59","D2","batch4","","3121.100000023842","stim/no_62_1_w.png","j","pattern_response","true","j","pattern_36","3121.100000023842","true","47","","","","","","","","","","","","","","","","","","",""
"","","","","","html-keyboard-response","124","230322","0.0-2.0-7.0-0.12","5e065c9fe78021031a4b1d59","D2","batch4","","null","<p class=block-text>Trial 52 out of 78</p>","null","pattern_show_trial_num","","","","","","","","","","","","","","","","","","","","","","","","",""
"","","","","","image-keyboard-response","125","233208","0.0-2.0-7.0-1.12","5e065c9fe78021031a4b1d59","D2","batch4","","2882.0999999940395","stim/no_48_1_w.png","j","pattern_response","true","j","pattern_28","2882.0999999940395","true","48","","","","","","","","","","","","","","","","","","",""
"","","","","","html-keyboard-response","126","234523","0.0-2.0-7.0-0.13","5e065c9fe78021031a4b1d59","D2","batch4","","null","<p class=block-text>Trial 53 out of 78</p>","null","pattern_show_trial_num","","","","","","","","","","","","","","","","","","","","","","","","",""
"","","","","","image-keyboard-response","127","237134","0.0-2.0-7.0-1.13","5e065c9fe78021031a4b1d59","D2","batch4","","2607.2999999821186","stim/no_55_1_w.png","j","pattern_response","true","j","pattern_34","2607.2999999821186","true","49","","","","","","","","","","","","","","","","","","",""
"","","","","","html-keyboard-response","128","238450","0.0-2.0-7.0-0.14","5e065c9fe78021031a4b1d59","D2","batch4","","null","<p class=block-text>Trial 54 out of 78</p>","null","pattern_show_trial_num","","","","","","","","","","","","","","","","","","","","","","","","",""
"","","","","","image-keyboard-response","129","240963","0.0-2.0-7.0-1.14","5e065c9fe78021031a4b1d59","D2","batch4","","2509.2999999821186","stim/no_52_1.png","j","pattern_response","true","j","pattern_32","2509.2999999821186","true","50","","","","","","","","","","","","","","","","","","",""
"","","","","","html-keyboard-response","130","242278","0.0-2.0-7.0-0.15","5e065c9fe78021031a4b1d59","D2","batch4","","null","<p class=block-text>Trial 55 out of 78</p>","null","pattern_show_trial_num","","","","","","","","","","","","","","","","","","","","","","","","",""
"","","","","","image-keyboard-response","131","244080","0.0-2.0-7.0-1.15","5e065c9fe78021031a4b1d59","D2","batch4","","1799","stim/yes_37_dia_w1.png","f","pattern_response","true","f","pattern_59","1799","true","51","","","","","","","","","","","","","","","","","","",""
"","","","","","html-keyboard-response","132","245398","0.0-2.0-7.0-0.16","5e065c9fe78021031a4b1d59","D2","batch4","","null","<p class=block-text>Trial 56 out of 78</p>","null","pattern_show_trial_num","","","","","","","","","","","","","","","","","","","","","","","","",""
"","","","","","image-keyboard-response","133","247752","0.0-2.0-7.0-1.16","5e065c9fe78021031a4b1d59","D2","batch4","","2351.7999999821186","stim/yes_52_ver_w1.png","f","pattern_response","true","f","pattern_73","2351.7999999821186","true","52","","","","","","","","","","","","","","","","","","",""
"","","","","","html-keyboard-response","134","249067","0.0-2.0-7.0-0.17","5e065c9fe78021031a4b1d59","D2","batch4","","null","<p class=block-text>Trial 57 out of 78</p>","null","pattern_show_trial_num","","","","","","","","","","","","","","","","","","","","","","","","",""
"","","","","","image-keyboard-response","135","251006","0.0-2.0-7.0-1.17","5e065c9fe78021031a4b1d59","D2","batch4","","1937.0999999940395","stim/yes_67_hor_b1.png","f","pattern_response","true","f","pattern_79","1937.0999999940395","true","53","","","","","","","","","","","","","","","","","","",""
"","","","","","html-keyboard-response","136","252321","0.0-2.0-7.0-0.18","5e065c9fe78021031a4b1d59","D2","batch4","","null","<p class=block-text>Trial 58 out of 78</p>","null","pattern_show_trial_num","","","","","","","","","","","","","","","","","","","","","","","","",""
"","","","","","image-keyboard-response","137","254066","0.0-2.0-7.0-1.18","5e065c9fe78021031a4b1d59","D2","batch4","","1743.6000000238419","stim/yes_31_hor_b1.png","f","pattern_response","true","f","pattern_55","1743.6000000238419","true","54","","","","","","","","","","","","","","","","","","",""
"","","","","","html-keyboard-response","138","255380","0.0-2.0-7.0-0.19","5e065c9fe78021031a4b1d59","D2","batch4","","null","<p class=block-text>Trial 59 out of 78</p>","null","pattern_show_trial_num","","","","","","","","","","","","","","","","","","","","","","","","",""
"","","","","","image-keyboard-response","139","256169","0.0-2.0-7.0-1.19","5e065c9fe78021031a4b1d59","D2","batch4","","786.5","stim/yes_55_hor_w1_w.png","f","pattern_response","true","f","pattern_75","786.5","true","55","","","","","","","","","","","","","","","","","","",""
"","","","","","html-keyboard-response","140","257486","0.0-2.0-7.0-0.20","5e065c9fe78021031a4b1d59","D2","batch4","","null","<p class=block-text>Trial 60 out of 78</p>","null","pattern_show_trial_num","","","","","","","","","","","","","","","","","","","","","","","","",""
"","","","","","image-keyboard-response","141","259418","0.0-2.0-7.0-1.20","5e065c9fe78021031a4b1d59","D2","batch4","","1928.7999999821186","stim/no_23_1.png","j","pattern_response","true","j","pattern_08","1928.7999999821186","true","56","","","","","","","","","","","","","","","","","","",""
"","","","","","html-keyboard-response","142","260734","0.0-2.0-7.0-0.21","5e065c9fe78021031a4b1d59","D2","batch4","","null","<p class=block-text>Trial 61 out of 78</p>","null","pattern_show_trial_num","","","","","","","","","","","","","","","","","","","","","","","","",""
"","","","","","image-keyboard-response","143","263514","0.0-2.0-7.0-1.21","5e065c9fe78021031a4b1d59","D2","batch4","","2777.0999999940395","stim/no_50_1.png","j","pattern_response","true","j","pattern_30","2777.0999999940395","true","57","","","","","","","","","","","","","","","","","","",""
"","","","","","html-keyboard-response","144","264827","0.0-2.0-7.0-0.22","5e065c9fe78021031a4b1d59","D2","batch4","","null","<p class=block-text>Trial 62 out of 78</p>","null","pattern_show_trial_num","","","","","","","","","","","","","","","","","","","","","","","","",""
"","","","","","image-keyboard-response","145","265897","0.0-2.0-7.0-1.22","5e065c9fe78021031a4b1d59","D2","batch4","","1066.5","stim/no_17_1_w.png","j","pattern_response","true","j","pattern_04","1066.5","true","58","","","","","","","","","","","","","","","","","","",""
"","","","","","html-keyboard-response","146","267213","0.0-2.0-7.0-0.23","5e065c9fe78021031a4b1d59","D2","batch4","","null","<p class=block-text>Trial 63 out of 78</p>","null","pattern_show_trial_num","","","","","","","","","","","","","","","","","","","","","","","","",""
"","","","","","image-keyboard-response","147","268635","0.0-2.0-7.0-1.23","5e065c9fe78021031a4b1d59","D2","batch4","","1418.7999999821186","stim/no_42_1_w.png","j","pattern_response","true","j","pattern_22","1418.7999999821186","true","59","","","","","","","","","","","","","","","","","","",""
"","","","","","html-keyboard-response","148","269950","0.0-2.0-7.0-0.24","5e065c9fe78021031a4b1d59","D2","batch4","","null","<p class=block-text>Trial 64 out of 78</p>","null","pattern_show_trial_num","","","","","","","","","","","","","","","","","","","","","","","","",""
"","","","","","image-keyboard-response","149","271067","0.0-2.0-7.0-1.24","5e065c9fe78021031a4b1d59","D2","batch4","","1113.699999988079","stim/yes_35_dia_b1.png","f","pattern_response","true","f","pattern_57","1113.699999988079","true","60","","","","","","","","","","","","","","","","","","",""
"","","","","","html-keyboard-response","150","272380","0.0-2.0-7.0-0.25","5e065c9fe78021031a4b1d59","D2","batch4","","null","<p class=block-text>Trial 65 out of 78</p>","null","pattern_show_trial_num","","","","","","","","","","","","","","","","","","","","","","","","",""
"","","","","","image-keyboard-response","151","273783","0.0-2.0-7.0-1.25","5e065c9fe78021031a4b1d59","D2","batch4","","1401","stim/no_20_1_w.png","j","pattern_response","true","j","pattern_06","1401","true","61","","","","","","","","","","","","","","","","","","",""
"","","","","","html-keyboard-response","152","275101","0.0-2.0-7.0-0.26","5e065c9fe78021031a4b1d59","D2","batch4","","null","<p class=block-text>Trial 66 out of 78</p>","null","pattern_show_trial_num","","","","","","","","","","","","","","","","","","","","","","","","",""
"","","","","","image-keyboard-response","153","277125","0.0-2.0-7.0-1.26","5e065c9fe78021031a4b1d59","D2","batch4","","2020.5","stim/no_44_1.png","j","pattern_response","true","j","pattern_24","2020.5","true","62","","","","","","","","","","","","","","","","","","",""
"","","","","","html-keyboard-response","154","278438","0.0-2.0-7.0-0.27","5e065c9fe78021031a4b1d59","D2","batch4","","null","<p class=block-text>Trial 67 out of 78</p>","null","pattern_show_trial_num","","","","","","","","","","","","","","","","","","","","","","","","",""
"","","","","","image-keyboard-response","155","281958","0.0-2.0-7.0-1.27","5e065c9fe78021031a4b1d59","D2","batch4","","3515.899999976158","stim/yes_48_dia_w1_w.png","j","pattern_response","false","f","pattern_69","3515.899999976158","false","62","","","","","","","","","","","","","","","","","","",""
"","","","","","html-keyboard-response","156","283277","0.0-2.0-7.0-0.28","5e065c9fe78021031a4b1d59","D2","batch4","","null","<p class=block-text>Trial 68 out of 78</p>","null","pattern_show_trial_num","","","","","","","","","","","","","","","","","","","","","","","","",""
"","","","","","image-keyboard-response","157","288152","0.0-2.0-7.0-1.28","5e065c9fe78021031a4b1d59","D2","batch4","","4871.299999982119","stim/no_70_2.png","j","pattern_response","true","j","pattern_40","4871.299999982119","true","63","","","","","","","","","","","","","","","","","","",""
"","","","","","html-keyboard-response","158","289470","0.0-2.0-7.0-0.29","5e065c9fe78021031a4b1d59","D2","batch4","","null","<p class=block-text>Trial 69 out of 78</p>","null","pattern_show_trial_num","","","","","","","","","","","","","","","","","","","","","","","","",""
"","","","","","image-keyboard-response","159","292284","0.0-2.0-7.0-1.29","5e065c9fe78021031a4b1d59","D2","batch4","","2810.2000000178814","stim/no_46_1_b.png","j","pattern_response","true","j","pattern_26","2810.2000000178814","true","64","","","","","","","","","","","","","","","","","","",""
"","","","","","html-keyboard-response","160","293597","0.0-2.0-7.0-0.30","5e065c9fe78021031a4b1d59","D2","batch4","","null","<p class=block-text>Trial 70 out of 78</p>","null","pattern_show_trial_num","","","","","","","","","","","","","","","","","","","","","","","","",""
"","","","","","image-keyboard-response","161","294521","0.0-2.0-7.0-1.30","5e065c9fe78021031a4b1d59","D2","batch4","","920.6999999880791","stim/yes_22_ver_w1.png","f","pattern_response","true","f","pattern_47","920.6999999880791","true","65","","","","","","","","","","","","","","","","","","",""
"","","","","","html-keyboard-response","162","295834","0.0-2.0-7.0-0.31","5e065c9fe78021031a4b1d59","D2","batch4","","null","<p class=block-text>Trial 71 out of 78</p>","null","pattern_show_trial_num","","","","","","","","","","","","","","","","","","","","","","","","",""
"","","","","","image-keyboard-response","163","296923","0.0-2.0-7.0-1.31","5e065c9fe78021031a4b1d59","D2","batch4","","1084.5999999940395","stim/no_13_2_b.png","j","pattern_response","true","j","pattern_02","1084.5999999940395","true","66","","","","","","","","","","","","","","","","","","",""
"","","","","","html-keyboard-response","164","298234","0.0-2.0-7.0-0.32","5e065c9fe78021031a4b1d59","D2","batch4","","null","<p class=block-text>Trial 72 out of 78</p>","null","pattern_show_trial_num","","","","","","","","","","","","","","","","","","","","","","","","",""
"","","","","","image-keyboard-response","165","300553","0.0-2.0-7.0-1.32","5e065c9fe78021031a4b1d59","D2","batch4","","2316.100000023842","stim/no_29_1_b.png","j","pattern_response","true","j","pattern_12","2316.100000023842","true","67","","","","","","","","","","","","","","","","","","",""
"","","","","","html-keyboard-response","166","301867","0.0-2.0-7.0-0.33","5e065c9fe78021031a4b1d59","D2","batch4","","null","<p class=block-text>Trial 73 out of 78</p>","null","pattern_show_trial_num","","","","","","","","","","","","","","","","","","","","","","","","",""
"","","","","","image-keyboard-response","167","303014","0.0-2.0-7.0-1.33","5e065c9fe78021031a4b1d59","D2","batch4","","1143.9000000059605","stim/yes_25_hor_b1_b.png","f","pattern_response","true","f","pattern_49","1143.9000000059605","true","68","","","","","","","","","","","","","","","","","","",""
"","","","","","html-keyboard-response","168","304334","0.0-2.0-7.0-0.34","5e065c9fe78021031a4b1d59","D2","batch4","","null","<p class=block-text>Trial 74 out of 78</p>","null","pattern_show_trial_num","","","","","","","","","","","","","","","","","","","","","","","","",""
"","","","","","image-keyboard-response","169","307567","0.0-2.0-7.0-1.34","5e065c9fe78021031a4b1d59","D2","batch4","","3229.5999999940395","stim/yes_50_dia_w1.png","j","pattern_response","false","f","pattern_71","3229.5999999940395","false","68","","","","","","","","","","","","","","","","","","",""
"","","","","","html-keyboard-response","170","308887","0.0-2.0-7.0-0.35","5e065c9fe78021031a4b1d59","D2","batch4","","null","<p class=block-text>Trial 75 out of 78</p>","null","pattern_show_trial_num","","","","","","","","","","","","","","","","","","","","","","","","",""
"","","","","","image-keyboard-response","171","310593","0.0-2.0-7.0-1.35","5e065c9fe78021031a4b1d59","D2","batch4","","1702.5","stim/no_34_1_b.png","j","pattern_response","true","j","pattern_16","1702.5","true","69","","","","","","","","","","","","","","","","","","",""
"","","","","","html-keyboard-response","172","311907","0.0-2.0-7.0-0.36","5e065c9fe78021031a4b1d59","D2","batch4","","null","<p class=block-text>Trial 76 out of 78</p>","null","pattern_show_trial_num","","","","","","","","","","","","","","","","","","","","","","","","",""
"","","","","","image-keyboard-response","173","313345","0.0-2.0-7.0-1.36","5e065c9fe78021031a4b1d59","D2","batch4","","1434.0999999940395","stim/no_26_1_w.png","j","pattern_response","true","j","pattern_10","1434.0999999940395","true","70","","","","","","","","","","","","","","","","","","",""
"","","","","","html-keyboard-response","174","314659","0.0-2.0-7.0-0.37","5e065c9fe78021031a4b1d59","D2","batch4","","null","<p class=block-text>Trial 77 out of 78</p>","null","pattern_show_trial_num","","","","","","","","","","","","","","","","","","","","","","","","",""
"","","","","","image-keyboard-response","175","315453","0.0-2.0-7.0-1.37","5e065c9fe78021031a4b1d59","D2","batch4","","791.4000000059605","stim/yes_17_dia_w1.png","f","pattern_response","true","f","pattern_45","791.4000000059605","true","71","","","","","","","","","","","","","","","","","","",""
"","","","","","html-keyboard-response","176","316764","0.0-2.0-7.0-0.38","5e065c9fe78021031a4b1d59","D2","batch4","","null","<p class=block-text>Trial 78 out of 78</p>","null","pattern_show_trial_num","","","","","","","","","","","","","","","","","","","","","","","","",""
"","","","","","image-keyboard-response","177","318377","0.0-2.0-7.0-1.38","5e065c9fe78021031a4b1d59","D2","batch4","","1609.300000011921","stim/yes_29_ver_w1.png","f","pattern_response","true","f","pattern_53","1609.300000011921","true","72","","","","","","","","","","","","","","","","","","",""
"","","","","","html-button-response","178","323169","0.0-2.0-8.0","5e065c9fe78021031a4b1d59","D2","batch4","","4282.5999999940395","<p class = block-text>This concludes the 4-in-a-row detection game.Thank you for your responses!<br>
            You responded correctly on 92% of the trials.<br>
            When you are ready, press ""Continue"" button to continue </p>","0","","","","","","","","","","","","","","","","","","","","","","","","","",""
"true","","","","","fullscreen","179","333827","0.0-3.0-0.0","5e065c9fe78021031a4b1d59","D2","batch4","","","","","","","","","","","","","","","","","","","","","","","","","","","","","",""
"","","","","","instructions","180","383747","0.0-3.0-1.0-0.0-0.0","5e065c9fe78021031a4b1d59","D2","batch4","[{""page_index"":0,""viewing_time"":12473.200000017881},{""page_index"":1,""viewing_time"":11384.09999999404},{""page_index"":2,""viewing_time"":4736.199999988079},{""page_index"":3,""viewing_time"":7712.0999999940395},{""page_index"":4,""viewing_time"":4326.9000000059605},{""page_index"":5,""viewing_time"":6706.800000011921},{""page_index"":6,""viewing_time"":2576.2999999821186}]","49916.59999999404","","","tol-instructions","","","","","","","","","","","","","","","","","","","","","","","","",""
"","","","","","html-button-response","181","384572","0.0-3.0-1.0-1.0-0.0","5e065c9fe78021031a4b1d59","D2","batch4","","823","<p class=block-text> Let's answer a few questions <br>","0","tol_enter_quiz","","","","","","","","","","","","","","","","","","","","","","","","",""
"","","","","","html-button-response","182","390723","0.0-3.0-1.0-1.0-1.0","5e065c9fe78021031a4b1d59","D2","batch4","","6144.300000011921","<p class = block-text>True or False: You can only move the ball on top of a peg. <br></p>","0","tol_quiz","true","","","","","","","","","","","","","","","","","","","","","","","",""
"","","","","","html-button-response","183","391671","0.0-3.0-1.0-1.0-2.0","5e065c9fe78021031a4b1d59","D2","batch4","","944.4000000059605","<p class = block-text>Correct! You can only move the ball on top of a peg.</p>","0","tol_quiz_feedback","","","","","","","","","","","","","","","","","","","","","","","","",""
"","","","","","html-button-response","184","394010","0.0-3.0-1.0-1.0-3.0","5e065c9fe78021031a4b1d59","D2","batch4","","2336.5","<p class = block-text>True or False: You should try to match your board with the target board with fewest moves possible. <br></p>","0","tol_quiz","true","","","","","","","","","","","","","","","","","","","","","","","",""
"","","","","","html-button-response","185","394624","0.0-3.0-1.0-1.0-4.0","5e065c9fe78021031a4b1d59","D2","batch4","","611.5","<p class = block-text>Correct! </p>","0","tol_quiz_feedback","","","","","","","","","","","","","","","","","","","","","","","","",""
"","","","","","html-button-response","186","395360","0.0-3.0-2.0","5e065c9fe78021031a4b1d59","D2","batch4","","733.5999999940395","<p class=block-text> Now that you've understood the game, let's practice a few easier examples before we start!<br> <br>","0","","","","","","","","","","","","","","","","","","","","","","","","","",""
"","","","","","single-stim-button","187","397309","0.0-3.0-3.0-0.0","5e065c9fe78021031a4b1d59","D2","batch4","","1945","","","tol_practice","","","","","","","","","tol_peg_2","1945","1945","0","[[1,2,0],[0,0],[0]]","1","[[1,2,0],[0,0],[3]]","practice","1945","","","","","","","",""
"","","","","","single-stim-button","188","398967","0.0-3.0-3.0-1.0","5e065c9fe78021031a4b1d59","D2","batch4","","1656","","","tol_practice","","","","","","","","","tol_peg_3","1656","1656","0","[[1,2,0],[0,0],[3]]","1","[[1,2,0],[0,0],[3]]","practice","1656","","","","","","","",""
"","","","","","poldrack-single-stim","189","399975","0.0-3.0-4.0","5e065c9fe78021031a4b1d59","D2","batch4","","-1","","","tol_feedback","true","","","","","","","","","1000","1000","500","","","","","","-1","none","true","","0","","",""
"","","","","","single-stim-button","190","402779","0.0-3.0-5.0-0.0","5e065c9fe78021031a4b1d59","D2","batch4","","2802","","","tol_practice","","","","","","","","","tol_peg_1","2802","2802","0","[[1,0,0],[3,0],[0]]","2","[[0,0,0],[3,1],[2]]","practice","2802","","","","","","","",""
"","","","","","single-stim-button","191","403530","0.0-3.0-5.0-1.0","5e065c9fe78021031a4b1d59","D2","batch4","","749","","","tol_practice","","","","","","","","","tol_peg_3","749","749","0","[[1,0,0],[3,0],[2]]","2","[[0,0,0],[3,1],[2]]","practice","749","","","","","","","",""
"","","","","","single-stim-button","192","404300","0.0-3.0-5.1-0.1","5e065c9fe78021031a4b1d59","D2","batch4","","768","","","tol_practice","","","","","","","","","tol_peg_2","768","768","0","[[1,0,0],[0,0],[2]]","3","[[0,0,0],[3,1],[2]]","practice","768","","","","","","","",""
"","","","","","single-stim-button","193","404587","0.0-3.0-5.1-1.1","5e065c9fe78021031a4b1d59","D2","batch4","","285","","","tol_practice","","","","","","","","","tol_peg_2","285","285","0","[[1,0,0],[3,0],[2]]","3","[[0,0,0],[3,1],[2]]","practice","285","","","","","","","",""
"","","","","","single-stim-button","194","407171","0.0-3.0-5.2-0.2","5e065c9fe78021031a4b1d59","D2","batch4","","2582","","","tol_practice","","","","","","","","","tol_peg_1","2582","2582","0","[[0,0,0],[3,0],[2]]","4","[[0,0,0],[3,1],[2]]","practice","2582","","","","","","","",""
"","","","","","single-stim-button","195","408144","0.0-3.0-5.2-1.2","5e065c9fe78021031a4b1d59","D2","batch4","","971","","","tol_practice","","","","","","","","","tol_peg_2","971","971","0","[[0,0,0],[3,1],[2]]","4","[[0,0,0],[3,1],[2]]","practice","971","","","","","","","",""
"","","","","","poldrack-single-stim","196","409150","0.0-3.0-6.0","5e065c9fe78021031a4b1d59","D2","batch4","","-1","","","tol_feedback","true","","","","","","","","","1000","1000","500","","","","","","-1","none","true","","0","","",""
"","","","","","single-stim-button","197","411587","0.0-3.0-7.0-0.0","5e065c9fe78021031a4b1d59","D2","batch4","","2435","","","tol_practice","","","","","","","","","tol_peg_2","2435","2435","0","[[1,2,0],[0,0],[0]]","5","[[1,0,0],[2,0],[3]]","practice","2435","","","","","","","",""
"","","","","","single-stim-button","198","412509","0.0-3.0-7.0-1.0","5e065c9fe78021031a4b1d59","D2","batch4","","921","","","tol_practice","","","","","","","","","tol_peg_3","921","921","0","[[1,2,0],[0,0],[3]]","5","[[1,0,0],[2,0],[3]]","practice","921","","","","","","","",""
"","","","","","single-stim-button","199","413714","0.0-3.0-7.1-0.1","5e065c9fe78021031a4b1d59","D2","batch4","","1203","","","tol_practice","","","","","","","","","tol_peg_1","1203","1203","0","[[1,0,0],[0,0],[3]]","6","[[1,0,0],[2,0],[3]]","practice","1203","","","","","","","",""
"","","","","","single-stim-button","200","414629","0.0-3.0-7.1-1.1","5e065c9fe78021031a4b1d59","D2","batch4","","913","","","tol_practice","","","","","","","","","tol_peg_2","913","913","0","[[1,0,0],[2,0],[3]]","6","[[1,0,0],[2,0],[3]]","practice","913","","","","","","","",""
"","","","","","poldrack-single-stim","201","415637","0.0-3.0-8.0","5e065c9fe78021031a4b1d59","D2","batch4","","-1","","","tol_feedback","true","","","","","","","","","1000","1000","500","","","","","","-1","none","true","","0","","",""
"","","","","","html-button-response","202","417665","0.0-3.0-9.0","5e065c9fe78021031a4b1d59","D2","batch4","","2026.2999999821186","<div class = centerbox><p class = center-block-text>Great job! You are done with practice trials<br>You are about to start official trials.<br> <br> Problem <strong>1</strong> out of 25 problems</p></div>","0","tol_instruction","","","","","","","","","","","","","","","","","","","","","","","","",""
"","","","","","single-stim-button","203","422548","0.0-3.0-10.0-0.0","5e065c9fe78021031a4b1d59","D2","batch4","","3876","","","tol_tohand","","","","","","","","","tol_peg_2","3876","3876","0","[[1,2,0],[0,0],[0]]","1","[[1,3,0],[2,0],[0]]","0","0","","","","","","3","",""
"","","","","","single-stim-button","204","423357","0.0-3.0-10.0-1.0","5e065c9fe78021031a4b1d59","D2","batch4","","807","","","tol_toboard","","","","","","","","","tol_peg_3","807","807","0","[[1,2,0],[0,0],[3]]","1","[[1,3,0],[2,0],[0]]","0","0","","","","","","3","",""
"","","","","","single-stim-button","205","424339","0.0-3.0-10.1-0.1","5e065c9fe78021031a4b1d59","D2","batch4","","980","","","tol_tohand","","","","","","","","","tol_peg_1","980","980","0","[[1,0,0],[0,0],[3]]","2","[[1,3,0],[2,0],[0]]","0","0","","","","","","3","",""
"","","","","","single-stim-button","206","425181","0.0-3.0-10.1-1.1","5e065c9fe78021031a4b1d59","D2","batch4","","840","","","tol_toboard","","","","","","","","","tol_peg_2","840","840","0","[[1,0,0],[2,0],[3]]","2","[[1,3,0],[2,0],[0]]","0","0","","","","","","3","",""
"","","","","","single-stim-button","207","427570","0.0-3.0-10.2-0.2","5e065c9fe78021031a4b1d59","D2","batch4","","2387","","","tol_tohand","","","","","","","","","tol_peg_1","2387","2387","0","[[0,0,0],[2,0],[3]]","3","[[1,3,0],[2,0],[0]]","0","0","","","","","","3","",""
"","","","","","single-stim-button","208","431095","0.0-3.0-10.2-1.2","5e065c9fe78021031a4b1d59","D2","batch4","","3523","","","tol_toboard","","","","","","","","","tol_peg_1","3523","3523","0","[[1,0,0],[2,0],[3]]","3","[[1,3,0],[2,0],[0]]","0","0","","","","","","3","",""
"","","","","","single-stim-button","209","432347","0.0-3.0-10.3-0.3","5e065c9fe78021031a4b1d59","D2","batch4","","1250","","","tol_tohand","","","","","","","","","tol_peg_3","1250","1250","0","[[1,0,0],[2,0],[0]]","4","[[1,3,0],[2,0],[0]]","0","0","","","","","","3","",""
"","","","","","single-stim-button","210","433254","0.0-3.0-10.3-1.3","5e065c9fe78021031a4b1d59","D2","batch4","","905","","","tol_toboard","","","","","","","","","tol_peg_1","905","905","0","[[1,3,0],[2,0],[0]]","4","[[1,3,0],[2,0],[0]]","0","0","","","","","","3","",""
"","","","","","poldrack-single-stim","211","434261","0.0-3.0-11.0","5e065c9fe78021031a4b1d59","D2","batch4","","-1","","","tol_feedback","true","","","","","","","","","1000","1000","500","","","","","","-1","none","true","3876","8493","","",""
"","","","","","html-button-response","212","435226","0.0-3.0-12.0","5e065c9fe78021031a4b1d59","D2","batch4","","962","<div class = centerbox><p class = center-block-text>problem <strong>2</strong> out of 25 problems</p></div>","0","tol_trial_num","","","","","","","","","","","","","","","","","","","","","","","","",""
"","","","","","single-stim-button","213","441720","0.0-3.0-13.0-0.0","5e065c9fe78021031a4b1d59","D2","batch4","","6492","","","tol_tohand","","","","","","","","","tol_peg_1","6492","6492","0","[[1,0,0],[3,0],[0]]","1","[[2,1,3],[0,0],[0]]","1","0","","","","","","5","",""
"","","","","","single-stim-button","214","443152","0.0-3.0-13.0-1.0","5e065c9fe78021031a4b1d59","D2","batch4","","1430","","","tol_toboard","","","","","","","","","tol_peg_3","1430","1430","0","[[1,0,0],[3,0],[2]]","1","[[2,1,3],[0,0],[0]]","1","0","","","","","","5","",""
"","","","","","single-stim-button","215","445548","0.0-3.0-13.1-0.1","5e065c9fe78021031a4b1d59","D2","batch4","","2394","","","tol_tohand","","","","","","","","","tol_peg_1","2394","2394","0","[[0,0,0],[3,0],[2]]","2","[[2,1,3],[0,0],[0]]","1","0","","","","","","5","",""
"","","","","","single-stim-button","216","449589","0.0-3.0-13.1-1.1","5e065c9fe78021031a4b1d59","D2","batch4","","4039","","","tol_toboard","","","","","","","","","tol_peg_2","4039","4039","0","[[0,0,0],[3,1],[2]]","2","[[2,1,3],[0,0],[0]]","1","0","","","","","","5","",""
"","","","","","single-stim-button","217","451159","0.0-3.0-13.2-0.2","5e065c9fe78021031a4b1d59","D2","batch4","","1568","","","tol_tohand","","","","","","","","","tol_peg_3","1568","1568","0","[[0,0,0],[3,1],[0]]","3","[[2,1,3],[0,0],[0]]","1","0","","","","","","5","",""
"","","","","","single-stim-button","218","452042","0.0-3.0-13.2-1.2","5e065c9fe78021031a4b1d59","D2","batch4","","881","","","tol_toboard","","","","","","","","","tol_peg_1","881","881","0","[[2,0,0],[3,1],[0]]","3","[[2,1,3],[0,0],[0]]","1","0","","","","","","5","",""
"","","","","","single-stim-button","219","453417","0.0-3.0-13.3-0.3","5e065c9fe78021031a4b1d59","D2","batch4","","1373","","","tol_tohand","","","","","","","","","tol_peg_2","1373","1373","0","[[2,0,0],[3,0],[0]]","4","[[2,1,3],[0,0],[0]]","1","0","","","","","","5","",""
"","","","","","single-stim-button","220","454251","0.0-3.0-13.3-1.3","5e065c9fe78021031a4b1d59","D2","batch4","","832","","","tol_toboard","","","","","","","","","tol_peg_1","832","832","0","[[2,1,0],[3,0],[0]]","4","[[2,1,3],[0,0],[0]]","1","0","","","","","","5","",""
"","","","","","single-stim-button","221","455249","0.0-3.0-13.4-0.4","5e065c9fe78021031a4b1d59","D2","batch4","","996","","","tol_tohand","","","","","","","","","tol_peg_2","996","996","0","[[2,1,0],[0,0],[0]]","5","[[2,1,3],[0,0],[0]]","1","0","","","","","","5","",""
"","","","","","single-stim-button","222","456010","0.0-3.0-13.4-1.4","5e065c9fe78021031a4b1d59","D2","batch4","","760","","","tol_toboard","","","","","","","","","tol_peg_1","760","760","0","[[2,1,3],[0,0],[0]]","5","[[2,1,3],[0,0],[0]]","1","0","","","","","","5","",""
"","","","","","poldrack-single-stim","223","457022","0.0-3.0-14.0","5e065c9fe78021031a4b1d59","D2","batch4","","-1","","","tol_feedback","true","","","","","","","","","1000","1000","500","","","","","","-1","none","true","6492","12823","","",""
"","","","","","html-button-response","224","457760","0.0-3.0-15.0","5e065c9fe78021031a4b1d59","D2","batch4","","735.5","<div class = centerbox><p class = center-block-text>problem <strong>3</strong> out of 25 problems</p></div>","0","tol_trial_num","","","","","","","","","","","","","","","","","","","","","","","","",""
"","","","","","single-stim-button","225","461000","0.0-3.0-16.0-0.0","5e065c9fe78021031a4b1d59","D2","batch4","","3239","","","tol_tohand","","","","","","","","","tol_peg_1","3239","3239","0","[[2,0,0],[0,0],[1]]","1","[[1,2,0],[3,0],[0]]","2","0","","","","","","4","",""
"","","","","","single-stim-button","226","461931","0.0-3.0-16.0-1.0","5e065c9fe78021031a4b1d59","D2","batch4","","929","","","tol_toboard","","","","","","","","","tol_peg_2","929","929","0","[[2,0,0],[3,0],[1]]","1","[[1,2,0],[3,0],[0]]","2","0","","","","","","4","",""
"","","","","","single-stim-button","227","465017","0.0-3.0-16.1-0.1","5e065c9fe78021031a4b1d59","D2","batch4","","3086","","","tol_tohand","","","","","","","","","tol_peg_1","3086","3086","0","[[0,0,0],[3,0],[1]]","2","[[1,2,0],[3,0],[0]]","2","0","","","","","","4","",""
"","","","","","single-stim-button","228","465685","0.0-3.0-16.1-1.1","5e065c9fe78021031a4b1d59","D2","batch4","","665","","","tol_toboard","","","","","","","","","tol_peg_2","665","665","0","[[0,0,0],[3,2],[1]]","2","[[1,2,0],[3,0],[0]]","2","0","","","","","","4","",""
"","","","","","single-stim-button","229","466153","0.0-3.0-16.2-0.2","5e065c9fe78021031a4b1d59","D2","batch4","","466","","","tol_tohand","","","","","","","","","tol_peg_3","466","466","0","[[0,0,0],[3,2],[0]]","3","[[1,2,0],[3,0],[0]]","2","0","","","","","","4","",""
"","","","","","single-stim-button","230","467167","0.0-3.0-16.2-1.2","5e065c9fe78021031a4b1d59","D2","batch4","","1013","","","tol_toboard","","","","","","","","","tol_peg_1","1013","1013","0","[[1,0,0],[3,2],[0]]","3","[[1,2,0],[3,0],[0]]","2","0","","","","","","4","",""
"","","","","","single-stim-button","231","467861","0.0-3.0-16.3-0.3","5e065c9fe78021031a4b1d59","D2","batch4","","692","","","tol_tohand","","","","","","","","","tol_peg_2","692","692","0","[[1,0,0],[3,0],[0]]","4","[[1,2,0],[3,0],[0]]","2","0","","","","","","4","",""
"","","","","","single-stim-button","232","468695","0.0-3.0-16.3-1.3","5e065c9fe78021031a4b1d59","D2","batch4","","832","","","tol_toboard","","","","","","","","","tol_peg_1","832","832","0","[[1,2,0],[3,0],[0]]","4","[[1,2,0],[3,0],[0]]","2","0","","","","","","4","",""
"","","","","","poldrack-single-stim","233","469706","0.0-3.0-17.0","5e065c9fe78021031a4b1d59","D2","batch4","","-1","","","tol_feedback","true","","","","","","","","","1000","1000","500","","","","","","-1","none","true","3239","7483","","",""
"","","","","","html-button-response","234","472170","0.0-3.0-18.0","5e065c9fe78021031a4b1d59","D2","batch4","","2462.5999999940395","<div class = centerbox><p class = center-block-text>problem <strong>4</strong> out of 25 problems</p></div>","0","tol_trial_num","","","","","","","","","","","","","","","","","","","","","","","","",""
"","","","","","single-stim-button","235","474167","0.0-3.0-19.0-0.0","5e065c9fe78021031a4b1d59","D2","batch4","","1997","","","tol_tohand","","","","","","","","","tol_peg_2","1997","1997","0","[[3,0,0],[2,0],[0]]","1","[[3,0,0],[1,0],[2]]","3","0","","","","","","3","",""
"","","","","","single-stim-button","236","474856","0.0-3.0-19.0-1.0","5e065c9fe78021031a4b1d59","D2","batch4","","687","","","tol_toboard","","","","","","","","","tol_peg_1","687","687","0","[[3,1,0],[2,0],[0]]","1","[[3,0,0],[1,0],[2]]","3","0","","","","","","3","",""
"","","","","","single-stim-button","237","475281","0.0-3.0-19.1-0.1","5e065c9fe78021031a4b1d59","D2","batch4","","422","","","tol_tohand","","","","","","","","","tol_peg_2","422","422","0","[[3,1,0],[0,0],[0]]","2","[[3,0,0],[1,0],[2]]","3","0","","","","","","3","",""
"","","","","","single-stim-button","238","475960","0.0-3.0-19.1-1.1","5e065c9fe78021031a4b1d59","D2","batch4","","677","","","tol_toboard","","","","","","","","","tol_peg_3","677","677","0","[[3,1,0],[0,0],[2]]","2","[[3,0,0],[1,0],[2]]","3","0","","","","","","3","",""
"","","","","","single-stim-button","239","476671","0.0-3.0-19.2-0.2","5e065c9fe78021031a4b1d59","D2","batch4","","709","","","tol_tohand","","","","","","","","","tol_peg_1","709","709","0","[[3,0,0],[0,0],[2]]","3","[[3,0,0],[1,0],[2]]","3","0","","","","","","3","",""
"","","","","","single-stim-button","240","477359","0.0-3.0-19.2-1.2","5e065c9fe78021031a4b1d59","D2","batch4","","686","","","tol_toboard","","","","","","","","","tol_peg_2","686","686","0","[[3,0,0],[1,0],[2]]","3","[[3,0,0],[1,0],[2]]","3","0","","","","","","3","",""
"","","","","","poldrack-single-stim","241","478366","0.0-3.0-20.0","5e065c9fe78021031a4b1d59","D2","batch4","","-1","","","tol_feedback","true","","","","","","","","","1000","1000","500","","","","","","-1","none","true","1997","3128","","",""
"","","","","","html-button-response","242","479035","0.0-3.0-21.0","5e065c9fe78021031a4b1d59","D2","batch4","","667.3000000119209","<div class = centerbox><p class = center-block-text>problem <strong>5</strong> out of 25 problems</p></div>","0","tol_trial_num","","","","","","","","","","","","","","","","","","","","","","","","",""
"","","","","","single-stim-button","243","485988","0.0-3.0-22.0-0.0","5e065c9fe78021031a4b1d59","D2","batch4","","6951","","","tol_tohand","","","","","","","","","tol_peg_2","6951","6951","0","[[1,0,0],[0,0],[3]]","1","[[0,0,0],[1,2],[3]]","4","0","","","","","","7","",""
"","","","","","single-stim-button","244","488843","0.0-3.0-22.0-1.0","5e065c9fe78021031a4b1d59","D2","batch4","","2853","","","tol_toboard","","","","","","","","","tol_peg_2","2853","2853","0","[[1,0,0],[2,0],[3]]","1","[[0,0,0],[1,2],[3]]","4","0","","","","","","7","",""
"","","","","","single-stim-button","245","495889","0.0-3.0-22.1-0.1","5e065c9fe78021031a4b1d59","D2","batch4","","7044","","","tol_tohand","","","","","","","","","tol_peg_2","7044","7044","0","[[1,0,0],[0,0],[3]]","2","[[0,0,0],[1,2],[3]]","4","0","","","","","","7","",""
"","","","","","single-stim-button","246","498530","0.0-3.0-22.1-1.1","5e065c9fe78021031a4b1d59","D2","batch4","","2641","","","tol_toboard","","","","","","","","","tol_peg_2","2641","2641","0","[[1,0,0],[2,0],[3]]","2","[[0,0,0],[1,2],[3]]","4","0","","","","","","7","",""
"","","","","","single-stim-button","247","505469","0.0-3.0-22.2-0.2","5e065c9fe78021031a4b1d59","D2","batch4","","6937","","","tol_tohand","","","","","","","","","tol_peg_2","6937","6937","0","[[1,0,0],[0,0],[3]]","3","[[0,0,0],[1,2],[3]]","4","0","","","","","","7","",""
"","","","","","single-stim-button","248","506646","0.0-3.0-22.2-1.2","5e065c9fe78021031a4b1d59","D2","batch4","","1173","","","tol_toboard","","","","","","","","","tol_peg_1","1173","1173","0","[[1,2,0],[0,0],[3]]","3","[[0,0,0],[1,2],[3]]","4","0","","","","","","7","",""
"","","","","","single-stim-button","249","509092","0.0-3.0-22.3-0.3","5e065c9fe78021031a4b1d59","D2","batch4","","2444","","","tol_tohand","","","","","","","","","tol_peg_3","2444","2444","0","[[1,2,0],[0,0],[0]]","4","[[0,0,0],[1,2],[3]]","4","0","","","","","","7","",""
"","","","","","single-stim-button","250","512716","0.0-3.0-22.3-1.3","5e065c9fe78021031a4b1d59","D2","batch4","","3622","","","tol_toboard","","","","","","","","","tol_peg_3","3622","3622","0","[[1,2,0],[0,0],[3]]","4","[[0,0,0],[1,2],[3]]","4","0","","","","","","7","",""
"","","","","","single-stim-button","251","513559","0.0-3.0-22.4-0.4","5e065c9fe78021031a4b1d59","D2","batch4","","841","","","tol_tohand","","","","","","","","","tol_peg_1","841","841","0","[[1,0,0],[0,0],[3]]","5","[[0,0,0],[1,2],[3]]","4","0","","","","","","7","",""
"","","","","","single-stim-button","252","514573","0.0-3.0-22.4-1.4","5e065c9fe78021031a4b1d59","D2","batch4","","1012","","","tol_toboard","","","","","","","","","tol_peg_2","1012","1012","0","[[1,0,0],[2,0],[3]]","5","[[0,0,0],[1,2],[3]]","4","0","","","","","","7","",""
"","","","","","single-stim-button","253","522786","0.0-3.0-22.5-0.5","5e065c9fe78021031a4b1d59","D2","batch4","","8212","","","tol_tohand","","","","","","","","","tol_peg_1","8212","8212","0","[[0,0,0],[2,0],[3]]","6","[[0,0,0],[1,2],[3]]","4","0","","","","","","7","",""
"","","","","","single-stim-button","254","526076","0.0-3.0-22.5-1.5","5e065c9fe78021031a4b1d59","D2","batch4","","3287","","","tol_toboard","","","","","","","","","tol_peg_1","3287","3287","0","[[1,0,0],[2,0],[3]]","6","[[0,0,0],[1,2],[3]]","4","0","","","","","","7","",""
"","","","","","single-stim-button","255","526418","0.0-3.0-22.6-0.6","5e065c9fe78021031a4b1d59","D2","batch4","","341","","","tol_tohand","","","","","","","","","tol_peg_1","341","341","0","[[0,0,0],[2,0],[3]]","7","[[0,0,0],[1,2],[3]]","4","0","","","","","","7","",""
"","","","","","single-stim-button","256","526910","0.0-3.0-22.6-1.6","5e065c9fe78021031a4b1d59","D2","batch4","","490","","","tol_toboard","","","","","","","","","tol_peg_1","490","490","0","[[1,0,0],[2,0],[3]]","7","[[0,0,0],[1,2],[3]]","4","0","","","","","","7","",""
"","","","","","single-stim-button","257","534174","0.0-3.0-22.7-0.7","5e065c9fe78021031a4b1d59","D2","batch4","","7262","","","tol_tohand","","","","","","","","","tol_peg_1","7262","7262","0","[[0,0,0],[2,0],[3]]","8","[[0,0,0],[1,2],[3]]","4","0","","","","","","7","",""
"","","","","","single-stim-button","258","536251","0.0-3.0-22.7-1.7","5e065c9fe78021031a4b1d59","D2","batch4","","2074","","","tol_toboard","","","","","","","","","tol_peg_2","2074","2074","0","[[0,0,0],[2,1],[3]]","8","[[0,0,0],[1,2],[3]]","4","0","","","","","","7","",""
"","","","","","single-stim-button","259","539097","0.0-3.0-22.8-0.8","5e065c9fe78021031a4b1d59","D2","batch4","","2844","","","tol_tohand","","","","","","","","","tol_peg_2","2844","2844","0","[[0,0,0],[2,0],[3]]","9","[[0,0,0],[1,2],[3]]","4","0","","","","","","7","",""
"","","","","","single-stim-button","260","539715","0.0-3.0-22.8-1.8","5e065c9fe78021031a4b1d59","D2","batch4","","617","","","tol_toboard","","","","","","","","","tol_peg_1","617","617","0","[[1,0,0],[2,0],[3]]","9","[[0,0,0],[1,2],[3]]","4","0","","","","","","7","",""
"","","","","","single-stim-button","261","541339","0.0-3.0-22.9-0.9","5e065c9fe78021031a4b1d59","D2","batch4","","1623","","","tol_tohand","","","","","","","","","tol_peg_3","1623","1623","0","[[1,0,0],[2,0],[0]]","10","[[0,0,0],[1,2],[3]]","4","0","","","","","","7","",""
"","","","","","single-stim-button","262","544782","0.0-3.0-22.9-1.9","5e065c9fe78021031a4b1d59","D2","batch4","","3441","","","tol_toboard","","","","","","","","","tol_peg_3","3441","3441","0","[[1,0,0],[2,0],[3]]","10","[[0,0,0],[1,2],[3]]","4","0","","","","","","7","",""
"","","","","","single-stim-button","263","547915","0.0-3.0-22.10-0.10","5e065c9fe78021031a4b1d59","D2","batch4","","3131","","","tol_tohand","","","","","","","","","tol_peg_3","3131","3131","0","[[1,0,0],[2,0],[0]]","11","[[0,0,0],[1,2],[3]]","4","0","","","","","","7","",""
"","","","","","single-stim-button","264","548757","0.0-3.0-22.10-1.10","5e065c9fe78021031a4b1d59","D2","batch4","","840","","","tol_toboard","","","","","","","","","tol_peg_2","840","840","0","[[1,0,0],[2,3],[0]]","11","[[0,0,0],[1,2],[3]]","4","0","","","","","","7","",""
"","","","","","single-stim-button","265","549584","0.0-3.0-22.11-0.11","5e065c9fe78021031a4b1d59","D2","batch4","","825","","","tol_tohand","","","","","","","","","tol_peg_1","825","825","0","[[0,0,0],[2,3],[0]]","12","[[0,0,0],[1,2],[3]]","4","0","","","","","","7","",""
"","","","","","single-stim-button","266","550467","0.0-3.0-22.11-1.11","5e065c9fe78021031a4b1d59","D2","batch4","","881","","","tol_toboard","","","","","","","","","tol_peg_3","881","881","0","[[0,0,0],[2,3],[1]]","12","[[0,0,0],[1,2],[3]]","4","0","","","","","","7","",""
"","","","","","single-stim-button","267","551212","0.0-3.0-22.12-0.12","5e065c9fe78021031a4b1d59","D2","batch4","","743","","","tol_tohand","","","","","","","","","tol_peg_2","743","743","0","[[0,0,0],[2,0],[1]]","13","[[0,0,0],[1,2],[3]]","4","0","","","","","","7","",""
"","","","","","single-stim-button","268","552103","0.0-3.0-22.12-1.12","5e065c9fe78021031a4b1d59","D2","batch4","","889","","","tol_toboard","","","","","","","","","tol_peg_1","889","889","0","[[3,0,0],[2,0],[1]]","13","[[0,0,0],[1,2],[3]]","4","0","","","","","","7","",""
"","","","","","single-stim-button","269","552627","0.0-3.0-22.13-0.13","5e065c9fe78021031a4b1d59","D2","batch4","","523","","","tol_tohand","","","","","","","","","tol_peg_2","523","523","0","[[3,0,0],[0,0],[1]]","14","[[0,0,0],[1,2],[3]]","4","0","","","","","","7","",""
"","","","","","single-stim-button","270","553222","0.0-3.0-22.13-1.13","5e065c9fe78021031a4b1d59","D2","batch4","","595","","","tol_toboard","","","","","","","","","tol_peg_1","595","595","0","[[3,2,0],[0,0],[1]]","14","[[0,0,0],[1,2],[3]]","4","0","","","","","","7","",""
"","","","","","single-stim-button","271","554050","0.0-3.0-22.14-0.14","5e065c9fe78021031a4b1d59","D2","batch4","","826","","","tol_tohand","","","","","","","","","tol_peg_3","826","826","0","[[3,2,0],[0,0],[0]]","15","[[0,0,0],[1,2],[3]]","4","0","","","","","","7","",""
"","","","","","single-stim-button","272","554737","0.0-3.0-22.14-1.14","5e065c9fe78021031a4b1d59","D2","batch4","","685","","","tol_toboard","","","","","","","","","tol_peg_2","685","685","0","[[3,2,0],[1,0],[0]]","15","[[0,0,0],[1,2],[3]]","4","0","","","","","","7","",""
"","","","","","single-stim-button","273","555588","0.0-3.0-22.15-0.15","5e065c9fe78021031a4b1d59","D2","batch4","","849","","","tol_tohand","","","","","","","","","tol_peg_1","849","849","0","[[3,0,0],[1,0],[0]]","16","[[0,0,0],[1,2],[3]]","4","0","","","","","","7","",""
"","","","","","single-stim-button","274","556193","0.0-3.0-22.15-1.15","5e065c9fe78021031a4b1d59","D2","batch4","","603","","","tol_toboard","","","","","","","","","tol_peg_2","603","603","0","[[3,0,0],[1,2],[0]]","16","[[0,0,0],[1,2],[3]]","4","0","","","","","","7","",""
"","","","","","single-stim-button","275","556627","0.0-3.0-22.16-0.16","5e065c9fe78021031a4b1d59","D2","batch4","","432","","","tol_tohand","","","","","","","","","tol_peg_1","432","432","0","[[0,0,0],[1,2],[0]]","17","[[0,0,0],[1,2],[3]]","4","0","","","","","","7","",""
"","","","","","single-stim-button","276","557232","0.0-3.0-22.16-1.16","5e065c9fe78021031a4b1d59","D2","batch4","","604","","","tol_toboard","","","","","","","","","tol_peg_3","604","604","0","[[0,0,0],[1,2],[3]]","17","[[0,0,0],[1,2],[3]]","4","0","","","","","","7","",""
"","","","","","poldrack-single-stim","277","558243","0.0-3.0-23.0","5e065c9fe78021031a4b1d59","D2","batch4","","-1","","","tol_feedback","true","","","","","","","","","1000","1000","500","","","","","","-1","none","true","6951","51828","","",""
"","","","","","html-button-response","278","560151","0.0-3.0-24.0","5e065c9fe78021031a4b1d59","D2","batch4","","1906.199999988079","<div class = centerbox><p class = center-block-text>problem <strong>6</strong> out of 25 problems</p></div>","0","tol_trial_num","","","","","","","","","","","","","","","","","","","","","","","","",""
"","","","","","single-stim-button","279","562369","0.0-3.0-25.0-0.0","5e065c9fe78021031a4b1d59","D2","batch4","","2216","","","tol_tohand","","","","","","","","","tol_peg_2","2216","2216","0","[[0,0,0],[1,0],[3]]","1","[[1,0,0],[2,3],[0]]","5","0","","","","","","6","",""
"","","","","","single-stim-button","280","565411","0.0-3.0-25.0-1.0","5e065c9fe78021031a4b1d59","D2","batch4","","3041","","","tol_toboard","","","","","","","","","tol_peg_2","3041","3041","0","[[0,0,0],[1,2],[3]]","1","[[1,0,0],[2,3],[0]]","5","0","","","","","","6","",""
"","","","","","single-stim-button","281","566188","0.0-3.0-25.1-0.1","5e065c9fe78021031a4b1d59","D2","batch4","","775","","","tol_tohand","","","","","","","","","tol_peg_3","775","775","0","[[0,0,0],[1,2],[0]]","2","[[1,0,0],[2,3],[0]]","5","0","","","","","","6","",""
"","","","","","single-stim-button","282","566973","0.0-3.0-25.1-1.1","5e065c9fe78021031a4b1d59","D2","batch4","","783","","","tol_toboard","","","","","","","","","tol_peg_1","783","783","0","[[3,0,0],[1,2],[0]]","2","[[1,0,0],[2,3],[0]]","5","0","","","","","","6","",""
"","","","","","single-stim-button","283","568159","0.0-3.0-25.2-0.2","5e065c9fe78021031a4b1d59","D2","batch4","","1185","","","tol_tohand","","","","","","","","","tol_peg_2","1185","1185","0","[[3,0,0],[1,0],[0]]","3","[[1,0,0],[2,3],[0]]","5","0","","","","","","6","",""
"","","","","","single-stim-button","284","568716","0.0-3.0-25.2-1.2","5e065c9fe78021031a4b1d59","D2","batch4","","555","","","tol_toboard","","","","","","","","","tol_peg_1","555","555","0","[[3,2,0],[1,0],[0]]","3","[[1,0,0],[2,3],[0]]","5","0","","","","","","6","",""
"","","","","","single-stim-button","285","569223","0.0-3.0-25.3-0.3","5e065c9fe78021031a4b1d59","D2","batch4","","505","","","tol_tohand","","","","","","","","","tol_peg_2","505","505","0","[[3,2,0],[0,0],[0]]","4","[[1,0,0],[2,3],[0]]","5","0","","","","","","6","",""
"","","","","","single-stim-button","286","570073","0.0-3.0-25.3-1.3","5e065c9fe78021031a4b1d59","D2","batch4","","848","","","tol_toboard","","","","","","","","","tol_peg_3","848","848","0","[[3,2,0],[0,0],[1]]","4","[[1,0,0],[2,3],[0]]","5","0","","","","","","6","",""
"","","","","","single-stim-button","287","571358","0.0-3.0-25.4-0.4","5e065c9fe78021031a4b1d59","D2","batch4","","1283","","","tol_tohand","","","","","","","","","tol_peg_1","1283","1283","0","[[3,0,0],[0,0],[1]]","5","[[1,0,0],[2,3],[0]]","5","0","","","","","","6","",""
"","","","","","single-stim-button","288","571881","0.0-3.0-25.4-1.4","5e065c9fe78021031a4b1d59","D2","batch4","","521","","","tol_toboard","","","","","","","","","tol_peg_2","521","521","0","[[3,0,0],[2,0],[1]]","5","[[1,0,0],[2,3],[0]]","5","0","","","","","","6","",""
"","","","","","single-stim-button","289","573246","0.0-3.0-25.5-0.5","5e065c9fe78021031a4b1d59","D2","batch4","","1363","","","tol_tohand","","","","","","","","","tol_peg_1","1363","1363","0","[[0,0,0],[2,0],[1]]","6","[[1,0,0],[2,3],[0]]","5","0","","","","","","6","",""
"","","","","","single-stim-button","290","575256","0.0-3.0-25.5-1.5","5e065c9fe78021031a4b1d59","D2","batch4","","2009","","","tol_toboard","","","","","","","","","tol_peg_2","2009","2009","0","[[0,0,0],[2,3],[1]]","6","[[1,0,0],[2,3],[0]]","5","0","","","","","","6","",""
"","","","","","single-stim-button","291","575960","0.0-3.0-25.6-0.6","5e065c9fe78021031a4b1d59","D2","batch4","","703","","","tol_tohand","","","","","","","","","tol_peg_3","703","703","0","[[0,0,0],[2,3],[0]]","7","[[1,0,0],[2,3],[0]]","5","0","","","","","","6","",""
"","","","","","single-stim-button","292","576559","0.0-3.0-25.6-1.6","5e065c9fe78021031a4b1d59","D2","batch4","","599","","","tol_toboard","","","","","","","","","tol_peg_1","599","599","0","[[1,0,0],[2,3],[0]]","7","[[1,0,0],[2,3],[0]]","5","0","","","","","","6","",""
"","","","","","poldrack-single-stim","293","577569","0.0-3.0-26.0","5e065c9fe78021031a4b1d59","D2","batch4","","-1","","","tol_feedback","true","","","","","","","","","1000","1000","500","","","","","","-1","none","true","2216","8030","","",""
"","","","","","html-button-response","294","578171","0.0-3.0-27.0","5e065c9fe78021031a4b1d59","D2","batch4","","600.4000000059605","<div class = centerbox><p class = center-block-text>problem <strong>7</strong> out of 25 problems</p></div>","0","tol_trial_num","","","","","","","","","","","","","","","","","","","","","","","","",""
"","","","","","single-stim-button","295","581926","0.0-3.0-28.0-0.0","5e065c9fe78021031a4b1d59","D2","batch4","","3753","","","tol_tohand","","","","","","","","","tol_peg_3","3753","3753","0","[[2,1,0],[0,0],[0]]","1","[[1,2,0],[3,0],[0]]","6","0","","","","","","5","",""
"","","","","","single-stim-button","296","582540","0.0-3.0-28.0-1.0","5e065c9fe78021031a4b1d59","D2","batch4","","612","","","tol_toboard","","","","","","","","","tol_peg_2","612","612","0","[[2,1,0],[3,0],[0]]","1","[[1,2,0],[3,0],[0]]","6","0","","","","","","5","",""
"","","","","","single-stim-button","297","583603","0.0-3.0-28.1-0.1","5e065c9fe78021031a4b1d59","D2","batch4","","1062","","","tol_tohand","","","","","","","","","tol_peg_1","1062","1062","0","[[2,0,0],[3,0],[0]]","2","[[1,2,0],[3,0],[0]]","6","0","","","","","","5","",""
"","","","","","single-stim-button","298","584085","0.0-3.0-28.1-1.1","5e065c9fe78021031a4b1d59","D2","batch4","","481","","","tol_toboard","","","","","","","","","tol_peg_2","481","481","0","[[2,0,0],[3,1],[0]]","2","[[1,2,0],[3,0],[0]]","6","0","","","","","","5","",""
"","","","","","single-stim-button","299","584901","0.0-3.0-28.2-0.2","5e065c9fe78021031a4b1d59","D2","batch4","","815","","","tol_tohand","","","","","","","","","tol_peg_1","815","815","0","[[0,0,0],[3,1],[0]]","3","[[1,2,0],[3,0],[0]]","6","0","","","","","","5","",""
"","","","","","single-stim-button","300","585983","0.0-3.0-28.2-1.2","5e065c9fe78021031a4b1d59","D2","batch4","","1080","","","tol_toboard","","","","","","","","","tol_peg_3","1080","1080","0","[[0,0,0],[3,1],[2]]","3","[[1,2,0],[3,0],[0]]","6","0","","","","","","5","",""
"","","","","","single-stim-button","301","586563","0.0-3.0-28.3-0.3","5e065c9fe78021031a4b1d59","D2","batch4","","578","","","tol_tohand","","","","","","","","","tol_peg_2","578","578","0","[[0,0,0],[3,0],[2]]","4","[[1,2,0],[3,0],[0]]","6","0","","","","","","5","",""
"","","","","","single-stim-button","302","587267","0.0-3.0-28.3-1.3","5e065c9fe78021031a4b1d59","D2","batch4","","702","","","tol_toboard","","","","","","","","","tol_peg_1","702","702","0","[[1,0,0],[3,0],[2]]","4","[[1,2,0],[3,0],[0]]","6","0","","","","","","5","",""
"","","","","","single-stim-button","303","587807","0.0-3.0-28.4-0.4","5e065c9fe78021031a4b1d59","D2","batch4","","538","","","tol_tohand","","","","","","","","","tol_peg_3","538","538","0","[[1,0,0],[3,0],[0]]","5","[[1,2,0],[3,0],[0]]","6","0","","","","","","5","",""
"","","","","","single-stim-button","304","588461","0.0-3.0-28.4-1.4","5e065c9fe78021031a4b1d59","D2","batch4","","652","","","tol_toboard","","","","","","","","","tol_peg_1","652","652","0","[[1,2,0],[3,0],[0]]","5","[[1,2,0],[3,0],[0]]","6","0","","","","","","5","",""
"","","","","","poldrack-single-stim","305","589474","0.0-3.0-29.0","5e065c9fe78021031a4b1d59","D2","batch4","","-1","","","tol_feedback","true","","","","","","","","","1000","1000","500","","","","","","-1","none","true","3753","6746","","",""
"","","","","","html-button-response","306","591348","0.0-3.0-30.0","5e065c9fe78021031a4b1d59","D2","batch4","","1872.0999999940395","<div class = centerbox><p class = center-block-text>problem <strong>8</strong> out of 25 problems</p></div>","0","tol_trial_num","","","","","","","","","","","","","","","","","","","","","","","","",""
"","","","","","single-stim-button","307","595070","0.0-3.0-31.0-0.0","5e065c9fe78021031a4b1d59","D2","batch4","","3719","","","tol_tohand","","","","","","","","","tol_peg_3","3719","3719","0","[[0,0,0],[2,3],[0]]","1","[[1,2,0],[3,0],[0]]","7","0","","","","","","4","",""
"","","","","","single-stim-button","308","595995","0.0-3.0-31.0-1.0","5e065c9fe78021031a4b1d59","D2","batch4","","923","","","tol_toboard","","","","","","","","","tol_peg_1","923","923","0","[[1,0,0],[2,3],[0]]","1","[[1,2,0],[3,0],[0]]","7","0","","","","","","4","",""
"","","","","","single-stim-button","309","597107","0.0-3.0-31.1-0.1","5e065c9fe78021031a4b1d59","D2","batch4","","1110","","","tol_tohand","","","","","","","","","tol_peg_2","1110","1110","0","[[1,0,0],[2,0],[0]]","2","[[1,2,0],[3,0],[0]]","7","0","","","","","","4","",""
"","","","","","single-stim-button","310","597867","0.0-3.0-31.1-1.1","5e065c9fe78021031a4b1d59","D2","batch4","","758","","","tol_toboard","","","","","","","","","tol_peg_3","758","758","0","[[1,0,0],[2,0],[3]]","2","[[1,2,0],[3,0],[0]]","7","0","","","","","","4","",""
"","","","","","single-stim-button","311","598538","0.0-3.0-31.2-0.2","5e065c9fe78021031a4b1d59","D2","batch4","","669","","","tol_tohand","","","","","","","","","tol_peg_2","669","669","0","[[1,0,0],[0,0],[3]]","3","[[1,2,0],[3,0],[0]]","7","0","","","","","","4","",""
"","","","","","single-stim-button","312","599144","0.0-3.0-31.2-1.2","5e065c9fe78021031a4b1d59","D2","batch4","","604","","","tol_toboard","","","","","","","","","tol_peg_1","604","604","0","[[1,2,0],[0,0],[3]]","3","[[1,2,0],[3,0],[0]]","7","0","","","","","","4","",""
"","","","","","single-stim-button","313","599945","0.0-3.0-31.3-0.3","5e065c9fe78021031a4b1d59","D2","batch4","","799","","","tol_tohand","","","","","","","","","tol_peg_3","799","799","0","[[1,2,0],[0,0],[0]]","4","[[1,2,0],[3,0],[0]]","7","0","","","","","","4","",""
"","","","","","single-stim-button","314","600665","0.0-3.0-31.3-1.3","5e065c9fe78021031a4b1d59","D2","batch4","","718","","","tol_toboard","","","","","","","","","tol_peg_2","718","718","0","[[1,2,0],[3,0],[0]]","4","[[1,2,0],[3,0],[0]]","7","0","","","","","","4","",""
"","","","","","poldrack-single-stim","315","601673","0.0-3.0-32.0","5e065c9fe78021031a4b1d59","D2","batch4","","-1","","","tol_feedback","true","","","","","","","","","1000","1000","500","","","","","","-1","none","true","3719","6297","","",""
"","","","","","html-button-response","316","602473","0.0-3.0-33.0","5e065c9fe78021031a4b1d59","D2","batch4","","797.8999999761581","<div class = centerbox><p class = center-block-text>problem <strong>9</strong> out of 25 problems</p></div>","0","tol_trial_num","","","","","","","","","","","","","","","","","","","","","","","","",""
"","","","","","single-stim-button","317","607783","0.0-3.0-34.0-0.0","5e065c9fe78021031a4b1d59","D2","batch4","","5308","","","tol_tohand","","","","","","","","","tol_peg_1","5308","5308","0","[[3,0,0],[0,0],[1]]","1","[[2,1,0],[3,0],[0]]","8","0","","","","","","6","",""
"","","","","","single-stim-button","318","608468","0.0-3.0-34.0-1.0","5e065c9fe78021031a4b1d59","D2","batch4","","683","","","tol_toboard","","","","","","","","","tol_peg_2","683","683","0","[[3,0,0],[2,0],[1]]","1","[[2,1,0],[3,0],[0]]","8","0","","","","","","6","",""
"","","","","","single-stim-button","319","609008","0.0-3.0-34.1-0.1","5e065c9fe78021031a4b1d59","D2","batch4","","539","","","tol_tohand","","","","","","","","","tol_peg_1","539","539","0","[[0,0,0],[2,0],[1]]","2","[[2,1,0],[3,0],[0]]","8","0","","","","","","6","",""
"","","","","","single-stim-button","320","611102","0.0-3.0-34.1-1.1","5e065c9fe78021031a4b1d59","D2","batch4","","2092","","","tol_toboard","","","","","","","","","tol_peg_1","2092","2092","0","[[3,0,0],[2,0],[1]]","2","[[2,1,0],[3,0],[0]]","8","0","","","","","","6","",""
"","","","","","single-stim-button","321","612771","0.0-3.0-34.2-0.2","5e065c9fe78021031a4b1d59","D2","batch4","","1667","","","tol_tohand","","","","","","","","","tol_peg_3","1667","1667","0","[[3,0,0],[2,0],[0]]","3","[[2,1,0],[3,0],[0]]","8","0","","","","","","6","",""
"","","","","","single-stim-button","322","613278","0.0-3.0-34.2-1.2","5e065c9fe78021031a4b1d59","D2","batch4","","505","","","tol_toboard","","","","","","","","","tol_peg_2","505","505","0","[[3,0,0],[2,1],[0]]","3","[[2,1,0],[3,0],[0]]","8","0","","","","","","6","",""
"","","","","","single-stim-button","323","614089","0.0-3.0-34.3-0.3","5e065c9fe78021031a4b1d59","D2","batch4","","809","","","tol_tohand","","","","","","","","","tol_peg_1","809","809","0","[[0,0,0],[2,1],[0]]","4","[[2,1,0],[3,0],[0]]","8","0","","","","","","6","",""
"","","","","","single-stim-button","324","625098","0.0-3.0-34.3-1.3","5e065c9fe78021031a4b1d59","D2","batch4","","11007","","","tol_toboard","","","","","","","","","tol_peg_3","11007","11007","0","[[0,0,0],[2,1],[3]]","4","[[2,1,0],[3,0],[0]]","8","0","","","","","","6","",""
"","","","","","single-stim-button","325","625924","0.0-3.0-34.4-0.4","5e065c9fe78021031a4b1d59","D2","batch4","","822","","","tol_tohand","","","","","","","","","tol_peg_2","822","822","0","[[0,0,0],[2,0],[3]]","5","[[2,1,0],[3,0],[0]]","8","0","","","","","","6","",""
"","","","","","single-stim-button","326","626603","0.0-3.0-34.4-1.4","5e065c9fe78021031a4b1d59","D2","batch4","","677","","","tol_toboard","","","","","","","","","tol_peg_2","677","677","0","[[0,0,0],[2,1],[3]]","5","[[2,1,0],[3,0],[0]]","8","0","","","","","","6","",""
"","","","","","single-stim-button","327","628549","0.0-3.0-34.5-0.5","5e065c9fe78021031a4b1d59","D2","batch4","","1946","","","tol_tohand","","","","","","","","","tol_peg_3","1946","1946","0","[[0,0,0],[2,1],[0]]","6","[[2,1,0],[3,0],[0]]","8","0","","","","","","6","",""
"","","","","","single-stim-button","328","629803","0.0-3.0-34.5-1.5","5e065c9fe78021031a4b1d59","D2","batch4","","1252","","","tol_toboard","","","","","","","","","tol_peg_1","1252","1252","0","[[3,0,0],[2,1],[0]]","6","[[2,1,0],[3,0],[0]]","8","0","","","","","","6","",""
"","","","","","single-stim-button","329","630439","0.0-3.0-34.6-0.6","5e065c9fe78021031a4b1d59","D2","batch4","","634","","","tol_tohand","","","","","","","","","tol_peg_2","634","634","0","[[3,0,0],[2,0],[0]]","7","[[2,1,0],[3,0],[0]]","8","0","","","","","","6","",""
"","","","","","single-stim-button","330","631009","0.0-3.0-34.6-1.6","5e065c9fe78021031a4b1d59","D2","batch4","","569","","","tol_toboard","","","","","","","","","tol_peg_3","569","569","0","[[3,0,0],[2,0],[1]]","7","[[2,1,0],[3,0],[0]]","8","0","","","","","","6","",""
"","","","","","single-stim-button","331","637187","0.0-3.0-34.7-0.7","5e065c9fe78021031a4b1d59","D2","batch4","","6176","","","tol_tohand","","","","","","","","","tol_peg_1","6176","6176","0","[[0,0,0],[2,0],[1]]","8","[[2,1,0],[3,0],[0]]","8","0","","","","","","6","",""
"","","","","","single-stim-button","332","639395","0.0-3.0-34.7-1.7","5e065c9fe78021031a4b1d59","D2","batch4","","2205","","","tol_toboard","","","","","","","","","tol_peg_2","2205","2205","0","[[0,0,0],[2,3],[1]]","8","[[2,1,0],[3,0],[0]]","8","0","","","","","","6","",""
"","","","","","single-stim-button","333","640507","0.0-3.0-34.8-0.8","5e065c9fe78021031a4b1d59","D2","batch4","","1110","","","tol_tohand","","","","","","","","","tol_peg_2","1110","1110","0","[[0,0,0],[2,0],[1]]","9","[[2,1,0],[3,0],[0]]","8","0","","","","","","6","",""
"","","","","","single-stim-button","334","641064","0.0-3.0-34.8-1.8","5e065c9fe78021031a4b1d59","D2","batch4","","555","","","tol_toboard","","","","","","","","","tol_peg_2","555","555","0","[[0,0,0],[2,3],[1]]","9","[[2,1,0],[3,0],[0]]","8","0","","","","","","6","",""
"","","","","","single-stim-button","335","641718","0.0-3.0-34.9-0.9","5e065c9fe78021031a4b1d59","D2","batch4","","652","","","tol_tohand","","","","","","","","","tol_peg_2","652","652","0","[[0,0,0],[2,0],[1]]","10","[[2,1,0],[3,0],[0]]","8","0","","","","","","6","",""
"","","","","","single-stim-button","336","642283","0.0-3.0-34.9-1.9","5e065c9fe78021031a4b1d59","D2","batch4","","564","","","tol_toboard","","","","","","","","","tol_peg_1","564","564","0","[[3,0,0],[2,0],[1]]","10","[[2,1,0],[3,0],[0]]","8","0","","","","","","6","",""
"","","","","","single-stim-button","337","642929","0.0-3.0-34.10-0.10","5e065c9fe78021031a4b1d59","D2","batch4","","644","","","tol_tohand","","","","","","","","","tol_peg_2","644","644","0","[[3,0,0],[0,0],[1]]","11","[[2,1,0],[3,0],[0]]","8","0","","","","","","6","",""
"","","","","","single-stim-button","338","643420","0.0-3.0-34.10-1.10","5e065c9fe78021031a4b1d59","D2","batch4","","490","","","tol_toboard","","","","","","","","","tol_peg_1","490","490","0","[[3,2,0],[0,0],[1]]","11","[[2,1,0],[3,0],[0]]","8","0","","","","","","6","",""
"","","","","","single-stim-button","339","644328","0.0-3.0-34.11-0.11","5e065c9fe78021031a4b1d59","D2","batch4","","906","","","tol_tohand","","","","","","","","","tol_peg_3","906","906","0","[[3,2,0],[0,0],[0]]","12","[[2,1,0],[3,0],[0]]","8","0","","","","","","6","",""
"","","","","","single-stim-button","340","644801","0.0-3.0-34.11-1.11","5e065c9fe78021031a4b1d59","D2","batch4","","471","","","tol_toboard","","","","","","","","","tol_peg_2","471","471","0","[[3,2,0],[1,0],[0]]","12","[[2,1,0],[3,0],[0]]","8","0","","","","","","6","",""
"","","","","","single-stim-button","341","645440","0.0-3.0-34.12-0.12","5e065c9fe78021031a4b1d59","D2","batch4","","637","","","tol_tohand","","","","","","","","","tol_peg_1","637","637","0","[[3,0,0],[1,0],[0]]","13","[[2,1,0],[3,0],[0]]","8","0","","","","","","6","",""
"","","","","","single-stim-button","342","646127","0.0-3.0-34.12-1.12","5e065c9fe78021031a4b1d59","D2","batch4","","685","","","tol_toboard","","","","","","","","","tol_peg_2","685","685","0","[[3,0,0],[1,2],[0]]","13","[[2,1,0],[3,0],[0]]","8","0","","","","","","6","",""
"","","","","","single-stim-button","343","647019","0.0-3.0-34.13-0.13","5e065c9fe78021031a4b1d59","D2","batch4","","890","","","tol_tohand","","","","","","","","","tol_peg_1","890","890","0","[[0,0,0],[1,2],[0]]","14","[[2,1,0],[3,0],[0]]","8","0","","","","","","6","",""
"","","","","","single-stim-button","344","647877","0.0-3.0-34.13-1.13","5e065c9fe78021031a4b1d59","D2","batch4","","856","","","tol_toboard","","","","","","","","","tol_peg_3","856","856","0","[[0,0,0],[1,2],[3]]","14","[[2,1,0],[3,0],[0]]","8","0","","","","","","6","",""
"","","","","","single-stim-button","345","649227","0.0-3.0-34.14-0.14","5e065c9fe78021031a4b1d59","D2","batch4","","1350","","","tol_tohand","","","","","","","","","tol_peg_2","1350","1350","0","[[0,0,0],[1,0],[3]]","15","[[2,1,0],[3,0],[0]]","8","0","","","","","","6","",""
"","","","","","single-stim-button","346","649832","0.0-3.0-34.14-1.14","5e065c9fe78021031a4b1d59","D2","batch4","","603","","","tol_toboard","","","","","","","","","tol_peg_1","603","603","0","[[2,0,0],[1,0],[3]]","15","[[2,1,0],[3,0],[0]]","8","0","","","","","","6","",""
"","","","","","single-stim-button","347","650290","0.0-3.0-34.15-0.15","5e065c9fe78021031a4b1d59","D2","batch4","","455","","","tol_tohand","","","","","","","","","tol_peg_2","455","455","0","[[2,0,0],[0,0],[3]]","16","[[2,1,0],[3,0],[0]]","8","0","","","","","","6","",""
"","","","","","single-stim-button","348","650911","0.0-3.0-34.15-1.15","5e065c9fe78021031a4b1d59","D2","batch4","","621","","","tol_toboard","","","","","","","","","tol_peg_1","621","621","0","[[2,1,0],[0,0],[3]]","16","[[2,1,0],[3,0],[0]]","8","0","","","","","","6","",""
"","","","","","single-stim-button","349","651435","0.0-3.0-34.16-0.16","5e065c9fe78021031a4b1d59","D2","batch4","","522","","","tol_tohand","","","","","","","","","tol_peg_3","522","522","0","[[2,1,0],[0,0],[0]]","17","[[2,1,0],[3,0],[0]]","8","0","","","","","","6","",""
