"success","timeout","failed_images","failed_audio","failed_video","trial_type","trial_index","time_elapsed","internal_node_id","subject_id","study_id","session_id","view_history","rt","stimulus","response","task","correct","answer","item","fiar_detect_rt","fiar_detect_correct","total_correct_fiar_detect","post_trial_gap","choices","mouse_click","stim_duration","block_duration","timing_post_trial","current_position","tol_num_moves_made","tol_target","tol_problem_id","tol_rt","key_press","possible_responses","tol_correct","preplanning","tol_rt_per_trial","tol_min_moves","spm_correct","spm_rt"
"true","false","[]","[]","[]","preload","0","13945","0.0-0.0","5e0f443e8205266652153f5e","B2","batch2","","","","","","","","","","","","","","","","","","","","","","","","","","","","","",""
"true","","","","","fullscreen","1","691553","0.0-1.0-0.0","5e0f443e8205266652153f5e","B2","batch2","","","","","","","","","","","","","","","","","","","","","","","","","","","","","",""
"true","","","","","fullscreen","2","694710","0.0-2.0-0.0","5e0f443e8205266652153f5e","B2","batch2","","","","","","","","","","","","","","","","","","","","","","","","","","","","","",""
"","","","","","instructions","3","716135","0.0-2.0-1.0-0.0","5e0f443e8205266652153f5e","B2","batch2","[{""page_index"":0,""viewing_time"":15185.5},{""page_index"":1,""viewing_time"":6236.399999999441}]","21422.5","","","","","","","","","","","","","","","","","","","","","","","","","","","",""
"","","","","","html-button-response","4","717777","0.0-2.0-1.0-1.0-0.0","5e0f443e8205266652153f5e","B2","batch2","","1639.7999999998137","<p class=block-text> Let's answer a few questions <br>","0","pattern_enter_quiz","","","","","","","","","","","","","","","","","","","","","","","","",""
"","","","","","html-button-response","5","720905","0.0-2.0-1.0-1.0-1.0","5e0f443e8205266652153f5e","B2","batch2","","3125.699999999255","<p class = block-text>True or False: You will have as much time as you want to make each choice. <br></p>","1","pattern_quiz","true","","","","","","","","","","","","","","","","","","","","","","","",""
"","","","","","html-button-response","6","724224","0.0-2.0-1.0-1.0-2.0","5e0f443e8205266652153f5e","B2","batch2","","3314.800000000745","<p class = block-text>Correct! You should make your choice <strong> as fast as you can</strong>.</p>","0","pattern_quiz_feedback","","","","","","","","","","","","","","","","","","","","","","","","",""
"","","","","","html-button-response","7","728542","0.0-2.0-1.0-1.0-3.0","5e0f443e8205266652153f5e","B2","batch2","","4316.399999999441","<p class = block-text>True or False: You will look for 4 pieces in black or white color connected in a row either horizontally, vertically or diagonally. <br></p>","0","pattern_quiz","true","","","","","","","","","","","","","","","","","","","","","","","",""
"","","","","","html-button-response","8","729474","0.0-2.0-1.0-1.0-4.0","5e0f443e8205266652153f5e","B2","batch2","","930.1000000005588","<p class = block-text>Correct! </p>","0","pattern_quiz_feedback","","","","","","","","","","","","","","","","","","","","","","","","",""
"","","","","","html-button-response","9","731007","0.0-2.0-2.0","5e0f443e8205266652153f5e","B2","batch2","","1528.2999999998137","<p class=block-text> Now that you've understood the game, let's do a few practice trials before we start!<br> <br>","0","pattern_enter_practice","","","","","","","","","","","","","","","","","","","","","","","","",""
"","","","","","image-keyboard-response","10","732473","0.0-2.0-3.0-0.0","5e0f443e8205266652153f5e","B2","batch2","","1461.9000000003725","stim/prac_yes_18_hor_w1.png","f","pattern_practice","true","f","","","","","","","","","","","","","","","","","","","","","","",""
"","","","","","html-keyboard-response","11","733480","0.0-2.0-3.0-1.0","5e0f443e8205266652153f5e","B2","batch2","","null","<p style=""font-size:30px;color:green;"">Correct!</p>","null","pattern_feedback","","","","","","","","","","","","","","","","","","","","","","","","",""
"","","","","","image-keyboard-response","12","734384","0.0-2.0-3.0-0.1","5e0f443e8205266652153f5e","B2","batch2","","902.5999999996275","stim/prac_no_16_1.png","j","pattern_practice","true","j","","","","","","","","","","","","","","","","","","","","","","",""
"","","","","","html-keyboard-response","13","735410","0.0-2.0-3.0-1.1","5e0f443e8205266652153f5e","B2","batch2","","null","<p style=""font-size:30px;color:green;"">Correct!</p>","null","pattern_feedback","","","","","","","","","","","","","","","","","","","","","","","","",""
"","","","","","image-keyboard-response","14","736074","0.0-2.0-3.0-0.2","5e0f443e8205266652153f5e","B2","batch2","","662.0999999996275","stim/prac_yes_16_ver_w1.png","f","pattern_practice","true","f","","","","","","","","","","","","","","","","","","","","","","",""
"","","","","","html-keyboard-response","15","737080","0.0-2.0-3.0-1.2","5e0f443e8205266652153f5e","B2","batch2","","null","<p style=""font-size:30px;color:green;"">Correct!</p>","null","pattern_feedback","","","","","","","","","","","","","","","","","","","","","","","","",""
"","","","","","image-keyboard-response","16","737890","0.0-2.0-3.0-0.3","5e0f443e8205266652153f5e","B2","batch2","","808.4000000003725","stim/prac_yes_20_dia_b1.png","f","pattern_practice","true","f","","","","","","","","","","","","","","","","","","","","","","",""
"","","","","","html-keyboard-response","17","738909","0.0-2.0-3.0-1.3","5e0f443e8205266652153f5e","B2","batch2","","null","<p style=""font-size:30px;color:green;"">Correct!</p>","null","pattern_feedback","","","","","","","","","","","","","","","","","","","","","","","","",""
"","","","","","image-keyboard-response","18","739621","0.0-2.0-3.0-0.4","5e0f443e8205266652153f5e","B2","batch2","","705.9000000003725","stim/prac_no_18_1.png","j","pattern_practice","true","j","","","","","","","","","","","","","","","","","","","","","","",""
"","","","","","html-keyboard-response","19","740644","0.0-2.0-3.0-1.4","5e0f443e8205266652153f5e","B2","batch2","","null","<p style=""font-size:30px;color:green;"">Correct!</p>","null","pattern_feedback","","","","","","","","","","","","","","","","","","","","","","","","",""
"","","","","","html-button-response","20","747703","0.0-2.0-4.0","5e0f443e8205266652153f5e","B2","batch2","","7057","<p class=block-text> Good job! You are done with practice trials!<br>
        You responded correctly on 100% of the trials.<br>
        Press the button below to start official trials. Now you won't see any feedback about your response</p>","0","pattern_enter_official_trials","","","","","","","","","","","","","","","","","","","","","","","","",""
"","","","","","html-keyboard-response","21","748510","0.0-2.0-5.0-0.0","5e0f443e8205266652153f5e","B2","batch2","","null","<p class=block-text>Trial 1 out of 78</p>","null","pattern_show_trial_num","","","","","","","","","","","","","","","","","","","","","","","","",""
"","","","","","image-keyboard-response","22","749578","0.0-2.0-5.0-1.0","5e0f443e8205266652153f5e","B2","batch2","","1064.7999999998137","stim/yes_36_ver_w1_w.png","f","pattern_response","true","f","pattern_58","1064.7999999998137","true","1","","","","","","","","","","","","","","","","","","",""
"","","","","","html-keyboard-response","23","750895","0.0-2.0-5.0-0.1","5e0f443e8205266652153f5e","B2","batch2","","null","<p class=block-text>Trial 2 out of 78</p>","null","pattern_show_trial_num","","","","","","","","","","","","","","","","","","","","","","","","",""
"","","","","","image-keyboard-response","24","751536","0.0-2.0-5.0-1.1","5e0f443e8205266652153f5e","B2","batch2","","638.7000000001863","stim/no_43_2_b.png","f","pattern_response","false","j","pattern_23","638.7000000001863","false","1","","","","","","","","","","","","","","","","","","",""
"","","","","","html-keyboard-response","25","752854","0.0-2.0-5.0-0.2","5e0f443e8205266652153f5e","B2","batch2","","null","<p class=block-text>Trial 3 out of 78</p>","null","pattern_show_trial_num","","","","","","","","","","","","","","","","","","","","","","","","",""
"","","","","","image-keyboard-response","26","755009","0.0-2.0-5.0-1.2","5e0f443e8205266652153f5e","B2","batch2","","2153.7000000001863","stim/no_30_1_b.png","j","pattern_response","true","j","pattern_13","2153.7000000001863","true","2","","","","","","","","","","","","","","","","","","",""
"","","","","","html-keyboard-response","27","756335","0.0-2.0-5.0-0.3","5e0f443e8205266652153f5e","B2","batch2","","null","<p class=block-text>Trial 4 out of 78</p>","null","pattern_show_trial_num","","","","","","","","","","","","","","","","","","","","","","","","",""
"","","","","","image-keyboard-response","28","757498","0.0-2.0-5.0-1.3","5e0f443e8205266652153f5e","B2","batch2","","1160.3999999994412","stim/yes_23_ver_b1.png","f","pattern_response","true","f","pattern_48","1160.3999999994412","true","3","","","","","","","","","","","","","","","","","","",""
"","","","","","html-keyboard-response","29","758821","0.0-2.0-5.0-0.4","5e0f443e8205266652153f5e","B2","batch2","","null","<p class=block-text>Trial 5 out of 78</p>","null","pattern_show_trial_num","","","","","","","","","","","","","","","","","","","","","","","","",""
"","","","","","image-keyboard-response","30","759836","0.0-2.0-5.0-1.4","5e0f443e8205266652153f5e","B2","batch2","","1013.8999999994412","stim/no_12_1.png","j","pattern_response","true","j","pattern_01","1013.8999999994412","true","4","","","","","","","","","","","","","","","","","","",""
"","","","","","html-keyboard-response","31","761148","0.0-2.0-5.0-0.5","5e0f443e8205266652153f5e","B2","batch2","","null","<p class=block-text>Trial 6 out of 78</p>","null","pattern_show_trial_num","","","","","","","","","","","","","","","","","","","","","","","","",""
"","","","","","image-keyboard-response","32","766304","0.0-2.0-5.0-1.5","5e0f443e8205266652153f5e","B2","batch2","","5154.699999999255","stim/no_58_1_w.png","j","pattern_response","true","j","pattern_35","5154.699999999255","true","5","","","","","","","","","","","","","","","","","","",""
"","","","","","html-keyboard-response","33","767624","0.0-2.0-5.0-0.6","5e0f443e8205266652153f5e","B2","batch2","","null","<p class=block-text>Trial 7 out of 78</p>","null","pattern_show_trial_num","","","","","","","","","","","","","","","","","","","","","","","","",""
"","","","","","image-keyboard-response","34","768785","0.0-2.0-5.0-1.6","5e0f443e8205266652153f5e","B2","batch2","","1157.7000000001863","stim/yes_53_ver_b1_b.png","f","pattern_response","true","f","pattern_74","1157.7000000001863","true","6","","","","","","","","","","","","","","","","","","",""
"","","","","","html-keyboard-response","35","770113","0.0-2.0-5.0-0.7","5e0f443e8205266652153f5e","B2","batch2","","null","<p class=block-text>Trial 8 out of 78</p>","null","pattern_show_trial_num","","","","","","","","","","","","","","","","","","","","","","","","",""
"","","","","","image-keyboard-response","36","770979","0.0-2.0-5.0-1.7","5e0f443e8205266652153f5e","B2","batch2","","863.2000000001863","stim/yes_15_dia_b1u_b.png","j","pattern_response","false","f","pattern_44","863.2000000001863","false","6","","","","","","","","","","","","","","","","","","",""
"","","","","","html-keyboard-response","37","772282","0.0-2.0-5.0-0.8","5e0f443e8205266652153f5e","B2","batch2","","null","<p class=block-text>Trial 9 out of 78</p>","null","pattern_show_trial_num","","","","","","","","","","","","","","","","","","","","","","","","",""
"","","","","","image-keyboard-response","38","774173","0.0-2.0-5.0-1.8","5e0f443e8205266652153f5e","B2","batch2","","1889.8999999994412","stim/yes_33_dia_w1_w.png","f","pattern_response","true","f","pattern_56","1889.8999999994412","true","7","","","","","","","","","","","","","","","","","","",""
"","","","","","html-keyboard-response","39","775481","0.0-2.0-5.0-0.9","5e0f443e8205266652153f5e","B2","batch2","","null","<p class=block-text>Trial 10 out of 78</p>","null","pattern_show_trial_num","","","","","","","","","","","","","","","","","","","","","","","","",""
"","","","","","image-keyboard-response","40","780650","0.0-2.0-5.0-1.9","5e0f443e8205266652153f5e","B2","batch2","","5168.4000000003725","stim/no_53_1_b.png","j","pattern_response","true","j","pattern_33","5168.4000000003725","true","8","","","","","","","","","","","","","","","","","","",""
"","","","","","html-keyboard-response","41","781980","0.0-2.0-5.0-0.10","5e0f443e8205266652153f5e","B2","batch2","","null","<p class=block-text>Trial 11 out of 78</p>","null","pattern_show_trial_num","","","","","","","","","","","","","","","","","","","","","","","","",""
"","","","","","image-keyboard-response","42","784695","0.0-2.0-5.0-1.10","5e0f443e8205266652153f5e","B2","batch2","","2714","stim/no_33_1_b.png","f","pattern_response","false","j","pattern_15","2714","false","8","","","","","","","","","","","","","","","","","","",""
"","","","","","html-keyboard-response","43","786007","0.0-2.0-5.0-0.11","5e0f443e8205266652153f5e","B2","batch2","","null","<p class=block-text>Trial 12 out of 78</p>","null","pattern_show_trial_num","","","","","","","","","","","","","","","","","","","","","","","","",""
"","","","","","image-keyboard-response","44","787034","0.0-2.0-5.0-1.11","5e0f443e8205266652153f5e","B2","batch2","","1024.5999999996275","stim/yes_46_ver_b1_b.png","f","pattern_response","true","f","pattern_68","1024.5999999996275","true","9","","","","","","","","","","","","","","","","","","",""
"","","","","","html-keyboard-response","45","788344","0.0-2.0-5.0-0.12","5e0f443e8205266652153f5e","B2","batch2","","null","<p class=block-text>Trial 13 out of 78</p>","null","pattern_show_trial_num","","","","","","","","","","","","","","","","","","","","","","","","",""
"","","","","","image-keyboard-response","46","791370","0.0-2.0-5.0-1.12","5e0f443e8205266652153f5e","B2","batch2","","3023.5999999996275","stim/no_37_2_w.png","j","pattern_response","true","j","pattern_19","3023.5999999996275","true","10","","","","","","","","","","","","","","","","","","",""
"","","","","","html-keyboard-response","47","792696","0.0-2.0-5.0-0.13","5e0f443e8205266652153f5e","B2","batch2","","null","<p class=block-text>Trial 14 out of 78</p>","null","pattern_show_trial_num","","","","","","","","","","","","","","","","","","","","","","","","",""
"","","","","","image-keyboard-response","48","793426","0.0-2.0-5.0-1.13","5e0f443e8205266652153f5e","B2","batch2","","727.5999999996275","stim/yes_30_ver_b1_b.png","f","pattern_response","true","f","pattern_54","727.5999999996275","true","11","","","","","","","","","","","","","","","","","","",""
"","","","","","html-keyboard-response","49","794745","0.0-2.0-5.0-0.14","5e0f443e8205266652153f5e","B2","batch2","","null","<p class=block-text>Trial 15 out of 78</p>","null","pattern_show_trial_num","","","","","","","","","","","","","","","","","","","","","","","","",""
"","","","","","image-keyboard-response","50","798643","0.0-2.0-5.0-1.14","5e0f443e8205266652153f5e","B2","batch2","","3896.600000000559","stim/no_51_1.png","j","pattern_response","true","j","pattern_31","3896.600000000559","true","12","","","","","","","","","","","","","","","","","","",""
"","","","","","html-keyboard-response","51","799961","0.0-2.0-5.0-0.15","5e0f443e8205266652153f5e","B2","batch2","","null","<p class=block-text>Trial 16 out of 78</p>","null","pattern_show_trial_num","","","","","","","","","","","","","","","","","","","","","","","","",""
"","","","","","image-keyboard-response","52","800738","0.0-2.0-5.0-1.15","5e0f443e8205266652153f5e","B2","batch2","","774.7999999998137","stim/yes_39_hor_w1_w.png","f","pattern_response","true","f","pattern_62","774.7999999998137","true","13","","","","","","","","","","","","","","","","","","",""
"","","","","","html-keyboard-response","53","802054","0.0-2.0-5.0-0.16","5e0f443e8205266652153f5e","B2","batch2","","null","<p class=block-text>Trial 17 out of 78</p>","null","pattern_show_trial_num","","","","","","","","","","","","","","","","","","","","","","","","",""
"","","","","","image-keyboard-response","54","809116","0.0-2.0-5.0-1.16","5e0f443e8205266652153f5e","B2","batch2","","7060.5","stim/no_67_1.png","j","pattern_response","true","j","pattern_39","7060.5","true","14","","","","","","","","","","","","","","","","","","",""
"","","","","","html-keyboard-response","55","810433","0.0-2.0-5.0-0.17","5e0f443e8205266652153f5e","B2","batch2","","null","<p class=block-text>Trial 18 out of 78</p>","null","pattern_show_trial_num","","","","","","","","","","","","","","","","","","","","","","","","",""
"","","","","","image-keyboard-response","56","814315","0.0-2.0-5.0-1.17","5e0f443e8205266652153f5e","B2","batch2","","3878.399999999441","stim/no_49_2_b.png","j","pattern_response","true","j","pattern_29","3878.399999999441","true","15","","","","","","","","","","","","","","","","","","",""
"","","","","","html-keyboard-response","57","815644","0.0-2.0-5.0-0.18","5e0f443e8205266652153f5e","B2","batch2","","null","<p class=block-text>Trial 19 out of 78</p>","null","pattern_show_trial_num","","","","","","","","","","","","","","","","","","","","","","","","",""
"","","","","","image-keyboard-response","58","816681","0.0-2.0-5.0-1.18","5e0f443e8205266652153f5e","B2","batch2","","1034.7999999998137","stim/yes_26_dia_w2_w.png","f","pattern_response","true","f","pattern_50","1034.7999999998137","true","16","","","","","","","","","","","","","","","","","","",""
"","","","","","html-keyboard-response","59","818003","0.0-2.0-5.0-0.19","5e0f443e8205266652153f5e","B2","batch2","","null","<p class=block-text>Trial 20 out of 78</p>","null","pattern_show_trial_num","","","","","","","","","","","","","","","","","","","","","","","","",""
"","","","","","image-keyboard-response","60","818953","0.0-2.0-5.0-1.19","5e0f443e8205266652153f5e","B2","batch2","","949.2000000001863","stim/yes_51_dia_b1.png","f","pattern_response","true","f","pattern_72","949.2000000001863","true","17","","","","","","","","","","","","","","","","","","",""
"","","","","","html-keyboard-response","61","820283","0.0-2.0-5.0-0.20","5e0f443e8205266652153f5e","B2","batch2","","null","<p class=block-text>Trial 21 out of 78</p>","null","pattern_show_trial_num","","","","","","","","","","","","","","","","","","","","","","","","",""
"","","","","","image-keyboard-response","62","821368","0.0-2.0-5.0-1.20","5e0f443e8205266652153f5e","B2","batch2","","1083.5","stim/yes_44_ver_w1_w.png","f","pattern_response","true","f","pattern_66","1083.5","true","18","","","","","","","","","","","","","","","","","","",""
"","","","","","html-keyboard-response","63","822692","0.0-2.0-5.0-0.21","5e0f443e8205266652153f5e","B2","batch2","","null","<p class=block-text>Trial 22 out of 78</p>","null","pattern_show_trial_num","","","","","","","","","","","","","","","","","","","","","","","","",""
"","","","","","image-keyboard-response","64","823781","0.0-2.0-5.0-1.21","5e0f443e8205266652153f5e","B2","batch2","","1087.5999999996275","stim/no_28_2.png","j","pattern_response","true","j","pattern_11","1087.5999999996275","true","19","","","","","","","","","","","","","","","","","","",""
"","","","","","html-keyboard-response","65","825101","0.0-2.0-5.0-0.22","5e0f443e8205266652153f5e","B2","batch2","","null","<p class=block-text>Trial 23 out of 78</p>","null","pattern_show_trial_num","","","","","","","","","","","","","","","","","","","","","","","","",""
"","","","","","image-keyboard-response","66","825757","0.0-2.0-5.0-1.22","5e0f443e8205266652153f5e","B2","batch2","","654","stim/yes_12_hor_w1_w.png","f","pattern_response","true","f","pattern_42","654","true","20","","","","","","","","","","","","","","","","","","",""
"","","","","","html-keyboard-response","67","827076","0.0-2.0-5.0-0.23","5e0f443e8205266652153f5e","B2","batch2","","null","<p class=block-text>Trial 24 out of 78</p>","null","pattern_show_trial_num","","","","","","","","","","","","","","","","","","","","","","","","",""
"","","","","","image-keyboard-response","68","830273","0.0-2.0-5.0-1.23","5e0f443e8205266652153f5e","B2","batch2","","3195.5","stim/no_39_1_w.png","j","pattern_response","true","j","pattern_21","3195.5","true","21","","","","","","","","","","","","","","","","","","",""
"","","","","","html-keyboard-response","69","831588","0.0-2.0-5.0-0.24","5e0f443e8205266652153f5e","B2","batch2","","null","<p class=block-text>Trial 25 out of 78</p>","null","pattern_show_trial_num","","","","","","","","","","","","","","","","","","","","","","","","",""
"","","","","","image-keyboard-response","70","833588","0.0-2.0-5.0-1.24","5e0f443e8205266652153f5e","B2","batch2","","1998","stim/no_25_1_b.png","j","pattern_response","true","j","pattern_09","1998","true","22","","","","","","","","","","","","","","","","","","",""
"","","","","","html-keyboard-response","71","834900","0.0-2.0-5.0-0.25","5e0f443e8205266652153f5e","B2","batch2","","null","<p class=block-text>Trial 26 out of 78</p>","null","pattern_show_trial_num","","","","","","","","","","","","","","","","","","","","","","","","",""
"","","","","","image-keyboard-response","72","835666","0.0-2.0-5.0-1.25","5e0f443e8205266652153f5e","B2","batch2","","763.9000000003725","stim/yes_29_hor_b1_b.png","j","pattern_response","false","f","pattern_52","763.9000000003725","false","22","","","","","","","","","","","","","","","","","","",""
"","","","","","html-keyboard-response","73","836983","0.0-2.0-5.0-0.26","5e0f443e8205266652153f5e","B2","batch2","","null","<p class=block-text>Trial 27 out of 78</p>","null","pattern_show_trial_num","","","","","","","","","","","","","","","","","","","","","","","","",""
"","","","","","image-keyboard-response","74","841413","0.0-2.0-5.0-1.26","5e0f443e8205266652153f5e","B2","batch2","","4429.299999999814","stim/no_47_1_b.png","j","pattern_response","true","j","pattern_27","4429.299999999814","true","23","","","","","","","","","","","","","","","","","","",""
"","","","","","html-keyboard-response","75","842737","0.0-2.0-5.0-0.27","5e0f443e8205266652153f5e","B2","batch2","","null","<p class=block-text>Trial 28 out of 78</p>","null","pattern_show_trial_num","","","","","","","","","","","","","","","","","","","","","","","","",""
"","","","","","image-keyboard-response","76","848930","0.0-2.0-5.0-1.27","5e0f443e8205266652153f5e","B2","batch2","","6190.300000000745","stim/yes_58_dia_w1_w.png","j","pattern_response","false","f","pattern_76","6190.300000000745","false","23","","","","","","","","","","","","","","","","","","",""
"","","","","","html-keyboard-response","77","850253","0.0-2.0-5.0-0.28","5e0f443e8205266652153f5e","B2","batch2","","null","<p class=block-text>Trial 29 out of 78</p>","null","pattern_show_trial_num","","","","","","","","","","","","","","","","","","","","","","","","",""
"","","","","","image-keyboard-response","78","850994","0.0-2.0-5.0-1.28","5e0f443e8205266652153f5e","B2","batch2","","738.4000000003725","stim/yes_17_ver_b1_b.png","f","pattern_response","true","f","pattern_46","738.4000000003725","true","24","","","","","","","","","","","","","","","","","","",""
"","","","","","html-keyboard-response","79","852312","0.0-2.0-5.0-0.29","5e0f443e8205266652153f5e","B2","batch2","","null","<p class=block-text>Trial 30 out of 78</p>","null","pattern_show_trial_num","","","","","","","","","","","","","","","","","","","","","","","","",""
"","","","","","image-keyboard-response","80","857126","0.0-2.0-5.0-1.29","5e0f443e8205266652153f5e","B2","batch2","","4812.700000000186","stim/yes_42_dia_w1_w.png","j","pattern_response","false","f","pattern_64","4812.700000000186","false","24","","","","","","","","","","","","","","","","","","",""
"","","","","","html-keyboard-response","81","858436","0.0-2.0-5.0-0.30","5e0f443e8205266652153f5e","B2","batch2","","null","<p class=block-text>Trial 31 out of 78</p>","null","pattern_show_trial_num","","","","","","","","","","","","","","","","","","","","","","","","",""
"","","","","","image-keyboard-response","82","859150","0.0-2.0-5.0-1.30","5e0f443e8205266652153f5e","B2","batch2","","711.7999999998137","stim/yes_70_ver_b1.png","f","pattern_response","true","f","pattern_80","711.7999999998137","true","25","","","","","","","","","","","","","","","","","","",""
"","","","","","html-keyboard-response","83","860476","0.0-2.0-5.0-0.31","5e0f443e8205266652153f5e","B2","batch2","","null","<p class=block-text>Trial 32 out of 78</p>","null","pattern_show_trial_num","","","","","","","","","","","","","","","","","","","","","","","","",""
"","","","","","image-keyboard-response","84","861243","0.0-2.0-5.0-1.31","5e0f443e8205266652153f5e","B2","batch2","","766","stim/no_15_1_w.png","j","pattern_response","true","j","pattern_03","766","true","26","","","","","","","","","","","","","","","","","","",""
"","","","","","html-keyboard-response","85","862564","0.0-2.0-5.0-0.32","5e0f443e8205266652153f5e","B2","batch2","","null","<p class=block-text>Trial 33 out of 78</p>","null","pattern_show_trial_num","","","","","","","","","","","","","","","","","","","","","","","","",""
"","","","","","image-keyboard-response","86","866609","0.0-2.0-5.0-1.32","5e0f443e8205266652153f5e","B2","batch2","","4043.199999999255","stim/no_45_1_w.png","j","pattern_response","true","j","pattern_25","4043.199999999255","true","27","","","","","","","","","","","","","","","","","","",""
"","","","","","html-keyboard-response","87","867925","0.0-2.0-5.0-0.33","5e0f443e8205266652153f5e","B2","batch2","","null","<p class=block-text>Trial 34 out of 78</p>","null","pattern_show_trial_num","","","","","","","","","","","","","","","","","","","","","","","","",""
"","","","","","image-keyboard-response","88","870475","0.0-2.0-5.0-1.33","5e0f443e8205266652153f5e","B2","batch2","","2547.5999999996275","stim/no_22_1_b.png","j","pattern_response","true","j","pattern_07","2547.5999999996275","true","28","","","","","","","","","","","","","","","","","","",""
"","","","","","html-keyboard-response","89","871800","0.0-2.0-5.0-0.34","5e0f443e8205266652153f5e","B2","batch2","","null","<p class=block-text>Trial 35 out of 78</p>","null","pattern_show_trial_num","","","","","","","","","","","","","","","","","","","","","","","","",""
"","","","","","image-keyboard-response","90","875119","0.0-2.0-5.0-1.34","5e0f443e8205266652153f5e","B2","batch2","","3316.2000000001863","stim/no_36_1_b.png","j","pattern_response","true","j","pattern_17","3316.2000000001863","true","29","","","","","","","","","","","","","","","","","","",""
"","","","","","html-keyboard-response","91","876436","0.0-2.0-5.0-0.35","5e0f443e8205266652153f5e","B2","batch2","","null","<p class=block-text>Trial 36 out of 78</p>","null","pattern_show_trial_num","","","","","","","","","","","","","","","","","","","","","","","","",""
"","","","","","image-keyboard-response","92","878605","0.0-2.0-5.0-1.35","5e0f443e8205266652153f5e","B2","batch2","","2166.5","stim/yes_63_dia_b1.png","f","pattern_response","true","f","pattern_78","2166.5","true","30","","","","","","","","","","","","","","","","","","",""
"","","","","","html-keyboard-response","93","879917","0.0-2.0-5.0-0.36","5e0f443e8205266652153f5e","B2","batch2","","null","<p class=block-text>Trial 37 out of 78</p>","null","pattern_show_trial_num","","","","","","","","","","","","","","","","","","","","","","","","",""
"","","","","","image-keyboard-response","94","883402","0.0-2.0-5.0-1.36","5e0f443e8205266652153f5e","B2","batch2","","3483.7000000001863","stim/no_18_1_b.png","j","pattern_response","true","j","pattern_05","3483.7000000001863","true","31","","","","","","","","","","","","","","","","","","",""
"","","","","","html-keyboard-response","95","884718","0.0-2.0-5.0-0.37","5e0f443e8205266652153f5e","B2","batch2","","null","<p class=block-text>Trial 38 out of 78</p>","null","pattern_show_trial_num","","","","","","","","","","","","","","","","","","","","","","","","",""
"","","","","","image-keyboard-response","96","885394","0.0-2.0-5.0-1.37","5e0f443e8205266652153f5e","B2","batch2","","674.0999999996275","stim/yes_37_hor_w1_w.png","f","pattern_response","true","f","pattern_60","674.0999999996275","true","32","","","","","","","","","","","","","","","","","","",""
"","","","","","html-keyboard-response","97","886705","0.0-2.0-5.0-0.38","5e0f443e8205266652153f5e","B2","batch2","","null","<p class=block-text>Trial 39 out of 78</p>","null","pattern_show_trial_num","","","","","","","","","","","","","","","","","","","","","","","","",""
"","","","","","image-keyboard-response","98","887623","0.0-2.0-5.0-1.38","5e0f443e8205266652153f5e","B2","batch2","","916.8999999994412","stim/yes_49_hor_w1_b.png","f","pattern_response","true","f","pattern_70","916.8999999994412","true","33","","","","","","","","","","","","","","","","","","",""
"","","","","","image-keyboard-response","99","889416","0.0-2.0-6.0","5e0f443e8205266652153f5e","B2","batch2","","1276.7000000001863","stim/empty_board.png","j","attention_check","true","j","","","","","500","[""f"",""j""]","","","","","","","","","","","","","","","","",""
"","","","","","html-keyboard-response","100","890218","0.0-2.0-7.0-0.0","5e0f443e8205266652153f5e","B2","batch2","","null","<p class=block-text>Trial 40 out of 78</p>","null","pattern_show_trial_num","","","","","","","","","","","","","","","","","","","","","","","","",""
"","","","","","image-keyboard-response","101","895498","0.0-2.0-7.0-1.0","5e0f443e8205266652153f5e","B2","batch2","","5277.899999999441","stim/no_32_1_w.png","j","pattern_response","true","j","pattern_14","5277.899999999441","true","34","","","","","","","","","","","","","","","","","","",""
"","","","","","html-keyboard-response","102","896819","0.0-2.0-7.0-0.1","5e0f443e8205266652153f5e","B2","batch2","","null","<p class=block-text>Trial 41 out of 78</p>","null","pattern_show_trial_num","","","","","","","","","","","","","","","","","","","","","","","","",""
"","","","","","image-keyboard-response","103","900707","0.0-2.0-7.0-1.1","5e0f443e8205266652153f5e","B2","batch2","","3885.4000000003725","stim/no_48_1_w.png","j","pattern_response","true","j","pattern_28","3885.4000000003725","true","35","","","","","","","","","","","","","","","","","","",""
"","","","","","html-keyboard-response","104","902034","0.0-2.0-7.0-0.2","5e0f443e8205266652153f5e","B2","batch2","","null","<p class=block-text>Trial 42 out of 78</p>","null","pattern_show_trial_num","","","","","","","","","","","","","","","","","","","","","","","","",""
"","","","","","image-keyboard-response","105","905649","0.0-2.0-7.0-1.2","5e0f443e8205266652153f5e","B2","batch2","","3613","stim/no_50_1.png","j","pattern_response","true","j","pattern_30","3613","true","36","","","","","","","","","","","","","","","","","","",""
"","","","","","html-keyboard-response","106","906975","0.0-2.0-7.0-0.3","5e0f443e8205266652153f5e","B2","batch2","","null","<p class=block-text>Trial 43 out of 78</p>","null","pattern_show_trial_num","","","","","","","","","","","","","","","","","","","","","","","","",""
"","","","","","image-keyboard-response","107","913808","0.0-2.0-7.0-1.3","5e0f443e8205266652153f5e","B2","batch2","","6831.299999999814","stim/yes_52_ver_w1.png","f","pattern_response","true","f","pattern_73","6831.299999999814","true","37","","","","","","","","","","","","","","","","","","",""
"","","","","","html-keyboard-response","108","915129","0.0-2.0-7.0-0.4","5e0f443e8205266652153f5e","B2","batch2","","null","<p class=block-text>Trial 44 out of 78</p>","null","pattern_show_trial_num","","","","","","","","","","","","","","","","","","","","","","","","",""
"","","","","","image-keyboard-response","109","921218","0.0-2.0-7.0-1.4","5e0f443e8205266652153f5e","B2","batch2","","6086.5","stim/no_38_1_b.png","j","pattern_response","true","j","pattern_20","6086.5","true","38","","","","","","","","","","","","","","","","","","",""
"","","","","","html-keyboard-response","110","922543","0.0-2.0-7.0-0.5","5e0f443e8205266652153f5e","B2","batch2","","null","<p class=block-text>Trial 45 out of 78</p>","null","pattern_show_trial_num","","","","","","","","","","","","","","","","","","","","","","","","",""
"","","","","","image-keyboard-response","111","930657","0.0-2.0-7.0-1.5","5e0f443e8205266652153f5e","B2","batch2","","8110.899999999441","stim/no_55_1_w.png","j","pattern_response","true","j","pattern_34","8110.899999999441","true","39","","","","","","","","","","","","","","","","","","",""
"","","","","","html-keyboard-response","112","931974","0.0-2.0-7.0-0.6","5e0f443e8205266652153f5e","B2","batch2","","null","<p class=block-text>Trial 46 out of 78</p>","null","pattern_show_trial_num","","","","","","","","","","","","","","","","","","","","","","","","",""
"","","","","","image-keyboard-response","113","932831","0.0-2.0-7.0-1.6","5e0f443e8205266652153f5e","B2","batch2","","854.2000000001863","stim/no_13_2_b.png","j","pattern_response","true","j","pattern_02","854.2000000001863","true","40","","","","","","","","","","","","","","","","","","",""
"","","","","","html-keyboard-response","114","934143","0.0-2.0-7.0-0.7","5e0f443e8205266652153f5e","B2","batch2","","null","<p class=block-text>Trial 47 out of 78</p>","null","pattern_show_trial_num","","","","","","","","","","","","","","","","","","","","","","","","",""
"","","","","","image-keyboard-response","115","935069","0.0-2.0-7.0-1.7","5e0f443e8205266652153f5e","B2","batch2","","924.5999999996275","stim/no_17_1_w.png","j","pattern_response","true","j","pattern_04","924.5999999996275","true","41","","","","","","","","","","","","","","","","","","",""
"","","","","","html-keyboard-response","116","936389","0.0-2.0-7.0-0.8","5e0f443e8205266652153f5e","B2","batch2","","null","<p class=block-text>Trial 48 out of 78</p>","null","pattern_show_trial_num","","","","","","","","","","","","","","","","","","","","","","","","",""
"","","","","","image-keyboard-response","117","937416","0.0-2.0-7.0-1.8","5e0f443e8205266652153f5e","B2","batch2","","1026.2999999998137","stim/no_23_1.png","j","pattern_response","true","j","pattern_08","1026.2999999998137","true","42","","","","","","","","","","","","","","","","","","",""
"","","","","","html-keyboard-response","118","938733","0.0-2.0-7.0-0.9","5e0f443e8205266652153f5e","B2","batch2","","null","<p class=block-text>Trial 49 out of 78</p>","null","pattern_show_trial_num","","","","","","","","","","","","","","","","","","","","","","","","",""
"","","","","","image-keyboard-response","119","939496","0.0-2.0-7.0-1.9","5e0f443e8205266652153f5e","B2","batch2","","761.1000000005588","stim/yes_28_ver_b1.png","f","pattern_response","true","f","pattern_51","761.1000000005588","true","43","","","","","","","","","","","","","","","","","","",""
"","","","","","html-keyboard-response","120","940821","0.0-2.0-7.0-0.10","5e0f443e8205266652153f5e","B2","batch2","","null","<p class=block-text>Trial 50 out of 78</p>","null","pattern_show_trial_num","","","","","","","","","","","","","","","","","","","","","","","","",""
"","","","","","image-keyboard-response","121","950794","0.0-2.0-7.0-1.10","5e0f443e8205266652153f5e","B2","batch2","","9971.299999999814","stim/no_70_2.png","j","pattern_response","true","j","pattern_40","9971.299999999814","true","44","","","","","","","","","","","","","","","","","","",""
"","","","","","html-keyboard-response","122","952119","0.0-2.0-7.0-0.11","5e0f443e8205266652153f5e","B2","batch2","","null","<p class=block-text>Trial 51 out of 78</p>","null","pattern_show_trial_num","","","","","","","","","","","","","","","","","","","","","","","","",""
"","","","","","image-keyboard-response","123","953619","0.0-2.0-7.0-1.11","5e0f443e8205266652153f5e","B2","batch2","","1497.6000000005588","stim/yes_45_hor_b2_b.png","f","pattern_response","true","f","pattern_67","1497.6000000005588","true","45","","","","","","","","","","","","","","","","","","",""
"","","","","","html-keyboard-response","124","954935","0.0-2.0-7.0-0.12","5e0f443e8205266652153f5e","B2","batch2","","null","<p class=block-text>Trial 52 out of 78</p>","null","pattern_show_trial_num","","","","","","","","","","","","","","","","","","","","","","","","",""
"","","","","","image-keyboard-response","125","955595","0.0-2.0-7.0-1.12","5e0f443e8205266652153f5e","B2","batch2","","658.7000000001863","stim/yes_67_hor_b1.png","f","pattern_response","true","f","pattern_79","658.7000000001863","true","46","","","","","","","","","","","","","","","","","","",""
"","","","","","html-keyboard-response","126","956930","0.0-2.0-7.0-0.13","5e0f443e8205266652153f5e","B2","batch2","","null","<p class=block-text>Trial 53 out of 78</p>","null","pattern_show_trial_num","","","","","","","","","","","","","","","","","","","","","","","","",""
"","","","","","image-keyboard-response","127","960637","0.0-2.0-7.0-1.13","5e0f443e8205266652153f5e","B2","batch2","","3705.899999999441","stim/no_36_2_w.png","j","pattern_response","true","j","pattern_18","3705.899999999441","true","47","","","","","","","","","","","","","","","","","","",""
"","","","","","html-keyboard-response","128","961966","0.0-2.0-7.0-0.14","5e0f443e8205266652153f5e","B2","batch2","","null","<p class=block-text>Trial 54 out of 78</p>","null","pattern_show_trial_num","","","","","","","","","","","","","","","","","","","","","","","","",""
"","","","","","image-keyboard-response","129","962759","0.0-2.0-7.0-1.14","5e0f443e8205266652153f5e","B2","batch2","","790.5","stim/yes_38_hor_b1_b.png","f","pattern_response","true","f","pattern_61","790.5","true","48","","","","","","","","","","","","","","","","","","",""
"","","","","","html-keyboard-response","130","964076","0.0-2.0-7.0-0.15","5e0f443e8205266652153f5e","B2","batch2","","null","<p class=block-text>Trial 55 out of 78</p>","null","pattern_show_trial_num","","","","","","","","","","","","","","","","","","","","","","","","",""
"","","","","","image-keyboard-response","131","966632","0.0-2.0-7.0-1.15","5e0f443e8205266652153f5e","B2","batch2","","2554.4000000003725","stim/yes_60_ver_b1_b.png","f","pattern_response","true","f","pattern_77","2554.4000000003725","true","49","","","","","","","","","","","","","","","","","","",""
"","","","","","html-keyboard-response","132","967954","0.0-2.0-7.0-0.16","5e0f443e8205266652153f5e","B2","batch2","","null","<p class=block-text>Trial 56 out of 78</p>","null","pattern_show_trial_num","","","","","","","","","","","","","","","","","","","","","","","","",""
"","","","","","image-keyboard-response","133","968887","0.0-2.0-7.0-1.16","5e0f443e8205266652153f5e","B2","batch2","","931.4000000003725","stim/yes_35_dia_b1.png","f","pattern_response","true","f","pattern_57","931.4000000003725","true","50","","","","","","","","","","","","","","","","","","",""
"","","","","","html-keyboard-response","134","970203","0.0-2.0-7.0-0.17","5e0f443e8205266652153f5e","B2","batch2","","null","<p class=block-text>Trial 57 out of 78</p>","null","pattern_show_trial_num","","","","","","","","","","","","","","","","","","","","","","","","",""
"","","","","","image-keyboard-response","135","970916","0.0-2.0-7.0-1.17","5e0f443e8205266652153f5e","B2","batch2","","712.0999999996275","stim/yes_14_hor_b1_w.png","f","pattern_response","true","f","pattern_43","712.0999999996275","true","51","","","","","","","","","","","","","","","","","","",""
"","","","","","html-keyboard-response","136","972245","0.0-2.0-7.0-0.18","5e0f443e8205266652153f5e","B2","batch2","","null","<p class=block-text>Trial 58 out of 78</p>","null","pattern_show_trial_num","","","","","","","","","","","","","","","","","","","","","","","","",""
"","","","","","image-keyboard-response","137","975391","0.0-2.0-7.0-1.18","5e0f443e8205266652153f5e","B2","batch2","","3144.5","stim/yes_40_dia_b1_b.png","f","pattern_response","true","f","pattern_63","3144.5","true","52","","","","","","","","","","","","","","","","","","",""
"","","","","","html-keyboard-response","138","976711","0.0-2.0-7.0-0.19","5e0f443e8205266652153f5e","B2","batch2","","null","<p class=block-text>Trial 59 out of 78</p>","null","pattern_show_trial_num","","","","","","","","","","","","","","","","","","","","","","","","",""
"","","","","","image-keyboard-response","139","979361","0.0-2.0-7.0-1.19","5e0f443e8205266652153f5e","B2","batch2","","2647.7000000001863","stim/yes_43_ver_w1_w.png","f","pattern_response","true","f","pattern_65","2647.7000000001863","true","53","","","","","","","","","","","","","","","","","","",""
"","","","","","html-keyboard-response","140","980679","0.0-2.0-7.0-0.20","5e0f443e8205266652153f5e","B2","batch2","","null","<p class=block-text>Trial 60 out of 78</p>","null","pattern_show_trial_num","","","","","","","","","","","","","","","","","","","","","","","","",""
"","","","","","image-keyboard-response","141","984781","0.0-2.0-7.0-1.20","5e0f443e8205266652153f5e","B2","batch2","","4099.899999999441","stim/no_34_1_b.png","j","pattern_response","true","j","pattern_16","4099.899999999441","true","54","","","","","","","","","","","","","","","","","","",""
"","","","","","html-keyboard-response","142","986091","0.0-2.0-7.0-0.21","5e0f443e8205266652153f5e","B2","batch2","","null","<p class=block-text>Trial 61 out of 78</p>","null","pattern_show_trial_num","","","","","","","","","","","","","","","","","","","","","","","","",""
"","","","","","image-keyboard-response","143","989979","0.0-2.0-7.0-1.21","5e0f443e8205266652153f5e","B2","batch2","","3885.9000000003725","stim/yes_50_dia_w1.png","f","pattern_response","true","f","pattern_71","3885.9000000003725","true","55","","","","","","","","","","","","","","","","","","",""
"","","","","","html-keyboard-response","144","991294","0.0-2.0-7.0-0.22","5e0f443e8205266652153f5e","B2","batch2","","null","<p class=block-text>Trial 62 out of 78</p>","null","pattern_show_trial_num","","","","","","","","","","","","","","","","","","","","","","","","",""
"","","","","","image-keyboard-response","145","994924","0.0-2.0-7.0-1.22","5e0f443e8205266652153f5e","B2","batch2","","3627.7000000001863","stim/yes_37_dia_w1.png","f","pattern_response","true","f","pattern_59","3627.7000000001863","true","56","","","","","","","","","","","","","","","","","","",""
"","","","","","html-keyboard-response","146","996237","0.0-2.0-7.0-0.23","5e0f443e8205266652153f5e","B2","batch2","","null","<p class=block-text>Trial 63 out of 78</p>","null","pattern_show_trial_num","","","","","","","","","","","","","","","","","","","","","","","","",""
"","","","","","image-keyboard-response","147","998340","0.0-2.0-7.0-1.23","5e0f443e8205266652153f5e","B2","batch2","","2100.7999999998137","stim/yes_48_dia_w1_w.png","f","pattern_response","true","f","pattern_69","2100.7999999998137","true","57","","","","","","","","","","","","","","","","","","",""
"","","","","","html-keyboard-response","148","999656","0.0-2.0-7.0-0.24","5e0f443e8205266652153f5e","B2","batch2","","null","<p class=block-text>Trial 64 out of 78</p>","null","pattern_show_trial_num","","","","","","","","","","","","","","","","","","","","","","","","",""
"","","","","","image-keyboard-response","149","1000502","0.0-2.0-7.0-1.24","5e0f443e8205266652153f5e","B2","batch2","","844","stim/yes_22_ver_w1.png","f","pattern_response","true","f","pattern_47","844","true","58","","","","","","","","","","","","","","","","","","",""
"","","","","","html-keyboard-response","150","1001820","0.0-2.0-7.0-0.25","5e0f443e8205266652153f5e","B2","batch2","","null","<p class=block-text>Trial 65 out of 78</p>","null","pattern_show_trial_num","","","","","","","","","","","","","","","","","","","","","","","","",""
"","","","","","image-keyboard-response","151","1004491","0.0-2.0-7.0-1.25","5e0f443e8205266652153f5e","B2","batch2","","2669.5","stim/no_46_1_b.png","j","pattern_response","true","j","pattern_26","2669.5","true","59","","","","","","","","","","","","","","","","","","",""
"","","","","","html-keyboard-response","152","1005803","0.0-2.0-7.0-0.26","5e0f443e8205266652153f5e","B2","batch2","","null","<p class=block-text>Trial 66 out of 78</p>","null","pattern_show_trial_num","","","","","","","","","","","","","","","","","","","","","","","","",""
"","","","","","image-keyboard-response","153","1006602","0.0-2.0-7.0-1.26","5e0f443e8205266652153f5e","B2","batch2","","797","stim/yes_55_hor_w1_w.png","f","pattern_response","true","f","pattern_75","797","true","60","","","","","","","","","","","","","","","","","","",""
"","","","","","html-keyboard-response","154","1007930","0.0-2.0-7.0-0.27","5e0f443e8205266652153f5e","B2","batch2","","null","<p class=block-text>Trial 67 out of 78</p>","null","pattern_show_trial_num","","","","","","","","","","","","","","","","","","","","","","","","",""
"","","","","","image-keyboard-response","155","1010495","0.0-2.0-7.0-1.27","5e0f443e8205266652153f5e","B2","batch2","","2564.2000000001863","stim/no_44_1.png","j","pattern_response","true","j","pattern_24","2564.2000000001863","true","61","","","","","","","","","","","","","","","","","","",""
"","","","","","html-keyboard-response","156","1011820","0.0-2.0-7.0-0.28","5e0f443e8205266652153f5e","B2","batch2","","null","<p class=block-text>Trial 68 out of 78</p>","null","pattern_show_trial_num","","","","","","","","","","","","","","","","","","","","","","","","",""
"","","","","","image-keyboard-response","157","1013274","0.0-2.0-7.0-1.28","5e0f443e8205266652153f5e","B2","batch2","","1451.7999999998137","stim/no_29_1_b.png","f","pattern_response","false","j","pattern_12","1451.7999999998137","false","61","","","","","","","","","","","","","","","","","","",""
"","","","","","html-keyboard-response","158","1014580","0.0-2.0-7.0-0.29","5e0f443e8205266652153f5e","B2","batch2","","null","<p class=block-text>Trial 69 out of 78</p>","null","pattern_show_trial_num","","","","","","","","","","","","","","","","","","","","","","","","",""
"","","","","","image-keyboard-response","159","1015439","0.0-2.0-7.0-1.29","5e0f443e8205266652153f5e","B2","batch2","","857.2000000001863","stim/yes_29_ver_w1.png","f","pattern_response","true","f","pattern_53","857.2000000001863","true","62","","","","","","","","","","","","","","","","","","",""
"","","","","","html-keyboard-response","160","1016757","0.0-2.0-7.0-0.30","5e0f443e8205266652153f5e","B2","batch2","","null","<p class=block-text>Trial 70 out of 78</p>","null","pattern_show_trial_num","","","","","","","","","","","","","","","","","","","","","","","","",""
"","","","","","image-keyboard-response","161","1017320","0.0-2.0-7.0-1.30","5e0f443e8205266652153f5e","B2","batch2","","560.8999999994412","stim/yes_25_hor_b1_b.png","f","pattern_response","true","f","pattern_49","560.8999999994412","true","63","","","","","","","","","","","","","","","","","","",""
"","","","","","html-keyboard-response","162","1018639","0.0-2.0-7.0-0.31","5e0f443e8205266652153f5e","B2","batch2","","null","<p class=block-text>Trial 71 out of 78</p>","null","pattern_show_trial_num","","","","","","","","","","","","","","","","","","","","","","","","",""
"","","","","","image-keyboard-response","163","1021946","0.0-2.0-7.0-1.31","5e0f443e8205266652153f5e","B2","batch2","","3305.7999999998137","stim/no_52_1.png","j","pattern_response","true","j","pattern_32","3305.7999999998137","true","64","","","","","","","","","","","","","","","","","","",""
"","","","","","html-keyboard-response","164","1023260","0.0-2.0-7.0-0.32","5e0f443e8205266652153f5e","B2","batch2","","null","<p class=block-text>Trial 72 out of 78</p>","null","pattern_show_trial_num","","","","","","","","","","","","","","","","","","","","","","","","",""
"","","","","","image-keyboard-response","165","1026005","0.0-2.0-7.0-1.32","5e0f443e8205266652153f5e","B2","batch2","","2743.600000000559","stim/yes_31_hor_b1.png","f","pattern_response","true","f","pattern_55","2743.600000000559","true","65","","","","","","","","","","","","","","","","","","",""
"","","","","","html-keyboard-response","166","1027331","0.0-2.0-7.0-0.33","5e0f443e8205266652153f5e","B2","batch2","","null","<p class=block-text>Trial 73 out of 78</p>","null","pattern_show_trial_num","","","","","","","","","","","","","","","","","","","","","","","","",""
"","","","","","image-keyboard-response","167","1032156","0.0-2.0-7.0-1.33","5e0f443e8205266652153f5e","B2","batch2","","4822.600000000559","stim/no_20_1_w.png","j","pattern_response","true","j","pattern_06","4822.600000000559","true","66","","","","","","","","","","","","","","","","","","",""
"","","","","","html-keyboard-response","168","1033478","0.0-2.0-7.0-0.34","5e0f443e8205266652153f5e","B2","batch2","","null","<p class=block-text>Trial 74 out of 78</p>","null","pattern_show_trial_num","","","","","","","","","","","","","","","","","","","","","","","","",""
"","","","","","image-keyboard-response","169","1034257","0.0-2.0-7.0-1.34","5e0f443e8205266652153f5e","B2","batch2","","776.5999999996275","stim/no_62_1_w.png","f","pattern_response","false","j","pattern_36","776.5999999996275","false","66","","","","","","","","","","","","","","","","","","",""
"","","","","","html-keyboard-response","170","1035585","0.0-2.0-7.0-0.35","5e0f443e8205266652153f5e","B2","batch2","","null","<p class=block-text>Trial 75 out of 78</p>","null","pattern_show_trial_num","","","","","","","","","","","","","","","","","","","","","","","","",""
"","","","","","image-keyboard-response","171","1036626","0.0-2.0-7.0-1.35","5e0f443e8205266652153f5e","B2","batch2","","1039.1000000005588","stim/yes_17_dia_w1.png","f","pattern_response","true","f","pattern_45","1039.1000000005588","true","67","","","","","","","","","","","","","","","","","","",""
"","","","","","html-keyboard-response","172","1037953","0.0-2.0-7.0-0.36","5e0f443e8205266652153f5e","B2","batch2","","null","<p class=block-text>Trial 76 out of 78</p>","null","pattern_show_trial_num","","","","","","","","","","","","","","","","","","","","","","","","",""
"","","","","","image-keyboard-response","173","1041008","0.0-2.0-7.0-1.36","5e0f443e8205266652153f5e","B2","batch2","","3053.4000000003725","stim/no_42_1_w.png","j","pattern_response","true","j","pattern_22","3053.4000000003725","true","68","","","","","","","","","","","","","","","","","","",""
"","","","","","html-keyboard-response","174","1042333","0.0-2.0-7.0-0.37","5e0f443e8205266652153f5e","B2","batch2","","null","<p class=block-text>Trial 77 out of 78</p>","null","pattern_show_trial_num","","","","","","","","","","","","","","","","","","","","","","","","",""
"","","","","","image-keyboard-response","175","1066355","0.0-2.0-7.0-1.37","5e0f443e8205266652153f5e","B2","batch2","","24020.5","stim/no_65_1_b.png","j","pattern_response","true","j","pattern_38","24020.5","true","69","","","","","","","","","","","","","","","","","","",""
"","","","","","html-keyboard-response","176","1067674","0.0-2.0-7.0-0.38","5e0f443e8205266652153f5e","B2","batch2","","null","<p class=block-text>Trial 78 out of 78</p>","null","pattern_show_trial_num","","","","","","","","","","","","","","","","","","","","","","","","",""
"","","","","","image-keyboard-response","177","1070648","0.0-2.0-7.0-1.38","5e0f443e8205266652153f5e","B2","batch2","","2970.9000000003725","stim/no_26_1_w.png","j","pattern_response","true","j","pattern_10","2970.9000000003725","true","70","","","","","","","","","","","","","","","","","","",""
"","","","","","html-button-response","178","1075816","0.0-2.0-8.0","5e0f443e8205266652153f5e","B2","batch2","","4660.799999999814","<p class = block-text>This concludes the 4-in-a-row detection game.Thank you for your responses!<br>
            You responded correctly on 90% of the trials.<br>
            When you are ready, press ""Continue"" button to continue </p>","0","","","","","","","","","","","","","","","","","","","","","","","","","",""
"true","","","","","fullscreen","179","1079617","0.0-3.0-0.0","5e0f443e8205266652153f5e","B2","batch2","","","","","","","","","","","","","","","","","","","","","","","","","","","","","",""
"","","","","","instructions","180","1490956","0.0-3.0-1.0-0.0-0.0","5e0f443e8205266652153f5e","B2","batch2","[{""page_index"":0,""viewing_time"":373650},{""page_index"":1,""viewing_time"":4373.800000000745},{""page_index"":2,""viewing_time"":1992.199999999255},{""page_index"":3,""viewing_time"":8267.900000000373},{""page_index"":4,""viewing_time"":8343.5},{""page_index"":5,""viewing_time"":11409.400000000373},{""page_index"":6,""viewing_time"":3309}]","411346.2000000002","","","tol-instructions","","","","","","","","","","","","","","","","","","","","","","","","",""
"","","","","","html-button-response","181","1493058","0.0-3.0-1.0-1.0-0.0","5e0f443e8205266652153f5e","B2","batch2","","2099.7999999998137","<p class=block-text> Let's answer a few questions <br>","0","tol_enter_quiz","","","","","","","","","","","","","","","","","","","","","","","","",""
"","","","","","html-button-response","182","1496363","0.0-3.0-1.0-1.0-1.0","5e0f443e8205266652153f5e","B2","batch2","","3303","<p class = block-text>True or False: You can only move the ball on top of a peg. <br></p>","0","tol_quiz","true","","","","","","","","","","","","","","","","","","","","","","","",""
"","","","","","html-button-response","183","1497985","0.0-3.0-1.0-1.0-2.0","5e0f443e8205266652153f5e","B2","batch2","","1619.3999999994412","<p class = block-text>Correct! You can only move the ball on top of a peg.</p>","0","tol_quiz_feedback","","","","","","","","","","","","","","","","","","","","","","","","",""
"","","","","","html-button-response","184","1500155","0.0-3.0-1.0-1.0-3.0","5e0f443e8205266652153f5e","B2","batch2","","2169","<p class = block-text>True or False: You should try to match your board with the target board with fewest moves possible. <br></p>","0","tol_quiz","true","","","","","","","","","","","","","","","","","","","","","","","",""
"","","","","","html-button-response","185","1500995","0.0-3.0-1.0-1.0-4.0","5e0f443e8205266652153f5e","B2","batch2","","838.0999999996275","<p class = block-text>Correct! </p>","0","tol_quiz_feedback","","","","","","","","","","","","","","","","","","","","","","","","",""
"","","","","","html-button-response","186","1502233","0.0-3.0-2.0","5e0f443e8205266652153f5e","B2","batch2","","1236","<p class=block-text> Now that you've understood the game, let's practice a few easier examples before we start!<br> <br>","0","","","","","","","","","","","","","","","","","","","","","","","","","",""
"","","","","","single-stim-button","187","1503915","0.0-3.0-3.0-0.0","5e0f443e8205266652153f5e","B2","batch2","","1678","","","tol_practice","","","","","","","","","tol_peg_2","1678","1678","0","[[1,2,0],[0,0],[0]]","1","[[1,2,0],[0,0],[3]]","practice","1678","","","","","","","",""
"","","","","","single-stim-button","188","1505105","0.0-3.0-3.0-1.0","5e0f443e8205266652153f5e","B2","batch2","","1188","","","tol_practice","","","","","","","","","tol_peg_3","1188","1188","0","[[1,2,0],[0,0],[3]]","1","[[1,2,0],[0,0],[3]]","practice","1188","","","","","","","",""
"","","","","","poldrack-single-stim","189","1506116","0.0-3.0-4.0","5e0f443e8205266652153f5e","B2","batch2","","-1","","","tol_feedback","true","","","","","","","","","1000","1000","500","","","","","","-1","none","true","","0","","",""
"","","","","","single-stim-button","190","1508810","0.0-3.0-5.0-0.0","5e0f443e8205266652153f5e","B2","batch2","","2692","","","tol_practice","","","","","","","","","tol_peg_1","2692","2692","0","[[1,0,0],[3,0],[0]]","2","[[0,0,0],[3,1],[2]]","practice","2692","","","","","","","",""
"","","","","","single-stim-button","191","1509140","0.0-3.0-5.0-1.0","5e0f443e8205266652153f5e","B2","batch2","","328","","","tol_practice","","","","","","","","","tol_peg_1","328","328","0","[[1,2,0],[3,0],[0]]","2","[[0,0,0],[3,1],[2]]","practice","328","","","","","","","",""
"","","","","","single-stim-button","192","1510122","0.0-3.0-5.1-0.1","5e0f443e8205266652153f5e","B2","batch2","","981","","","tol_practice","","","","","","","","","tol_peg_1","981","981","0","[[1,0,0],[3,0],[0]]","3","[[0,0,0],[3,1],[2]]","practice","981","","","","","","","",""
"","","","","","single-stim-button","193","1511276","0.0-3.0-5.1-1.1","5e0f443e8205266652153f5e","B2","batch2","","1152","","","tol_practice","","","","","","","","","tol_peg_3","1152","1152","0","[[1,0,0],[3,0],[2]]","3","[[0,0,0],[3,1],[2]]","practice","1152","","","","","","","",""
"","","","","","single-stim-button","194","1512529","0.0-3.0-5.2-0.2","5e0f443e8205266652153f5e","B2","batch2","","1251","","","tol_practice","","","","","","","","","tol_peg_1","1251","1251","0","[[0,0,0],[3,0],[2]]","4","[[0,0,0],[3,1],[2]]","practice","1251","","","","","","","",""
"","","","","","single-stim-button","195","1513398","0.0-3.0-5.2-1.2","5e0f443e8205266652153f5e","B2","batch2","","867","","","tol_practice","","","","","","","","","tol_peg_2","867","867","0","[[0,0,0],[3,1],[2]]","4","[[0,0,0],[3,1],[2]]","practice","867","","","","","","","",""
"","","","","","poldrack-single-stim","196","1514410","0.0-3.0-6.0","5e0f443e8205266652153f5e","B2","batch2","","-1","","","tol_feedback","true","","","","","","","","","1000","1000","500","","","","","","-1","none","true","","0","","",""
"","","","","","single-stim-button","197","1516619","0.0-3.0-7.0-0.0","5e0f443e8205266652153f5e","B2","batch2","","2207","","","tol_practice","","","","","","","","","tol_peg_2","2207","2207","0","[[1,2,0],[0,0],[0]]","5","[[1,0,0],[2,0],[3]]","practice","2207","","","","","","","",""
"","","","","","single-stim-button","198","1517662","0.0-3.0-7.0-1.0","5e0f443e8205266652153f5e","B2","batch2","","1043","","","tol_practice","","","","","","","","","tol_peg_3","1043","1043","0","[[1,2,0],[0,0],[3]]","5","[[1,0,0],[2,0],[3]]","practice","1043","","","","","","","",""
"","","","","","single-stim-button","199","1518753","0.0-3.0-7.1-0.1","5e0f443e8205266652153f5e","B2","batch2","","1089","","","tol_practice","","","","","","","","","tol_peg_1","1089","1089","0","[[1,0,0],[0,0],[3]]","6","[[1,0,0],[2,0],[3]]","practice","1089","","","","","","","",""
"","","","","","single-stim-button","200","1519799","0.0-3.0-7.1-1.1","5e0f443e8205266652153f5e","B2","batch2","","1046","","","tol_practice","","","","","","","","","tol_peg_2","1046","1046","0","[[1,0,0],[2,0],[3]]","6","[[1,0,0],[2,0],[3]]","practice","1046","","","","","","","",""
"","","","","","poldrack-single-stim","201","1520804","0.0-3.0-8.0","5e0f443e8205266652153f5e","B2","batch2","","-1","","","tol_feedback","true","","","","","","","","","1000","1000","500","","","","","","-1","none","true","","0","","",""
"","","","","","html-button-response","202","1522599","0.0-3.0-9.0","5e0f443e8205266652153f5e","B2","batch2","","1793","<div class = centerbox><p class = center-block-text>Great job! You are done with practice trials<br>You are about to start official trials.<br> <br> Problem <strong>1</strong> out of 25 problems</p></div>","0","tol_instruction","","","","","","","","","","","","","","","","","","","","","","","","",""
"","","","","","single-stim-button","203","1526574","0.0-3.0-10.0-0.0","5e0f443e8205266652153f5e","B2","batch2","","2959","","","tol_tohand","","","","","","","","","tol_peg_1","2959","2959","0","[[1,0,0],[3,0],[0]]","1","[[1,3,0],[2,0],[0]]","0","0","","","","","","3","",""
"","","","","","single-stim-button","204","1529467","0.0-3.0-10.0-1.0","5e0f443e8205266652153f5e","B2","batch2","","2891","","","tol_toboard","","","","","","","","","tol_peg_3","2891","2891","0","[[1,0,0],[3,0],[2]]","1","[[1,3,0],[2,0],[0]]","0","0","","","","","","3","",""
"","","","","","single-stim-button","205","1530221","0.0-3.0-10.1-0.1","5e0f443e8205266652153f5e","B2","batch2","","751","","","tol_tohand","","","","","","","","","tol_peg_2","751","751","0","[[1,0,0],[0,0],[2]]","2","[[1,3,0],[2,0],[0]]","0","0","","","","","","3","",""
"","","","","","single-stim-button","206","1531275","0.0-3.0-10.1-1.1","5e0f443e8205266652153f5e","B2","batch2","","1052","","","tol_toboard","","","","","","","","","tol_peg_1","1052","1052","0","[[1,3,0],[0,0],[2]]","2","[[1,3,0],[2,0],[0]]","0","0","","","","","","3","",""
"","","","","","single-stim-button","207","1532234","0.0-3.0-10.2-0.2","5e0f443e8205266652153f5e","B2","batch2","","959","","","tol_tohand","","","","","","","","","tol_peg_3","959","959","0","[[1,3,0],[0,0],[0]]","3","[[1,3,0],[2,0],[0]]","0","0","","","","","","3","",""
"","","","","","single-stim-button","208","1533194","0.0-3.0-10.2-1.2","5e0f443e8205266652153f5e","B2","batch2","","959","","","tol_toboard","","","","","","","","","tol_peg_2","959","959","0","[[1,3,0],[2,0],[0]]","3","[[1,3,0],[2,0],[0]]","0","0","","","","","","3","",""
"","","","","","poldrack-single-stim","209","1534201","0.0-3.0-11.0","5e0f443e8205266652153f5e","B2","batch2","","-1","","","tol_feedback","true","","","","","","","","","1000","1000","500","","","","","","-1","none","true","2959","4669","","",""
"","","","","","html-button-response","210","1535310","0.0-3.0-12.0","5e0f443e8205266652153f5e","B2","batch2","","1107.2999999998137","<div class = centerbox><p class = center-block-text>problem <strong>2</strong> out of 25 problems</p></div>","0","tol_trial_num","","","","","","","","","","","","","","","","","","","","","","","","",""
"","","","","","single-stim-button","211","1546765","0.0-3.0-13.0-0.0","5e0f443e8205266652153f5e","B2","batch2","","11454","","","tol_tohand","","","","","","","","","tol_peg_1","11454","11454","0","[[1,0,0],[3,0],[0]]","1","[[2,1,3],[0,0],[0]]","1","0","","","","","","5","",""
"","","","","","single-stim-button","212","1547969","0.0-3.0-13.0-1.0","5e0f443e8205266652153f5e","B2","batch2","","1201","","","tol_toboard","","","","","","","","","tol_peg_2","1201","1201","0","[[1,0,0],[3,2],[0]]","1","[[2,1,3],[0,0],[0]]","1","0","","","","","","5","",""
"","","","","","single-stim-button","213","1548882","0.0-3.0-13.1-0.1","5e0f443e8205266652153f5e","B2","batch2","","911","","","tol_tohand","","","","","","","","","tol_peg_1","911","911","0","[[0,0,0],[3,2],[0]]","2","[[2,1,3],[0,0],[0]]","1","0","","","","","","5","",""
"","","","","","single-stim-button","214","1549775","0.0-3.0-13.1-1.1","5e0f443e8205266652153f5e","B2","batch2","","891","","","tol_toboard","","","","","","","","","tol_peg_3","891","891","0","[[0,0,0],[3,2],[1]]","2","[[2,1,3],[0,0],[0]]","1","0","","","","","","5","",""
"","","","","","single-stim-button","215","1551264","0.0-3.0-13.2-0.2","5e0f443e8205266652153f5e","B2","batch2","","1487","","","tol_tohand","","","","","","","","","tol_peg_3","1487","1487","0","[[0,0,0],[3,2],[0]]","3","[[2,1,3],[0,0],[0]]","1","0","","","","","","5","",""
"","","","","","single-stim-button","216","1554487","0.0-3.0-13.2-1.2","5e0f443e8205266652153f5e","B2","batch2","","3223","","","tol_toboard","","","","","","","","","tol_peg_3","3223","3223","0","[[0,0,0],[3,2],[1]]","3","[[2,1,3],[0,0],[0]]","1","0","","","","","","5","",""
"","","","","","single-stim-button","217","1555115","0.0-3.0-13.3-0.3","5e0f443e8205266652153f5e","B2","batch2","","627","","","tol_tohand","","","","","","","","","tol_peg_2","627","627","0","[[0,0,0],[3,0],[1]]","4","[[2,1,3],[0,0],[0]]","1","0","","","","","","5","",""
"","","","","","single-stim-button","218","1556299","0.0-3.0-13.3-1.3","5e0f443e8205266652153f5e","B2","batch2","","1183","","","tol_toboard","","","","","","","","","tol_peg_1","1183","1183","0","[[2,0,0],[3,0],[1]]","4","[[2,1,3],[0,0],[0]]","1","0","","","","","","5","",""
"","","","","","single-stim-button","219","1557302","0.0-3.0-13.4-0.4","5e0f443e8205266652153f5e","B2","batch2","","1002","","","tol_tohand","","","","","","","","","tol_peg_3","1002","1002","0","[[2,0,0],[3,0],[0]]","5","[[2,1,3],[0,0],[0]]","1","0","","","","","","5","",""
"","","","","","single-stim-button","220","1558157","0.0-3.0-13.4-1.4","5e0f443e8205266652153f5e","B2","batch2","","854","","","tol_toboard","","","","","","","","","tol_peg_1","854","854","0","[[2,1,0],[3,0],[0]]","5","[[2,1,3],[0,0],[0]]","1","0","","","","","","5","",""
"","","","","","single-stim-button","221","1558980","0.0-3.0-13.5-0.5","5e0f443e8205266652153f5e","B2","batch2","","822","","","tol_tohand","","","","","","","","","tol_peg_2","822","822","0","[[2,1,0],[0,0],[0]]","6","[[2,1,3],[0,0],[0]]","1","0","","","","","","5","",""
"","","","","","single-stim-button","222","1559752","0.0-3.0-13.5-1.5","5e0f443e8205266652153f5e","B2","batch2","","771","","","tol_toboard","","","","","","","","","tol_peg_1","771","771","0","[[2,1,3],[0,0],[0]]","6","[[2,1,3],[0,0],[0]]","1","0","","","","","","5","",""
"","","","","","poldrack-single-stim","223","1560755","0.0-3.0-14.0","5e0f443e8205266652153f5e","B2","batch2","","-1","","","tol_feedback","true","","","","","","","","","1000","1000","500","","","","","","-1","none","true","11454","16303","","",""
"","","","","","html-button-response","224","1561657","0.0-3.0-15.0","5e0f443e8205266652153f5e","B2","batch2","","900.1000000005588","<div class = centerbox><p class = center-block-text>problem <strong>3</strong> out of 25 problems</p></div>","0","tol_trial_num","","","","","","","","","","","","","","","","","","","","","","","","",""
"","","","","","single-stim-button","225","1567039","0.0-3.0-16.0-0.0","5e0f443e8205266652153f5e","B2","batch2","","5380","","","tol_tohand","","","","","","","","","tol_peg_1","5380","5380","0","[[2,0,0],[0,0],[1]]","1","[[1,2,0],[3,0],[0]]","2","0","","","","","","4","",""
"","","","","","single-stim-button","226","1567876","0.0-3.0-16.0-1.0","5e0f443e8205266652153f5e","B2","batch2","","835","","","tol_toboard","","","","","","","","","tol_peg_2","835","835","0","[[2,0,0],[3,0],[1]]","1","[[1,2,0],[3,0],[0]]","2","0","","","","","","4","",""
"","","","","","single-stim-button","227","1568923","0.0-3.0-16.1-0.1","5e0f443e8205266652153f5e","B2","batch2","","1045","","","tol_tohand","","","","","","","","","tol_peg_1","1045","1045","0","[[0,0,0],[3,0],[1]]","2","[[1,2,0],[3,0],[0]]","2","0","","","","","","4","",""
"","","","","","single-stim-button","228","1569891","0.0-3.0-16.1-1.1","5e0f443e8205266652153f5e","B2","batch2","","967","","","tol_toboard","","","","","","","","","tol_peg_2","967","967","0","[[0,0,0],[3,2],[1]]","2","[[1,2,0],[3,0],[0]]","2","0","","","","","","4","",""
"","","","","","single-stim-button","229","1570571","0.0-3.0-16.2-0.2","5e0f443e8205266652153f5e","B2","batch2","","678","","","tol_tohand","","","","","","","","","tol_peg_3","678","678","0","[[0,0,0],[3,2],[0]]","3","[[1,2,0],[3,0],[0]]","2","0","","","","","","4","",""
"","","","","","single-stim-button","230","1571544","0.0-3.0-16.2-1.2","5e0f443e8205266652153f5e","B2","batch2","","972","","","tol_toboard","","","","","","","","","tol_peg_1","972","972","0","[[1,0,0],[3,2],[0]]","3","[[1,2,0],[3,0],[0]]","2","0","","","","","","4","",""
"","","","","","single-stim-button","231","1572197","0.0-3.0-16.3-0.3","5e0f443e8205266652153f5e","B2","batch2","","652","","","tol_tohand","","","","","","","","","tol_peg_2","652","652","0","[[1,0,0],[3,0],[0]]","4","[[1,2,0],[3,0],[0]]","2","0","","","","","","4","",""
"","","","","","single-stim-button","232","1573181","0.0-3.0-16.3-1.3","5e0f443e8205266652153f5e","B2","batch2","","982","","","tol_toboard","","","","","","","","","tol_peg_1","982","982","0","[[1,2,0],[3,0],[0]]","4","[[1,2,0],[3,0],[0]]","2","0","","","","","","4","",""
"","","","","","poldrack-single-stim","233","1574184","0.0-3.0-17.0","5e0f443e8205266652153f5e","B2","batch2","","-1","","","tol_feedback","true","","","","","","","","","1000","1000","500","","","","","","-1","none","true","5380","7755","","",""
"","","","","","html-button-response","234","1575235","0.0-3.0-18.0","5e0f443e8205266652153f5e","B2","batch2","","1049.2000000001863","<div class = centerbox><p class = center-block-text>problem <strong>4</strong> out of 25 problems</p></div>","0","tol_trial_num","","","","","","","","","","","","","","","","","","","","","","","","",""
"","","","","","single-stim-button","235","1578207","0.0-3.0-19.0-0.0","5e0f443e8205266652153f5e","B2","batch2","","2971","","","tol_tohand","","","","","","","","","tol_peg_2","2971","2971","0","[[3,0,0],[2,0],[0]]","1","[[3,0,0],[1,0],[2]]","3","0","","","","","","3","",""
"","","","","","single-stim-button","236","1580508","0.0-3.0-19.0-1.0","5e0f443e8205266652153f5e","B2","batch2","","2300","","","tol_toboard","","","","","","","","","tol_peg_1","2300","2300","0","[[3,1,0],[2,0],[0]]","1","[[3,0,0],[1,0],[2]]","3","0","","","","","","3","",""
"","","","","","single-stim-button","237","1580728","0.0-3.0-19.1-0.1","5e0f443e8205266652153f5e","B2","batch2","","218","","","tol_tohand","","","","","","","","","tol_peg_1","218","218","0","[[3,0,0],[2,0],[0]]","2","[[3,0,0],[1,0],[2]]","3","0","","","","","","3","",""
"","","","","","single-stim-button","238","1581693","0.0-3.0-19.1-1.1","5e0f443e8205266652153f5e","B2","batch2","","964","","","tol_toboard","","","","","","","","","tol_peg_1","964","964","0","[[3,1,0],[2,0],[0]]","2","[[3,0,0],[1,0],[2]]","3","0","","","","","","3","",""
"","","","","","single-stim-button","239","1582464","0.0-3.0-19.2-0.2","5e0f443e8205266652153f5e","B2","batch2","","770","","","tol_tohand","","","","","","","","","tol_peg_2","770","770","0","[[3,1,0],[0,0],[0]]","3","[[3,0,0],[1,0],[2]]","3","0","","","","","","3","",""
"","","","","","single-stim-button","240","1583225","0.0-3.0-19.2-1.2","5e0f443e8205266652153f5e","B2","batch2","","760","","","tol_toboard","","","","","","","","","tol_peg_3","760","760","0","[[3,1,0],[0,0],[2]]","3","[[3,0,0],[1,0],[2]]","3","0","","","","","","3","",""
"","","","","","single-stim-button","241","1585429","0.0-3.0-19.3-0.3","5e0f443e8205266652153f5e","B2","batch2","","2202","","","tol_tohand","","","","","","","","","tol_peg_1","2202","2202","0","[[3,0,0],[0,0],[2]]","4","[[3,0,0],[1,0],[2]]","3","0","","","","","","3","",""
"","","","","","single-stim-button","242","1586412","0.0-3.0-19.3-1.3","5e0f443e8205266652153f5e","B2","batch2","","983","","","tol_toboard","","","","","","","","","tol_peg_2","983","983","0","[[3,0,0],[1,0],[2]]","4","[[3,0,0],[1,0],[2]]","3","0","","","","","","3","",""
"","","","","","poldrack-single-stim","243","1587430","0.0-3.0-20.0","5e0f443e8205266652153f5e","B2","batch2","","-1","","","tol_feedback","true","","","","","","","","","1000","1000","500","","","","","","-1","none","true","2971","6161","","",""
"","","","","","html-button-response","244","1588389","0.0-3.0-21.0","5e0f443e8205266652153f5e","B2","batch2","","957.7999999998137","<div class = centerbox><p class = center-block-text>problem <strong>5</strong> out of 25 problems</p></div>","0","tol_trial_num","","","","","","","","","","","","","","","","","","","","","","","","",""
"","","","","","single-stim-button","245","1592011","0.0-3.0-22.0-0.0","5e0f443e8205266652153f5e","B2","batch2","","3620","","","tol_tohand","","","","","","","","","tol_peg_2","3620","3620","0","[[1,0,0],[0,0],[3]]","1","[[0,0,0],[1,2],[3]]","4","0","","","","","","7","",""
"","","","","","single-stim-button","246","1603349","0.0-3.0-22.0-1.0","5e0f443e8205266652153f5e","B2","batch2","","11336","","","tol_toboard","","","","","","","","","tol_peg_1","11336","11336","0","[[1,2,0],[0,0],[3]]","1","[[0,0,0],[1,2],[3]]","4","0","","","","","","7","",""
"","","","","","single-stim-button","247","1604199","0.0-3.0-22.1-0.1","5e0f443e8205266652153f5e","B2","batch2","","849","","","tol_tohand","","","","","","","","","tol_peg_3","849","849","0","[[1,2,0],[0,0],[0]]","2","[[0,0,0],[1,2],[3]]","4","0","","","","","","7","",""
"","","","","","single-stim-button","248","1604999","0.0-3.0-22.1-1.1","5e0f443e8205266652153f5e","B2","batch2","","799","","","tol_toboard","","","","","","","","","tol_peg_2","799","799","0","[[1,2,0],[3,0],[0]]","2","[[0,0,0],[1,2],[3]]","4","0","","","","","","7","",""
"","","","","","single-stim-button","249","1605859","0.0-3.0-22.2-0.2","5e0f443e8205266652153f5e","B2","batch2","","859","","","tol_tohand","","","","","","","","","tol_peg_1","859","859","0","[[1,0,0],[3,0],[0]]","3","[[0,0,0],[1,2],[3]]","4","0","","","","","","7","",""
"","","","","","single-stim-button","250","1607213","0.0-3.0-22.2-1.2","5e0f443e8205266652153f5e","B2","batch2","","1352","","","tol_toboard","","","","","","","","","tol_peg_3","1352","1352","0","[[1,0,0],[3,0],[2]]","3","[[0,0,0],[1,2],[3]]","4","0","","","","","","7","",""
"","","","","","single-stim-button","251","1609030","0.0-3.0-22.3-0.3","5e0f443e8205266652153f5e","B2","batch2","","1816","","","tol_tohand","","","","","","","","","tol_peg_1","1816","1816","0","[[0,0,0],[3,0],[2]]","4","[[0,0,0],[1,2],[3]]","4","0","","","","","","7","",""
"","","","","","single-stim-button","252","1610005","0.0-3.0-22.3-1.3","5e0f443e8205266652153f5e","B2","batch2","","974","","","tol_toboard","","","","","","","","","tol_peg_2","974","974","0","[[0,0,0],[3,1],[2]]","4","[[0,0,0],[1,2],[3]]","4","0","","","","","","7","",""
"","","","","","single-stim-button","253","1611260","0.0-3.0-22.4-0.4","5e0f443e8205266652153f5e","B2","batch2","","1254","","","tol_tohand","","","","","","","","","tol_peg_3","1254","1254","0","[[0,0,0],[3,1],[0]]","5","[[0,0,0],[1,2],[3]]","4","0","","","","","","7","",""
"","","","","","single-stim-button","254","1612114","0.0-3.0-22.4-1.4","5e0f443e8205266652153f5e","B2","batch2","","852","","","tol_toboard","","","","","","","","","tol_peg_1","852","852","0","[[2,0,0],[3,1],[0]]","5","[[0,0,0],[1,2],[3]]","4","0","","","","","","7","",""
"","","","","","single-stim-button","255","1613064","0.0-3.0-22.5-0.5","5e0f443e8205266652153f5e","B2","batch2","","948","","","tol_tohand","","","","","","","","","tol_peg_2","948","948","0","[[2,0,0],[3,0],[0]]","6","[[0,0,0],[1,2],[3]]","4","0","","","","","","7","",""
"","","","","","single-stim-button","256","1613815","0.0-3.0-22.5-1.5","5e0f443e8205266652153f5e","B2","batch2","","750","","","tol_toboard","","","","","","","","","tol_peg_3","750","750","0","[[2,0,0],[3,0],[1]]","6","[[0,0,0],[1,2],[3]]","4","0","","","","","","7","",""
"","","","","","single-stim-button","257","1614654","0.0-3.0-22.6-0.6","5e0f443e8205266652153f5e","B2","batch2","","837","","","tol_tohand","","","","","","","","","tol_peg_2","837","837","0","[[2,0,0],[0,0],[1]]","7","[[0,0,0],[1,2],[3]]","4","0","","","","","","7","",""
"","","","","","single-stim-button","258","1615273","0.0-3.0-22.6-1.6","5e0f443e8205266652153f5e","B2","batch2","","618","","","tol_toboard","","","","","","","","","tol_peg_1","618","618","0","[[2,3,0],[0,0],[1]]","7","[[0,0,0],[1,2],[3]]","4","0","","","","","","7","",""
"","","","","","single-stim-button","259","1616071","0.0-3.0-22.7-0.7","5e0f443e8205266652153f5e","B2","batch2","","797","","","tol_tohand","","","","","","","","","tol_peg_3","797","797","0","[[2,3,0],[0,0],[0]]","8","[[0,0,0],[1,2],[3]]","4","0","","","","","","7","",""
"","","","","","single-stim-button","260","1616700","0.0-3.0-22.7-1.7","5e0f443e8205266652153f5e","B2","batch2","","627","","","tol_toboard","","","","","","","","","tol_peg_2","627","627","0","[[2,3,0],[1,0],[0]]","8","[[0,0,0],[1,2],[3]]","4","0","","","","","","7","",""
"","","","","","single-stim-button","261","1617593","0.0-3.0-22.8-0.8","5e0f443e8205266652153f5e","B2","batch2","","892","","","tol_tohand","","","","","","","","","tol_peg_1","892","892","0","[[2,0,0],[1,0],[0]]","9","[[0,0,0],[1,2],[3]]","4","0","","","","","","7","",""
"","","","","","single-stim-button","262","1618373","0.0-3.0-22.8-1.8","5e0f443e8205266652153f5e","B2","batch2","","778","","","tol_toboard","","","","","","","","","tol_peg_3","778","778","0","[[2,0,0],[1,0],[3]]","9","[[0,0,0],[1,2],[3]]","4","0","","","","","","7","",""
"","","","","","single-stim-button","263","1619319","0.0-3.0-22.9-0.9","5e0f443e8205266652153f5e","B2","batch2","","944","","","tol_tohand","","","","","","","","","tol_peg_1","944","944","0","[[0,0,0],[1,0],[3]]","10","[[0,0,0],[1,2],[3]]","4","0","","","","","","7","",""
"","","","","","single-stim-button","264","1620172","0.0-3.0-22.9-1.9","5e0f443e8205266652153f5e","B2","batch2","","852","","","tol_toboard","","","","","","","","","tol_peg_2","852","852","0","[[0,0,0],[1,2],[3]]","10","[[0,0,0],[1,2],[3]]","4","0","","","","","","7","",""
"","","","","","poldrack-single-stim","265","1621186","0.0-3.0-23.0","5e0f443e8205266652153f5e","B2","batch2","","-1","","","tol_feedback","true","","","","","","","","","1000","1000","500","","","","","","-1","none","true","3620","12816","","",""
"","","","","","html-button-response","266","1622920","0.0-3.0-24.0","5e0f443e8205266652153f5e","B2","batch2","","1732.699999999255","<div class = centerbox><p class = center-block-text>problem <strong>6</strong> out of 25 problems</p></div>","0","tol_trial_num","","","","","","","","","","","","","","","","","","","","","","","","",""
"","","","","","single-stim-button","267","1629680","0.0-3.0-25.0-0.0","5e0f443e8205266652153f5e","B2","batch2","","6758","","","tol_tohand","","","","","","","","","tol_peg_3","6758","6758","0","[[0,0,0],[1,2],[0]]","1","[[1,0,0],[2,3],[0]]","5","0","","","","","","6","",""
"","","","","","single-stim-button","268","1630730","0.0-3.0-25.0-1.0","5e0f443e8205266652153f5e","B2","batch2","","1049","","","tol_toboard","","","","","","","","","tol_peg_1","1049","1049","0","[[3,0,0],[1,2],[0]]","1","[[1,0,0],[2,3],[0]]","5","0","","","","","","6","",""
"","","","","","single-stim-button","269","1631448","0.0-3.0-25.1-0.1","5e0f443e8205266652153f5e","B2","batch2","","717","","","tol_tohand","","","","","","","","","tol_peg_2","717","717","0","[[3,0,0],[1,0],[0]]","2","[[1,0,0],[2,3],[0]]","5","0","","","","","","6","",""
"","","","","","single-stim-button","270","1632207","0.0-3.0-25.1-1.1","5e0f443e8205266652153f5e","B2","batch2","","759","","","tol_toboard","","","","","","","","","tol_peg_1","759","759","0","[[3,2,0],[1,0],[0]]","2","[[1,0,0],[2,3],[0]]","5","0","","","","","","6","",""
"","","","","","single-stim-button","271","1633164","0.0-3.0-25.2-0.2","5e0f443e8205266652153f5e","B2","batch2","","956","","","tol_tohand","","","","","","","","","tol_peg_2","956","956","0","[[3,2,0],[0,0],[0]]","3","[[1,0,0],[2,3],[0]]","5","0","","","","","","6","",""
"","","","","","single-stim-button","272","1633947","0.0-3.0-25.2-1.2","5e0f443e8205266652153f5e","B2","batch2","","782","","","tol_toboard","","","","","","","","","tol_peg_3","782","782","0","[[3,2,0],[0,0],[1]]","3","[[1,0,0],[2,3],[0]]","5","0","","","","","","6","",""
"","","","","","single-stim-button","273","1635050","0.0-3.0-25.3-0.3","5e0f443e8205266652153f5e","B2","batch2","","1101","","","tol_tohand","","","","","","","","","tol_peg_1","1101","1101","0","[[3,0,0],[0,0],[1]]","4","[[1,0,0],[2,3],[0]]","5","0","","","","","","6","",""
"","","","","","single-stim-button","274","1636388","0.0-3.0-25.3-1.3","5e0f443e8205266652153f5e","B2","batch2","","1337","","","tol_toboard","","","","","","","","","tol_peg_2","1337","1337","0","[[3,0,0],[2,0],[1]]","4","[[1,0,0],[2,3],[0]]","5","0","","","","","","6","",""
"","","","","","single-stim-button","275","1637833","0.0-3.0-25.4-0.4","5e0f443e8205266652153f5e","B2","batch2","","1444","","","tol_tohand","","","","","","","","","tol_peg_1","1444","1444","0","[[0,0,0],[2,0],[1]]","5","[[1,0,0],[2,3],[0]]","5","0","","","","","","6","",""
"","","","","","single-stim-button","276","1638818","0.0-3.0-25.4-1.4","5e0f443e8205266652153f5e","B2","batch2","","982","","","tol_toboard","","","","","","","","","tol_peg_2","982","982","0","[[0,0,0],[2,3],[1]]","5","[[1,0,0],[2,3],[0]]","5","0","","","","","","6","",""
"","","","","","single-stim-button","277","1639504","0.0-3.0-25.5-0.5","5e0f443e8205266652153f5e","B2","batch2","","685","","","tol_tohand","","","","","","","","","tol_peg_3","685","685","0","[[0,0,0],[2,3],[0]]","6","[[1,0,0],[2,3],[0]]","5","0","","","","","","6","",""
"","","","","","single-stim-button","278","1640523","0.0-3.0-25.5-1.5","5e0f443e8205266652153f5e","B2","batch2","","1017","","","tol_toboard","","","","","","","","","tol_peg_1","1017","1017","0","[[1,0,0],[2,3],[0]]","6","[[1,0,0],[2,3],[0]]","5","0","","","","","","6","",""
"","","","","","poldrack-single-stim","279","1641530","0.0-3.0-26.0","5e0f443e8205266652153f5e","B2","batch2","","-1","","","tol_feedback","true","","","","","","","","","1000","1000","500","","","","","","-1","none","true","6758","11661","","",""
"","","","","","html-button-response","280","1643249","0.0-3.0-27.0","5e0f443e8205266652153f5e","B2","batch2","","1717.4000000003725","<div class = centerbox><p class = center-block-text>problem <strong>7</strong> out of 25 problems</p></div>","0","tol_trial_num","","","","","","","","","","","","","","","","","","","","","","","","",""
"","","","","","single-stim-button","281","1645122","0.0-3.0-28.0-0.0","5e0f443e8205266652153f5e","B2","batch2","","1871","","","tol_tohand","","","","","","","","","tol_peg_3","1871","1871","0","[[2,1,0],[0,0],[0]]","1","[[1,2,0],[3,0],[0]]","6","0","","","","","","5","",""
"","","","","","single-stim-button","282","1646543","0.0-3.0-28.0-1.0","5e0f443e8205266652153f5e","B2","batch2","","1420","","","tol_toboard","","","","","","","","","tol_peg_2","1420","1420","0","[[2,1,0],[3,0],[0]]","1","[[1,2,0],[3,0],[0]]","6","0","","","","","","5","",""
"","","","","","single-stim-button","283","1648380","0.0-3.0-28.1-0.1","5e0f443e8205266652153f5e","B2","batch2","","1836","","","tol_tohand","","","","","","","","","tol_peg_1","1836","1836","0","[[2,0,0],[3,0],[0]]","2","[[1,2,0],[3,0],[0]]","6","0","","","","","","5","",""
"","","","","","single-stim-button","284","1650690","0.0-3.0-28.1-1.1","5e0f443e8205266652153f5e","B2","batch2","","2308","","","tol_toboard","","","","","","","","","tol_peg_3","2308","2308","0","[[2,0,0],[3,0],[1]]","2","[[1,2,0],[3,0],[0]]","6","0","","","","","","5","",""
"","","","","","single-stim-button","285","1651711","0.0-3.0-28.2-0.2","5e0f443e8205266652153f5e","B2","batch2","","1019","","","tol_tohand","","","","","","","","","tol_peg_1","1019","1019","0","[[0,0,0],[3,0],[1]]","3","[[1,2,0],[3,0],[0]]","6","0","","","","","","5","",""
"","","","","","single-stim-button","286","1652562","0.0-3.0-28.2-1.2","5e0f443e8205266652153f5e","B2","batch2","","851","","","tol_toboard","","","","","","","","","tol_peg_2","851","851","0","[[0,0,0],[3,2],[1]]","3","[[1,2,0],[3,0],[0]]","6","0","","","","","","5","",""
"","","","","","single-stim-button","287","1654075","0.0-3.0-28.3-0.3","5e0f443e8205266652153f5e","B2","batch2","","1511","","","tol_tohand","","","","","","","","","tol_peg_3","1511","1511","0","[[0,0,0],[3,2],[0]]","4","[[1,2,0],[3,0],[0]]","6","0","","","","","","5","",""
"","","","","","single-stim-button","288","1654434","0.0-3.0-28.3-1.3","5e0f443e8205266652153f5e","B2","batch2","","358","","","tol_toboard","","","","","","","","","tol_peg_3","358","358","0","[[0,0,0],[3,2],[1]]","4","[[1,2,0],[3,0],[0]]","6","0","","","","","","5","",""
"","","","","","single-stim-button","289","1655278","0.0-3.0-28.4-0.4","5e0f443e8205266652153f5e","B2","batch2","","843","","","tol_tohand","","","","","","","","","tol_peg_3","843","843","0","[[0,0,0],[3,2],[0]]","5","[[1,2,0],[3,0],[0]]","6","0","","","","","","5","",""
"","","","","","single-stim-button","290","1656467","0.0-3.0-28.4-1.4","5e0f443e8205266652153f5e","B2","batch2","","1188","","","tol_toboard","","","","","","","","","tol_peg_1","1188","1188","0","[[1,0,0],[3,2],[0]]","5","[[1,2,0],[3,0],[0]]","6","0","","","","","","5","",""
"","","","","","single-stim-button","291","1657175","0.0-3.0-28.5-0.5","5e0f443e8205266652153f5e","B2","batch2","","706","","","tol_tohand","","","","","","","","","tol_peg_2","706","706","0","[[1,0,0],[3,0],[0]]","6","[[1,2,0],[3,0],[0]]","6","0","","","","","","5","",""
"","","","","","single-stim-button","292","1658006","0.0-3.0-28.5-1.5","5e0f443e8205266652153f5e","B2","batch2","","831","","","tol_toboard","","","","","","","","","tol_peg_1","831","831","0","[[1,2,0],[3,0],[0]]","6","[[1,2,0],[3,0],[0]]","6","0","","","","","","5","",""
"","","","","","poldrack-single-stim","293","1659022","0.0-3.0-29.0","5e0f443e8205266652153f5e","B2","batch2","","-1","","","tol_feedback","true","","","","","","","","","1000","1000","500","","","","","","-1","none","true","1871","7786","","",""
"","","","","","html-button-response","294","1660305","0.0-3.0-30.0","5e0f443e8205266652153f5e","B2","batch2","","1281.6000000005588","<div class = centerbox><p class = center-block-text>problem <strong>8</strong> out of 25 problems</p></div>","0","tol_trial_num","","","","","","","","","","","","","","","","","","","","","","","","",""
"","","","","","single-stim-button","295","1663753","0.0-3.0-31.0-0.0","5e0f443e8205266652153f5e","B2","batch2","","3447","","","tol_tohand","","","","","","","","","tol_peg_3","3447","3447","0","[[0,0,0],[2,3],[0]]","1","[[1,2,0],[3,0],[0]]","7","0","","","","","","4","",""
"","","","","","single-stim-button","296","1664916","0.0-3.0-31.0-1.0","5e0f443e8205266652153f5e","B2","batch2","","1162","","","tol_toboard","","","","","","","","","tol_peg_1","1162","1162","0","[[1,0,0],[2,3],[0]]","1","[[1,2,0],[3,0],[0]]","7","0","","","","","","4","",""
"","","","","","single-stim-button","297","1665670","0.0-3.0-31.1-0.1","5e0f443e8205266652153f5e","B2","batch2","","752","","","tol_tohand","","","","","","","","","tol_peg_2","752","752","0","[[1,0,0],[2,0],[0]]","2","[[1,2,0],[3,0],[0]]","7","0","","","","","","4","",""
"","","","","","single-stim-button","298","1669267","0.0-3.0-31.1-1.1","5e0f443e8205266652153f5e","B2","batch2","","3595","","","tol_toboard","","","","","","","","","tol_peg_3","3595","3595","0","[[1,0,0],[2,0],[3]]","2","[[1,2,0],[3,0],[0]]","7","0","","","","","","4","",""
"","","","","","single-stim-button","299","1670143","0.0-3.0-31.2-0.2","5e0f443e8205266652153f5e","B2","batch2","","875","","","tol_tohand","","","","","","","","","tol_peg_2","875","875","0","[[1,0,0],[0,0],[3]]","3","[[1,2,0],[3,0],[0]]","7","0","","","","","","4","",""
"","","","","","single-stim-button","300","1671078","0.0-3.0-31.2-1.2","5e0f443e8205266652153f5e","B2","batch2","","934","","","tol_toboard","","","","","","","","","tol_peg_1","934","934","0","[[1,2,0],[0,0],[3]]","3","[[1,2,0],[3,0],[0]]","7","0","","","","","","4","",""
"","","","","","single-stim-button","301","1671860","0.0-3.0-31.3-0.3","5e0f443e8205266652153f5e","B2","batch2","","780","","","tol_tohand","","","","","","","","","tol_peg_3","780","780","0","[[1,2,0],[0,0],[0]]","4","[[1,2,0],[3,0],[0]]","7","0","","","","","","4","",""
"","","","","","single-stim-button","302","1672720","0.0-3.0-31.3-1.3","5e0f443e8205266652153f5e","B2","batch2","","860","","","tol_toboard","","","","","","","","","tol_peg_2","860","860","0","[[1,2,0],[3,0],[0]]","4","[[1,2,0],[3,0],[0]]","7","0","","","","","","4","",""
"","","","","","poldrack-single-stim","303","1673723","0.0-3.0-32.0","5e0f443e8205266652153f5e","B2","batch2","","-1","","","tol_feedback","true","","","","","","","","","1000","1000","500","","","","","","-1","none","true","3447","5854","","",""
"","","","","","html-button-response","304","1674699","0.0-3.0-33.0","5e0f443e8205266652153f5e","B2","batch2","","974.5","<div class = centerbox><p class = center-block-text>problem <strong>9</strong> out of 25 problems</p></div>","0","tol_trial_num","","","","","","","","","","","","","","","","","","","","","","","","",""
"","","","","","single-stim-button","305","1678642","0.0-3.0-34.0-0.0","5e0f443e8205266652153f5e","B2","batch2","","3942","","","tol_tohand","","","","","","","","","tol_peg_1","3942","3942","0","[[3,0,0],[0,0],[1]]","1","[[2,1,0],[3,0],[0]]","8","0","","","","","","6","",""
"","","","","","single-stim-button","306","1687870","0.0-3.0-34.0-1.0","5e0f443e8205266652153f5e","B2","batch2","","9226","","","tol_toboard","","","","","","","","","tol_peg_1","9226","9226","0","[[3,2,0],[0,0],[1]]","1","[[2,1,0],[3,0],[0]]","8","0","","","","","","6","",""
"","","","","","single-stim-button","307","1688783","0.0-3.0-34.1-0.1","5e0f443e8205266652153f5e","B2","batch2","","911","","","tol_tohand","","","","","","","","","tol_peg_3","911","911","0","[[3,2,0],[0,0],[0]]","2","[[2,1,0],[3,0],[0]]","8","0","","","","","","6","",""
"","","","","","single-stim-button","308","1689852","0.0-3.0-34.1-1.1","5e0f443e8205266652153f5e","B2","batch2","","1067","","","tol_toboard","","","","","","","","","tol_peg_2","1067","1067","0","[[3,2,0],[1,0],[0]]","2","[[2,1,0],[3,0],[0]]","8","0","","","","","","6","",""
"","","","","","single-stim-button","309","1691390","0.0-3.0-34.2-0.2","5e0f443e8205266652153f5e","B2","batch2","","1537","","","tol_tohand","","","","","","","","","tol_peg_1","1537","1537","0","[[3,0,0],[1,0],[0]]","3","[[2,1,0],[3,0],[0]]","8","0","","","","","","6","",""
"","","","","","single-stim-button","310","1693265","0.0-3.0-34.2-1.2","5e0f443e8205266652153f5e","B2","batch2","","1874","","","tol_toboard","","","","","","","","","tol_peg_2","1874","1874","0","[[3,0,0],[1,2],[0]]","3","[[2,1,0],[3,0],[0]]","8","0","","","","","","6","",""
"","","","","","single-stim-button","311","1693995","0.0-3.0-34.3-0.3","5e0f443e8205266652153f5e","B2","batch2","","728","","","tol_tohand","","","","","","","","","tol_peg_1","728","728","0","[[0,0,0],[1,2],[0]]","4","[[2,1,0],[3,0],[0]]","8","0","","","","","","6","",""
"","","","","","single-stim-button","312","1694929","0.0-3.0-34.3-1.3","5e0f443e8205266652153f5e","B2","batch2","","932","","","tol_toboard","","","","","","","","","tol_peg_3","932","932","0","[[0,0,0],[1,2],[3]]","4","[[2,1,0],[3,0],[0]]","8","0","","","","","","6","",""
"","","","","","single-stim-button","313","1695651","0.0-3.0-34.4-0.4","5e0f443e8205266652153f5e","B2","batch2","","721","","","tol_tohand","","","","","","","","","tol_peg_2","721","721","0","[[0,0,0],[1,0],[3]]","5","[[2,1,0],[3,0],[0]]","8","0","","","","","","6","",""
"","","","","","single-stim-button","314","1696322","0.0-3.0-34.4-1.4","5e0f443e8205266652153f5e","B2","batch2","","669","","","tol_toboard","","","","","","","","","tol_peg_1","669","669","0","[[2,0,0],[1,0],[3]]","5","[[2,1,0],[3,0],[0]]","8","0","","","","","","6","",""
"","","","","","single-stim-button","315","1697199","0.0-3.0-34.5-0.5","5e0f443e8205266652153f5e","B2","batch2","","875","","","tol_tohand","","","","","","","","","tol_peg_2","875","875","0","[[2,0,0],[0,0],[3]]","6","[[2,1,0],[3,0],[0]]","8","0","","","","","","6","",""
"","","","","","single-stim-button","316","1697957","0.0-3.0-34.5-1.5","5e0f443e8205266652153f5e","B2","batch2","","756","","","tol_toboard","","","","","","","","","tol_peg_1","756","756","0","[[2,1,0],[0,0],[3]]","6","[[2,1,0],[3,0],[0]]","8","0","","","","","","6","",""
"","","","","","single-stim-button","317","1819856","0.0-3.0-34.6-0.6","5e0f443e8205266652153f5e","B2","batch2","","121897","","","tol_tohand","","","","","","","","","tol_peg_3","121897","121897","0","[[2,1,0],[0,0],[0]]","7","[[2,1,0],[3,0],[0]]","8","0","","","","","","6","",""
"","","","","","single-stim-button","318","1820963","0.0-3.0-34.6-1.6","5e0f443e8205266652153f5e","B2","batch2","","1106","","","tol_toboard","","","","","","","","","tol_peg_2","1106","1106","0","[[2,1,0],[3,0],[0]]","7","[[2,1,0],[3,0],[0]]","8","0","","","","","","6","",""
"","","","","","poldrack-single-stim","319","1821971","0.0-3.0-35.0","5e0f443e8205266652153f5e","B2","batch2","","-1","","","tol_feedback","true","","","","","","","","","1000","1000","500","","","","","","-1","none","true","3942","130611","","",""
"","","","","","html-button-response","320","1823052","0.0-3.0-36.0","5e0f443e8205266652153f5e","B2","batch2","","1079.9000000003725","<div class = centerbox><p class = center-block-text>problem <strong>10</strong> out of 25 problems</p></div>","0","tol_trial_num","","","","","","","","","","","","","","","","","","","","","","","","",""
"","","","","","single-stim-button","321","1826064","0.0-3.0-37.0-0.0","5e0f443e8205266652153f5e","B2","batch2","","3011","","","tol_tohand","","","","","","","","","tol_peg_2","3011","3011","0","[[3,0,0],[0,0],[2]]","1","[[3,0,0],[2,1],[0]]","9","0","","","","","","3","",""
"","","","","","single-stim-button","322","1826908","0.0-3.0-37.0-1.0","5e0f443e8205266652153f5e","B2","batch2","","844","","","tol_toboard","","","","","","","","","tol_peg_1","844","844","0","[[3,1,0],[0,0],[2]]","1","[[3,0,0],[2,1],[0]]","9","0","","","","","","3","",""
"","","","","","single-stim-button","323","1827954","0.0-3.0-37.1-0.1","5e0f443e8205266652153f5e","B2","batch2","","1045","","","tol_tohand","","","","","","","","","tol_peg_3","1045","1045","0","[[3,1,0],[0,0],[0]]","2","[[3,0,0],[2,1],[0]]","9","0","","","","","","3","",""
"","","","","","single-stim-button","324","1829521","0.0-3.0-37.1-1.1","5e0f443e8205266652153f5e","B2","batch2","","1566","","","tol_toboard","","","","","","","","","tol_peg_2","1566","1566","0","[[3,1,0],[2,0],[0]]","2","[[3,0,0],[2,1],[0]]","9","0","","","","","","3","",""
"","","","","","single-stim-button","325","1831076","0.0-3.0-37.2-0.2","5e0f443e8205266652153f5e","B2","batch2","","1554","","","tol_tohand","","","","","","","","","tol_peg_1","1554","1554","0","[[3,0,0],[2,0],[0]]","3","[[3,0,0],[2,1],[0]]","9","0","","","","","","3","",""
"","","","","","single-stim-button","326","1832021","0.0-3.0-37.2-1.2","5e0f443e8205266652153f5e","B2","batch2","","945","","","tol_toboard","","","","","","","","","tol_peg_2","945","945","0","[[3,0,0],[2,1],[0]]","3","[[3,0,0],[2,1],[0]]","9","0","","","","","","3","",""
"","","","","","poldrack-single-stim","327","1833028","0.0-3.0-38.0","5e0f443e8205266652153f5e","B2","batch2","","-1","","","tol_feedback","true","","","","","","","","","1000","1000","500","","","","","","-1","none","true","3011","5610","","",""
"","","","","","html-button-response","328","1834304","0.0-3.0-39.0","5e0f443e8205266652153f5e","B2","batch2","","1275.5999999996275","<div class = centerbox><p class = center-block-text>problem <strong>11</strong> out of 25 problems</p></div>","0","tol_trial_num","","","","","","","","","","","","","","","","","","","","","","","","",""
"","","","","","single-stim-button","329","1836695","0.0-3.0-40.0-0.0","5e0f443e8205266652153f5e","B2","batch2","","2390","","","tol_tohand","","","","","","","","","tol_peg_1","2390","2390","0","[[1,0,0],[3,0],[0]]","1","[[2,0,0],[1,3],[0]]","10","0","","","","","","6","",""
"","","","","","single-stim-button","330","1837497","0.0-3.0-40.0-1.0","5e0f443e8205266652153f5e","B2","batch2","","801","","","tol_toboard","","","","","","","","","tol_peg_3","801","801","0","[[1,0,0],[3,0],[2]]","1","[[2,0,0],[1,3],[0]]","10","0","","","","","","6","",""
"","","","","","single-stim-button","331","1839203","0.0-3.0-40.1-0.1","5e0f443e8205266652153f5e","B2","batch2","","1706","","","tol_tohand","","","","","","","","","tol_peg_2","1706","1706","0","[[1,0,0],[0,0],[2]]","2","[[2,0,0],[1,3],[0]]","10","0","","","","","","6","",""
"","","","","","single-stim-button","332","1842477","0.0-3.0-40.1-1.1","5e0f443e8205266652153f5e","B2","batch2","","3272","","","tol_toboard","","","","","","","","","tol_peg_2","3272","3272","0","[[1,0,0],[3,0],[2]]","2","[[2,0,0],[1,3],[0]]","10","0","","","","","","6","",""
"","","","","","single-stim-button","333","1844588","0.0-3.0-40.2-0.2","5e0f443e8205266652153f5e","B2","batch2","","2109","","","tol_tohand","","","","","","","","","tol_peg_3","2109","2109","0","[[1,0,0],[3,0],[0]]","3","[[2,0,0],[1,3],[0]]","10","0","","","","","","6","",""
"","","","","","single-stim-button","334","1845336","0.0-3.0-40.2-1.2","5e0f443e8205266652153f5e","B2","batch2","","747","","","tol_toboard","","","","","","","","","tol_peg_2","747","747","0","[[1,0,0],[3,2],[0]]","3","[[2,0,0],[1,3],[0]]","10","0","","","","","","6","",""
"","","","","","single-stim-button","335","1846196","0.0-3.0-40.3-0.3","5e0f443e8205266652153f5e","B2","batch2","","860","","","tol_tohand","","","","","","","","","tol_peg_1","860","860","0","[[0,0,0],[3,2],[0]]","4","[[2,0,0],[1,3],[0]]","10","0","","","","","","6","",""
"","","","","","single-stim-button","336","1847206","0.0-3.0-40.3-1.3","5e0f443e8205266652153f5e","B2","batch2","","1009","","","tol_toboard","","","","","","","","","tol_peg_3","1009","1009","0","[[0,0,0],[3,2],[1]]","4","[[2,0,0],[1,3],[0]]","10","0","","","","","","6","",""
"","","","","","single-stim-button","337","1848412","0.0-3.0-40.4-0.4","5e0f443e8205266652153f5e","B2","batch2","","1204","","","tol_tohand","","","","","","","","","tol_peg_2","1204","1204","0","[[0,0,0],[3,0],[1]]","5","[[2,0,0],[1,3],[0]]","10","0","","","","","","6","",""
"","","","","","single-stim-button","338","1849259","0.0-3.0-40.4-1.4","5e0f443e8205266652153f5e","B2","batch2","","847","","","tol_toboard","","","","","","","","","tol_peg_1","847","847","0","[[2,0,0],[3,0],[1]]","5","[[2,0,0],[1,3],[0]]","10","0","","","","","","6","",""
"","","","","","single-stim-button","339","1849957","0.0-3.0-40.5-0.5","5e0f443e8205266652153f5e","B2","batch2","","697","","","tol_tohand","","","","","","","","","tol_peg_2","697","697","0","[[2,0,0],[0,0],[1]]","6","[[2,0,0],[1,3],[0]]","10","0","","","","","","6","",""
"","","","","","single-stim-button","340","1850563","0.0-3.0-40.5-1.5","5e0f443e8205266652153f5e","B2","batch2","","604","","","tol_toboard","","","","","","","","","tol_peg_1","604","604","0","[[2,3,0],[0,0],[1]]","6","[[2,0,0],[1,3],[0]]","10","0","","","","","","6","",""
"","","","","","single-stim-button","341","1851207","0.0-3.0-40.6-0.6","5e0f443e8205266652153f5e","B2","batch2","","643","","","tol_tohand","","","","","","","","","tol_peg_3","643","643","0","[[2,3,0],[0,0],[0]]","7","[[2,0,0],[1,3],[0]]","10","0","","","","","","6","",""
"","","","","","single-stim-button","342","1851766","0.0-3.0-40.6-1.6","5e0f443e8205266652153f5e","B2","batch2","","557","","","tol_toboard","","","","","","","","","tol_peg_2","557","557","0","[[2,3,0],[1,0],[0]]","7","[[2,0,0],[1,3],[0]]","10","0","","","","","","6","",""
"","","","","","single-stim-button","343","1852379","0.0-3.0-40.7-0.7","5e0f443e8205266652153f5e","B2","batch2","","612","","","tol_tohand","","","","","","","","","tol_peg_1","612","612","0","[[2,0,0],[1,0],[0]]","8","[[2,0,0],[1,3],[0]]","10","0","","","","","","6","",""
"","","","","","single-stim-button","344","1852968","0.0-3.0-40.7-1.7","5e0f443e8205266652153f5e","B2","batch2","","588","","","tol_toboard","","","","","","","","","tol_peg_2","588","588","0","[[2,0,0],[1,3],[0]]","8","[[2,0,0],[1,3],[0]]","10","0","","","","","","6","",""
"","","","","","poldrack-single-stim","345","1853973","0.0-3.0-41.0","5e0f443e8205266652153f5e","B2","batch2","","-1","","","tol_feedback","true","","","","","","","","","1000","1000","500","","","","","","-1","none","true","2390","10221","","",""
"","","","","","html-button-response","346","1854971","0.0-3.0-42.0","5e0f443e8205266652153f5e","B2","batch2","","995.7999999998137","<div class = centerbox><p class = center-block-text>problem <strong>12</strong> out of 25 problems</p></div>","0","tol_trial_num","","","","","","","","","","","","","","","","","","","","","","","","",""
"","","","","","single-stim-button","347","1857583","0.0-3.0-43.0-0.0","5e0f443e8205266652153f5e","B2","batch2","","2611","","","tol_tohand","","","","","","","","","tol_peg_1","2611","2611","0","[[1,0,0],[3,0],[0]]","1","[[2,3,0],[0,0],[1]]","11","0","","","","","","4","",""
"","","","","","single-stim-button","348","1858565","0.0-3.0-43.0-1.0","5e0f443e8205266652153f5e","B2","batch2","","981","","","tol_toboard","","","","","","","","","tol_peg_2","981","981","0","[[1,0,0],[3,2],[0]]","1","[[2,3,0],[0,0],[1]]","11","0","","","","","","4","",""
