"success","timeout","failed_images","failed_audio","failed_video","trial_type","trial_index","time_elapsed","internal_node_id","subject_id","study_id","session_id","view_history","rt","task","stimulus","response","correct","mouse_click","stim_duration","block_duration","timing_post_trial","current_position","tol_num_moves_made","tol_target","tol_problem_id","tol_rt","key_press","possible_responses","tol_correct","preplanning","tol_rt_per_trial","tol_min_moves","item","answer","spm_correct","spm_rt","fiar_detect_rt","fiar_detect_correct","total_correct_fiar_detect","post_trial_gap","choices"
"true","false","[]","[]","[]","preload","0","4197","0.0-0.0","5e120e2813064488573bb2a8","E1","batch5","","","","","","","","","","","","","","","","","","","","","","","","","","","","","",""
"true","","","","","fullscreen","1","13857","0.0-1.0-0.0","5e120e2813064488573bb2a8","E1","batch5","","","","","","","","","","","","","","","","","","","","","","","","","","","","","",""
"true","","","","","fullscreen","2","16497","0.0-2.0-0.0","5e120e2813064488573bb2a8","E1","batch5","","","","","","","","","","","","","","","","","","","","","","","","","","","","","",""
"","","","","","instructions","3","61657","0.0-2.0-1.0-0.0-0.0","5e120e2813064488573bb2a8","E1","batch5","[{""page_index"":0,""viewing_time"":13602.60000038147},{""page_index"":1,""viewing_time"":4720.300001144409},{""page_index"":2,""viewing_time"":3126.599998474121},{""page_index"":3,""viewing_time"":7292.5},{""page_index"":4,""viewing_time"":2065.6000003814697},{""page_index"":5,""viewing_time"":12016},{""page_index"":6,""viewing_time"":2334}]","45157.90000152588","tol-instructions","","","","","","","","","","","","","","","","","","","","","","","","","","",""
"","","","","","html-button-response","4","62803","0.0-2.0-1.0-1.0-0.0","5e120e2813064488573bb2a8","E1","batch5","","1143.900001525879","tol_enter_quiz","<p class=block-text> Let's answer a few questions <br>","0","","","","","","","","","","","","","","","","","","","","","","","","",""
"","","","","","html-button-response","5","66650","0.0-2.0-1.0-1.0-1.0","5e120e2813064488573bb2a8","E1","batch5","","3845.7000007629395","tol_quiz","<p class = block-text>True or False: You can only move the ball on top of a peg. <br></p>","0","true","","","","","","","","","","","","","","","","","","","","","","","",""
"","","","","","html-button-response","6","68180","0.0-2.0-1.0-1.0-2.0","5e120e2813064488573bb2a8","E1","batch5","","1527.2999992370605","tol_quiz_feedback","<p class = block-text>Correct! You can only move the ball on top of a peg.</p>","0","","","","","","","","","","","","","","","","","","","","","","","","",""
"","","","","","html-button-response","7","71131","0.0-2.0-1.0-1.0-3.0","5e120e2813064488573bb2a8","E1","batch5","","2949.8999996185303","tol_quiz","<p class = block-text>True or False: You should try to match your board with the target board with fewest moves possible. <br></p>","0","true","","","","","","","","","","","","","","","","","","","","","","","",""
"","","","","","html-button-response","8","71972","0.0-2.0-1.0-1.0-4.0","5e120e2813064488573bb2a8","E1","batch5","","839.7000007629395","tol_quiz_feedback","<p class = block-text>Correct! </p>","0","","","","","","","","","","","","","","","","","","","","","","","","",""
"","","","","","html-button-response","9","74770","0.0-2.0-2.0","5e120e2813064488573bb2a8","E1","batch5","","2796.6000003814697","","<p class=block-text> Now that you've understood the game, let's practice a few easier examples before we start!<br> <br>","0","","","","","","","","","","","","","","","","","","","","","","","","",""
"","","","","","single-stim-button","10","77235","0.0-2.0-3.0-0.0","5e120e2813064488573bb2a8","E1","batch5","","2463","tol_practice","","","","tol_peg_2","2463","2463","0","[[1,2,0],[0,0],[0]]","1","[[1,2,0],[0,0],[3]]","practice","2463","","","","","","","","","","","","","","",""
"","","","","","single-stim-button","11","78810","0.0-2.0-3.0-1.0","5e120e2813064488573bb2a8","E1","batch5","","1574","tol_practice","","","","tol_peg_3","1574","1574","0","[[1,2,0],[0,0],[3]]","1","[[1,2,0],[0,0],[3]]","practice","1574","","","","","","","","","","","","","","",""
"","","","","","poldrack-single-stim","12","79817","0.0-2.0-4.0","5e120e2813064488573bb2a8","E1","batch5","","-1","tol_feedback","","","true","","1000","1000","500","","","","","","-1","none","true","","0","","","","","","","","","",""
"","","","","","single-stim-button","13","84427","0.0-2.0-5.0-0.0","5e120e2813064488573bb2a8","E1","batch5","","4610","tol_practice","","","","tol_peg_1","4610","4610","0","[[1,0,0],[3,0],[0]]","2","[[0,0,0],[3,1],[2]]","practice","4610","","","","","","","","","","","","","","",""
"","","","","","single-stim-button","14","85424","0.0-2.0-5.0-1.0","5e120e2813064488573bb2a8","E1","batch5","","995","tol_practice","","","","tol_peg_3","995","995","0","[[1,0,0],[3,0],[2]]","2","[[0,0,0],[3,1],[2]]","practice","995","","","","","","","","","","","","","","",""
"","","","","","single-stim-button","15","86353","0.0-2.0-5.1-0.1","5e120e2813064488573bb2a8","E1","batch5","","927","tol_practice","","","","tol_peg_1","927","927","0","[[0,0,0],[3,0],[2]]","3","[[0,0,0],[3,1],[2]]","practice","927","","","","","","","","","","","","","","",""
"","","","","","single-stim-button","16","87321","0.0-2.0-5.1-1.1","5e120e2813064488573bb2a8","E1","batch5","","968","tol_practice","","","","tol_peg_2","968","968","0","[[0,0,0],[3,1],[2]]","3","[[0,0,0],[3,1],[2]]","practice","968","","","","","","","","","","","","","","",""
"","","","","","poldrack-single-stim","17","88329","0.0-2.0-6.0","5e120e2813064488573bb2a8","E1","batch5","","-1","tol_feedback","","","true","","1000","1000","500","","","","","","-1","none","true","","0","","","","","","","","","",""
"","","","","","single-stim-button","18","90418","0.0-2.0-7.0-0.0","5e120e2813064488573bb2a8","E1","batch5","","2089","tol_practice","","","","tol_peg_2","2089","2089","0","[[1,2,0],[0,0],[0]]","4","[[1,0,0],[2,0],[3]]","practice","2089","","","","","","","","","","","","","","",""
"","","","","","single-stim-button","19","91507","0.0-2.0-7.0-1.0","5e120e2813064488573bb2a8","E1","batch5","","1088","tol_practice","","","","tol_peg_3","1088","1088","0","[[1,2,0],[0,0],[3]]","4","[[1,0,0],[2,0],[3]]","practice","1088","","","","","","","","","","","","","","",""
"","","","","","single-stim-button","20","92860","0.0-2.0-7.1-0.1","5e120e2813064488573bb2a8","E1","batch5","","1353","tol_practice","","","","tol_peg_1","1353","1353","0","[[1,0,0],[0,0],[3]]","5","[[1,0,0],[2,0],[3]]","practice","1353","","","","","","","","","","","","","","",""
"","","","","","single-stim-button","21","93953","0.0-2.0-7.1-1.1","5e120e2813064488573bb2a8","E1","batch5","","1092","tol_practice","","","","tol_peg_2","1092","1092","0","[[1,0,0],[2,0],[3]]","5","[[1,0,0],[2,0],[3]]","practice","1092","","","","","","","","","","","","","","",""
"","","","","","poldrack-single-stim","22","94964","0.0-2.0-8.0","5e120e2813064488573bb2a8","E1","batch5","","-1","tol_feedback","","","true","","1000","1000","500","","","","","","-1","none","true","","0","","","","","","","","","",""
"","","","","","html-button-response","23","97936","0.0-2.0-9.0","5e120e2813064488573bb2a8","E1","batch5","","2970.8999996185303","tol_instruction","<div class = centerbox><p class = center-block-text>Great job! You are done with practice trials<br>You are about to start official trials.<br> <br> Problem <strong>1</strong> out of 25 problems</p></div>","0","","","","","","","","","","","","","","","","","","","","","","","","",""
"","","","","","single-stim-button","24","106775","0.0-2.0-10.0-0.0","5e120e2813064488573bb2a8","E1","batch5","","7827","tol_tohand","","","","tol_peg_2","7827","7827","0","[[1,2,0],[0,0],[0]]","1","[[1,3,0],[2,0],[0]]","0","0","","","","","","3","","","","","","","","",""
"","","","","","single-stim-button","25","107952","0.0-2.0-10.0-1.0","5e120e2813064488573bb2a8","E1","batch5","","1176","tol_toboard","","","","tol_peg_3","1176","1176","0","[[1,2,0],[0,0],[3]]","1","[[1,3,0],[2,0],[0]]","0","0","","","","","","3","","","","","","","","",""
"","","","","","single-stim-button","26","108833","0.0-2.0-10.1-0.1","5e120e2813064488573bb2a8","E1","batch5","","879","tol_tohand","","","","tol_peg_1","879","879","0","[[1,0,0],[0,0],[3]]","2","[[1,3,0],[2,0],[0]]","0","0","","","","","","3","","","","","","","","",""
"","","","","","single-stim-button","27","109681","0.0-2.0-10.1-1.1","5e120e2813064488573bb2a8","E1","batch5","","848","tol_toboard","","","","tol_peg_2","848","848","0","[[1,0,0],[2,0],[3]]","2","[[1,3,0],[2,0],[0]]","0","0","","","","","","3","","","","","","","","",""
"","","","","","single-stim-button","28","110967","0.0-2.0-10.2-0.2","5e120e2813064488573bb2a8","E1","batch5","","1284","tol_tohand","","","","tol_peg_3","1284","1284","0","[[1,0,0],[2,0],[0]]","3","[[1,3,0],[2,0],[0]]","0","0","","","","","","3","","","","","","","","",""
"","","","","","single-stim-button","29","111807","0.0-2.0-10.2-1.2","5e120e2813064488573bb2a8","E1","batch5","","840","tol_toboard","","","","tol_peg_1","840","840","0","[[1,3,0],[2,0],[0]]","3","[[1,3,0],[2,0],[0]]","0","0","","","","","","3","","","","","","","","",""
"","","","","","poldrack-single-stim","30","112820","0.0-2.0-11.0","5e120e2813064488573bb2a8","E1","batch5","","-1","tol_feedback","","","true","","1000","1000","500","","","","","","-1","none","true","7827","9990","","","","","","","","","",""
"","","","","","html-button-response","31","113777","0.0-2.0-12.0","5e120e2813064488573bb2a8","E1","batch5","","955.6000003814697","tol_trial_num","<div class = centerbox><p class = center-block-text>problem <strong>2</strong> out of 25 problems</p></div>","0","","","","","","","","","","","","","","","","","","","","","","","","",""
"","","","","","single-stim-button","32","119361","0.0-2.0-13.0-0.0","5e120e2813064488573bb2a8","E1","batch5","","5583","tol_tohand","","","","tol_peg_1","5583","5583","0","[[1,0,0],[3,0],[0]]","1","[[2,1,3],[0,0],[0]]","1","0","","","","","","5","","","","","","","","",""
"","","","","","single-stim-button","33","120646","0.0-2.0-13.0-1.0","5e120e2813064488573bb2a8","E1","batch5","","1285","tol_toboard","","","","tol_peg_2","1285","1285","0","[[1,0,0],[3,2],[0]]","1","[[2,1,3],[0,0],[0]]","1","0","","","","","","5","","","","","","","","",""
"","","","","","single-stim-button","34","121502","0.0-2.0-13.1-0.1","5e120e2813064488573bb2a8","E1","batch5","","856","tol_tohand","","","","tol_peg_1","856","856","0","[[0,0,0],[3,2],[0]]","2","[[2,1,3],[0,0],[0]]","1","0","","","","","","5","","","","","","","","",""
"","","","","","single-stim-button","35","122912","0.0-2.0-13.1-1.1","5e120e2813064488573bb2a8","E1","batch5","","1408","tol_toboard","","","","tol_peg_3","1408","1408","0","[[0,0,0],[3,2],[1]]","2","[[2,1,3],[0,0],[0]]","1","0","","","","","","5","","","","","","","","",""
"","","","","","single-stim-button","36","123776","0.0-2.0-13.2-0.2","5e120e2813064488573bb2a8","E1","batch5","","864","tol_tohand","","","","tol_peg_2","864","864","0","[[0,0,0],[3,0],[1]]","3","[[2,1,3],[0,0],[0]]","1","0","","","","","","5","","","","","","","","",""
"","","","","","single-stim-button","37","125005","0.0-2.0-13.2-1.2","5e120e2813064488573bb2a8","E1","batch5","","1228","tol_toboard","","","","tol_peg_1","1228","1228","0","[[2,0,0],[3,0],[1]]","3","[[2,1,3],[0,0],[0]]","1","0","","","","","","5","","","","","","","","",""
"","","","","","single-stim-button","38","126471","0.0-2.0-13.3-0.3","5e120e2813064488573bb2a8","E1","batch5","","1464","tol_tohand","","","","tol_peg_3","1464","1464","0","[[2,0,0],[3,0],[0]]","4","[[2,1,3],[0,0],[0]]","1","0","","","","","","5","","","","","","","","",""
"","","","","","single-stim-button","39","127247","0.0-2.0-13.3-1.3","5e120e2813064488573bb2a8","E1","batch5","","776","tol_toboard","","","","tol_peg_1","776","776","0","[[2,1,0],[3,0],[0]]","4","[[2,1,3],[0,0],[0]]","1","0","","","","","","5","","","","","","","","",""
"","","","","","single-stim-button","40","127960","0.0-2.0-13.4-0.4","5e120e2813064488573bb2a8","E1","batch5","","711","tol_tohand","","","","tol_peg_2","711","711","0","[[2,1,0],[0,0],[0]]","5","[[2,1,3],[0,0],[0]]","1","0","","","","","","5","","","","","","","","",""
"","","","","","single-stim-button","41","128652","0.0-2.0-13.4-1.4","5e120e2813064488573bb2a8","E1","batch5","","692","tol_toboard","","","","tol_peg_1","692","692","0","[[2,1,3],[0,0],[0]]","5","[[2,1,3],[0,0],[0]]","1","0","","","","","","5","","","","","","","","",""
"","","","","","poldrack-single-stim","42","129658","0.0-2.0-14.0","5e120e2813064488573bb2a8","E1","batch5","","-1","tol_feedback","","","true","","1000","1000","500","","","","","","-1","none","true","5583","9478","","","","","","","","","",""
"","","","","","html-button-response","43","130870","0.0-2.0-15.0","5e120e2813064488573bb2a8","E1","batch5","","1210.7999992370605","tol_trial_num","<div class = centerbox><p class = center-block-text>problem <strong>3</strong> out of 25 problems</p></div>","0","","","","","","","","","","","","","","","","","","","","","","","","",""
"","","","","","single-stim-button","44","134820","0.0-2.0-16.0-0.0","5e120e2813064488573bb2a8","E1","batch5","","3949","tol_tohand","","","","tol_peg_1","3949","3949","0","[[2,0,0],[0,0],[1]]","1","[[1,2,0],[3,0],[0]]","2","0","","","","","","4","","","","","","","","",""
"","","","","","single-stim-button","45","136156","0.0-2.0-16.0-1.0","5e120e2813064488573bb2a8","E1","batch5","","1336","tol_toboard","","","","tol_peg_2","1336","1336","0","[[2,0,0],[3,0],[1]]","1","[[1,2,0],[3,0],[0]]","2","0","","","","","","4","","","","","","","","",""
"","","","","","single-stim-button","46","136881","0.0-2.0-16.1-0.1","5e120e2813064488573bb2a8","E1","batch5","","723","tol_tohand","","","","tol_peg_1","723","723","0","[[0,0,0],[3,0],[1]]","2","[[1,2,0],[3,0],[0]]","2","0","","","","","","4","","","","","","","","",""
"","","","","","single-stim-button","47","137713","0.0-2.0-16.1-1.1","5e120e2813064488573bb2a8","E1","batch5","","832","tol_toboard","","","","tol_peg_2","832","832","0","[[0,0,0],[3,2],[1]]","2","[[1,2,0],[3,0],[0]]","2","0","","","","","","4","","","","","","","","",""
"","","","","","single-stim-button","48","138586","0.0-2.0-16.2-0.2","5e120e2813064488573bb2a8","E1","batch5","","871","tol_tohand","","","","tol_peg_3","871","871","0","[[0,0,0],[3,2],[0]]","3","[[1,2,0],[3,0],[0]]","2","0","","","","","","4","","","","","","","","",""
"","","","","","single-stim-button","49","139538","0.0-2.0-16.2-1.2","5e120e2813064488573bb2a8","E1","batch5","","952","tol_toboard","","","","tol_peg_1","952","952","0","[[1,0,0],[3,2],[0]]","3","[[1,2,0],[3,0],[0]]","2","0","","","","","","4","","","","","","","","",""
"","","","","","single-stim-button","50","140266","0.0-2.0-16.3-0.3","5e120e2813064488573bb2a8","E1","batch5","","728","tol_tohand","","","","tol_peg_2","728","728","0","[[1,0,0],[3,0],[0]]","4","[[1,2,0],[3,0],[0]]","2","0","","","","","","4","","","","","","","","",""
"","","","","","single-stim-button","51","141111","0.0-2.0-16.3-1.3","5e120e2813064488573bb2a8","E1","batch5","","843","tol_toboard","","","","tol_peg_1","843","843","0","[[1,2,0],[3,0],[0]]","4","[[1,2,0],[3,0],[0]]","2","0","","","","","","4","","","","","","","","",""
"","","","","","poldrack-single-stim","52","142117","0.0-2.0-17.0","5e120e2813064488573bb2a8","E1","batch5","","-1","tol_feedback","","","true","","1000","1000","500","","","","","","-1","none","true","3949","6271","","","","","","","","","",""
"","","","","","html-button-response","53","144432","0.0-2.0-18.0","5e120e2813064488573bb2a8","E1","batch5","","2314","tol_trial_num","<div class = centerbox><p class = center-block-text>problem <strong>4</strong> out of 25 problems</p></div>","0","","","","","","","","","","","","","","","","","","","","","","","","",""
"","","","","","single-stim-button","54","147549","0.0-2.0-19.0-0.0","5e120e2813064488573bb2a8","E1","batch5","","3115","tol_tohand","","","","tol_peg_2","3115","3115","0","[[3,0,0],[2,0],[0]]","1","[[3,0,0],[1,0],[2]]","3","0","","","","","","3","","","","","","","","",""
"","","","","","single-stim-button","55","148533","0.0-2.0-19.0-1.0","5e120e2813064488573bb2a8","E1","batch5","","984","tol_toboard","","","","tol_peg_1","984","984","0","[[3,1,0],[2,0],[0]]","1","[[3,0,0],[1,0],[2]]","3","0","","","","","","3","","","","","","","","",""
"","","","","","single-stim-button","56","149474","0.0-2.0-19.1-0.1","5e120e2813064488573bb2a8","E1","batch5","","939","tol_tohand","","","","tol_peg_2","939","939","0","[[3,1,0],[0,0],[0]]","2","[[3,0,0],[1,0],[2]]","3","0","","","","","","3","","","","","","","","",""
"","","","","","single-stim-button","57","150386","0.0-2.0-19.1-1.1","5e120e2813064488573bb2a8","E1","batch5","","912","tol_toboard","","","","tol_peg_3","912","912","0","[[3,1,0],[0,0],[2]]","2","[[3,0,0],[1,0],[2]]","3","0","","","","","","3","","","","","","","","",""
"","","","","","single-stim-button","58","151195","0.0-2.0-19.2-0.2","5e120e2813064488573bb2a8","E1","batch5","","808","tol_tohand","","","","tol_peg_1","808","808","0","[[3,0,0],[0,0],[2]]","3","[[3,0,0],[1,0],[2]]","3","0","","","","","","3","","","","","","","","",""
"","","","","","single-stim-button","59","151979","0.0-2.0-19.2-1.2","5e120e2813064488573bb2a8","E1","batch5","","784","tol_toboard","","","","tol_peg_2","784","784","0","[[3,0,0],[1,0],[2]]","3","[[3,0,0],[1,0],[2]]","3","0","","","","","","3","","","","","","","","",""
"","","","","","poldrack-single-stim","60","152987","0.0-2.0-20.0","5e120e2813064488573bb2a8","E1","batch5","","-1","tol_feedback","","","true","","1000","1000","500","","","","","","-1","none","true","3115","4862","","","","","","","","","",""
"","","","","","html-button-response","61","153831","0.0-2.0-21.0","5e120e2813064488573bb2a8","E1","batch5","","843.7000007629395","tol_trial_num","<div class = centerbox><p class = center-block-text>problem <strong>5</strong> out of 25 problems</p></div>","0","","","","","","","","","","","","","","","","","","","","","","","","",""
"","","","","","single-stim-button","62","162026","0.0-2.0-22.0-0.0","5e120e2813064488573bb2a8","E1","batch5","","8194","tol_tohand","","","","tol_peg_3","8194","8194","0","[[1,0,0],[2,0],[0]]","1","[[0,0,0],[1,2],[3]]","4","0","","","","","","7","","","","","","","","",""
"","","","","","single-stim-button","63","164875","0.0-2.0-22.0-1.0","5e120e2813064488573bb2a8","E1","batch5","","2848","tol_toboard","","","","tol_peg_1","2848","2848","0","[[1,3,0],[2,0],[0]]","1","[[0,0,0],[1,2],[3]]","4","0","","","","","","7","","","","","","","","",""
"","","","","","single-stim-button","64","165860","0.0-2.0-22.1-0.1","5e120e2813064488573bb2a8","E1","batch5","","984","tol_tohand","","","","tol_peg_2","984","984","0","[[1,3,0],[0,0],[0]]","2","[[0,0,0],[1,2],[3]]","4","0","","","","","","7","","","","","","","","",""
"","","","","","single-stim-button","65","174872","0.0-2.0-22.1-1.1","5e120e2813064488573bb2a8","E1","batch5","","9011","tol_toboard","","","","tol_peg_2","9011","9011","0","[[1,3,0],[2,0],[0]]","2","[[0,0,0],[1,2],[3]]","4","0","","","","","","7","","","","","","","","",""
"","","","","","single-stim-button","66","175552","0.0-2.0-22.2-0.2","5e120e2813064488573bb2a8","E1","batch5","","680","tol_tohand","","","","tol_peg_1","680","680","0","[[1,0,0],[2,0],[0]]","3","[[0,0,0],[1,2],[3]]","4","0","","","","","","7","","","","","","","","",""
"","","","","","single-stim-button","67","176668","0.0-2.0-22.2-1.2","5e120e2813064488573bb2a8","E1","batch5","","1116","tol_toboard","","","","tol_peg_3","1116","1116","0","[[1,0,0],[2,0],[3]]","3","[[0,0,0],[1,2],[3]]","4","0","","","","","","7","","","","","","","","",""
"","","","","","single-stim-button","68","178613","0.0-2.0-22.3-0.3","5e120e2813064488573bb2a8","E1","batch5","","1944","tol_tohand","","","","tol_peg_1","1944","1944","0","[[0,0,0],[2,0],[3]]","4","[[0,0,0],[1,2],[3]]","4","0","","","","","","7","","","","","","","","",""
"","","","","","single-stim-button","69","179557","0.0-2.0-22.3-1.3","5e120e2813064488573bb2a8","E1","batch5","","944","tol_toboard","","","","tol_peg_2","944","944","0","[[0,0,0],[2,1],[3]]","4","[[0,0,0],[1,2],[3]]","4","0","","","","","","7","","","","","","","","",""
"","","","","","single-stim-button","70","180274","0.0-2.0-22.4-0.4","5e120e2813064488573bb2a8","E1","batch5","","715","tol_tohand","","","","tol_peg_3","715","715","0","[[0,0,0],[2,1],[0]]","5","[[0,0,0],[1,2],[3]]","4","0","","","","","","7","","","","","","","","",""
"","","","","","single-stim-button","71","181338","0.0-2.0-22.4-1.4","5e120e2813064488573bb2a8","E1","batch5","","1064","tol_toboard","","","","tol_peg_1","1064","1064","0","[[3,0,0],[2,1],[0]]","5","[[0,0,0],[1,2],[3]]","4","0","","","","","","7","","","","","","","","",""
"","","","","","single-stim-button","72","184771","0.0-2.0-22.5-0.5","5e120e2813064488573bb2a8","E1","batch5","","3433","tol_tohand","","","","tol_peg_2","3433","3433","0","[[3,0,0],[2,0],[0]]","6","[[0,0,0],[1,2],[3]]","4","0","","","","","","7","","","","","","","","",""
"","","","","","single-stim-button","73","186376","0.0-2.0-22.5-1.5","5e120e2813064488573bb2a8","E1","batch5","","1604","tol_toboard","","","","tol_peg_1","1604","1604","0","[[3,1,0],[2,0],[0]]","6","[[0,0,0],[1,2],[3]]","4","0","","","","","","7","","","","","","","","",""
"","","","","","single-stim-button","74","187024","0.0-2.0-22.6-0.6","5e120e2813064488573bb2a8","E1","batch5","","647","tol_tohand","","","","tol_peg_2","647","647","0","[[3,1,0],[0,0],[0]]","7","[[0,0,0],[1,2],[3]]","4","0","","","","","","7","","","","","","","","",""
"","","","","","single-stim-button","75","187905","0.0-2.0-22.6-1.6","5e120e2813064488573bb2a8","E1","batch5","","879","tol_toboard","","","","tol_peg_3","879","879","0","[[3,1,0],[0,0],[2]]","7","[[0,0,0],[1,2],[3]]","4","0","","","","","","7","","","","","","","","",""
"","","","","","single-stim-button","76","188705","0.0-2.0-22.7-0.7","5e120e2813064488573bb2a8","E1","batch5","","800","tol_tohand","","","","tol_peg_1","800","800","0","[[3,0,0],[0,0],[2]]","8","[[0,0,0],[1,2],[3]]","4","0","","","","","","7","","","","","","","","",""
"","","","","","single-stim-button","77","189673","0.0-2.0-22.7-1.7","5e120e2813064488573bb2a8","E1","batch5","","968","tol_toboard","","","","tol_peg_2","968","968","0","[[3,0,0],[1,0],[2]]","8","[[0,0,0],[1,2],[3]]","4","0","","","","","","7","","","","","","","","",""
"","","","","","single-stim-button","78","190326","0.0-2.0-22.8-0.8","5e120e2813064488573bb2a8","E1","batch5","","651","tol_tohand","","","","tol_peg_3","651","651","0","[[3,0,0],[1,0],[0]]","9","[[0,0,0],[1,2],[3]]","4","0","","","","","","7","","","","","","","","",""
"","","","","","single-stim-button","79","191086","0.0-2.0-22.8-1.8","5e120e2813064488573bb2a8","E1","batch5","","760","tol_toboard","","","","tol_peg_2","760","760","0","[[3,0,0],[1,2],[0]]","9","[[0,0,0],[1,2],[3]]","4","0","","","","","","7","","","","","","","","",""
"","","","","","single-stim-button","80","191854","0.0-2.0-22.9-0.9","5e120e2813064488573bb2a8","E1","batch5","","767","tol_tohand","","","","tol_peg_1","767","767","0","[[0,0,0],[1,2],[0]]","10","[[0,0,0],[1,2],[3]]","4","0","","","","","","7","","","","","","","","",""
"","","","","","single-stim-button","81","192830","0.0-2.0-22.9-1.9","5e120e2813064488573bb2a8","E1","batch5","","975","tol_toboard","","","","tol_peg_3","975","975","0","[[0,0,0],[1,2],[3]]","10","[[0,0,0],[1,2],[3]]","4","0","","","","","","7","","","","","","","","",""
"","","","","","poldrack-single-stim","82","193835","0.0-2.0-23.0","5e120e2813064488573bb2a8","E1","batch5","","-1","tol_feedback","","","true","","1000","1000","500","","","","","","-1","none","true","8194","18815","","","","","","","","","",""
"","","","","","html-button-response","83","194771","0.0-2.0-24.0","5e120e2813064488573bb2a8","E1","batch5","","935.7000007629395","tol_trial_num","<div class = centerbox><p class = center-block-text>problem <strong>6</strong> out of 25 problems</p></div>","0","","","","","","","","","","","","","","","","","","","","","","","","",""
"","","","","","single-stim-button","84","209315","0.0-2.0-25.0-0.0","5e120e2813064488573bb2a8","E1","batch5","","14543","tol_tohand","","","","tol_peg_3","14543","14543","0","[[0,0,0],[1,2],[0]]","1","[[1,0,0],[2,3],[0]]","5","0","","","","","","6","","","","","","","","",""
"","","","","","single-stim-button","85","212612","0.0-2.0-25.0-1.0","5e120e2813064488573bb2a8","E1","batch5","","3297","tol_toboard","","","","tol_peg_1","3297","3297","0","[[3,0,0],[1,2],[0]]","1","[[1,0,0],[2,3],[0]]","5","0","","","","","","6","","","","","","","","",""
"","","","","","single-stim-button","86","213408","0.0-2.0-25.1-0.1","5e120e2813064488573bb2a8","E1","batch5","","795","tol_tohand","","","","tol_peg_2","795","795","0","[[3,0,0],[1,0],[0]]","2","[[1,0,0],[2,3],[0]]","5","0","","","","","","6","","","","","","","","",""
"","","","","","single-stim-button","87","214417","0.0-2.0-25.1-1.1","5e120e2813064488573bb2a8","E1","batch5","","1008","tol_toboard","","","","tol_peg_1","1008","1008","0","[[3,2,0],[1,0],[0]]","2","[[1,0,0],[2,3],[0]]","5","0","","","","","","6","","","","","","","","",""
"","","","","","single-stim-button","88","215065","0.0-2.0-25.2-0.2","5e120e2813064488573bb2a8","E1","batch5","","647","tol_tohand","","","","tol_peg_2","647","647","0","[[3,2,0],[0,0],[0]]","3","[[1,0,0],[2,3],[0]]","5","0","","","","","","6","","","","","","","","",""
"","","","","","single-stim-button","89","216269","0.0-2.0-25.2-1.2","5e120e2813064488573bb2a8","E1","batch5","","1202","tol_toboard","","","","tol_peg_3","1202","1202","0","[[3,2,0],[0,0],[1]]","3","[[1,0,0],[2,3],[0]]","5","0","","","","","","6","","","","","","","","",""
"","","","","","single-stim-button","90","216961","0.0-2.0-25.3-0.3","5e120e2813064488573bb2a8","E1","batch5","","692","tol_tohand","","","","tol_peg_1","692","692","0","[[3,0,0],[0,0],[1]]","4","[[1,0,0],[2,3],[0]]","5","0","","","","","","6","","","","","","","","",""
"","","","","","single-stim-button","91","217670","0.0-2.0-25.3-1.3","5e120e2813064488573bb2a8","E1","batch5","","708","tol_toboard","","","","tol_peg_2","708","708","0","[[3,0,0],[2,0],[1]]","4","[[1,0,0],[2,3],[0]]","5","0","","","","","","6","","","","","","","","",""
"","","","","","single-stim-button","92","218334","0.0-2.0-25.4-0.4","5e120e2813064488573bb2a8","E1","batch5","","664","tol_tohand","","","","tol_peg_1","664","664","0","[[0,0,0],[2,0],[1]]","5","[[1,0,0],[2,3],[0]]","5","0","","","","","","6","","","","","","","","",""
"","","","","","single-stim-button","93","219255","0.0-2.0-25.4-1.4","5e120e2813064488573bb2a8","E1","batch5","","920","tol_toboard","","","","tol_peg_2","920","920","0","[[0,0,0],[2,3],[1]]","5","[[1,0,0],[2,3],[0]]","5","0","","","","","","6","","","","","","","","",""
"","","","","","single-stim-button","94","219935","0.0-2.0-25.5-0.5","5e120e2813064488573bb2a8","E1","batch5","","679","tol_tohand","","","","tol_peg_3","679","679","0","[[0,0,0],[2,3],[0]]","6","[[1,0,0],[2,3],[0]]","5","0","","","","","","6","","","","","","","","",""
"","","","","","single-stim-button","95","221288","0.0-2.0-25.5-1.5","5e120e2813064488573bb2a8","E1","batch5","","1352","tol_toboard","","","","tol_peg_1","1352","1352","0","[[1,0,0],[2,3],[0]]","6","[[1,0,0],[2,3],[0]]","5","0","","","","","","6","","","","","","","","",""
"","","","","","poldrack-single-stim","96","222296","0.0-2.0-26.0","5e120e2813064488573bb2a8","E1","batch5","","-1","tol_feedback","","","true","","1000","1000","500","","","","","","-1","none","true","14543","18020","","","","","","","","","",""
"","","","","","html-button-response","97","223309","0.0-2.0-27.0","5e120e2813064488573bb2a8","E1","batch5","","1012.3000011444092","tol_trial_num","<div class = centerbox><p class = center-block-text>problem <strong>7</strong> out of 25 problems</p></div>","0","","","","","","","","","","","","","","","","","","","","","","","","",""
"","","","","","single-stim-button","98","226706","0.0-2.0-28.0-0.0","5e120e2813064488573bb2a8","E1","batch5","","3397","tol_tohand","","","","tol_peg_3","3397","3397","0","[[2,1,0],[0,0],[0]]","1","[[1,2,0],[3,0],[0]]","6","0","","","","","","5","","","","","","","","",""
"","","","","","single-stim-button","99","227722","0.0-2.0-28.0-1.0","5e120e2813064488573bb2a8","E1","batch5","","1015","tol_toboard","","","","tol_peg_2","1015","1015","0","[[2,1,0],[3,0],[0]]","1","[[1,2,0],[3,0],[0]]","6","0","","","","","","5","","","","","","","","",""
"","","","","","single-stim-button","100","229235","0.0-2.0-28.1-0.1","5e120e2813064488573bb2a8","E1","batch5","","1512","tol_tohand","","","","tol_peg_1","1512","1512","0","[[2,0,0],[3,0],[0]]","2","[[1,2,0],[3,0],[0]]","6","0","","","","","","5","","","","","","","","",""
"","","","","","single-stim-button","101","230019","0.0-2.0-28.1-1.1","5e120e2813064488573bb2a8","E1","batch5","","783","tol_toboard","","","","tol_peg_2","783","783","0","[[2,0,0],[3,1],[0]]","2","[[1,2,0],[3,0],[0]]","6","0","","","","","","5","","","","","","","","",""
"","","","","","single-stim-button","102","230732","0.0-2.0-28.2-0.2","5e120e2813064488573bb2a8","E1","batch5","","712","tol_tohand","","","","tol_peg_1","712","712","0","[[0,0,0],[3,1],[0]]","3","[[1,2,0],[3,0],[0]]","6","0","","","","","","5","","","","","","","","",""
"","","","","","single-stim-button","103","231712","0.0-2.0-28.2-1.2","5e120e2813064488573bb2a8","E1","batch5","","979","tol_toboard","","","","tol_peg_3","979","979","0","[[0,0,0],[3,1],[2]]","3","[[1,2,0],[3,0],[0]]","6","0","","","","","","5","","","","","","","","",""
"","","","","","single-stim-button","104","232424","0.0-2.0-28.3-0.3","5e120e2813064488573bb2a8","E1","batch5","","712","tol_tohand","","","","tol_peg_2","712","712","0","[[0,0,0],[3,0],[2]]","4","[[1,2,0],[3,0],[0]]","6","0","","","","","","5","","","","","","","","",""
"","","","","","single-stim-button","105","233233","0.0-2.0-28.3-1.3","5e120e2813064488573bb2a8","E1","batch5","","807","tol_toboard","","","","tol_peg_1","807","807","0","[[1,0,0],[3,0],[2]]","4","[[1,2,0],[3,0],[0]]","6","0","","","","","","5","","","","","","","","",""
"","","","","","single-stim-button","106","233961","0.0-2.0-28.4-0.4","5e120e2813064488573bb2a8","E1","batch5","","728","tol_tohand","","","","tol_peg_3","728","728","0","[[1,0,0],[3,0],[0]]","5","[[1,2,0],[3,0],[0]]","6","0","","","","","","5","","","","","","","","",""
"","","","","","single-stim-button","107","234721","0.0-2.0-28.4-1.4","5e120e2813064488573bb2a8","E1","batch5","","760","tol_toboard","","","","tol_peg_1","760","760","0","[[1,2,0],[3,0],[0]]","5","[[1,2,0],[3,0],[0]]","6","0","","","","","","5","","","","","","","","",""
"","","","","","poldrack-single-stim","108","235725","0.0-2.0-29.0","5e120e2813064488573bb2a8","E1","batch5","","-1","tol_feedback","","","true","","1000","1000","500","","","","","","-1","none","true","3397","7061","","","","","","","","","",""
"","","","","","html-button-response","109","236934","0.0-2.0-30.0","5e120e2813064488573bb2a8","E1","batch5","","1208.1000003814697","tol_trial_num","<div class = centerbox><p class = center-block-text>problem <strong>8</strong> out of 25 problems</p></div>","0","","","","","","","","","","","","","","","","","","","","","","","","",""
"","","","","","single-stim-button","110","239840","0.0-2.0-31.0-0.0","5e120e2813064488573bb2a8","E1","batch5","","2905","tol_tohand","","","","tol_peg_3","2905","2905","0","[[0,0,0],[2,3],[0]]","1","[[1,2,0],[3,0],[0]]","7","0","","","","","","4","","","","","","","","",""
"","","","","","single-stim-button","111","241437","0.0-2.0-31.0-1.0","5e120e2813064488573bb2a8","E1","batch5","","1596","tol_toboard","","","","tol_peg_1","1596","1596","0","[[1,0,0],[2,3],[0]]","1","[[1,2,0],[3,0],[0]]","7","0","","","","","","4","","","","","","","","",""
"","","","","","single-stim-button","112","242397","0.0-2.0-31.1-0.1","5e120e2813064488573bb2a8","E1","batch5","","960","tol_tohand","","","","tol_peg_2","960","960","0","[[1,0,0],[2,0],[0]]","2","[[1,2,0],[3,0],[0]]","7","0","","","","","","4","","","","","","","","",""
"","","","","","single-stim-button","113","243109","0.0-2.0-31.1-1.1","5e120e2813064488573bb2a8","E1","batch5","","711","tol_toboard","","","","tol_peg_3","711","711","0","[[1,0,0],[2,0],[3]]","2","[[1,2,0],[3,0],[0]]","7","0","","","","","","4","","","","","","","","",""
"","","","","","single-stim-button","114","243749","0.0-2.0-31.2-0.2","5e120e2813064488573bb2a8","E1","batch5","","639","tol_tohand","","","","tol_peg_2","639","639","0","[[1,0,0],[0,0],[3]]","3","[[1,2,0],[3,0],[0]]","7","0","","","","","","4","","","","","","","","",""
"","","","","","single-stim-button","115","244486","0.0-2.0-31.2-1.2","5e120e2813064488573bb2a8","E1","batch5","","736","tol_toboard","","","","tol_peg_1","736","736","0","[[1,2,0],[0,0],[3]]","3","[[1,2,0],[3,0],[0]]","7","0","","","","","","4","","","","","","","","",""
"","","","","","single-stim-button","116","245258","0.0-2.0-31.3-0.3","5e120e2813064488573bb2a8","E1","batch5","","772","tol_tohand","","","","tol_peg_3","772","772","0","[[1,2,0],[0,0],[0]]","4","[[1,2,0],[3,0],[0]]","7","0","","","","","","4","","","","","","","","",""
"","","","","","single-stim-button","117","246043","0.0-2.0-31.3-1.3","5e120e2813064488573bb2a8","E1","batch5","","783","tol_toboard","","","","tol_peg_2","783","783","0","[[1,2,0],[3,0],[0]]","4","[[1,2,0],[3,0],[0]]","7","0","","","","","","4","","","","","","","","",""
"","","","","","poldrack-single-stim","118","247051","0.0-2.0-32.0","5e120e2813064488573bb2a8","E1","batch5","","-1","tol_feedback","","","true","","1000","1000","500","","","","","","-1","none","true","2905","5276","","","","","","","","","",""
"","","","","","html-button-response","119","248132","0.0-2.0-33.0","5e120e2813064488573bb2a8","E1","batch5","","1079.8999996185303","tol_trial_num","<div class = centerbox><p class = center-block-text>problem <strong>9</strong> out of 25 problems</p></div>","0","","","","","","","","","","","","","","","","","","","","","","","","",""
"","","","","","single-stim-button","120","252921","0.0-2.0-34.0-0.0","5e120e2813064488573bb2a8","E1","batch5","","4789","tol_tohand","","","","tol_peg_1","4789","4789","0","[[3,0,0],[0,0],[1]]","1","[[2,1,0],[3,0],[0]]","8","0","","","","","","6","","","","","","","","",""
"","","","","","single-stim-button","121","255318","0.0-2.0-34.0-1.0","5e120e2813064488573bb2a8","E1","batch5","","2396","tol_toboard","","","","tol_peg_1","2396","2396","0","[[3,2,0],[0,0],[1]]","1","[[2,1,0],[3,0],[0]]","8","0","","","","","","6","","","","","","","","",""
"","","","","","single-stim-button","122","257499","0.0-2.0-34.1-0.1","5e120e2813064488573bb2a8","E1","batch5","","2180","tol_tohand","","","","tol_peg_3","2180","2180","0","[[3,2,0],[0,0],[0]]","2","[[2,1,0],[3,0],[0]]","8","0","","","","","","6","","","","","","","","",""
"","","","","","single-stim-button","123","259028","0.0-2.0-34.1-1.1","5e120e2813064488573bb2a8","E1","batch5","","1527","tol_toboard","","","","tol_peg_2","1527","1527","0","[[3,2,0],[1,0],[0]]","2","[[2,1,0],[3,0],[0]]","8","0","","","","","","6","","","","","","","","",""
"","","","","","single-stim-button","124","260245","0.0-2.0-34.2-0.2","5e120e2813064488573bb2a8","E1","batch5","","1216","tol_tohand","","","","tol_peg_1","1216","1216","0","[[3,0,0],[1,0],[0]]","3","[[2,1,0],[3,0],[0]]","8","0","","","","","","6","","","","","","","","",""
"","","","","","single-stim-button","125","261325","0.0-2.0-34.2-1.2","5e120e2813064488573bb2a8","E1","batch5","","1078","tol_toboard","","","","tol_peg_2","1078","1078","0","[[3,0,0],[1,2],[0]]","3","[[2,1,0],[3,0],[0]]","8","0","","","","","","6","","","","","","","","",""
"","","","","","single-stim-button","126","262233","0.0-2.0-34.3-0.3","5e120e2813064488573bb2a8","E1","batch5","","908","tol_tohand","","","","tol_peg_1","908","908","0","[[0,0,0],[1,2],[0]]","4","[[2,1,0],[3,0],[0]]","8","0","","","","","","6","","","","","","","","",""
"","","","","","single-stim-button","127","263145","0.0-2.0-34.3-1.3","5e120e2813064488573bb2a8","E1","batch5","","911","tol_toboard","","","","tol_peg_3","911","911","0","[[0,0,0],[1,2],[3]]","4","[[2,1,0],[3,0],[0]]","8","0","","","","","","6","","","","","","","","",""
"","","","","","single-stim-button","128","263946","0.0-2.0-34.4-0.4","5e120e2813064488573bb2a8","E1","batch5","","799","tol_tohand","","","","tol_peg_2","799","799","0","[[0,0,0],[1,0],[3]]","5","[[2,1,0],[3,0],[0]]","8","0","","","","","","6","","","","","","","","",""
"","","","","","single-stim-button","129","265018","0.0-2.0-34.4-1.4","5e120e2813064488573bb2a8","E1","batch5","","1072","tol_toboard","","","","tol_peg_1","1072","1072","0","[[2,0,0],[1,0],[3]]","5","[[2,1,0],[3,0],[0]]","8","0","","","","","","6","","","","","","","","",""
"","","","","","single-stim-button","130","265747","0.0-2.0-34.5-0.5","5e120e2813064488573bb2a8","E1","batch5","","727","tol_tohand","","","","tol_peg_2","727","727","0","[[2,0,0],[0,0],[3]]","6","[[2,1,0],[3,0],[0]]","8","0","","","","","","6","","","","","","","","",""
"","","","","","single-stim-button","131","266599","0.0-2.0-34.5-1.5","5e120e2813064488573bb2a8","E1","batch5","","852","tol_toboard","","","","tol_peg_1","852","852","0","[[2,1,0],[0,0],[3]]","6","[[2,1,0],[3,0],[0]]","8","0","","","","","","6","","","","","","","","",""
"","","","","","single-stim-button","132","267359","0.0-2.0-34.6-0.6","5e120e2813064488573bb2a8","E1","batch5","","760","tol_tohand","","","","tol_peg_3","760","760","0","[[2,1,0],[0,0],[0]]","7","[[2,1,0],[3,0],[0]]","8","0","","","","","","6","","","","","","","","",""
"","","","","","single-stim-button","133","268248","0.0-2.0-34.6-1.6","5e120e2813064488573bb2a8","E1","batch5","","887","tol_toboard","","","","tol_peg_2","887","887","0","[[2,1,0],[3,0],[0]]","7","[[2,1,0],[3,0],[0]]","8","0","","","","","","6","","","","","","","","",""
"","","","","","poldrack-single-stim","134","269257","0.0-2.0-35.0","5e120e2813064488573bb2a8","E1","batch5","","-1","tol_feedback","","","true","","1000","1000","500","","","","","","-1","none","true","4789","11379","","","","","","","","","",""
"","","","","","html-button-response","135","269960","0.0-2.0-36.0","5e120e2813064488573bb2a8","E1","batch5","","702.2999992370605","tol_trial_num","<div class = centerbox><p class = center-block-text>problem <strong>10</strong> out of 25 problems</p></div>","0","","","","","","","","","","","","","","","","","","","","","","","","",""
"","","","","","single-stim-button","136","273574","0.0-2.0-37.0-0.0","5e120e2813064488573bb2a8","E1","batch5","","3613","tol_tohand","","","","tol_peg_2","3613","3613","0","[[3,0,0],[0,0],[2]]","1","[[3,0,0],[2,1],[0]]","9","0","","","","","","3","","","","","","","","",""
"","","","","","single-stim-button","137","274935","0.0-2.0-37.0-1.0","5e120e2813064488573bb2a8","E1","batch5","","1360","tol_toboard","","","","tol_peg_1","1360","1360","0","[[3,1,0],[0,0],[2]]","1","[[3,0,0],[2,1],[0]]","9","0","","","","","","3","","","","","","","","",""
"","","","","","single-stim-button","138","275683","0.0-2.0-37.1-0.1","5e120e2813064488573bb2a8","E1","batch5","","747","tol_tohand","","","","tol_peg_3","747","747","0","[[3,1,0],[0,0],[0]]","2","[[3,0,0],[2,1],[0]]","9","0","","","","","","3","","","","","","","","",""
"","","","","","single-stim-button","139","276700","0.0-2.0-37.1-1.1","5e120e2813064488573bb2a8","E1","batch5","","1015","tol_toboard","","","","tol_peg_2","1015","1015","0","[[3,1,0],[2,0],[0]]","2","[[3,0,0],[2,1],[0]]","9","0","","","","","","3","","","","","","","","",""
"","","","","","single-stim-button","140","277372","0.0-2.0-37.2-0.2","5e120e2813064488573bb2a8","E1","batch5","","672","tol_tohand","","","","tol_peg_1","672","672","0","[[3,0,0],[2,0],[0]]","3","[[3,0,0],[2,1],[0]]","9","0","","","","","","3","","","","","","","","",""
"","","","","","single-stim-button","141","278124","0.0-2.0-37.2-1.2","5e120e2813064488573bb2a8","E1","batch5","","752","tol_toboard","","","","tol_peg_2","752","752","0","[[3,0,0],[2,1],[0]]","3","[[3,0,0],[2,1],[0]]","9","0","","","","","","3","","","","","","","","",""
"","","","","","poldrack-single-stim","142","279134","0.0-2.0-38.0","5e120e2813064488573bb2a8","E1","batch5","","-1","tol_feedback","","","true","","1000","1000","500","","","","","","-1","none","true","3613","5032","","","","","","","","","",""
"","","","","","html-button-response","143","279989","0.0-2.0-39.0","5e120e2813064488573bb2a8","E1","batch5","","853.6000003814697","tol_trial_num","<div class = centerbox><p class = center-block-text>problem <strong>11</strong> out of 25 problems</p></div>","0","","","","","","","","","","","","","","","","","","","","","","","","",""
"","","","","","single-stim-button","144","288857","0.0-2.0-40.0-0.0","5e120e2813064488573bb2a8","E1","batch5","","8866","tol_tohand","","","","tol_peg_1","8866","8866","0","[[1,0,0],[3,0],[0]]","1","[[2,0,0],[1,3],[0]]","10","0","","","","","","6","","","","","","","","",""
"","","","","","single-stim-button","145","290029","0.0-2.0-40.0-1.0","5e120e2813064488573bb2a8","E1","batch5","","1172","tol_toboard","","","","tol_peg_3","1172","1172","0","[[1,0,0],[3,0],[2]]","1","[[2,0,0],[1,3],[0]]","10","0","","","","","","6","","","","","","","","",""
"","","","","","single-stim-button","146","290894","0.0-2.0-40.1-0.1","5e120e2813064488573bb2a8","E1","batch5","","863","tol_tohand","","","","tol_peg_1","863","863","0","[[0,0,0],[3,0],[2]]","2","[[2,0,0],[1,3],[0]]","10","0","","","","","","6","","","","","","","","",""
"","","","","","single-stim-button","147","291822","0.0-2.0-40.1-1.1","5e120e2813064488573bb2a8","E1","batch5","","928","tol_toboard","","","","tol_peg_2","928","928","0","[[0,0,0],[3,1],[2]]","2","[[2,0,0],[1,3],[0]]","10","0","","","","","","6","","","","","","","","",""
"","","","","","single-stim-button","148","292574","0.0-2.0-40.2-0.2","5e120e2813064488573bb2a8","E1","batch5","","752","tol_tohand","","","","tol_peg_3","752","752","0","[[0,0,0],[3,1],[0]]","3","[[2,0,0],[1,3],[0]]","10","0","","","","","","6","","","","","","","","",""
"","","","","","single-stim-button","149","293807","0.0-2.0-40.2-1.2","5e120e2813064488573bb2a8","E1","batch5","","1232","tol_toboard","","","","tol_peg_1","1232","1232","0","[[2,0,0],[3,1],[0]]","3","[[2,0,0],[1,3],[0]]","10","0","","","","","","6","","","","","","","","",""
"","","","","","single-stim-button","150","294563","0.0-2.0-40.3-0.3","5e120e2813064488573bb2a8","E1","batch5","","755","tol_tohand","","","","tol_peg_2","755","755","0","[[2,0,0],[3,0],[0]]","4","[[2,0,0],[1,3],[0]]","10","0","","","","","","6","","","","","","","","",""
"","","","","","single-stim-button","151","295451","0.0-2.0-40.3-1.3","5e120e2813064488573bb2a8","E1","batch5","","887","tol_toboard","","","","tol_peg_3","887","887","0","[[2,0,0],[3,0],[1]]","4","[[2,0,0],[1,3],[0]]","10","0","","","","","","6","","","","","","","","",""
"","","","","","single-stim-button","152","296051","0.0-2.0-40.4-0.4","5e120e2813064488573bb2a8","E1","batch5","","599","tol_tohand","","","","tol_peg_2","599","599","0","[[2,0,0],[0,0],[1]]","5","[[2,0,0],[1,3],[0]]","10","0","","","","","","6","","","","","","","","",""
"","","","","","single-stim-button","153","296724","0.0-2.0-40.4-1.4","5e120e2813064488573bb2a8","E1","batch5","","672","tol_toboard","","","","tol_peg_1","672","672","0","[[2,3,0],[0,0],[1]]","5","[[2,0,0],[1,3],[0]]","10","0","","","","","","6","","","","","","","","",""
"","","","","","single-stim-button","154","297668","0.0-2.0-40.5-0.5","5e120e2813064488573bb2a8","E1","batch5","","944","tol_tohand","","","","tol_peg_3","944","944","0","[[2,3,0],[0,0],[0]]","6","[[2,0,0],[1,3],[0]]","10","0","","","","","","6","","","","","","","","",""
"","","","","","single-stim-button","155","298604","0.0-2.0-40.5-1.5","5e120e2813064488573bb2a8","E1","batch5","","936","tol_toboard","","","","tol_peg_2","936","936","0","[[2,3,0],[1,0],[0]]","6","[[2,0,0],[1,3],[0]]","10","0","","","","","","6","","","","","","","","",""
"","","","","","single-stim-button","156","299273","0.0-2.0-40.6-0.6","5e120e2813064488573bb2a8","E1","batch5","","667","tol_tohand","","","","tol_peg_1","667","667","0","[[2,0,0],[1,0],[0]]","7","[[2,0,0],[1,3],[0]]","10","0","","","","","","6","","","","","","","","",""
"","","","","","single-stim-button","157","300185","0.0-2.0-40.6-1.6","5e120e2813064488573bb2a8","E1","batch5","","911","tol_toboard","","","","tol_peg_2","911","911","0","[[2,0,0],[1,3],[0]]","7","[[2,0,0],[1,3],[0]]","10","0","","","","","","6","","","","","","","","",""
"","","","","","poldrack-single-stim","158","301194","0.0-2.0-41.0","5e120e2813064488573bb2a8","E1","batch5","","-1","tol_feedback","","","true","","1000","1000","500","","","","","","-1","none","true","8866","13446","","","","","","","","","",""
"","","","","","html-button-response","159","302265","0.0-2.0-42.0","5e120e2813064488573bb2a8","E1","batch5","","1071","tol_trial_num","<div class = centerbox><p class = center-block-text>problem <strong>12</strong> out of 25 problems</p></div>","0","","","","","","","","","","","","","","","","","","","","","","","","",""
"","","","","","single-stim-button","160","311536","0.0-2.0-43.0-0.0","5e120e2813064488573bb2a8","E1","batch5","","9270","tol_tohand","","","","tol_peg_1","9270","9270","0","[[1,0,0],[3,0],[0]]","1","[[2,3,0],[0,0],[1]]","11","0","","","","","","4","","","","","","","","",""
"","","","","","single-stim-button","161","312205","0.0-2.0-43.0-1.0","5e120e2813064488573bb2a8","E1","batch5","","667","tol_toboard","","","","tol_peg_2","667","667","0","[[1,0,0],[3,2],[0]]","1","[[2,3,0],[0,0],[1]]","11","0","","","","","","4","","","","","","","","",""
"","","","","","single-stim-button","162","312869","0.0-2.0-43.1-0.1","5e120e2813064488573bb2a8","E1","batch5","","664","tol_tohand","","","","tol_peg_1","664","664","0","[[0,0,0],[3,2],[0]]","2","[[2,3,0],[0,0],[1]]","11","0","","","","","","4","","","","","","","","",""
"","","","","","single-stim-button","163","314038","0.0-2.0-43.1-1.1","5e120e2813064488573bb2a8","E1","batch5","","1168","tol_toboard","","","","tol_peg_3","1168","1168","0","[[0,0,0],[3,2],[1]]","2","[[2,3,0],[0,0],[1]]","11","0","","","","","","4","","","","","","","","",""
"","","","","","single-stim-button","164","314686","0.0-2.0-43.2-0.2","5e120e2813064488573bb2a8","E1","batch5","","648","tol_tohand","","","","tol_peg_2","648","648","0","[[0,0,0],[3,0],[1]]","3","[[2,3,0],[0,0],[1]]","11","0","","","","","","4","","","","","","","","",""
"","","","","","single-stim-button","165","315335","0.0-2.0-43.2-1.2","5e120e2813064488573bb2a8","E1","batch5","","647","tol_toboard","","","","tol_peg_1","647","647","0","[[2,0,0],[3,0],[1]]","3","[[2,3,0],[0,0],[1]]","11","0","","","","","","4","","","","","","","","",""
"","","","","","single-stim-button","166","315998","0.0-2.0-43.3-0.3","5e120e2813064488573bb2a8","E1","batch5","","663","tol_tohand","","","","tol_peg_2","663","663","0","[[2,0,0],[0,0],[1]]","4","[[2,3,0],[0,0],[1]]","11","0","","","","","","4","","","","","","","","",""
"","","","","","single-stim-button","167","316683","0.0-2.0-43.3-1.3","5e120e2813064488573bb2a8","E1","batch5","","684","tol_toboard","","","","tol_peg_1","684","684","0","[[2,3,0],[0,0],[1]]","4","[[2,3,0],[0,0],[1]]","11","0","","","","","","4","","","","","","","","",""
"","","","","","poldrack-single-stim","168","317690","0.0-2.0-44.0","5e120e2813064488573bb2a8","E1","batch5","","-1","tol_feedback","","","true","","1000","1000","500","","","","","","-1","none","true","9270","11245","","","","","","","","","",""
"","","","","","html-button-response","169","318796","0.0-2.0-45.0","5e120e2813064488573bb2a8","E1","batch5","","1104.7999992370605","tol_trial_num","<div class = centerbox><p class = center-block-text>problem <strong>13</strong> out of 25 problems</p></div>","0","","","","","","","","","","","","","","","","","","","","","","","","",""
"","","","","","single-stim-button","170","322953","0.0-2.0-46.0-0.0","5e120e2813064488573bb2a8","E1","batch5","","4156","tol_tohand","","","","tol_peg_2","4156","4156","0","[[1,2,0],[0,0],[0]]","1","[[0,0,0],[2,3],[1]]","12","0","","","","","","4","","","","","","","","",""
"","","","","","single-stim-button","171","323953","0.0-2.0-46.0-1.0","5e120e2813064488573bb2a8","E1","batch5","","1000","tol_toboard","","","","tol_peg_3","1000","1000","0","[[1,2,0],[0,0],[3]]","1","[[0,0,0],[2,3],[1]]","12","0","","","","","","4","","","","","","","","",""
"","","","","","single-stim-button","172","324801","0.0-2.0-46.1-0.1","5e120e2813064488573bb2a8","E1","batch5","","847","tol_tohand","","","","tol_peg_1","847","847","0","[[1,0,0],[0,0],[3]]","2","[[0,0,0],[2,3],[1]]","12","0","","","","","","4","","","","","","","","",""
"","","","","","single-stim-button","173","325494","0.0-2.0-46.1-1.1","5e120e2813064488573bb2a8","E1","batch5","","692","tol_toboard","","","","tol_peg_2","692","692","0","[[1,0,0],[2,0],[3]]","2","[[0,0,0],[2,3],[1]]","12","0","","","","","","4","","","","","","","","",""
"","","","","","single-stim-button","174","326142","0.0-2.0-46.2-0.2","5e120e2813064488573bb2a8","E1","batch5","","648","tol_tohand","","","","tol_peg_3","648","648","0","[[1,0,0],[2,0],[0]]","3","[[0,0,0],[2,3],[1]]","12","0","","","","","","4","","","","","","","","",""
"","","","","","single-stim-button","175","326862","0.0-2.0-46.2-1.2","5e120e2813064488573bb2a8","E1","batch5","","719","tol_toboard","","","","tol_peg_2","719","719","0","[[1,0,0],[2,3],[0]]","3","[[0,0,0],[2,3],[1]]","12","0","","","","","","4","","","","","","","","",""
"","","","","","single-stim-button","176","327607","0.0-2.0-46.3-0.3","5e120e2813064488573bb2a8","E1","batch5","","743","tol_tohand","","","","tol_peg_1","743","743","0","[[0,0,0],[2,3],[0]]","4","[[0,0,0],[2,3],[1]]","12","0","","","","","","4","","","","","","","","",""
"","","","","","single-stim-button","177","328407","0.0-2.0-46.3-1.3","5e120e2813064488573bb2a8","E1","batch5","","800","tol_toboard","","","","tol_peg_3","800","800","0","[[0,0,0],[2,3],[1]]","4","[[0,0,0],[2,3],[1]]","12","0","","","","","","4","","","","","","","","",""
"","","","","","poldrack-single-stim","178","329419","0.0-2.0-47.0","5e120e2813064488573bb2a8","E1","batch5","","-1","tol_feedback","","","true","","1000","1000","500","","","","","","-1","none","true","4156","6394","","","","","","","","","",""
"","","","","","html-button-response","179","331464","0.0-2.0-48.0","5e120e2813064488573bb2a8","E1","batch5","","2044.6000003814697","attention_check","<p class = block-text>How many balls are in your board<br></p>","1","true","","","","","","","","","","","","","","","","","","","","","","","",""
"","","","","","html-button-response","180","332693","0.0-2.0-49.0","5e120e2813064488573bb2a8","E1","batch5","","1227.5","tol_trial_num","<div class = centerbox><p class = center-block-text>problem <strong>14</strong> out of 25 problems</p></div>","0","","","","","","","","","","","","","","","","","","","","","","","","",""
"","","","","","single-stim-button","181","336290","0.0-2.0-50.0-0.0","5e120e2813064488573bb2a8","E1","batch5","","3596","tol_tohand","","","","tol_peg_1","3596","3596","0","[[2,0,0],[3,0],[0]]","1","[[1,2,0],[3,0],[0]]","13","0","","","","","","4","","","","","","","","",""
"","","","","","single-stim-button","182","337874","0.0-2.0-50.0-1.0","5e120e2813064488573bb2a8","E1","batch5","","1584","tol_toboard","","","","tol_peg_3","1584","1584","0","[[2,0,0],[3,0],[1]]","1","[[1,2,0],[3,0],[0]]","13","0","","","","","","4","","","","","","","","",""
"","","","","","single-stim-button","183","338587","0.0-2.0-50.1-0.1","5e120e2813064488573bb2a8","E1","batch5","","711","tol_tohand","","","","tol_peg_1","711","711","0","[[0,0,0],[3,0],[1]]","2","[[1,2,0],[3,0],[0]]","13","0","","","","","","4","","","","","","","","",""
"","","","","","single-stim-button","184","339507","0.0-2.0-50.1-1.1","5e120e2813064488573bb2a8","E1","batch5","","920","tol_toboard","","","","tol_peg_2","920","920","0","[[0,0,0],[3,2],[1]]","2","[[1,2,0],[3,0],[0]]","13","0","","","","","","4","","","","","","","","",""
"","","","","","single-stim-button","185","340275","0.0-2.0-50.2-0.2","5e120e2813064488573bb2a8","E1","batch5","","768","tol_tohand","","","","tol_peg_3","768","768","0","[[0,0,0],[3,2],[0]]","3","[[1,2,0],[3,0],[0]]","13","0","","","","","","4","","","","","","","","",""
"","","","","","single-stim-button","186","341080","0.0-2.0-50.2-1.2","5e120e2813064488573bb2a8","E1","batch5","","804","tol_toboard","","","","tol_peg_1","804","804","0","[[1,0,0],[3,2],[0]]","3","[[1,2,0],[3,0],[0]]","13","0","","","","","","4","","","","","","","","",""
"","","","","","single-stim-button","187","341751","0.0-2.0-50.3-0.3","5e120e2813064488573bb2a8","E1","batch5","","671","tol_tohand","","","","tol_peg_2","671","671","0","[[1,0,0],[3,0],[0]]","4","[[1,2,0],[3,0],[0]]","13","0","","","","","","4","","","","","","","","",""
"","","","","","single-stim-button","188","342465","0.0-2.0-50.3-1.3","5e120e2813064488573bb2a8","E1","batch5","","712","tol_toboard","","","","tol_peg_1","712","712","0","[[1,2,0],[3,0],[0]]","4","[[1,2,0],[3,0],[0]]","13","0","","","","","","4","","","","","","","","",""
"","","","","","poldrack-single-stim","189","343472","0.0-2.0-51.0","5e120e2813064488573bb2a8","E1","batch5","","-1","tol_feedback","","","true","","1000","1000","500","","","","","","-1","none","true","3596","5746","","","","","","","","","",""
"","","","","","html-button-response","190","344265","0.0-2.0-52.0","5e120e2813064488573bb2a8","E1","batch5","","791.7999992370605","tol_trial_num","<div class = centerbox><p class = center-block-text>problem <strong>15</strong> out of 25 problems</p></div>","0","","","","","","","","","","","","","","","","","","","","","","","","",""
"","","","","","single-stim-button","191","347463","0.0-2.0-53.0-0.0","5e120e2813064488573bb2a8","E1","batch5","","3197","tol_tohand","","","","tol_peg_1","3197","3197","0","[[1,0,0],[3,0],[0]]","1","[[2,0,0],[3,0],[1]]","14","0","","","","","","3","","","","","","","","",""
"","","","","","single-stim-button","192","348111","0.0-2.0-53.0-1.0","5e120e2813064488573bb2a8","E1","batch5","","648","tol_toboard","","","","tol_peg_2","648","648","0","[[1,0,0],[3,2],[0]]","1","[[2,0,0],[3,0],[1]]","14","0","","","","","","3","","","","","","","","",""
"","","","","","single-stim-button","193","348777","0.0-2.0-53.1-0.1","5e120e2813064488573bb2a8","E1","batch5","","663","tol_tohand","","","","tol_peg_1","663","663","0","[[0,0,0],[3,2],[0]]","2","[[2,0,0],[3,0],[1]]","14","0","","","","","","3","","","","","","","","",""
"","","","","","single-stim-button","194","349763","0.0-2.0-53.1-1.1","5e120e2813064488573bb2a8","E1","batch5","","985","tol_toboard","","","","tol_peg_3","985","985","0","[[0,0,0],[3,2],[1]]","2","[[2,0,0],[3,0],[1]]","14","0","","","","","","3","","","","","","","","",""
"","","","","","single-stim-button","195","350548","0.0-2.0-53.2-0.2","5e120e2813064488573bb2a8","E1","batch5","","783","tol_tohand","","","","tol_peg_2","783","783","0","[[0,0,0],[3,0],[1]]","3","[[2,0,0],[3,0],[1]]","14","0","","","","","","3","","","","","","","","",""
"","","","","","single-stim-button","196","351436","0.0-2.0-53.2-1.2","5e120e2813064488573bb2a8","E1","batch5","","888","tol_toboard","","","","tol_peg_1","888","888","0","[[2,0,0],[3,0],[1]]","3","[[2,0,0],[3,0],[1]]","14","0","","","","","","3","","","","","","","","",""
"","","","","","poldrack-single-stim","197","352441","0.0-2.0-54.0","5e120e2813064488573bb2a8","E1","batch5","","-1","tol_feedback","","","true","","1000","1000","500","","","","","","-1","none","true","3197","4643","","","","","","","","","",""
"","","","","","html-button-response","198","353456","0.0-2.0-55.0","5e120e2813064488573bb2a8","E1","batch5","","1014.5","tol_trial_num","<div class = centerbox><p class = center-block-text>problem <strong>16</strong> out of 25 problems</p></div>","0","","","","","","","","","","","","","","","","","","","","","","","","",""
"","","","","","single-stim-button","199","361928","0.0-2.0-56.0-0.0","5e120e2813064488573bb2a8","E1","batch5","","8470","tol_tohand","","","","tol_peg_3","8470","8470","0","[[0,0,0],[2,3],[0]]","1","[[2,3,0],[1,0],[0]]","15","0","","","","","","7","","","","","","","","",""
"","","","","","single-stim-button","200","363684","0.0-2.0-56.0-1.0","5e120e2813064488573bb2a8","E1","batch5","","1756","tol_toboard","","","","tol_peg_1","1756","1756","0","[[1,0,0],[2,3],[0]]","1","[[2,3,0],[1,0],[0]]","15","0","","","","","","7","","","","","","","","",""
"","","","","","single-stim-button","201","368462","0.0-2.0-56.1-0.1","5e120e2813064488573bb2a8","E1","batch5","","4776","tol_tohand","","","","tol_peg_2","4776","4776","0","[[1,0,0],[2,0],[0]]","2","[[2,3,0],[1,0],[0]]","15","0","","","","","","7","","","","","","","","",""
"","","","","","single-stim-button","202","370931","0.0-2.0-56.1-1.1","5e120e2813064488573bb2a8","E1","batch5","","2468","tol_toboard","","","","tol_peg_1","2468","2468","0","[[1,3,0],[2,0],[0]]","2","[[2,3,0],[1,0],[0]]","15","0","","","","","","7","","","","","","","","",""
"","","","","","single-stim-button","203","373051","0.0-2.0-56.2-0.2","5e120e2813064488573bb2a8","E1","batch5","","2120","tol_tohand","","","","tol_peg_2","2120","2120","0","[[1,3,0],[0,0],[0]]","3","[[2,3,0],[1,0],[0]]","15","0","","","","","","7","","","","","","","","",""
"","","","","","single-stim-button","204","374232","0.0-2.0-56.2-1.2","5e120e2813064488573bb2a8","E1","batch5","","1180","tol_toboard","","","","tol_peg_3","1180","1180","0","[[1,3,0],[0,0],[2]]","3","[[2,3,0],[1,0],[0]]","15","0","","","","","","7","","","","","","","","",""
"","","","","","single-stim-button","205","376112","0.0-2.0-56.3-0.3","5e120e2813064488573bb2a8","E1","batch5","","1880","tol_tohand","","","","tol_peg_1","1880","1880","0","[[1,0,0],[0,0],[2]]","4","[[2,3,0],[1,0],[0]]","15","0","","","","","","7","","","","","","","","",""
"","","","","","single-stim-button","206","377265","0.0-2.0-56.3-1.3","5e120e2813064488573bb2a8","E1","batch5","","1152","tol_toboard","","","","tol_peg_2","1152","1152","0","[[1,0,0],[3,0],[2]]","4","[[2,3,0],[1,0],[0]]","15","0","","","","","","7","","","","","","","","",""
"","","","","","single-stim-button","207","380014","0.0-2.0-56.4-0.4","5e120e2813064488573bb2a8","E1","batch5","","2747","tol_tohand","","","","tol_peg_1","2747","2747","0","[[0,0,0],[3,0],[2]]","5","[[2,3,0],[1,0],[0]]","15","0","","","","","","7","","","","","","","","",""
"","","","","","single-stim-button","208","380910","0.0-2.0-56.4-1.4","5e120e2813064488573bb2a8","E1","batch5","","896","tol_toboard","","","","tol_peg_2","896","896","0","[[0,0,0],[3,1],[2]]","5","[[2,3,0],[1,0],[0]]","15","0","","","","","","7","","","","","","","","",""
"","","","","","single-stim-button","209","381534","0.0-2.0-56.5-0.5","5e120e2813064488573bb2a8","E1","batch5","","623","tol_tohand","","","","tol_peg_3","623","623","0","[[0,0,0],[3,1],[0]]","6","[[2,3,0],[1,0],[0]]","15","0","","","","","","7","","","","","","","","",""
"","","","","","single-stim-button","210","382475","0.0-2.0-56.5-1.5","5e120e2813064488573bb2a8","E1","batch5","","940","tol_toboard","","","","tol_peg_1","940","940","0","[[2,0,0],[3,1],[0]]","6","[[2,3,0],[1,0],[0]]","15","0","","","","","","7","","","","","","","","",""
"","","","","","single-stim-button","211","383227","0.0-2.0-56.6-0.6","5e120e2813064488573bb2a8","E1","batch5","","752","tol_tohand","","","","tol_peg_2","752","752","0","[[2,0,0],[3,0],[0]]","7","[[2,3,0],[1,0],[0]]","15","0","","","","","","7","","","","","","","","",""
"","","","","","single-stim-button","212","383907","0.0-2.0-56.6-1.6","5e120e2813064488573bb2a8","E1","batch5","","680","tol_toboard","","","","tol_peg_3","680","680","0","[[2,0,0],[3,0],[1]]","7","[[2,3,0],[1,0],[0]]","15","0","","","","","","7","","","","","","","","",""
"","","","","","single-stim-button","213","384500","0.0-2.0-56.7-0.7","5e120e2813064488573bb2a8","E1","batch5","","591","tol_tohand","","","","tol_peg_2","591","591","0","[[2,0,0],[0,0],[1]]","8","[[2,3,0],[1,0],[0]]","15","0","","","","","","7","","","","","","","","",""
"","","","","","single-stim-button","214","385180","0.0-2.0-56.7-1.7","5e120e2813064488573bb2a8","E1","batch5","","680","tol_toboard","","","","tol_peg_1","680","680","0","[[2,3,0],[0,0],[1]]","8","[[2,3,0],[1,0],[0]]","15","0","","","","","","7","","","","","","","","",""
"","","","","","single-stim-button","215","386044","0.0-2.0-56.8-0.8","5e120e2813064488573bb2a8","E1","batch5","","864","tol_tohand","","","","tol_peg_3","864","864","0","[[2,3,0],[0,0],[0]]","9","[[2,3,0],[1,0],[0]]","15","0","","","","","","7","","","","","","","","",""
"","","","","","single-stim-button","216","386868","0.0-2.0-56.8-1.8","5e120e2813064488573bb2a8","E1","batch5","","823","tol_toboard","","","","tol_peg_2","823","823","0","[[2,3,0],[1,0],[0]]","9","[[2,3,0],[1,0],[0]]","15","0","","","","","","7","","","","","","","","",""
"","","","","","poldrack-single-stim","217","387873","0.0-2.0-57.0","5e120e2813064488573bb2a8","E1","batch5","","-1","tol_feedback","","","true","","1000","1000","500","","","","","","-1","none","true","8470","22823","","","","","","","","","",""
"","","","","","html-button-response","218","389177","0.0-2.0-58.0","5e120e2813064488573bb2a8","E1","batch5","","1303.6000003814697","tol_trial_num","<div class = centerbox><p class = center-block-text>problem <strong>17</strong> out of 25 problems</p></div>","0","","","","","","","","","","","","","","","","","","","","","","","","",""
"","","","","","single-stim-button","219","393375","0.0-2.0-59.0-0.0","5e120e2813064488573bb2a8","E1","batch5","","4197","tol_tohand","","","","tol_peg_1","4197","4197","0","[[1,0,0],[3,0],[0]]","1","[[3,1,0],[2,0],[0]]","16","0","","","","","","5","","","","","","","","",""
"","","","","","single-stim-button","220","394880","0.0-2.0-59.0-1.0","5e120e2813064488573bb2a8","E1","batch5","","1503","tol_toboard","","","","tol_peg_2","1503","1503","0","[[1,0,0],[3,2],[0]]","1","[[3,1,0],[2,0],[0]]","16","0","","","","","","5","","","","","","","","",""
"","","","","","single-stim-button","221","400006","0.0-2.0-59.1-0.1","5e120e2813064488573bb2a8","E1","batch5","","5126","tol_tohand","","","","tol_peg_2","5126","5126","0","[[1,0,0],[3,0],[0]]","2","[[3,1,0],[2,0],[0]]","16","0","","","","","","5","","","","","","","","",""
"","","","","","single-stim-button","222","400902","0.0-2.0-59.1-1.1","5e120e2813064488573bb2a8","E1","batch5","","896","tol_toboard","","","","tol_peg_1","896","896","0","[[1,2,0],[3,0],[0]]","2","[[3,1,0],[2,0],[0]]","16","0","","","","","","5","","","","","","","","",""
"","","","","","single-stim-button","223","401570","0.0-2.0-59.2-0.2","5e120e2813064488573bb2a8","E1","batch5","","668","tol_tohand","","","","tol_peg_2","668","668","0","[[1,2,0],[0,0],[0]]","3","[[3,1,0],[2,0],[0]]","16","0","","","","","","5","","","","","","","","",""
"","","","","","single-stim-button","224","402490","0.0-2.0-59.2-1.2","5e120e2813064488573bb2a8","E1","batch5","","919","tol_toboard","","","","tol_peg_3","919","919","0","[[1,2,0],[0,0],[3]]","3","[[3,1,0],[2,0],[0]]","16","0","","","","","","5","","","","","","","","",""
"","","","","","single-stim-button","225","403387","0.0-2.0-59.3-0.3","5e120e2813064488573bb2a8","E1","batch5","","896","tol_tohand","","","","tol_peg_1","896","896","0","[[1,0,0],[0,0],[3]]","4","[[3,1,0],[2,0],[0]]","16","0","","","","","","5","","","","","","","","",""
"","","","","","single-stim-button","226","404532","0.0-2.0-59.3-1.3","5e120e2813064488573bb2a8","E1","batch5","","1143","tol_toboard","","","","tol_peg_2","1143","1143","0","[[1,0,0],[2,0],[3]]","4","[[3,1,0],[2,0],[0]]","16","0","","","","","","5","","","","","","","","",""
"","","","","","single-stim-button","227","405172","0.0-2.0-59.4-0.4","5e120e2813064488573bb2a8","E1","batch5","","640","tol_tohand","","","","tol_peg_1","640","640","0","[[0,0,0],[2,0],[3]]","5","[[3,1,0],[2,0],[0]]","16","0","","","","","","5","","","","","","","","",""
"","","","","","single-stim-button","228","406008","0.0-2.0-59.4-1.4","5e120e2813064488573bb2a8","E1","batch5","","836","tol_toboard","","","","tol_peg_2","836","836","0","[[0,0,0],[2,1],[3]]","5","[[3,1,0],[2,0],[0]]","16","0","","","","","","5","","","","","","","","",""
"","","","","","single-stim-button","229","406697","0.0-2.0-59.5-0.5","5e120e2813064488573bb2a8","E1","batch5","","687","tol_tohand","","","","tol_peg_3","687","687","0","[[0,0,0],[2,1],[0]]","6","[[3,1,0],[2,0],[0]]","16","0","","","","","","5","","","","","","","","",""
"","","","","","single-stim-button","230","407665","0.0-2.0-59.5-1.5","5e120e2813064488573bb2a8","E1","batch5","","968","tol_toboard","","","","tol_peg_1","968","968","0","[[3,0,0],[2,1],[0]]","6","[[3,1,0],[2,0],[0]]","16","0","","","","","","5","","","","","","","","",""
"","","","","","single-stim-button","231","408417","0.0-2.0-59.6-0.6","5e120e2813064488573bb2a8","E1","batch5","","751","tol_tohand","","","","tol_peg_2","751","751","0","[[3,0,0],[2,0],[0]]","7","[[3,1,0],[2,0],[0]]","16","0","","","","","","5","","","","","","","","",""
"","","","","","single-stim-button","232","409274","0.0-2.0-59.6-1.6","5e120e2813064488573bb2a8","E1","batch5","","856","tol_toboard","","","","tol_peg_1","856","856","0","[[3,1,0],[2,0],[0]]","7","[[3,1,0],[2,0],[0]]","16","0","","","","","","5","","","","","","","","",""
"","","","","","poldrack-single-stim","233","410285","0.0-2.0-60.0","5e120e2813064488573bb2a8","E1","batch5","","-1","tol_feedback","","","true","","1000","1000","500","","","","","","-1","none","true","4197","12965","","","","","","","","","",""
"","","","","","html-button-response","234","411311","0.0-2.0-61.0","5e120e2813064488573bb2a8","E1","batch5","","1024.7000007629395","tol_trial_num","<div class = centerbox><p class = center-block-text>problem <strong>18</strong> out of 25 problems</p></div>","0","","","","","","","","","","","","","","","","","","","","","","","","",""
"","","","","","single-stim-button","235","414300","0.0-2.0-62.0-0.0","5e120e2813064488573bb2a8","E1","batch5","","2989","tol_tohand","","","","tol_peg_1","2989","2989","0","[[1,0,0],[3,0],[0]]","1","[[3,0,0],[2,0],[1]]","17","0","","","","","","5","","","","","","","","",""
"","","","","","single-stim-button","236","415221","0.0-2.0-62.0-1.0","5e120e2813064488573bb2a8","E1","batch5","","920","tol_toboard","","","","tol_peg_2","920","920","0","[[1,0,0],[3,2],[0]]","1","[[3,0,0],[2,0],[1]]","17","0","","","","","","5","","","","","","","","",""
"","","","","","single-stim-button","237","416813","0.0-2.0-62.1-0.1","5e120e2813064488573bb2a8","E1","batch5","","1592","tol_tohand","","","","tol_peg_1","1592","1592","0","[[0,0,0],[3,2],[0]]","2","[[3,0,0],[2,0],[1]]","17","0","","","","","","5","","","","","","","","",""
"","","","","","single-stim-button","238","418743","0.0-2.0-62.1-1.1","5e120e2813064488573bb2a8","E1","batch5","","1928","tol_toboard","","","","tol_peg_1","1928","1928","0","[[1,0,0],[3,2],[0]]","2","[[3,0,0],[2,0],[1]]","17","0","","","","","","5","","","","","","","","",""
"","","","","","single-stim-button","239","419739","0.0-2.0-62.2-0.2","5e120e2813064488573bb2a8","E1","batch5","","996","tol_tohand","","","","tol_peg_2","996","996","0","[[1,0,0],[3,0],[0]]","3","[[3,0,0],[2,0],[1]]","17","0","","","","","","5","","","","","","","","",""
"","","","","","single-stim-button","240","420500","0.0-2.0-62.2-1.2","5e120e2813064488573bb2a8","E1","batch5","","760","tol_toboard","","","","tol_peg_3","760","760","0","[[1,0,0],[3,0],[2]]","3","[[3,0,0],[2,0],[1]]","17","0","","","","","","5","","","","","","","","",""
"","","","","","single-stim-button","241","425157","0.0-2.0-62.3-0.3","5e120e2813064488573bb2a8","E1","batch5","","4656","tol_tohand","","","","tol_peg_1","4656","4656","0","[[0,0,0],[3,0],[2]]","4","[[3,0,0],[2,0],[1]]","17","0","","","","","","5","","","","","","","","",""
"","","","","","single-stim-button","242","426321","0.0-2.0-62.3-1.3","5e120e2813064488573bb2a8","E1","batch5","","1164","tol_toboard","","","","tol_peg_2","1164","1164","0","[[0,0,0],[3,1],[2]]","4","[[3,0,0],[2,0],[1]]","17","0","","","","","","5","","","","","","","","",""
"","","","","","single-stim-button","243","426921","0.0-2.0-62.4-0.4","5e120e2813064488573bb2a8","E1","batch5","","599","tol_tohand","","","","tol_peg_3","599","599","0","[[0,0,0],[3,1],[0]]","5","[[3,0,0],[2,0],[1]]","17","0","","","","","","5","","","","","","","","",""
"","","","","","single-stim-button","244","427674","0.0-2.0-62.4-1.4","5e120e2813064488573bb2a8","E1","batch5","","751","tol_toboard","","","","tol_peg_1","751","751","0","[[2,0,0],[3,1],[0]]","5","[[3,0,0],[2,0],[1]]","17","0","","","","","","5","","","","","","","","",""
"","","","","","single-stim-button","245","428674","0.0-2.0-62.5-0.5","5e120e2813064488573bb2a8","E1","batch5","","1000","tol_tohand","","","","tol_peg_2","1000","1000","0","[[2,0,0],[3,0],[0]]","6","[[3,0,0],[2,0],[1]]","17","0","","","","","","5","","","","","","","","",""
"","","","","","single-stim-button","246","431699","0.0-2.0-62.5-1.5","5e120e2813064488573bb2a8","E1","batch5","","3025","tol_toboard","","","","tol_peg_3","3025","3025","0","[[2,0,0],[3,0],[1]]","6","[[3,0,0],[2,0],[1]]","17","0","","","","","","5","","","","","","","","",""
"","","","","","single-stim-button","247","436957","0.0-2.0-62.6-0.6","5e120e2813064488573bb2a8","E1","batch5","","5257","tol_tohand","","","","tol_peg_2","5257","5257","0","[[2,0,0],[0,0],[1]]","7","[[3,0,0],[2,0],[1]]","17","0","","","","","","5","","","","","","","","",""
"","","","","","single-stim-button","248","437661","0.0-2.0-62.6-1.6","5e120e2813064488573bb2a8","E1","batch5","","703","tol_toboard","","","","tol_peg_1","703","703","0","[[2,3,0],[0,0],[1]]","7","[[3,0,0],[2,0],[1]]","17","0","","","","","","5","","","","","","","","",""
"","","","","","single-stim-button","249","441277","0.0-2.0-62.7-0.7","5e120e2813064488573bb2a8","E1","batch5","","3616","tol_tohand","","","","tol_peg_3","3616","3616","0","[[2,3,0],[0,0],[0]]","8","[[3,0,0],[2,0],[1]]","17","0","","","","","","5","","","","","","","","",""
"","","","","","single-stim-button","250","442042","0.0-2.0-62.7-1.7","5e120e2813064488573bb2a8","E1","batch5","","763","tol_toboard","","","","tol_peg_2","763","763","0","[[2,3,0],[1,0],[0]]","8","[[3,0,0],[2,0],[1]]","17","0","","","","","","5","","","","","","","","",""
"","","","","","single-stim-button","251","442722","0.0-2.0-62.8-0.8","5e120e2813064488573bb2a8","E1","batch5","","680","tol_tohand","","","","tol_peg_1","680","680","0","[[2,0,0],[1,0],[0]]","9","[[3,0,0],[2,0],[1]]","17","0","","","","","","5","","","","","","","","",""
"","","","","","single-stim-button","252","443370","0.0-2.0-62.8-1.8","5e120e2813064488573bb2a8","E1","batch5","","647","tol_toboard","","","","tol_peg_2","647","647","0","[[2,0,0],[1,3],[0]]","9","[[3,0,0],[2,0],[1]]","17","0","","","","","","5","","","","","","","","",""
"","","","","","single-stim-button","253","444138","0.0-2.0-62.9-0.9","5e120e2813064488573bb2a8","E1","batch5","","767","tol_tohand","","","","tol_peg_1","767","767","0","[[0,0,0],[1,3],[0]]","10","[[3,0,0],[2,0],[1]]","17","0","","","","","","5","","","","","","","","",""
"","","","","","single-stim-button","254","445267","0.0-2.0-62.9-1.9","5e120e2813064488573bb2a8","E1","batch5","","1128","tol_toboard","","","","tol_peg_3","1128","1128","0","[[0,0,0],[1,3],[2]]","10","[[3,0,0],[2,0],[1]]","17","0","","","","","","5","","","","","","","","",""
"","","","","","single-stim-button","255","446199","0.0-2.0-62.10-0.10","5e120e2813064488573bb2a8","E1","batch5","","932","tol_tohand","","","","tol_peg_2","932","932","0","[[0,0,0],[1,0],[2]]","11","[[3,0,0],[2,0],[1]]","17","0","","","","","","5","","","","","","","","",""
"","","","","","single-stim-button","256","446943","0.0-2.0-62.10-1.10","5e120e2813064488573bb2a8","E1","batch5","","744","tol_toboard","","","","tol_peg_1","744","744","0","[[3,0,0],[1,0],[2]]","11","[[3,0,0],[2,0],[1]]","17","0","","","","","","5","","","","","","","","",""
"","","","","","single-stim-button","257","447648","0.0-2.0-62.11-0.11","5e120e2813064488573bb2a8","E1","batch5","","703","tol_tohand","","","","tol_peg_3","703","703","0","[[3,0,0],[1,0],[0]]","12","[[3,0,0],[2,0],[1]]","17","0","","","","","","5","","","","","","","","",""
"","","","","","single-stim-button","258","448632","0.0-2.0-62.11-1.11","5e120e2813064488573bb2a8","E1","batch5","","984","tol_toboard","","","","tol_peg_1","984","984","0","[[3,2,0],[1,0],[0]]","12","[[3,0,0],[2,0],[1]]","17","0","","","","","","5","","","","","","","","",""
"","","","","","single-stim-button","259","449296","0.0-2.0-62.12-0.12","5e120e2813064488573bb2a8","E1","batch5","","664","tol_tohand","","","","tol_peg_2","664","664","0","[[3,2,0],[0,0],[0]]","13","[[3,0,0],[2,0],[1]]","17","0","","","","","","5","","","","","","","","",""
"","","","","","single-stim-button","260","450200","0.0-2.0-62.12-1.12","5e120e2813064488573bb2a8","E1","batch5","","904","tol_toboard","","","","tol_peg_3","904","904","0","[[3,2,0],[0,0],[1]]","13","[[3,0,0],[2,0],[1]]","17","0","","","","","","5","","","","","","","","",""
"","","","","","single-stim-button","261","450989","0.0-2.0-62.13-0.13","5e120e2813064488573bb2a8","E1","batch5","","788","tol_tohand","","","","tol_peg_1","788","788","0","[[3,0,0],[0,0],[1]]","14","[[3,0,0],[2,0],[1]]","17","0","","","","","","5","","","","","","","","",""
"","","","","","single-stim-button","262","451709","0.0-2.0-62.13-1.13","5e120e2813064488573bb2a8","E1","batch5","","719","tol_toboard","","","","tol_peg_2","719","719","0","[[3,0,0],[2,0],[1]]","14","[[3,0,0],[2,0],[1]]","17","0","","","","","","5","","","","","","","","",""
"","","","","","poldrack-single-stim","263","452718","0.0-2.0-63.0","5e120e2813064488573bb2a8","E1","batch5","","-1","tol_feedback","","","true","","1000","1000","500","","","","","","-1","none","true","2989","25239","","","","","","","","","",""
"","","","","","html-button-response","264","453686","0.0-2.0-64.0","5e120e2813064488573bb2a8","E1","batch5","","966.4000015258789","tol_trial_num","<div class = centerbox><p class = center-block-text>problem <strong>19</strong> out of 25 problems</p></div>","0","","","","","","","","","","","","","","","","","","","","","","","","",""
"","","","","","single-stim-button","265","456419","0.0-2.0-65.0-0.0","5e120e2813064488573bb2a8","E1","batch5","","2733","tol_tohand","","","","tol_peg_2","2733","2733","0","[[1,2,0],[0,0],[0]]","1","[[0,0,0],[1,2],[3]]","18","0","","","","","","7","","","","","","","","",""
"","","","","","single-stim-button","266","457860","0.0-2.0-65.0-1.0","5e120e2813064488573bb2a8","E1","batch5","","1440","tol_toboard","","","","tol_peg_2","1440","1440","0","[[1,2,0],[3,0],[0]]","1","[[0,0,0],[1,2],[3]]","18","0","","","","","","7","","","","","","","","",""
"","","","","","single-stim-button","267","458628","0.0-2.0-65.1-0.1","5e120e2813064488573bb2a8","E1","batch5","","768","tol_tohand","","","","tol_peg_1","768","768","0","[[1,0,0],[3,0],[0]]","2","[[0,0,0],[1,2],[3]]","18","0","","","","","","7","","","","","","","","",""
"","","","","","single-stim-button","268","459705","0.0-2.0-65.1-1.1","5e120e2813064488573bb2a8","E1","batch5","","1075","tol_toboard","","","","tol_peg_3","1075","1075","0","[[1,0,0],[3,0],[2]]","2","[[0,0,0],[1,2],[3]]","18","0","","","","","","7","","","","","","","","",""
"","","","","","single-stim-button","269","461825","0.0-2.0-65.2-0.2","5e120e2813064488573bb2a8","E1","batch5","","2120","tol_tohand","","","","tol_peg_1","2120","2120","0","[[0,0,0],[3,0],[2]]","3","[[0,0,0],[1,2],[3]]","18","0","","","","","","7","","","","","","","","",""
"","","","","","single-stim-button","270","462786","0.0-2.0-65.2-1.2","5e120e2813064488573bb2a8","E1","batch5","","960","tol_toboard","","","","tol_peg_2","960","960","0","[[0,0,0],[3,1],[2]]","3","[[0,0,0],[1,2],[3]]","18","0","","","","","","7","","","","","","","","",""
"","","","","","single-stim-button","271","464551","0.0-2.0-65.3-0.3","5e120e2813064488573bb2a8","E1","batch5","","1763","tol_tohand","","","","tol_peg_3","1763","1763","0","[[0,0,0],[3,1],[0]]","4","[[0,0,0],[1,2],[3]]","18","0","","","","","","7","","","","","","","","",""
"","","","","","single-stim-button","272","465735","0.0-2.0-65.3-1.3","5e120e2813064488573bb2a8","E1","batch5","","1184","tol_toboard","","","","tol_peg_1","1184","1184","0","[[2,0,0],[3,1],[0]]","4","[[0,0,0],[1,2],[3]]","18","0","","","","","","7","","","","","","","","",""
"","","","","","single-stim-button","273","466592","0.0-2.0-65.4-0.4","5e120e2813064488573bb2a8","E1","batch5","","855","tol_tohand","","","","tol_peg_2","855","855","0","[[2,0,0],[3,0],[0]]","5","[[0,0,0],[1,2],[3]]","18","0","","","","","","7","","","","","","","","",""
"","","","","","single-stim-button","274","468001","0.0-2.0-65.4-1.4","5e120e2813064488573bb2a8","E1","batch5","","1409","tol_toboard","","","","tol_peg_1","1409","1409","0","[[2,1,0],[3,0],[0]]","5","[[0,0,0],[1,2],[3]]","18","0","","","","","","7","","","","","","","","",""
"","","","","","single-stim-button","275","468757","0.0-2.0-65.5-0.5","5e120e2813064488573bb2a8","E1","batch5","","756","tol_tohand","","","","tol_peg_2","756","756","0","[[2,1,0],[0,0],[0]]","6","[[0,0,0],[1,2],[3]]","18","0","","","","","","7","","","","","","","","",""
"","","","","","single-stim-button","276","469518","0.0-2.0-65.5-1.5","5e120e2813064488573bb2a8","E1","batch5","","759","tol_toboard","","","","tol_peg_3","759","759","0","[[2,1,0],[0,0],[3]]","6","[[0,0,0],[1,2],[3]]","18","0","","","","","","7","","","","","","","","",""
"","","","","","single-stim-button","277","470318","0.0-2.0-65.6-0.6","5e120e2813064488573bb2a8","E1","batch5","","800","tol_tohand","","","","tol_peg_1","800","800","0","[[2,0,0],[0,0],[3]]","7","[[0,0,0],[1,2],[3]]","18","0","","","","","","7","","","","","","","","",""
"","","","","","single-stim-button","278","471094","0.0-2.0-65.6-1.6","5e120e2813064488573bb2a8","E1","batch5","","776","tol_toboard","","","","tol_peg_2","776","776","0","[[2,0,0],[1,0],[3]]","7","[[0,0,0],[1,2],[3]]","18","0","","","","","","7","","","","","","","","",""
"","","","","","single-stim-button","279","471783","0.0-2.0-65.7-0.7","5e120e2813064488573bb2a8","E1","batch5","","688","tol_tohand","","","","tol_peg_1","688","688","0","[[0,0,0],[1,0],[3]]","8","[[0,0,0],[1,2],[3]]","18","0","","","","","","7","","","","","","","","",""
"","","","","","single-stim-button","280","472591","0.0-2.0-65.7-1.7","5e120e2813064488573bb2a8","E1","batch5","","808","tol_toboard","","","","tol_peg_2","808","808","0","[[0,0,0],[1,2],[3]]","8","[[0,0,0],[1,2],[3]]","18","0","","","","","","7","","","","","","","","",""
"","","","","","poldrack-single-stim","281","473600","0.0-2.0-66.0","5e120e2813064488573bb2a8","E1","batch5","","-1","tol_feedback","","","true","","1000","1000","500","","","","","","-1","none","true","2733","10483","","","","","","","","","",""
"","","","","","html-button-response","282","475698","0.0-2.0-67.0","5e120e2813064488573bb2a8","E1","batch5","","2097.6000003814697","tol_trial_num","<div class = centerbox><p class = center-block-text>problem <strong>20</strong> out of 25 problems</p></div>","0","","","","","","","","","","","","","","","","","","","","","","","","",""
"","","","","","single-stim-button","283","480425","0.0-2.0-68.0-0.0","5e120e2813064488573bb2a8","E1","batch5","","4726","tol_tohand","","","","tol_peg_1","4726","4726","0","[[1,0,0],[3,0],[0]]","1","[[2,1,0],[0,0],[3]]","19","0","","","","","","5","","","","","","","","",""
"","","","","","single-stim-button","284","481225","0.0-2.0-68.0-1.0","5e120e2813064488573bb2a8","E1","batch5","","799","tol_toboard","","","","tol_peg_2","799","799","0","[[1,0,0],[3,2],[0]]","1","[[2,1,0],[0,0],[3]]","19","0","","","","","","5","","","","","","","","",""
"","","","","","single-stim-button","285","482058","0.0-2.0-68.1-0.1","5e120e2813064488573bb2a8","E1","batch5","","832","tol_tohand","","","","tol_peg_1","832","832","0","[[0,0,0],[3,2],[0]]","2","[[2,1,0],[0,0],[3]]","19","0","","","","","","5","","","","","","","","",""
"","","","","","single-stim-button","286","482996","0.0-2.0-68.1-1.1","5e120e2813064488573bb2a8","E1","batch5","","938","tol_toboard","","","","tol_peg_3","938","938","0","[[0,0,0],[3,2],[1]]","2","[[2,1,0],[0,0],[3]]","19","0","","","","","","5","","","","","","","","",""
"","","","","","single-stim-button","287","483662","0.0-2.0-68.2-0.2","5e120e2813064488573bb2a8","E1","batch5","","665","tol_tohand","","","","tol_peg_2","665","665","0","[[0,0,0],[3,0],[1]]","3","[[2,1,0],[0,0],[3]]","19","0","","","","","","5","","","","","","","","",""
"","","","","","single-stim-button","288","484607","0.0-2.0-68.2-1.2","5e120e2813064488573bb2a8","E1","batch5","","943","tol_toboard","","","","tol_peg_1","943","943","0","[[2,0,0],[3,0],[1]]","3","[[2,1,0],[0,0],[3]]","19","0","","","","","","5","","","","","","","","",""
"","","","","","single-stim-button","289","485511","0.0-2.0-68.3-0.3","5e120e2813064488573bb2a8","E1","batch5","","904","tol_tohand","","","","tol_peg_3","904","904","0","[[2,0,0],[3,0],[0]]","4","[[2,1,0],[0,0],[3]]","19","0","","","","","","5","","","","","","","","",""
"","","","","","single-stim-button","290","486464","0.0-2.0-68.3-1.3","5e120e2813064488573bb2a8","E1","batch5","","951","tol_toboard","","","","tol_peg_1","951","951","0","[[2,1,0],[3,0],[0]]","4","[[2,1,0],[0,0],[3]]","19","0","","","","","","5","","","","","","","","",""
"","","","","","single-stim-button","291","487988","0.0-2.0-68.4-0.4","5e120e2813064488573bb2a8","E1","batch5","","1524","tol_tohand","","","","tol_peg_2","1524","1524","0","[[2,1,0],[0,0],[0]]","5","[[2,1,0],[0,0],[3]]","19","0","","","","","","5","","","","","","","","",""
"","","","","","single-stim-button","292","488917","0.0-2.0-68.4-1.4","5e120e2813064488573bb2a8","E1","batch5","","928","tol_toboard","","","","tol_peg_3","928","928","0","[[2,1,0],[0,0],[3]]","5","[[2,1,0],[0,0],[3]]","19","0","","","","","","5","","","","","","","","",""
"","","","","","poldrack-single-stim","293","489926","0.0-2.0-69.0","5e120e2813064488573bb2a8","E1","batch5","","-1","tol_feedback","","","true","","1000","1000","500","","","","","","-1","none","true","4726","8651","","","","","","","","","",""
"","","","","","html-button-response","294","491686","0.0-2.0-70.0","5e120e2813064488573bb2a8","E1","batch5","","1758.8999996185303","tol_trial_num","<div class = centerbox><p class = center-block-text>problem <strong>21</strong> out of 25 problems</p></div>","0","","","","","","","","","","","","","","","","","","","","","","","","",""
"","","","","","single-stim-button","295","496856","0.0-2.0-71.0-0.0","5e120e2813064488573bb2a8","E1","batch5","","5169","tol_tohand","","","","tol_peg_1","5169","5169","0","[[1,0,0],[3,0],[0]]","1","[[3,2,0],[0,0],[1]]","20","0","","","","","","6","","","","","","","","",""
"","","","","","single-stim-button","296","503272","0.0-2.0-71.0-1.0","5e120e2813064488573bb2a8","E1","batch5","","6415","tol_toboard","","","","tol_peg_3","6415","6415","0","[[1,0,0],[3,0],[2]]","1","[[3,2,0],[0,0],[1]]","20","0","","","","","","6","","","","","","","","",""
"","","","","","single-stim-button","297","507021","0.0-2.0-71.1-0.1","5e120e2813064488573bb2a8","E1","batch5","","3749","tol_tohand","","","","tol_peg_2","3749","3749","0","[[1,0,0],[0,0],[2]]","2","[[3,2,0],[0,0],[1]]","20","0","","","","","","6","","","","","","","","",""
"","","","","","single-stim-button","298","507742","0.0-2.0-71.1-1.1","5e120e2813064488573bb2a8","E1","batch5","","719","tol_toboard","","","","tol_peg_1","719","719","0","[[1,3,0],[0,0],[2]]","2","[[3,2,0],[0,0],[1]]","20","0","","","","","","6","","","","","","","","",""
"","","","","","single-stim-button","299","508446","0.0-2.0-71.2-0.2","5e120e2813064488573bb2a8","E1","batch5","","704","tol_tohand","","","","tol_peg_3","704","704","0","[[1,3,0],[0,0],[0]]","3","[[3,2,0],[0,0],[1]]","20","0","","","","","","6","","","","","","","","",""
"","","","","","single-stim-button","300","509290","0.0-2.0-71.2-1.2","5e120e2813064488573bb2a8","E1","batch5","","844","tol_toboard","","","","tol_peg_2","844","844","0","[[1,3,0],[2,0],[0]]","3","[[3,2,0],[0,0],[1]]","20","0","","","","","","6","","","","","","","","",""
"","","","","","single-stim-button","301","510098","0.0-2.0-71.3-0.3","5e120e2813064488573bb2a8","E1","batch5","","807","tol_tohand","","","","tol_peg_1","807","807","0","[[1,0,0],[2,0],[0]]","4","[[3,2,0],[0,0],[1]]","20","0","","","","","","6","","","","","","","","",""
"","","","","","single-stim-button","302","511051","0.0-2.0-71.3-1.3","5e120e2813064488573bb2a8","E1","batch5","","952","tol_toboard","","","","tol_peg_2","952","952","0","[[1,0,0],[2,3],[0]]","4","[[3,2,0],[0,0],[1]]","20","0","","","","","","6","","","","","","","","",""
"","","","","","single-stim-button","303","511691","0.0-2.0-71.4-0.4","5e120e2813064488573bb2a8","E1","batch5","","639","tol_tohand","","","","tol_peg_1","639","639","0","[[0,0,0],[2,3],[0]]","5","[[3,2,0],[0,0],[1]]","20","0","","","","","","6","","","","","","","","",""
"","","","","","single-stim-button","304","512660","0.0-2.0-71.4-1.4","5e120e2813064488573bb2a8","E1","batch5","","967","tol_toboard","","","","tol_peg_3","967","967","0","[[0,0,0],[2,3],[1]]","5","[[3,2,0],[0,0],[1]]","20","0","","","","","","6","","","","","","","","",""
"","","","","","single-stim-button","305","513384","0.0-2.0-71.5-0.5","5e120e2813064488573bb2a8","E1","batch5","","724","tol_tohand","","","","tol_peg_2","724","724","0","[[0,0,0],[2,0],[1]]","6","[[3,2,0],[0,0],[1]]","20","0","","","","","","6","","","","","","","","",""
"","","","","","single-stim-button","306","514177","0.0-2.0-71.5-1.5","5e120e2813064488573bb2a8","E1","batch5","","792","tol_toboard","","","","tol_peg_1","792","792","0","[[3,0,0],[2,0],[1]]","6","[[3,2,0],[0,0],[1]]","20","0","","","","","","6","","","","","","","","",""
"","","","","","single-stim-button","307","514857","0.0-2.0-71.6-0.6","5e120e2813064488573bb2a8","E1","batch5","","679","tol_tohand","","","","tol_peg_2","679","679","0","[[3,0,0],[0,0],[1]]","7","[[3,2,0],[0,0],[1]]","20","0","","","","","","6","","","","","","","","",""
"","","","","","single-stim-button","308","515649","0.0-2.0-71.6-1.6","5e120e2813064488573bb2a8","E1","batch5","","792","tol_toboard","","","","tol_peg_1","792","792","0","[[3,2,0],[0,0],[1]]","7","[[3,2,0],[0,0],[1]]","20","0","","","","","","6","","","","","","","","",""
"","","","","","poldrack-single-stim","309","516658","0.0-2.0-72.0","5e120e2813064488573bb2a8","E1","batch5","","-1","tol_feedback","","","true","","1000","1000","500","","","","","","-1","none","true","5169","12471","","","","","","","","","",""
"","","","","","html-button-response","310","517966","0.0-2.0-73.0","5e120e2813064488573bb2a8","E1","batch5","","1306.5","tol_trial_num","<div class = centerbox><p class = center-block-text>problem <strong>22</strong> out of 25 problems</p></div>","0","","","","","","","","","","","","","","","","","","","","","","","","",""
"","","","","","single-stim-button","311","523772","0.0-2.0-74.0-0.0","5e120e2813064488573bb2a8","E1","batch5","","5805","tol_tohand","","","","tol_peg_1","5805","5805","0","[[0,0,0],[2,3],[0]]","1","[[0,0,0],[1,2],[3]]","21","0","","","","","","6","","","","","","","","",""
"","","","","","single-stim-button","312","525373","0.0-2.0-74.0-1.0","5e120e2813064488573bb2a8","E1","batch5","","1600","tol_toboard","","","","tol_peg_3","1600","1600","0","[[0,0,0],[2,3],[1]]","1","[[0,0,0],[1,2],[3]]","21","0","","","","","","6","","","","","","","","",""
"","","","","","single-stim-button","313","526009","0.0-2.0-74.1-0.1","5e120e2813064488573bb2a8","E1","batch5","","636","tol_tohand","","","","tol_peg_2","636","636","0","[[0,0,0],[2,0],[1]]","2","[[0,0,0],[1,2],[3]]","21","0","","","","","","6","","","","","","","","",""
"","","","","","single-stim-button","314","526697","0.0-2.0-74.1-1.1","5e120e2813064488573bb2a8","E1","batch5","","688","tol_toboard","","","","tol_peg_1","688","688","0","[[3,0,0],[2,0],[1]]","2","[[0,0,0],[1,2],[3]]","21","0","","","","","","6","","","","","","","","",""
"","","","","","single-stim-button","315","527434","0.0-2.0-74.2-0.2","5e120e2813064488573bb2a8","E1","batch5","","735","tol_tohand","","","","tol_peg_2","735","735","0","[[3,0,0],[0,0],[1]]","3","[[0,0,0],[1,2],[3]]","21","0","","","","","","6","","","","","","","","",""
"","","","","","single-stim-button","316","528122","0.0-2.0-74.2-1.2","5e120e2813064488573bb2a8","E1","batch5","","688","tol_toboard","","","","tol_peg_1","688","688","0","[[3,2,0],[0,0],[1]]","3","[[0,0,0],[1,2],[3]]","21","0","","","","","","6","","","","","","","","",""
"","","","","","single-stim-button","317","528834","0.0-2.0-74.3-0.3","5e120e2813064488573bb2a8","E1","batch5","","711","tol_tohand","","","","tol_peg_3","711","711","0","[[3,2,0],[0,0],[0]]","4","[[0,0,0],[1,2],[3]]","21","0","","","","","","6","","","","","","","","",""
"","","","","","single-stim-button","318","529690","0.0-2.0-74.3-1.3","5e120e2813064488573bb2a8","E1","batch5","","856","tol_toboard","","","","tol_peg_2","856","856","0","[[3,2,0],[1,0],[0]]","4","[[0,0,0],[1,2],[3]]","21","0","","","","","","6","","","","","","","","",""
"","","","","","single-stim-button","319","530455","0.0-2.0-74.4-0.4","5e120e2813064488573bb2a8","E1","batch5","","763","tol_tohand","","","","tol_peg_1","763","763","0","[[3,0,0],[1,0],[0]]","5","[[0,0,0],[1,2],[3]]","21","0","","","","","","6","","","","","","","","",""
"","","","","","single-stim-button","320","531127","0.0-2.0-74.4-1.4","5e120e2813064488573bb2a8","E1","batch5","","671","tol_toboard","","","","tol_peg_2","671","671","0","[[3,0,0],[1,2],[0]]","5","[[0,0,0],[1,2],[3]]","21","0","","","","","","6","","","","","","","","",""
"","","","","","single-stim-button","321","531903","0.0-2.0-74.5-0.5","5e120e2813064488573bb2a8","E1","batch5","","776","tol_tohand","","","","tol_peg_1","776","776","0","[[0,0,0],[1,2],[0]]","6","[[0,0,0],[1,2],[3]]","21","0","","","","","","6","","","","","","","","",""
"","","","","","single-stim-button","322","532951","0.0-2.0-74.5-1.5","5e120e2813064488573bb2a8","E1","batch5","","1047","tol_toboard","","","","tol_peg_3","1047","1047","0","[[0,0,0],[1,2],[3]]","6","[[0,0,0],[1,2],[3]]","21","0","","","","","","6","","","","","","","","",""
"","","","","","poldrack-single-stim","323","533960","0.0-2.0-75.0","5e120e2813064488573bb2a8","E1","batch5","","-1","tol_feedback","","","true","","1000","1000","500","","","","","","-1","none","true","5805","9426","","","","","","","","","",""
"","","","","","html-button-response","324","535068","0.0-2.0-76.0","5e120e2813064488573bb2a8","E1","batch5","","1106.6999988555908","tol_trial_num","<div class = centerbox><p class = center-block-text>problem <strong>23</strong> out of 25 problems</p></div>","0","","","","","","","","","","","","","","","","","","","","","","","","",""
"","","","","","single-stim-button","325","538189","0.0-2.0-77.0-0.0","5e120e2813064488573bb2a8","E1","batch5","","3121","tol_tohand","","","","tol_peg_1","3121","3121","0","[[1,0,0],[3,0],[0]]","1","[[1,3,2],[0,0],[0]]","22","0","","","","","","3","","","","","","","","",""
"","","","","","single-stim-button","326","539250","0.0-2.0-77.0-1.0","5e120e2813064488573bb2a8","E1","batch5","","1059","tol_toboard","","","","tol_peg_3","1059","1059","0","[[1,0,0],[3,0],[2]]","1","[[1,3,2],[0,0],[0]]","22","0","","","","","","3","","","","","","","","",""
"","","","","","single-stim-button","327","539858","0.0-2.0-77.1-0.1","5e120e2813064488573bb2a8","E1","batch5","","607","tol_tohand","","","","tol_peg_2","607","607","0","[[1,0,0],[0,0],[2]]","2","[[1,3,2],[0,0],[0]]","22","0","","","","","","3","","","","","","","","",""
"","","","","","single-stim-button","328","540722","0.0-2.0-77.1-1.1","5e120e2813064488573bb2a8","E1","batch5","","864","tol_toboard","","","","tol_peg_1","864","864","0","[[1,3,0],[0,0],[2]]","2","[[1,3,2],[0,0],[0]]","22","0","","","","","","3","","","","","","","","",""
"","","","","","single-stim-button","329","541842","0.0-2.0-77.2-0.2","5e120e2813064488573bb2a8","E1","batch5","","1119","tol_tohand","","","","tol_peg_3","1119","1119","0","[[1,3,0],[0,0],[0]]","3","[[1,3,2],[0,0],[0]]","22","0","","","","","","3","","","","","","","","",""
"","","","","","single-stim-button","330","543086","0.0-2.0-77.2-1.2","5e120e2813064488573bb2a8","E1","batch5","","1243","tol_toboard","","","","tol_peg_1","1243","1243","0","[[1,3,2],[0,0],[0]]","3","[[1,3,2],[0,0],[0]]","22","0","","","","","","3","","","","","","","","",""
"","","","","","poldrack-single-stim","331","544099","0.0-2.0-78.0","5e120e2813064488573bb2a8","E1","batch5","","-1","tol_feedback","","","true","","1000","1000","500","","","","","","-1","none","true","3121","4847","","","","","","","","","",""
"","","","","","html-button-response","332","545079","0.0-2.0-79.0","5e120e2813064488573bb2a8","E1","batch5","","979.2000007629395","tol_trial_num","<div class = centerbox><p class = center-block-text>problem <strong>24</strong> out of 25 problems</p></div>","0","","","","","","","","","","","","","","","","","","","","","","","","",""
"","","","","","single-stim-button","333","553054","0.0-2.0-80.0-0.0","5e120e2813064488573bb2a8","E1","batch5","","7973","tol_tohand","","","","tol_peg_3","7973","7973","0","[[0,0,0],[2,3],[0]]","1","[[2,0,0],[3,0],[1]]","23","0","","","","","","7","","","","","","","","",""
"","","","","","single-stim-button","334","553950","0.0-2.0-80.0-1.0","5e120e2813064488573bb2a8","E1","batch5","","896","tol_toboard","","","","tol_peg_1","896","896","0","[[1,0,0],[2,3],[0]]","1","[[2,0,0],[3,0],[1]]","23","0","","","","","","7","","","","","","","","",""
"","","","","","single-stim-button","335","554691","0.0-2.0-80.1-0.1","5e120e2813064488573bb2a8","E1","batch5","","740","tol_tohand","","","","tol_peg_2","740","740","0","[[1,0,0],[2,0],[0]]","2","[[2,0,0],[3,0],[1]]","23","0","","","","","","7","","","","","","","","",""
"","","","","","single-stim-button","336","556131","0.0-2.0-80.1-1.1","5e120e2813064488573bb2a8","E1","batch5","","1440","tol_toboard","","","","tol_peg_1","1440","1440","0","[[1,3,0],[2,0],[0]]","2","[[2,0,0],[3,0],[1]]","23","0","","","","","","7","","","","","","","","",""
"","","","","","single-stim-button","337","556995","0.0-2.0-80.2-0.2","5e120e2813064488573bb2a8","E1","batch5","","864","tol_tohand","","","","tol_peg_2","864","864","0","[[1,3,0],[0,0],[0]]","3","[[2,0,0],[3,0],[1]]","23","0","","","","","","7","","","","","","","","",""
"","","","","","single-stim-button","338","558835","0.0-2.0-80.2-1.2","5e120e2813064488573bb2a8","E1","batch5","","1839","tol_toboard","","","","tol_peg_3","1839","1839","0","[[1,3,0],[0,0],[2]]","3","[[2,0,0],[3,0],[1]]","23","0","","","","","","7","","","","","","","","",""
"","","","","","single-stim-button","339","559656","0.0-2.0-80.3-0.3","5e120e2813064488573bb2a8","E1","batch5","","820","tol_tohand","","","","tol_peg_1","820","820","0","[[1,0,0],[0,0],[2]]","4","[[2,0,0],[3,0],[1]]","23","0","","","","","","7","","","","","","","","",""
"","","","","","single-stim-button","340","560663","0.0-2.0-80.3-1.3","5e120e2813064488573bb2a8","E1","batch5","","1007","tol_toboard","","","","tol_peg_2","1007","1007","0","[[1,0,0],[3,0],[2]]","4","[[2,0,0],[3,0],[1]]","23","0","","","","","","7","","","","","","","","",""
"","","","","","single-stim-button","341","561328","0.0-2.0-80.4-0.4","5e120e2813064488573bb2a8","E1","batch5","","664","tol_tohand","","","","tol_peg_1","664","664","0","[[0,0,0],[3,0],[2]]","5","[[2,0,0],[3,0],[1]]","23","0","","","","","","7","","","","","","","","",""
"","","","","","single-stim-button","342","561992","0.0-2.0-80.4-1.4","5e120e2813064488573bb2a8","E1","batch5","","663","tol_toboard","","","","tol_peg_2","663","663","0","[[0,0,0],[3,1],[2]]","5","[[2,0,0],[3,0],[1]]","23","0","","","","","","7","","","","","","","","",""
"","","","","","single-stim-button","343","562713","0.0-2.0-80.5-0.5","5e120e2813064488573bb2a8","E1","batch5","","720","tol_tohand","","","","tol_peg_3","720","720","0","[[0,0,0],[3,1],[0]]","6","[[2,0,0],[3,0],[1]]","23","0","","","","","","7","","","","","","","","",""
"","","","","","single-stim-button","344","563641","0.0-2.0-80.5-1.5","5e120e2813064488573bb2a8","E1","batch5","","928","tol_toboard","","","","tol_peg_1","928","928","0","[[2,0,0],[3,1],[0]]","6","[[2,0,0],[3,0],[1]]","23","0","","","","","","7","","","","","","","","",""
"","","","","","single-stim-button","345","564373","0.0-2.0-80.6-0.6","5e120e2813064488573bb2a8","E1","batch5","","731","tol_tohand","","","","tol_peg_2","731","731","0","[[2,0,0],[3,0],[0]]","7","[[2,0,0],[3,0],[1]]","23","0","","","","","","7","","","","","","","","",""
"","","","","","single-stim-button","346","565174","0.0-2.0-80.6-1.6","5e120e2813064488573bb2a8","E1","batch5","","799","tol_toboard","","","","tol_peg_3","799","799","0","[[2,0,0],[3,0],[1]]","7","[[2,0,0],[3,0],[1]]","23","0","","","","","","7","","","","","","","","",""
"","","","","","poldrack-single-stim","347","566185","0.0-2.0-81.0","5e120e2813064488573bb2a8","E1","batch5","","-1","tol_feedback","","","true","","1000","1000","500","","","","","","-1","none","true","7973","12512","","","","","","","","","",""
"","","","","","html-button-response","348","567030","0.0-2.0-82.0","5e120e2813064488573bb2a8","E1","batch5","","844.1000003814697","tol_trial_num","<div class = centerbox><p class = center-block-text>problem <strong>25</strong> out of 25 problems</p></div>","0","","","","","","","","","","","","","","","","","","","","","","","","",""
"","","","","","single-stim-button","349","588456","0.0-2.0-83.0-0.0","5e120e2813064488573bb2a8","E1","batch5","","21425","tol_tohand","","","","tol_peg_1","21425","21425","0","[[1,0,0],[3,0],[0]]","1","[[3,0,0],[1,0],[2]]","24","0","","","","","","7","","","","","","","","",""
"","","","","","single-stim-button","350","597337","0.0-2.0-83.0-1.0","5e120e2813064488573bb2a8","E1","batch5","","8880","tol_toboard","","","","tol_peg_3","8880","8880","0","[[1,0,0],[3,0],[2]]","1","[[3,0,0],[1,0],[2]]","24","0","","","","","","7","","","","","","","","",""
"","","","","","single-stim-button","351","598118","0.0-2.0-83.1-0.1","5e120e2813064488573bb2a8","E1","batch5","","779","tol_tohand","","","","tol_peg_1","779","779","0","[[0,0,0],[3,0],[2]]","2","[[3,0,0],[1,0],[2]]","24","0","","","","","","7","","","","","","","","",""
"","","","","","single-stim-button","352","599022","0.0-2.0-83.1-1.1","5e120e2813064488573bb2a8","E1","batch5","","904","tol_toboard","","","","tol_peg_2","904","904","0","[[0,0,0],[3,1],[2]]","2","[[3,0,0],[1,0],[2]]","24","0","","","","","","7","","","","","","","","",""
"","","","","","single-stim-button","353","601167","0.0-2.0-83.2-0.2","5e120e2813064488573bb2a8","E1","batch5","","2144","tol_tohand","","","","tol_peg_3","2144","2144","0","[[0,0,0],[3,1],[0]]","3","[[3,0,0],[1,0],[2]]","24","0","","","","","","7","","","","","","","","",""
"","","","","","single-stim-button","354","602711","0.0-2.0-83.2-1.2","5e120e2813064488573bb2a8","E1","batch5","","1544","tol_toboard","","","","tol_peg_1","1544","1544","0","[[2,0,0],[3,1],[0]]","3","[[3,0,0],[1,0],[2]]","24","0","","","","","","7","","","","","","","","",""
"","","","","","single-stim-button","355","603404","0.0-2.0-83.3-0.3","5e120e2813064488573bb2a8","E1","batch5","","691","tol_tohand","","","","tol_peg_2","691","691","0","[[2,0,0],[3,0],[0]]","4","[[3,0,0],[1,0],[2]]","24","0","","","","","","7","","","","","","","","",""
