"success","timeout","failed_images","failed_audio","failed_video","trial_type","trial_index","time_elapsed","internal_node_id","subject_id","study_id","session_id","task","rt","stimulus","response","item","answer","correct","spm_correct","spm_rt","view_history","fiar_detect_rt","fiar_detect_correct","total_correct_fiar_detect","post_trial_gap","choices","mouse_click","stim_duration","block_duration","timing_post_trial","current_position","tol_num_moves_made","tol_target","tol_problem_id","tol_rt","key_press","possible_responses","tol_correct","preplanning","tol_rt_per_trial","tol_min_moves"
"true","false","[]","[]","[]","preload","0","33245","0.0-0.0","5e13e0232d2185a20d9c3b4f","D2","batch4","","","","","","","","","","","","","","","","","","","","","","","","","","","","","",""
"true","","","","","fullscreen","1","57747","0.0-1.0-0.0","5e13e0232d2185a20d9c3b4f","D2","batch4","","","","","","","","","","","","","","","","","","","","","","","","","","","","","",""
"true","","","","","fullscreen","2","60615","0.0-2.0-0.0","5e13e0232d2185a20d9c3b4f","D2","batch4","spm_fullscreen","","","","","","","","","","","","","","","","","","","","","","","","","","","","",""
"","","","","","html-button-response","3","67899","0.0-2.0-1.0","5e13e0232d2185a20d9c3b4f","D2","batch4","","7281.5","<p class = block-text><b>Instructions</b> <br>This is a widely used intelligence test in research. <br>In this test, a figure with a missing piece will be presented.<br>Below the figure are alternative pieces to complete the figure, only one of which is correct.<br> Different figures might involve different principles for obtaining the missing piece<br>Your job is to select the most logical piece to complete the figure.</p>","0","","","","","","","","","","","","","","","","","","","","","","","","","",""
"","","","","","html-keyboard-response","4","68706","0.0-2.0-2.0-0.0","5e13e0232d2185a20d9c3b4f","D2","batch4","spm_show_trial_num","null","<p class=block-text>Trial 1 out of 60</p>","null","","","","","","","","","","","","","","","","","","","","","","","","","",""
"","","","","","image-button-response","5","77847","0.0-2.0-2.0-1.0","5e13e0232d2185a20d9c3b4f","D2","batch4","spm_respsonse","9127.199999988079","img/question_1_1.jpeg","0","mat_01","4","0","0","9127.199999988079","","","","","","","","","","","","","","","","","","","","",""
"","","","","","html-keyboard-response","6","78913","0.0-2.0-2.0-0.1","5e13e0232d2185a20d9c3b4f","D2","batch4","spm_show_trial_num","null","<p class=block-text>Trial 2 out of 60</p>","null","","","","","","","","","","","","","","","","","","","","","","","","","",""
"","","","","","image-button-response","7","82021","0.0-2.0-2.0-1.1","5e13e0232d2185a20d9c3b4f","D2","batch4","spm_respsonse","3105.199999988079","img/question_1_2.jpeg","4","mat_02","5","1","1","3105.199999988079","","","","","","","","","","","","","","","","","","","","",""
"","","","","","html-keyboard-response","8","83086","0.0-2.0-2.0-0.2","5e13e0232d2185a20d9c3b4f","D2","batch4","spm_show_trial_num","null","<p class=block-text>Trial 3 out of 60</p>","null","","","","","","","","","","","","","","","","","","","","","","","","","",""
"","","","","","image-button-response","9","88960","0.0-2.0-2.0-1.2","5e13e0232d2185a20d9c3b4f","D2","batch4","spm_respsonse","5871","img/question_1_3.jpeg","0","mat_03","1","1","1","5871","","","","","","","","","","","","","","","","","","","","",""
"","","","","","html-keyboard-response","10","90023","0.0-2.0-2.0-0.3","5e13e0232d2185a20d9c3b4f","D2","batch4","spm_show_trial_num","null","<p class=block-text>Trial 4 out of 60</p>","null","","","","","","","","","","","","","","","","","","","","","","","","","",""
"","","","","","image-button-response","11","97166","0.0-2.0-2.0-1.3","5e13e0232d2185a20d9c3b4f","D2","batch4","spm_respsonse","7139.5","img/question_1_4.jpeg","1","mat_04","2","1","1","7139.5","","","","","","","","","","","","","","","","","","","","",""
"","","","","","html-keyboard-response","12","98229","0.0-2.0-2.0-0.4","5e13e0232d2185a20d9c3b4f","D2","batch4","spm_show_trial_num","null","<p class=block-text>Trial 5 out of 60</p>","null","","","","","","","","","","","","","","","","","","","","","","","","","",""
"","","","","","image-button-response","13","103152","0.0-2.0-2.0-1.4","5e13e0232d2185a20d9c3b4f","D2","batch4","spm_respsonse","4920.5","img/question_1_5.jpeg","5","mat_05","6","1","1","4920.5","","","","","","","","","","","","","","","","","","","","",""
"","","","","","html-keyboard-response","14","104207","0.0-2.0-2.0-0.5","5e13e0232d2185a20d9c3b4f","D2","batch4","spm_show_trial_num","null","<p class=block-text>Trial 6 out of 60</p>","null","","","","","","","","","","","","","","","","","","","","","","","","","",""
"","","","","","image-button-response","15","115390","0.0-2.0-2.0-1.5","5e13e0232d2185a20d9c3b4f","D2","batch4","spm_respsonse","11180.40000000596","img/question_1_6.jpeg","2","mat_06","3","1","1","11180.40000000596","","","","","","","","","","","","","","","","","","","","",""
"","","","","","html-keyboard-response","16","116458","0.0-2.0-2.0-0.6","5e13e0232d2185a20d9c3b4f","D2","batch4","spm_show_trial_num","null","<p class=block-text>Trial 7 out of 60</p>","null","","","","","","","","","","","","","","","","","","","","","","","","","",""
"","","","","","image-button-response","17","125314","0.0-2.0-2.0-1.6","5e13e0232d2185a20d9c3b4f","D2","batch4","spm_respsonse","8853.40000000596","img/question_1_7.jpeg","5","mat_07","6","1","1","8853.40000000596","","","","","","","","","","","","","","","","","","","","",""
"","","","","","html-keyboard-response","18","126389","0.0-2.0-2.0-0.7","5e13e0232d2185a20d9c3b4f","D2","batch4","spm_show_trial_num","null","<p class=block-text>Trial 8 out of 60</p>","null","","","","","","","","","","","","","","","","","","","","","","","","","",""
"","","","","","image-button-response","19","140008","0.0-2.0-2.0-1.7","5e13e0232d2185a20d9c3b4f","D2","batch4","spm_respsonse","13616","img/question_1_8.jpeg","0","mat_08","2","0","0","13616","","","","","","","","","","","","","","","","","","","","",""
"","","","","","html-keyboard-response","20","141076","0.0-2.0-2.0-0.8","5e13e0232d2185a20d9c3b4f","D2","batch4","spm_show_trial_num","null","<p class=block-text>Trial 9 out of 60</p>","null","","","","","","","","","","","","","","","","","","","","","","","","","",""
"","","","","","image-button-response","21","151027","0.0-2.0-2.0-1.8","5e13e0232d2185a20d9c3b4f","D2","batch4","spm_respsonse","9947.5","img/question_1_9.jpeg","0","mat_09","1","1","1","9947.5","","","","","","","","","","","","","","","","","","","","",""
"","","","","","html-keyboard-response","22","152096","0.0-2.0-2.0-0.9","5e13e0232d2185a20d9c3b4f","D2","batch4","spm_show_trial_num","null","<p class=block-text>Trial 10 out of 60</p>","null","","","","","","","","","","","","","","","","","","","","","","","","","",""
"","","","","","image-button-response","23","165641","0.0-2.0-2.0-1.9","5e13e0232d2185a20d9c3b4f","D2","batch4","spm_respsonse","13537.199999988079","img/question_1_10.jpeg","2","mat_10","3","1","1","13537.199999988079","","","","","","","","","","","","","","","","","","","","",""
"","","","","","html-keyboard-response","24","166700","0.0-2.0-2.0-0.10","5e13e0232d2185a20d9c3b4f","D2","batch4","spm_show_trial_num","null","<p class=block-text>Trial 11 out of 60</p>","null","","","","","","","","","","","","","","","","","","","","","","","","","",""
"","","","","","image-button-response","25","179948","0.0-2.0-2.0-1.10","5e13e0232d2185a20d9c3b4f","D2","batch4","spm_respsonse","13244.300000011921","img/question_1_11.jpeg","3","mat_11","4","1","1","13244.300000011921","","","","","","","","","","","","","","","","","","","","",""
"","","","","","html-keyboard-response","26","181016","0.0-2.0-2.0-0.11","5e13e0232d2185a20d9c3b4f","D2","batch4","spm_show_trial_num","null","<p class=block-text>Trial 12 out of 60</p>","null","","","","","","","","","","","","","","","","","","","","","","","","","",""
"","","","","","image-button-response","27","191619","0.0-2.0-2.0-1.11","5e13e0232d2185a20d9c3b4f","D2","batch4","spm_respsonse","10599.300000011921","img/question_1_12.jpeg","4","mat_12","5","1","1","10599.300000011921","","","","","","","","","","","","","","","","","","","","",""
"","","","","","html-keyboard-response","28","192686","0.0-2.0-2.0-0.12","5e13e0232d2185a20d9c3b4f","D2","batch4","spm_show_trial_num","null","<p class=block-text>Trial 13 out of 60</p>","null","","","","","","","","","","","","","","","","","","","","","","","","","",""
"","","","","","image-button-response","29","195943","0.0-2.0-2.0-1.12","5e13e0232d2185a20d9c3b4f","D2","batch4","spm_respsonse","3254.2000000178814","img/question_2_1.jpeg","1","mat_13","2","1","1","3254.2000000178814","","","","","","","","","","","","","","","","","","","","",""
"","","","","","html-keyboard-response","30","197006","0.0-2.0-2.0-0.13","5e13e0232d2185a20d9c3b4f","D2","batch4","spm_show_trial_num","null","<p class=block-text>Trial 14 out of 60</p>","null","","","","","","","","","","","","","","","","","","","","","","","","","",""
"","","","","","image-button-response","31","202574","0.0-2.0-2.0-1.13","5e13e0232d2185a20d9c3b4f","D2","batch4","spm_respsonse","5564.699999988079","img/question_2_2.jpeg","5","mat_14","6","1","1","5564.699999988079","","","","","","","","","","","","","","","","","","","","",""
"","","","","","html-keyboard-response","32","203639","0.0-2.0-2.0-0.14","5e13e0232d2185a20d9c3b4f","D2","batch4","spm_show_trial_num","null","<p class=block-text>Trial 15 out of 60</p>","null","","","","","","","","","","","","","","","","","","","","","","","","","",""
"","","","","","image-button-response","33","207780","0.0-2.0-2.0-1.14","5e13e0232d2185a20d9c3b4f","D2","batch4","spm_respsonse","4137.699999988079","img/question_2_3.jpeg","0","mat_15","1","1","1","4137.699999988079","","","","","","","","","","","","","","","","","","","","",""
"","","","","","html-keyboard-response","34","208840","0.0-2.0-2.0-0.15","5e13e0232d2185a20d9c3b4f","D2","batch4","spm_show_trial_num","null","<p class=block-text>Trial 16 out of 60</p>","null","","","","","","","","","","","","","","","","","","","","","","","","","",""
"","","","","","image-button-response","35","214403","0.0-2.0-2.0-1.15","5e13e0232d2185a20d9c3b4f","D2","batch4","spm_respsonse","5567.9000000059605","img/question_2_4.jpeg","1","mat_16","2","1","1","5567.9000000059605","","","","","","","","","","","","","","","","","","","","",""
"","","","","","html-keyboard-response","36","215467","0.0-2.0-2.0-0.16","5e13e0232d2185a20d9c3b4f","D2","batch4","spm_show_trial_num","null","<p class=block-text>Trial 17 out of 60</p>","null","","","","","","","","","","","","","","","","","","","","","","","","","",""
"","","","","","image-button-response","37","220096","0.0-2.0-2.0-1.16","5e13e0232d2185a20d9c3b4f","D2","batch4","spm_respsonse","4627","img/question_2_5.jpeg","0","mat_17","1","1","1","4627","","","","","","","","","","","","","","","","","","","","",""
"","","","","","html-keyboard-response","38","221164","0.0-2.0-2.0-0.17","5e13e0232d2185a20d9c3b4f","D2","batch4","spm_show_trial_num","null","<p class=block-text>Trial 18 out of 60</p>","null","","","","","","","","","","","","","","","","","","","","","","","","","",""
"","","","","","image-button-response","39","238176","0.0-2.0-2.0-1.17","5e13e0232d2185a20d9c3b4f","D2","batch4","spm_respsonse","17009.09999999404","img/question_2_6.jpeg","2","mat_18","3","1","1","17009.09999999404","","","","","","","","","","","","","","","","","","","","",""
"","","","","","html-keyboard-response","40","239245","0.0-2.0-2.0-0.18","5e13e0232d2185a20d9c3b4f","D2","batch4","spm_show_trial_num","null","<p class=block-text>Trial 19 out of 60</p>","null","","","","","","","","","","","","","","","","","","","","","","","","","",""
"","","","","","image-button-response","41","246690","0.0-2.0-2.0-1.18","5e13e0232d2185a20d9c3b4f","D2","batch4","spm_respsonse","7441.700000017881","img/question_2_7.jpeg","5","mat_19","5","0","0","7441.700000017881","","","","","","","","","","","","","","","","","","","","",""
"","","","","","html-keyboard-response","42","247765","0.0-2.0-2.0-0.19","5e13e0232d2185a20d9c3b4f","D2","batch4","spm_show_trial_num","null","<p class=block-text>Trial 20 out of 60</p>","null","","","","","","","","","","","","","","","","","","","","","","","","","",""
"","","","","","image-button-response","43","253685","0.0-2.0-2.0-1.19","5e13e0232d2185a20d9c3b4f","D2","batch4","spm_respsonse","5917.4000000059605","img/question_2_8.jpeg","5","mat_20","6","1","1","5917.4000000059605","","","","","","","","","","","","","","","","","","","","",""
"","","","","","html-keyboard-response","44","254745","0.0-2.0-2.0-0.20","5e13e0232d2185a20d9c3b4f","D2","batch4","spm_show_trial_num","null","<p class=block-text>Trial 21 out of 60</p>","null","","","","","","","","","","","","","","","","","","","","","","","","","",""
"","","","","","image-button-response","45","263287","0.0-2.0-2.0-1.20","5e13e0232d2185a20d9c3b4f","D2","batch4","spm_respsonse","8538.199999988079","img/question_2_9.jpeg","3","mat_21","4","1","1","8538.199999988079","","","","","","","","","","","","","","","","","","","","",""
"","","","","","html-keyboard-response","46","264363","0.0-2.0-2.0-0.21","5e13e0232d2185a20d9c3b4f","D2","batch4","spm_show_trial_num","null","<p class=block-text>Trial 22 out of 60</p>","null","","","","","","","","","","","","","","","","","","","","","","","","","",""
"","","","","","image-button-response","47","274364","0.0-2.0-2.0-1.21","5e13e0232d2185a20d9c3b4f","D2","batch4","spm_respsonse","9991.5","img/question_2_10.jpeg","2","mat_22","3","1","1","9991.5","","","","","","","","","","","","","","","","","","","","",""
"","","","","","html-keyboard-response","48","275439","0.0-2.0-2.0-0.22","5e13e0232d2185a20d9c3b4f","D2","batch4","spm_show_trial_num","null","<p class=block-text>Trial 23 out of 60</p>","null","","","","","","","","","","","","","","","","","","","","","","","","","",""
"","","","","","image-button-response","49","281940","0.0-2.0-2.0-1.22","5e13e0232d2185a20d9c3b4f","D2","batch4","spm_respsonse","6497.9000000059605","img/question_2_11.jpeg","2","mat_23","4","0","0","6497.9000000059605","","","","","","","","","","","","","","","","","","","","",""
"","","","","","html-keyboard-response","50","283009","0.0-2.0-2.0-0.23","5e13e0232d2185a20d9c3b4f","D2","batch4","spm_show_trial_num","null","<p class=block-text>Trial 24 out of 60</p>","null","","","","","","","","","","","","","","","","","","","","","","","","","",""
"","","","","","image-button-response","51","297871","0.0-2.0-2.0-1.23","5e13e0232d2185a20d9c3b4f","D2","batch4","spm_respsonse","14859.300000011921","img/question_2_12.jpeg","2","mat_24","5","0","0","14859.300000011921","","","","","","","","","","","","","","","","","","","","",""
"","","","","","html-button-response","52","300090","0.0-2.0-3.0","5e13e0232d2185a20d9c3b4f","D2","batch4","attention_check","1957.7999999821186","<p class = block-text>Attention check: Please choose 1<br></p>","0","","","true","","","","","","","","","","","","","","","","","","","","","","",""
"","","","","","html-keyboard-response","53","300895","0.0-2.0-4.0-0.0","5e13e0232d2185a20d9c3b4f","D2","batch4","spm_show_trial_num","null","<p class=block-text>Trial 25 out of 60</p>","null","","","","","","","","","","","","","","","","","","","","","","","","","",""
"","","","","","image-button-response","54","314713","0.0-2.0-4.0-1.0","5e13e0232d2185a20d9c3b4f","D2","batch4","spm_respsonse","13815.09999999404","img/question_3_1.jpeg","7","mat_25","8","1","1","13815.09999999404","","","","","","","","","","","","","","","","","","","","",""
"","","","","","html-keyboard-response","55","315791","0.0-2.0-4.0-0.1","5e13e0232d2185a20d9c3b4f","D2","batch4","spm_show_trial_num","null","<p class=block-text>Trial 26 out of 60</p>","null","","","","","","","","","","","","","","","","","","","","","","","","","",""
"","","","","","image-button-response","56","322725","0.0-2.0-4.0-1.1","5e13e0232d2185a20d9c3b4f","D2","batch4","spm_respsonse","6931.5999999940395","img/question_3_2.jpeg","1","mat_26","2","1","1","6931.5999999940395","","","","","","","","","","","","","","","","","","","","",""
"","","","","","html-keyboard-response","57","323786","0.0-2.0-4.0-0.2","5e13e0232d2185a20d9c3b4f","D2","batch4","spm_show_trial_num","null","<p class=block-text>Trial 27 out of 60</p>","null","","","","","","","","","","","","","","","","","","","","","","","","","",""
"","","","","","image-button-response","58","342467","0.0-2.0-4.0-1.2","5e13e0232d2185a20d9c3b4f","D2","batch4","spm_respsonse","18677.59999999404","img/question_3_3.jpeg","2","mat_27","3","1","1","18677.59999999404","","","","","","","","","","","","","","","","","","","","",""
"","","","","","html-keyboard-response","59","343539","0.0-2.0-4.0-0.3","5e13e0232d2185a20d9c3b4f","D2","batch4","spm_show_trial_num","null","<p class=block-text>Trial 28 out of 60</p>","null","","","","","","","","","","","","","","","","","","","","","","","","","",""
"","","","","","image-button-response","60","350352","0.0-2.0-4.0-1.3","5e13e0232d2185a20d9c3b4f","D2","batch4","spm_respsonse","6810.0999999940395","img/question_3_4.jpeg","3","mat_28","8","0","0","6810.0999999940395","","","","","","","","","","","","","","","","","","","","",""
"","","","","","html-keyboard-response","61","351413","0.0-2.0-4.0-0.4","5e13e0232d2185a20d9c3b4f","D2","batch4","spm_show_trial_num","null","<p class=block-text>Trial 29 out of 60</p>","null","","","","","","","","","","","","","","","","","","","","","","","","","",""
"","","","","","image-button-response","62","362296","0.0-2.0-4.0-1.4","5e13e0232d2185a20d9c3b4f","D2","batch4","spm_respsonse","10879.100000023842","img/question_3_5.jpeg","6","mat_29","7","1","1","10879.100000023842","","","","","","","","","","","","","","","","","","","","",""
"","","","","","html-keyboard-response","63","363367","0.0-2.0-4.0-0.5","5e13e0232d2185a20d9c3b4f","D2","batch4","spm_show_trial_num","null","<p class=block-text>Trial 30 out of 60</p>","null","","","","","","","","","","","","","","","","","","","","","","","","","",""
"","","","","","image-button-response","64","376059","0.0-2.0-4.0-1.5","5e13e0232d2185a20d9c3b4f","D2","batch4","spm_respsonse","12688","img/question_3_6.jpeg","3","mat_30","4","1","1","12688","","","","","","","","","","","","","","","","","","","","",""
"","","","","","html-keyboard-response","65","377125","0.0-2.0-4.0-0.6","5e13e0232d2185a20d9c3b4f","D2","batch4","spm_show_trial_num","null","<p class=block-text>Trial 31 out of 60</p>","null","","","","","","","","","","","","","","","","","","","","","","","","","",""
"","","","","","image-button-response","66","386370","0.0-2.0-4.0-1.6","5e13e0232d2185a20d9c3b4f","D2","batch4","spm_respsonse","9242.5","img/question_3_7.jpeg","4","mat_31","5","1","1","9242.5","","","","","","","","","","","","","","","","","","","","",""
"","","","","","html-keyboard-response","67","387430","0.0-2.0-4.0-0.7","5e13e0232d2185a20d9c3b4f","D2","batch4","spm_show_trial_num","null","<p class=block-text>Trial 32 out of 60</p>","null","","","","","","","","","","","","","","","","","","","","","","","","","",""
"","","","","","image-button-response","68","433022","0.0-2.0-4.0-1.7","5e13e0232d2185a20d9c3b4f","D2","batch4","spm_respsonse","45589","img/question_3_8.jpeg","6","mat_32","1","0","0","45589","","","","","","","","","","","","","","","","","","","","",""
"","","","","","html-keyboard-response","69","434091","0.0-2.0-4.0-0.8","5e13e0232d2185a20d9c3b4f","D2","batch4","spm_show_trial_num","null","<p class=block-text>Trial 33 out of 60</p>","null","","","","","","","","","","","","","","","","","","","","","","","","","",""
"","","","","","image-button-response","70","443119","0.0-2.0-4.0-1.8","5e13e0232d2185a20d9c3b4f","D2","batch4","spm_respsonse","9025.5","img/question_3_9.jpeg","6","mat_33","7","1","1","9025.5","","","","","","","","","","","","","","","","","","","","",""
"","","","","","html-keyboard-response","71","444182","0.0-2.0-4.0-0.9","5e13e0232d2185a20d9c3b4f","D2","batch4","spm_show_trial_num","null","<p class=block-text>Trial 34 out of 60</p>","null","","","","","","","","","","","","","","","","","","","","","","","","","",""
"","","","","","image-button-response","72","567930","0.0-2.0-4.0-1.9","5e13e0232d2185a20d9c3b4f","D2","batch4","spm_respsonse","123745.39999997616","img/question_3_10.jpeg","1","mat_34","6","0","0","123745.39999997616","","","","","","","","","","","","","","","","","","","","",""
"","","","","","html-keyboard-response","73","568996","0.0-2.0-4.0-0.10","5e13e0232d2185a20d9c3b4f","D2","batch4","spm_show_trial_num","null","<p class=block-text>Trial 35 out of 60</p>","null","","","","","","","","","","","","","","","","","","","","","","","","","",""
"","","","","","image-button-response","74","574715","0.0-2.0-4.0-1.10","5e13e0232d2185a20d9c3b4f","D2","batch4","spm_respsonse","5715.799999982119","img/question_3_11.jpeg","1","mat_35","1","0","0","5715.799999982119","","","","","","","","","","","","","","","","","","","","",""
"","","","","","html-keyboard-response","75","575776","0.0-2.0-4.0-0.11","5e13e0232d2185a20d9c3b4f","D2","batch4","spm_show_trial_num","null","<p class=block-text>Trial 36 out of 60</p>","null","","","","","","","","","","","","","","","","","","","","","","","","","",""
"","","","","","image-button-response","76","594889","0.0-2.0-4.0-1.11","5e13e0232d2185a20d9c3b4f","D2","batch4","spm_respsonse","19109.79999998212","img/question_3_12.jpeg","1","mat_36","2","1","1","19109.79999998212","","","","","","","","","","","","","","","","","","","","",""
"","","","","","html-keyboard-response","77","595958","0.0-2.0-4.0-0.12","5e13e0232d2185a20d9c3b4f","D2","batch4","spm_show_trial_num","null","<p class=block-text>Trial 37 out of 60</p>","null","","","","","","","","","","","","","","","","","","","","","","","","","",""
"","","","","","image-button-response","78","603059","0.0-2.0-4.0-1.12","5e13e0232d2185a20d9c3b4f","D2","batch4","spm_respsonse","7098.5999999940395","img/question_4_1.jpeg","1","mat_37","3","0","0","7098.5999999940395","","","","","","","","","","","","","","","","","","","","",""
"","","","","","html-keyboard-response","79","604129","0.0-2.0-4.0-0.13","5e13e0232d2185a20d9c3b4f","D2","batch4","spm_show_trial_num","null","<p class=block-text>Trial 38 out of 60</p>","null","","","","","","","","","","","","","","","","","","","","","","","","","",""
"","","","","","image-button-response","80","608953","0.0-2.0-4.0-1.13","5e13e0232d2185a20d9c3b4f","D2","batch4","spm_respsonse","4821.4000000059605","img/question_4_2.jpeg","3","mat_38","4","1","1","4821.4000000059605","","","","","","","","","","","","","","","","","","","","",""
"","","","","","html-keyboard-response","81","610008","0.0-2.0-4.0-0.14","5e13e0232d2185a20d9c3b4f","D2","batch4","spm_show_trial_num","null","<p class=block-text>Trial 39 out of 60</p>","null","","","","","","","","","","","","","","","","","","","","","","","","","",""
"","","","","","image-button-response","82","617846","0.0-2.0-4.0-1.14","5e13e0232d2185a20d9c3b4f","D2","batch4","spm_respsonse","7835.0999999940395","img/question_4_3.jpeg","2","mat_39","3","1","1","7835.0999999940395","","","","","","","","","","","","","","","","","","","","",""
"","","","","","html-keyboard-response","83","618921","0.0-2.0-4.0-0.15","5e13e0232d2185a20d9c3b4f","D2","batch4","spm_show_trial_num","null","<p class=block-text>Trial 40 out of 60</p>","null","","","","","","","","","","","","","","","","","","","","","","","","","",""
"","","","","","image-button-response","84","630019","0.0-2.0-4.0-1.15","5e13e0232d2185a20d9c3b4f","D2","batch4","spm_respsonse","11096","img/question_4_4.jpeg","6","mat_40","7","1","1","11096","","","","","","","","","","","","","","","","","","","","",""
"","","","","","html-keyboard-response","85","631080","0.0-2.0-4.0-0.16","5e13e0232d2185a20d9c3b4f","D2","batch4","spm_show_trial_num","null","<p class=block-text>Trial 41 out of 60</p>","null","","","","","","","","","","","","","","","","","","","","","","","","","",""
"","","","","","image-button-response","86","639428","0.0-2.0-4.0-1.16","5e13e0232d2185a20d9c3b4f","D2","batch4","spm_respsonse","8344.90000000596","img/question_4_5.jpeg","7","mat_41","8","1","1","8344.90000000596","","","","","","","","","","","","","","","","","","","","",""
"","","","","","html-keyboard-response","87","640482","0.0-2.0-4.0-0.17","5e13e0232d2185a20d9c3b4f","D2","batch4","spm_show_trial_num","null","<p class=block-text>Trial 42 out of 60</p>","null","","","","","","","","","","","","","","","","","","","","","","","","","",""
"","","","","","image-button-response","88","653034","0.0-2.0-4.0-1.17","5e13e0232d2185a20d9c3b4f","D2","batch4","spm_respsonse","12548.299999982119","img/question_4_6.jpeg","5","mat_42","6","1","1","12548.299999982119","","","","","","","","","","","","","","","","","","","","",""
"","","","","","html-keyboard-response","89","654103","0.0-2.0-4.0-0.18","5e13e0232d2185a20d9c3b4f","D2","batch4","spm_show_trial_num","null","<p class=block-text>Trial 43 out of 60</p>","null","","","","","","","","","","","","","","","","","","","","","","","","","",""
"","","","","","image-button-response","90","673886","0.0-2.0-4.0-1.18","5e13e0232d2185a20d9c3b4f","D2","batch4","spm_respsonse","19779.29999998212","img/question_4_7.jpeg","0","mat_43","5","0","0","19779.29999998212","","","","","","","","","","","","","","","","","","","","",""
"","","","","","html-keyboard-response","91","674947","0.0-2.0-4.0-0.19","5e13e0232d2185a20d9c3b4f","D2","batch4","spm_show_trial_num","null","<p class=block-text>Trial 44 out of 60</p>","null","","","","","","","","","","","","","","","","","","","","","","","","","",""
"","","","","","image-button-response","92","696464","0.0-2.0-4.0-1.19","5e13e0232d2185a20d9c3b4f","D2","batch4","spm_respsonse","21512.5","img/question_4_8.jpeg","4","mat_44","4","0","0","21512.5","","","","","","","","","","","","","","","","","","","","",""
"","","","","","html-keyboard-response","93","697534","0.0-2.0-4.0-0.20","5e13e0232d2185a20d9c3b4f","D2","batch4","spm_show_trial_num","null","<p class=block-text>Trial 45 out of 60</p>","null","","","","","","","","","","","","","","","","","","","","","","","","","",""
"","","","","","image-button-response","94","709260","0.0-2.0-4.0-1.20","5e13e0232d2185a20d9c3b4f","D2","batch4","spm_respsonse","11722.40000000596","img/question_4_9.jpeg","6","mat_45","1","0","0","11722.40000000596","","","","","","","","","","","","","","","","","","","","",""
"","","","","","html-keyboard-response","95","710320","0.0-2.0-4.0-0.21","5e13e0232d2185a20d9c3b4f","D2","batch4","spm_show_trial_num","null","<p class=block-text>Trial 46 out of 60</p>","null","","","","","","","","","","","","","","","","","","","","","","","","","",""
"","","","","","image-button-response","96","713149","0.0-2.0-4.0-1.21","5e13e0232d2185a20d9c3b4f","D2","batch4","spm_respsonse","2825.699999988079","img/question_4_10.jpeg","1","mat_46","2","1","1","2825.699999988079","","","","","","","","","","","","","","","","","","","","",""
"","","","","","html-keyboard-response","97","714216","0.0-2.0-4.0-0.22","5e13e0232d2185a20d9c3b4f","D2","batch4","spm_show_trial_num","null","<p class=block-text>Trial 47 out of 60</p>","null","","","","","","","","","","","","","","","","","","","","","","","","","",""
"","","","","","image-button-response","98","719214","0.0-2.0-4.0-1.22","5e13e0232d2185a20d9c3b4f","D2","batch4","spm_respsonse","4995.299999982119","img/question_4_11.jpeg","4","mat_47","5","1","1","4995.299999982119","","","","","","","","","","","","","","","","","","","","",""
"","","","","","html-keyboard-response","99","720282","0.0-2.0-4.0-0.23","5e13e0232d2185a20d9c3b4f","D2","batch4","spm_show_trial_num","null","<p class=block-text>Trial 48 out of 60</p>","null","","","","","","","","","","","","","","","","","","","","","","","","","",""
"","","","","","image-button-response","100","729683","0.0-2.0-4.0-1.23","5e13e0232d2185a20d9c3b4f","D2","batch4","spm_respsonse","9398.299999982119","img/question_4_12.jpeg","7","mat_48","6","0","0","9398.299999982119","","","","","","","","","","","","","","","","","","","","",""
"","","","","","html-keyboard-response","101","730757","0.0-2.0-4.0-0.24","5e13e0232d2185a20d9c3b4f","D2","batch4","spm_show_trial_num","null","<p class=block-text>Trial 49 out of 60</p>","null","","","","","","","","","","","","","","","","","","","","","","","","","",""
"","","","","","image-button-response","102","739057","0.0-2.0-4.0-1.24","5e13e0232d2185a20d9c3b4f","D2","batch4","spm_respsonse","8297.199999988079","img/question_5_1.jpeg","3","mat_49","7","0","0","8297.199999988079","","","","","","","","","","","","","","","","","","","","",""
"","","","","","html-keyboard-response","103","740118","0.0-2.0-4.0-0.25","5e13e0232d2185a20d9c3b4f","D2","batch4","spm_show_trial_num","null","<p class=block-text>Trial 50 out of 60</p>","null","","","","","","","","","","","","","","","","","","","","","","","","","",""
"","","","","","image-button-response","104","750707","0.0-2.0-4.0-1.25","5e13e0232d2185a20d9c3b4f","D2","batch4","spm_respsonse","10586.09999999404","img/question_5_2.jpeg","0","mat_50","6","0","0","10586.09999999404","","","","","","","","","","","","","","","","","","","","",""
"","","","","","html-keyboard-response","105","751776","0.0-2.0-4.0-0.26","5e13e0232d2185a20d9c3b4f","D2","batch4","spm_show_trial_num","null","<p class=block-text>Trial 51 out of 60</p>","null","","","","","","","","","","","","","","","","","","","","","","","","","",""
"","","","","","image-button-response","106","754358","0.0-2.0-4.0-1.26","5e13e0232d2185a20d9c3b4f","D2","batch4","spm_respsonse","2578.9000000059605","img/question_5_3.jpeg","0","mat_51","8","0","0","2578.9000000059605","","","","","","","","","","","","","","","","","","","","",""
"","","","","","html-keyboard-response","107","755430","0.0-2.0-4.0-0.27","5e13e0232d2185a20d9c3b4f","D2","batch4","spm_show_trial_num","null","<p class=block-text>Trial 52 out of 60</p>","null","","","","","","","","","","","","","","","","","","","","","","","","","",""
"","","","","","image-button-response","108","759214","0.0-2.0-4.0-1.27","5e13e0232d2185a20d9c3b4f","D2","batch4","spm_respsonse","3780.5","img/question_5_4.jpeg","2","mat_52","2","0","0","3780.5","","","","","","","","","","","","","","","","","","","","",""
"","","","","","html-keyboard-response","109","760286","0.0-2.0-4.0-0.28","5e13e0232d2185a20d9c3b4f","D2","batch4","spm_show_trial_num","null","<p class=block-text>Trial 53 out of 60</p>","null","","","","","","","","","","","","","","","","","","","","","","","","","",""
"","","","","","image-button-response","110","762586","0.0-2.0-4.0-1.28","5e13e0232d2185a20d9c3b4f","D2","batch4","spm_respsonse","2298.2000000178814","img/question_5_5.jpeg","1","mat_53","1","0","0","2298.2000000178814","","","","","","","","","","","","","","","","","","","","",""
"","","","","","html-keyboard-response","111","763649","0.0-2.0-4.0-0.29","5e13e0232d2185a20d9c3b4f","D2","batch4","spm_show_trial_num","null","<p class=block-text>Trial 54 out of 60</p>","null","","","","","","","","","","","","","","","","","","","","","","","","","",""
"","","","","","image-button-response","112","767557","0.0-2.0-4.0-1.29","5e13e0232d2185a20d9c3b4f","D2","batch4","spm_respsonse","3904.5999999940395","img/question_5_6.jpeg","5","mat_54","5","0","0","3904.5999999940395","","","","","","","","","","","","","","","","","","","","",""
"","","","","","html-keyboard-response","113","768619","0.0-2.0-4.0-0.30","5e13e0232d2185a20d9c3b4f","D2","batch4","spm_show_trial_num","null","<p class=block-text>Trial 55 out of 60</p>","null","","","","","","","","","","","","","","","","","","","","","","","","","",""
"","","","","","image-button-response","114","770921","0.0-2.0-4.0-1.30","5e13e0232d2185a20d9c3b4f","D2","batch4","spm_respsonse","2300","img/question_5_7.jpeg","3","mat_55","1","0","0","2300","","","","","","","","","","","","","","","","","","","","",""
"","","","","","html-keyboard-response","115","771978","0.0-2.0-4.0-0.31","5e13e0232d2185a20d9c3b4f","D2","batch4","spm_show_trial_num","null","<p class=block-text>Trial 56 out of 60</p>","null","","","","","","","","","","","","","","","","","","","","","","","","","",""
"","","","","","image-button-response","116","773142","0.0-2.0-4.0-1.31","5e13e0232d2185a20d9c3b4f","D2","batch4","spm_respsonse","1161.0999999940395","img/question_5_8.jpeg","2","mat_56","6","0","0","1161.0999999940395","","","","","","","","","","","","","","","","","","","","",""
"","","","","","html-keyboard-response","117","774199","0.0-2.0-4.0-0.32","5e13e0232d2185a20d9c3b4f","D2","batch4","spm_show_trial_num","null","<p class=block-text>Trial 57 out of 60</p>","null","","","","","","","","","","","","","","","","","","","","","","","","","",""
"","","","","","image-button-response","118","775154","0.0-2.0-4.0-1.32","5e13e0232d2185a20d9c3b4f","D2","batch4","spm_respsonse","952.8000000119209","img/question_5_9.jpeg","6","mat_57","3","0","0","952.8000000119209","","","","","","","","","","","","","","","","","","","","",""
"","","","","","html-keyboard-response","119","776207","0.0-2.0-4.0-0.33","5e13e0232d2185a20d9c3b4f","D2","batch4","spm_show_trial_num","null","<p class=block-text>Trial 58 out of 60</p>","null","","","","","","","","","","","","","","","","","","","","","","","","","",""
"","","","","","image-button-response","120","776643","0.0-2.0-4.0-1.33","5e13e0232d2185a20d9c3b4f","D2","batch4","spm_respsonse","434.30000001192093","img/question_5_10.jpeg","3","mat_58","2","0","0","434.30000001192093","","","","","","","","","","","","","","","","","","","","",""
"","","","","","html-keyboard-response","121","777712","0.0-2.0-4.0-0.34","5e13e0232d2185a20d9c3b4f","D2","batch4","spm_show_trial_num","null","<p class=block-text>Trial 59 out of 60</p>","null","","","","","","","","","","","","","","","","","","","","","","","","","",""
"","","","","","image-button-response","122","778348","0.0-2.0-4.0-1.34","5e13e0232d2185a20d9c3b4f","D2","batch4","spm_respsonse","633.8000000119209","img/question_5_11.jpeg","3","mat_59","4","1","1","633.8000000119209","","","","","","","","","","","","","","","","","","","","",""
"","","","","","html-keyboard-response","123","779413","0.0-2.0-4.0-0.35","5e13e0232d2185a20d9c3b4f","D2","batch4","spm_show_trial_num","null","<p class=block-text>Trial 60 out of 60</p>","null","","","","","","","","","","","","","","","","","","","","","","","","","",""
"","","","","","image-button-response","124","780037","0.0-2.0-4.0-1.35","5e13e0232d2185a20d9c3b4f","D2","batch4","spm_respsonse","622.0999999940395","img/question_5_12.jpeg","3","mat_60","5","0","0","622.0999999940395","","","","","","","","","","","","","","","","","","","","",""
"","","","","","html-button-response","125","782136","0.0-2.0-5.0","5e13e0232d2185a20d9c3b4f","D2","batch4","spm_goodbye","1845.8999999761581","<p class= block-text>This concludes the Standard Progressive Matrix game. Thank you for your responses!<br> When you are ready, click the button continue</p>","0","","","","","","","","","","","","","","","","","","","","","","","","","",""
"true","","","","","fullscreen","126","784898","0.0-3.0-0.0","5e13e0232d2185a20d9c3b4f","D2","batch4","","","","","","","","","","","","","","","","","","","","","","","","","","","","","",""
"","","","","","instructions","127","800213","0.0-3.0-1.0-0.0","5e13e0232d2185a20d9c3b4f","D2","batch4","","15313.40000000596","","","","","","","","[{""page_index"":0,""viewing_time"":9694.40000000596},{""page_index"":1,""viewing_time"":5618.5}]","","","","","","","","","","","","","","","","","","","",""
"","","","","","html-button-response","128","802214","0.0-3.0-1.0-1.0-0.0","5e13e0232d2185a20d9c3b4f","D2","batch4","pattern_enter_quiz","1999.2999999821186","<p class=block-text> Let's answer a few questions <br>","0","","","","","","","","","","","","","","","","","","","","","","","","","",""
"","","","","","html-button-response","129","807083","0.0-3.0-1.0-1.0-1.0","5e13e0232d2185a20d9c3b4f","D2","batch4","pattern_quiz","4868.300000011921","<p class = block-text>True or False: You will have as much time as you want to make each choice. <br></p>","1","","","true","","","","","","","","","","","","","","","","","","","","","","",""
"","","","","","html-button-response","130","809064","0.0-3.0-1.0-1.0-2.0","5e13e0232d2185a20d9c3b4f","D2","batch4","pattern_quiz_feedback","1978.4000000059605","<p class = block-text>Correct! You should make your choice <strong> as fast as you can</strong>.</p>","0","","","","","","","","","","","","","","","","","","","","","","","","","",""
"","","","","","html-button-response","131","811695","0.0-3.0-1.0-1.0-3.0","5e13e0232d2185a20d9c3b4f","D2","batch4","pattern_quiz","2630.300000011921","<p class = block-text>True or False: You will look for 4 pieces in black or white color connected in a row either horizontally, vertically or diagonally. <br></p>","0","","","true","","","","","","","","","","","","","","","","","","","","","","",""
"","","","","","html-button-response","132","812619","0.0-3.0-1.0-1.0-4.0","5e13e0232d2185a20d9c3b4f","D2","batch4","pattern_quiz_feedback","921.8999999761581","<p class = block-text>Correct! </p>","0","","","","","","","","","","","","","","","","","","","","","","","","","",""
"","","","","","html-button-response","133","816979","0.0-3.0-2.0","5e13e0232d2185a20d9c3b4f","D2","batch4","pattern_enter_practice","4357.9000000059605","<p class=block-text> Now that you've understood the game, let's do a few practice trials before we start!<br> <br>","0","","","","","","","","","","","","","","","","","","","","","","","","","",""
"","","","","","image-keyboard-response","134","820532","0.0-3.0-3.0-0.0","5e13e0232d2185a20d9c3b4f","D2","batch4","pattern_practice","3549.600000023842","stim/prac_no_16_1.png","j","","j","true","","","","","","","","","","","","","","","","","","","","","","",""
"","","","","","html-keyboard-response","135","821539","0.0-3.0-3.0-1.0","5e13e0232d2185a20d9c3b4f","D2","batch4","pattern_feedback","null","<p style=""font-size:30px;color:green;"">Correct!</p>","null","","","","","","","","","","","","","","","","","","","","","","","","","",""
"","","","","","image-keyboard-response","136","823306","0.0-3.0-3.0-0.1","5e13e0232d2185a20d9c3b4f","D2","batch4","pattern_practice","1764.9000000059605","stim/prac_no_18_1.png","j","","j","true","","","","","","","","","","","","","","","","","","","","","","",""
"","","","","","html-keyboard-response","137","824323","0.0-3.0-3.0-1.1","5e13e0232d2185a20d9c3b4f","D2","batch4","pattern_feedback","null","<p style=""font-size:30px;color:green;"">Correct!</p>","null","","","","","","","","","","","","","","","","","","","","","","","","","",""
"","","","","","image-keyboard-response","138","825006","0.0-3.0-3.0-0.2","5e13e0232d2185a20d9c3b4f","D2","batch4","pattern_practice","681.0999999940395","stim/prac_yes_18_hor_w1.png","f","","f","true","","","","","","","","","","","","","","","","","","","","","","",""
"","","","","","html-keyboard-response","139","826023","0.0-3.0-3.0-1.2","5e13e0232d2185a20d9c3b4f","D2","batch4","pattern_feedback","null","<p style=""font-size:30px;color:green;"">Correct!</p>","null","","","","","","","","","","","","","","","","","","","","","","","","","",""
"","","","","","image-keyboard-response","140","826590","0.0-3.0-3.0-0.3","5e13e0232d2185a20d9c3b4f","D2","batch4","pattern_practice","565.1999999880791","stim/prac_yes_16_ver_w1.png","f","","f","true","","","","","","","","","","","","","","","","","","","","","","",""
"","","","","","html-keyboard-response","141","827608","0.0-3.0-3.0-1.3","5e13e0232d2185a20d9c3b4f","D2","batch4","pattern_feedback","null","<p style=""font-size:30px;color:green;"">Correct!</p>","null","","","","","","","","","","","","","","","","","","","","","","","","","",""
"","","","","","image-keyboard-response","142","829105","0.0-3.0-3.0-0.4","5e13e0232d2185a20d9c3b4f","D2","batch4","pattern_practice","1494.2000000178814","stim/prac_yes_20_dia_b1.png","f","","f","true","","","","","","","","","","","","","","","","","","","","","","",""
"","","","","","html-keyboard-response","143","830125","0.0-3.0-3.0-1.4","5e13e0232d2185a20d9c3b4f","D2","batch4","pattern_feedback","null","<p style=""font-size:30px;color:green;"">Correct!</p>","null","","","","","","","","","","","","","","","","","","","","","","","","","",""
"","","","","","html-button-response","144","832675","0.0-3.0-4.0","5e13e0232d2185a20d9c3b4f","D2","batch4","pattern_enter_official_trials","2548.5","<p class=block-text> Good job! You are done with practice trials!<br>
        You responded correctly on 100% of the trials.<br>
        Press the button below to start official trials. Now you won't see any feedback about your response</p>","0","","","","","","","","","","","","","","","","","","","","","","","","","",""
"","","","","","html-keyboard-response","145","833479","0.0-3.0-5.0-0.0","5e13e0232d2185a20d9c3b4f","D2","batch4","pattern_show_trial_num","null","<p class=block-text>Trial 1 out of 78</p>","null","","","","","","","","","","","","","","","","","","","","","","","","","",""
"","","","","","image-keyboard-response","146","834206","0.0-3.0-5.0-1.0","5e13e0232d2185a20d9c3b4f","D2","batch4","pattern_response","723.8000000119209","stim/yes_15_dia_b1u_b.png","f","pattern_44","f","true","","","","723.8000000119209","true","1","","","","","","","","","","","","","","","","",""
"","","","","","html-keyboard-response","147","835522","0.0-3.0-5.0-0.1","5e13e0232d2185a20d9c3b4f","D2","batch4","pattern_show_trial_num","null","<p class=block-text>Trial 2 out of 78</p>","null","","","","","","","","","","","","","","","","","","","","","","","","","",""
"","","","","","image-keyboard-response","148","836223","0.0-3.0-5.0-1.1","5e13e0232d2185a20d9c3b4f","D2","batch4","pattern_response","699.1999999880791","stim/yes_70_ver_b1.png","f","pattern_80","f","true","","","","699.1999999880791","true","2","","","","","","","","","","","","","","","","",""
"","","","","","html-keyboard-response","149","837544","0.0-3.0-5.0-0.2","5e13e0232d2185a20d9c3b4f","D2","batch4","pattern_show_trial_num","null","<p class=block-text>Trial 3 out of 78</p>","null","","","","","","","","","","","","","","","","","","","","","","","","","",""
"","","","","","image-keyboard-response","150","838232","0.0-3.0-5.0-1.2","5e13e0232d2185a20d9c3b4f","D2","batch4","pattern_response","685.3000000119209","stim/no_12_1.png","j","pattern_01","j","true","","","","685.3000000119209","true","3","","","","","","","","","","","","","","","","",""
"","","","","","html-keyboard-response","151","839537","0.0-3.0-5.0-0.3","5e13e0232d2185a20d9c3b4f","D2","batch4","pattern_show_trial_num","null","<p class=block-text>Trial 4 out of 78</p>","null","","","","","","","","","","","","","","","","","","","","","","","","","",""
"","","","","","image-keyboard-response","152","840870","0.0-3.0-5.0-1.3","5e13e0232d2185a20d9c3b4f","D2","batch4","pattern_response","1330.1000000238419","stim/no_33_1_b.png","j","pattern_15","j","true","","","","1330.1000000238419","true","4","","","","","","","","","","","","","","","","",""
"","","","","","html-keyboard-response","153","842195","0.0-3.0-5.0-0.4","5e13e0232d2185a20d9c3b4f","D2","batch4","pattern_show_trial_num","null","<p class=block-text>Trial 5 out of 78</p>","null","","","","","","","","","","","","","","","","","","","","","","","","","",""
"","","","","","image-keyboard-response","154","842729","0.0-3.0-5.0-1.4","5e13e0232d2185a20d9c3b4f","D2","batch4","pattern_response","531.3999999761581","stim/yes_39_hor_w1_w.png","f","pattern_62","f","true","","","","531.3999999761581","true","5","","","","","","","","","","","","","","","","",""
"","","","","","html-keyboard-response","155","844036","0.0-3.0-5.0-0.5","5e13e0232d2185a20d9c3b4f","D2","batch4","pattern_show_trial_num","null","<p class=block-text>Trial 6 out of 78</p>","null","","","","","","","","","","","","","","","","","","","","","","","","","",""
"","","","","","image-keyboard-response","156","844757","0.0-3.0-5.0-1.5","5e13e0232d2185a20d9c3b4f","D2","batch4","pattern_response","718.8999999761581","stim/yes_30_ver_b1_b.png","j","pattern_54","f","false","","","","718.8999999761581","false","5","","","","","","","","","","","","","","","","",""
"","","","","","html-keyboard-response","157","846070","0.0-3.0-5.0-0.6","5e13e0232d2185a20d9c3b4f","D2","batch4","pattern_show_trial_num","null","<p class=block-text>Trial 7 out of 78</p>","null","","","","","","","","","","","","","","","","","","","","","","","","","",""
"","","","","","image-keyboard-response","158","846974","0.0-3.0-5.0-1.6","5e13e0232d2185a20d9c3b4f","D2","batch4","pattern_response","901.7000000178814","stim/yes_26_dia_w2_w.png","f","pattern_50","f","true","","","","901.7000000178814","true","6","","","","","","","","","","","","","","","","",""
"","","","","","html-keyboard-response","159","848294","0.0-3.0-5.0-0.7","5e13e0232d2185a20d9c3b4f","D2","batch4","pattern_show_trial_num","null","<p class=block-text>Trial 8 out of 78</p>","null","","","","","","","","","","","","","","","","","","","","","","","","","",""
"","","","","","image-keyboard-response","160","851338","0.0-3.0-5.0-1.7","5e13e0232d2185a20d9c3b4f","D2","batch4","pattern_response","3041.199999988079","stim/no_67_1.png","j","pattern_39","j","true","","","","3041.199999988079","true","7","","","","","","","","","","","","","","","","",""
"","","","","","html-keyboard-response","161","852656","0.0-3.0-5.0-0.8","5e13e0232d2185a20d9c3b4f","D2","batch4","pattern_show_trial_num","null","<p class=block-text>Trial 9 out of 78</p>","null","","","","","","","","","","","","","","","","","","","","","","","","","",""
"","","","","","image-keyboard-response","162","854481","0.0-3.0-5.0-1.8","5e13e0232d2185a20d9c3b4f","D2","batch4","pattern_response","1822.300000011921","stim/yes_42_dia_w1_w.png","j","pattern_64","f","false","","","","1822.300000011921","false","7","","","","","","","","","","","","","","","","",""
"","","","","","html-keyboard-response","163","855800","0.0-3.0-5.0-0.9","5e13e0232d2185a20d9c3b4f","D2","batch4","pattern_show_trial_num","null","<p class=block-text>Trial 10 out of 78</p>","null","","","","","","","","","","","","","","","","","","","","","","","","","",""
"","","","","","image-keyboard-response","164","859100","0.0-3.0-5.0-1.9","5e13e0232d2185a20d9c3b4f","D2","batch4","pattern_response","3297.4000000059605","stim/no_45_1_w.png","j","pattern_25","j","true","","","","3297.4000000059605","true","8","","","","","","","","","","","","","","","","",""
"","","","","","html-keyboard-response","165","860414","0.0-3.0-5.0-0.10","5e13e0232d2185a20d9c3b4f","D2","batch4","pattern_show_trial_num","null","<p class=block-text>Trial 11 out of 78</p>","null","","","","","","","","","","","","","","","","","","","","","","","","","",""
"","","","","","image-keyboard-response","166","861880","0.0-3.0-5.0-1.10","5e13e0232d2185a20d9c3b4f","D2","batch4","pattern_response","1454.300000011921","stim/no_39_1_w.png","j","pattern_21","j","true","","","","1454.300000011921","true","9","","","","","","","","","","","","","","","","",""
"","","","","","html-keyboard-response","167","863188","0.0-3.0-5.0-0.11","5e13e0232d2185a20d9c3b4f","D2","batch4","pattern_show_trial_num","null","<p class=block-text>Trial 12 out of 78</p>","null","","","","","","","","","","","","","","","","","","","","","","","","","",""
"","","","","","image-keyboard-response","168","865022","0.0-3.0-5.0-1.11","5e13e0232d2185a20d9c3b4f","D2","batch4","pattern_response","1838.5","stim/no_58_1_w.png","j","pattern_35","j","true","","","","1838.5","true","10","","","","","","","","","","","","","","","","",""
"","","","","","html-keyboard-response","169","866337","0.0-3.0-5.0-0.12","5e13e0232d2185a20d9c3b4f","D2","batch4","pattern_show_trial_num","null","<p class=block-text>Trial 13 out of 78</p>","null","","","","","","","","","","","","","","","","","","","","","","","","","",""
"","","","","","image-keyboard-response","170","868034","0.0-3.0-5.0-1.12","5e13e0232d2185a20d9c3b4f","D2","batch4","pattern_response","1694.9000000059605","stim/yes_53_ver_b1_b.png","j","pattern_74","f","false","","","","1694.9000000059605","false","10","","","","","","","","","","","","","","","","",""
"","","","","","html-keyboard-response","171","869362","0.0-3.0-5.0-0.13","5e13e0232d2185a20d9c3b4f","D2","batch4","pattern_show_trial_num","null","<p class=block-text>Trial 14 out of 78</p>","null","","","","","","","","","","","","","","","","","","","","","","","","","",""
"","","","","","image-keyboard-response","172","872016","0.0-3.0-5.0-1.13","5e13e0232d2185a20d9c3b4f","D2","batch4","pattern_response","2651.4000000059605","stim/no_25_1_b.png","j","pattern_09","j","true","","","","2651.4000000059605","true","11","","","","","","","","","","","","","","","","",""
"","","","","","html-keyboard-response","173","873329","0.0-3.0-5.0-0.14","5e13e0232d2185a20d9c3b4f","D2","batch4","pattern_show_trial_num","null","<p class=block-text>Trial 15 out of 78</p>","null","","","","","","","","","","","","","","","","","","","","","","","","","",""
"","","","","","image-keyboard-response","174","876796","0.0-3.0-5.0-1.14","5e13e0232d2185a20d9c3b4f","D2","batch4","pattern_response","3465.5999999940395","stim/yes_63_dia_b1.png","f","pattern_78","f","true","","","","3465.5999999940395","true","12","","","","","","","","","","","","","","","","",""
"","","","","","html-keyboard-response","175","878111","0.0-3.0-5.0-0.15","5e13e0232d2185a20d9c3b4f","D2","batch4","pattern_show_trial_num","null","<p class=block-text>Trial 16 out of 78</p>","null","","","","","","","","","","","","","","","","","","","","","","","","","",""
"","","","","","image-keyboard-response","176","882738","0.0-3.0-5.0-1.15","5e13e0232d2185a20d9c3b4f","D2","batch4","pattern_response","4625","stim/no_47_1_b.png","j","pattern_27","j","true","","","","4625","true","13","","","","","","","","","","","","","","","","",""
"","","","","","html-keyboard-response","177","884054","0.0-3.0-5.0-0.16","5e13e0232d2185a20d9c3b4f","D2","batch4","pattern_show_trial_num","null","<p class=block-text>Trial 17 out of 78</p>","null","","","","","","","","","","","","","","","","","","","","","","","","","",""
"","","","","","image-keyboard-response","178","884784","0.0-3.0-5.0-1.16","5e13e0232d2185a20d9c3b4f","D2","batch4","pattern_response","727.8000000119209","stim/yes_33_dia_w1_w.png","f","pattern_56","f","true","","","","727.8000000119209","true","14","","","","","","","","","","","","","","","","",""
"","","","","","html-keyboard-response","179","886108","0.0-3.0-5.0-0.17","5e13e0232d2185a20d9c3b4f","D2","batch4","pattern_show_trial_num","null","<p class=block-text>Trial 18 out of 78</p>","null","","","","","","","","","","","","","","","","","","","","","","","","","",""
"","","","","","image-keyboard-response","180","887721","0.0-3.0-5.0-1.17","5e13e0232d2185a20d9c3b4f","D2","batch4","pattern_response","1610.199999988079","stim/no_30_1_b.png","j","pattern_13","j","true","","","","1610.199999988079","true","15","","","","","","","","","","","","","","","","",""
"","","","","","html-keyboard-response","181","889043","0.0-3.0-5.0-0.18","5e13e0232d2185a20d9c3b4f","D2","batch4","pattern_show_trial_num","null","<p class=block-text>Trial 19 out of 78</p>","null","","","","","","","","","","","","","","","","","","","","","","","","","",""
"","","","","","image-keyboard-response","182","889665","0.0-3.0-5.0-1.18","5e13e0232d2185a20d9c3b4f","D2","batch4","pattern_response","619.0999999940395","stim/yes_23_ver_b1.png","f","pattern_48","f","true","","","","619.0999999940395","true","16","","","","","","","","","","","","","","","","",""
"","","","","","html-keyboard-response","183","890988","0.0-3.0-5.0-0.19","5e13e0232d2185a20d9c3b4f","D2","batch4","pattern_show_trial_num","null","<p class=block-text>Trial 20 out of 78</p>","null","","","","","","","","","","","","","","","","","","","","","","","","","",""
"","","","","","image-keyboard-response","184","893444","0.0-3.0-5.0-1.19","5e13e0232d2185a20d9c3b4f","D2","batch4","pattern_response","2454.7000000178814","stim/no_36_1_b.png","j","pattern_17","j","true","","","","2454.7000000178814","true","17","","","","","","","","","","","","","","","","",""
"","","","","","html-keyboard-response","185","894758","0.0-3.0-5.0-0.20","5e13e0232d2185a20d9c3b4f","D2","batch4","pattern_show_trial_num","null","<p class=block-text>Trial 21 out of 78</p>","null","","","","","","","","","","","","","","","","","","","","","","","","","",""
"","","","","","image-keyboard-response","186","896659","0.0-3.0-5.0-1.20","5e13e0232d2185a20d9c3b4f","D2","batch4","pattern_response","1898.2999999821186","stim/no_49_2_b.png","j","pattern_29","j","true","","","","1898.2999999821186","true","18","","","","","","","","","","","","","","","","",""
"","","","","","html-keyboard-response","187","897980","0.0-3.0-5.0-0.21","5e13e0232d2185a20d9c3b4f","D2","batch4","pattern_show_trial_num","null","<p class=block-text>Trial 22 out of 78</p>","null","","","","","","","","","","","","","","","","","","","","","","","","","",""
"","","","","","image-keyboard-response","188","901482","0.0-3.0-5.0-1.21","5e13e0232d2185a20d9c3b4f","D2","batch4","pattern_response","3499.199999988079","stim/yes_58_dia_w1_w.png","j","pattern_76","f","false","","","","3499.199999988079","false","18","","","","","","","","","","","","","","","","",""
"","","","","","html-keyboard-response","189","902804","0.0-3.0-5.0-0.22","5e13e0232d2185a20d9c3b4f","D2","batch4","pattern_show_trial_num","null","<p class=block-text>Trial 23 out of 78</p>","null","","","","","","","","","","","","","","","","","","","","","","","","","",""
"","","","","","image-keyboard-response","190","903648","0.0-3.0-5.0-1.22","5e13e0232d2185a20d9c3b4f","D2","batch4","pattern_response","841.6999999880791","stim/no_22_1_b.png","j","pattern_07","j","true","","","","841.6999999880791","true","19","","","","","","","","","","","","","","","","",""
"","","","","","html-keyboard-response","191","904967","0.0-3.0-5.0-0.23","5e13e0232d2185a20d9c3b4f","D2","batch4","pattern_show_trial_num","null","<p class=block-text>Trial 24 out of 78</p>","null","","","","","","","","","","","","","","","","","","","","","","","","","",""
"","","","","","image-keyboard-response","192","908808","0.0-3.0-5.0-1.23","5e13e0232d2185a20d9c3b4f","D2","batch4","pattern_response","3838.0999999940395","stim/no_51_1.png","j","pattern_31","j","true","","","","3838.0999999940395","true","20","","","","","","","","","","","","","","","","",""
"","","","","","html-keyboard-response","193","910122","0.0-3.0-5.0-0.24","5e13e0232d2185a20d9c3b4f","D2","batch4","pattern_show_trial_num","null","<p class=block-text>Trial 25 out of 78</p>","null","","","","","","","","","","","","","","","","","","","","","","","","","",""
"","","","","","image-keyboard-response","194","914978","0.0-3.0-5.0-1.24","5e13e0232d2185a20d9c3b4f","D2","batch4","pattern_response","4854.699999988079","stim/no_53_1_b.png","j","pattern_33","j","true","","","","4854.699999988079","true","21","","","","","","","","","","","","","","","","",""
"","","","","","html-keyboard-response","195","916300","0.0-3.0-5.0-0.25","5e13e0232d2185a20d9c3b4f","D2","batch4","pattern_show_trial_num","null","<p class=block-text>Trial 26 out of 78</p>","null","","","","","","","","","","","","","","","","","","","","","","","","","",""
"","","","","","image-keyboard-response","196","917984","0.0-3.0-5.0-1.25","5e13e0232d2185a20d9c3b4f","D2","batch4","pattern_response","1680.699999988079","stim/no_43_2_b.png","j","pattern_23","j","true","","","","1680.699999988079","true","22","","","","","","","","","","","","","","","","",""
"","","","","","html-keyboard-response","197","919297","0.0-3.0-5.0-0.26","5e13e0232d2185a20d9c3b4f","D2","batch4","pattern_show_trial_num","null","<p class=block-text>Trial 27 out of 78</p>","null","","","","","","","","","","","","","","","","","","","","","","","","","",""
"","","","","","image-keyboard-response","198","919971","0.0-3.0-5.0-1.26","5e13e0232d2185a20d9c3b4f","D2","batch4","pattern_response","671.6999999880791","stim/yes_36_ver_w1_w.png","f","pattern_58","f","true","","","","671.6999999880791","true","23","","","","","","","","","","","","","","","","",""
"","","","","","html-keyboard-response","199","921294","0.0-3.0-5.0-0.27","5e13e0232d2185a20d9c3b4f","D2","batch4","pattern_show_trial_num","null","<p class=block-text>Trial 28 out of 78</p>","null","","","","","","","","","","","","","","","","","","","","","","","","","",""
"","","","","","image-keyboard-response","200","923877","0.0-3.0-5.0-1.27","5e13e0232d2185a20d9c3b4f","D2","batch4","pattern_response","2580.5999999940395","stim/no_28_2.png","j","pattern_11","j","true","","","","2580.5999999940395","true","24","","","","","","","","","","","","","","","","",""
"","","","","","html-keyboard-response","201","925199","0.0-3.0-5.0-0.28","5e13e0232d2185a20d9c3b4f","D2","batch4","pattern_show_trial_num","null","<p class=block-text>Trial 29 out of 78</p>","null","","","","","","","","","","","","","","","","","","","","","","","","","",""
"","","","","","image-keyboard-response","202","926333","0.0-3.0-5.0-1.28","5e13e0232d2185a20d9c3b4f","D2","batch4","pattern_response","1131","stim/yes_37_hor_w1_w.png","f","pattern_60","f","true","","","","1131","true","25","","","","","","","","","","","","","","","","",""
"","","","","","html-keyboard-response","203","927648","0.0-3.0-5.0-0.29","5e13e0232d2185a20d9c3b4f","D2","batch4","pattern_show_trial_num","null","<p class=block-text>Trial 30 out of 78</p>","null","","","","","","","","","","","","","","","","","","","","","","","","","",""
"","","","","","image-keyboard-response","204","928821","0.0-3.0-5.0-1.29","5e13e0232d2185a20d9c3b4f","D2","batch4","pattern_response","1170.800000011921","stim/yes_44_ver_w1_w.png","f","pattern_66","f","true","","","","1170.800000011921","true","26","","","","","","","","","","","","","","","","",""
"","","","","","html-keyboard-response","205","930131","0.0-3.0-5.0-0.30","5e13e0232d2185a20d9c3b4f","D2","batch4","pattern_show_trial_num","null","<p class=block-text>Trial 31 out of 78</p>","null","","","","","","","","","","","","","","","","","","","","","","","","","",""
"","","","","","image-keyboard-response","206","930845","0.0-3.0-5.0-1.30","5e13e0232d2185a20d9c3b4f","D2","batch4","pattern_response","712.8000000119209","stim/yes_29_hor_b1_b.png","f","pattern_52","f","true","","","","712.8000000119209","true","27","","","","","","","","","","","","","","","","",""
"","","","","","html-keyboard-response","207","932165","0.0-3.0-5.0-0.31","5e13e0232d2185a20d9c3b4f","D2","batch4","pattern_show_trial_num","null","<p class=block-text>Trial 32 out of 78</p>","null","","","","","","","","","","","","","","","","","","","","","","","","","",""
"","","","","","image-keyboard-response","208","932978","0.0-3.0-5.0-1.31","5e13e0232d2185a20d9c3b4f","D2","batch4","pattern_response","811","stim/yes_46_ver_b1_b.png","j","pattern_68","f","false","","","","811","false","27","","","","","","","","","","","","","","","","",""
"","","","","","html-keyboard-response","209","934297","0.0-3.0-5.0-0.32","5e13e0232d2185a20d9c3b4f","D2","batch4","pattern_show_trial_num","null","<p class=block-text>Trial 33 out of 78</p>","null","","","","","","","","","","","","","","","","","","","","","","","","","",""
"","","","","","image-keyboard-response","210","935713","0.0-3.0-5.0-1.32","5e13e0232d2185a20d9c3b4f","D2","batch4","pattern_response","1414.2999999821186","stim/no_15_1_w.png","j","pattern_03","j","true","","","","1414.2999999821186","true","28","","","","","","","","","","","","","","","","",""
"","","","","","html-keyboard-response","211","937019","0.0-3.0-5.0-0.33","5e13e0232d2185a20d9c3b4f","D2","batch4","pattern_show_trial_num","null","<p class=block-text>Trial 34 out of 78</p>","null","","","","","","","","","","","","","","","","","","","","","","","","","",""
"","","","","","image-keyboard-response","212","937873","0.0-3.0-5.0-1.33","5e13e0232d2185a20d9c3b4f","D2","batch4","pattern_response","851.9000000059605","stim/yes_49_hor_w1_b.png","f","pattern_70","f","true","","","","851.9000000059605","true","29","","","","","","","","","","","","","","","","",""
"","","","","","html-keyboard-response","213","939186","0.0-3.0-5.0-0.34","5e13e0232d2185a20d9c3b4f","D2","batch4","pattern_show_trial_num","null","<p class=block-text>Trial 35 out of 78</p>","null","","","","","","","","","","","","","","","","","","","","","","","","","",""
"","","","","","image-keyboard-response","214","939845","0.0-3.0-5.0-1.34","5e13e0232d2185a20d9c3b4f","D2","batch4","pattern_response","657.0999999940395","stim/yes_17_ver_b1_b.png","f","pattern_46","f","true","","","","657.0999999940395","true","30","","","","","","","","","","","","","","","","",""
"","","","","","html-keyboard-response","215","941153","0.0-3.0-5.0-0.35","5e13e0232d2185a20d9c3b4f","D2","batch4","pattern_show_trial_num","null","<p class=block-text>Trial 36 out of 78</p>","null","","","","","","","","","","","","","","","","","","","","","","","","","",""
"","","","","","image-keyboard-response","216","941690","0.0-3.0-5.0-1.35","5e13e0232d2185a20d9c3b4f","D2","batch4","pattern_response","534.8999999761581","stim/yes_12_hor_w1_w.png","f","pattern_42","f","true","","","","534.8999999761581","true","31","","","","","","","","","","","","","","","","",""
"","","","","","html-keyboard-response","217","943005","0.0-3.0-5.0-0.36","5e13e0232d2185a20d9c3b4f","D2","batch4","pattern_show_trial_num","null","<p class=block-text>Trial 37 out of 78</p>","null","","","","","","","","","","","","","","","","","","","","","","","","","",""
"","","","","","image-keyboard-response","218","945658","0.0-3.0-5.0-1.36","5e13e0232d2185a20d9c3b4f","D2","batch4","pattern_response","2650.5999999940395","stim/no_37_2_w.png","j","pattern_19","j","true","","","","2650.5999999940395","true","32","","","","","","","","","","","","","","","","",""
"","","","","","html-keyboard-response","219","946974","0.0-3.0-5.0-0.37","5e13e0232d2185a20d9c3b4f","D2","batch4","pattern_show_trial_num","null","<p class=block-text>Trial 38 out of 78</p>","null","","","","","","","","","","","","","","","","","","","","","","","","","",""
"","","","","","image-keyboard-response","220","948031","0.0-3.0-5.0-1.37","5e13e0232d2185a20d9c3b4f","D2","batch4","pattern_response","1054.5","stim/yes_51_dia_b1.png","f","pattern_72","f","true","","","","1054.5","true","33","","","","","","","","","","","","","","","","",""
"","","","","","html-keyboard-response","221","949346","0.0-3.0-5.0-0.38","5e13e0232d2185a20d9c3b4f","D2","batch4","pattern_show_trial_num","null","<p class=block-text>Trial 39 out of 78</p>","null","","","","","","","","","","","","","","","","","","","","","","","","","",""
"","","","","","image-keyboard-response","222","950710","0.0-3.0-5.0-1.38","5e13e0232d2185a20d9c3b4f","D2","batch4","pattern_response","1362.5999999940395","stim/no_18_1_b.png","j","pattern_05","j","true","","","","1362.5999999940395","true","34","","","","","","","","","","","","","","","","",""
"","","","","","image-keyboard-response","223","953707","0.0-3.0-6.0","5e13e0232d2185a20d9c3b4f","D2","batch4","attention_check","2489.2999999821186","stim/empty_board.png","j","","j","true","","","","","","","500","[""f"",""j""]","","","","","","","","","","","","","","",""
"","","","","","html-keyboard-response","224","954519","0.0-3.0-7.0-0.0","5e13e0232d2185a20d9c3b4f","D2","batch4","pattern_show_trial_num","null","<p class=block-text>Trial 40 out of 78</p>","null","","","","","","","","","","","","","","","","","","","","","","","","","",""
"","","","","","image-keyboard-response","225","955601","0.0-3.0-7.0-1.0","5e13e0232d2185a20d9c3b4f","D2","batch4","pattern_response","1080.0999999940395","stim/yes_40_dia_b1_b.png","f","pattern_63","f","true","","","","1080.0999999940395","true","35","","","","","","","","","","","","","","","","",""
"","","","","","html-keyboard-response","226","956922","0.0-3.0-7.0-0.1","5e13e0232d2185a20d9c3b4f","D2","batch4","pattern_show_trial_num","null","<p class=block-text>Trial 41 out of 78</p>","null","","","","","","","","","","","","","","","","","","","","","","","","","",""
"","","","","","image-keyboard-response","227","959479","0.0-3.0-7.0-1.1","5e13e0232d2185a20d9c3b4f","D2","batch4","pattern_response","2555.100000023842","stim/no_55_1_w.png","j","pattern_34","j","true","","","","2555.100000023842","true","36","","","","","","","","","","","","","","","","",""
"","","","","","html-keyboard-response","228","960792","0.0-3.0-7.0-0.2","5e13e0232d2185a20d9c3b4f","D2","batch4","pattern_show_trial_num","null","<p class=block-text>Trial 42 out of 78</p>","null","","","","","","","","","","","","","","","","","","","","","","","","","",""
"","","","","","image-keyboard-response","229","961868","0.0-3.0-7.0-1.2","5e13e0232d2185a20d9c3b4f","D2","batch4","pattern_response","1073.699999988079","stim/yes_45_hor_b2_b.png","f","pattern_67","f","true","","","","1073.699999988079","true","37","","","","","","","","","","","","","","","","",""
"","","","","","html-keyboard-response","230","963181","0.0-3.0-7.0-0.3","5e13e0232d2185a20d9c3b4f","D2","batch4","pattern_show_trial_num","null","<p class=block-text>Trial 43 out of 78</p>","null","","","","","","","","","","","","","","","","","","","","","","","","","",""
"","","","","","image-keyboard-response","231","965135","0.0-3.0-7.0-1.3","5e13e0232d2185a20d9c3b4f","D2","batch4","pattern_response","1952.0999999940395","stim/no_34_1_b.png","j","pattern_16","j","true","","","","1952.0999999940395","true","38","","","","","","","","","","","","","","","","",""
"","","","","","html-keyboard-response","232","966456","0.0-3.0-7.0-0.4","5e13e0232d2185a20d9c3b4f","D2","batch4","pattern_show_trial_num","null","<p class=block-text>Trial 44 out of 78</p>","null","","","","","","","","","","","","","","","","","","","","","","","","","",""
"","","","","","image-keyboard-response","233","970094","0.0-3.0-7.0-1.4","5e13e0232d2185a20d9c3b4f","D2","batch4","pattern_response","3634.0999999940395","stim/no_70_2.png","j","pattern_40","j","true","","","","3634.0999999940395","true","39","","","","","","","","","","","","","","","","",""
"","","","","","html-keyboard-response","234","971406","0.0-3.0-7.0-0.5","5e13e0232d2185a20d9c3b4f","D2","batch4","pattern_show_trial_num","null","<p class=block-text>Trial 45 out of 78</p>","null","","","","","","","","","","","","","","","","","","","","","","","","","",""
"","","","","","image-keyboard-response","235","972528","0.0-3.0-7.0-1.5","5e13e0232d2185a20d9c3b4f","D2","batch4","pattern_response","1119.7000000178814","stim/no_20_1_w.png","j","pattern_06","j","true","","","","1119.7000000178814","true","40","","","","","","","","","","","","","","","","",""
"","","","","","html-keyboard-response","236","973838","0.0-3.0-7.0-0.6","5e13e0232d2185a20d9c3b4f","D2","batch4","pattern_show_trial_num","null","<p class=block-text>Trial 46 out of 78</p>","null","","","","","","","","","","","","","","","","","","","","","","","","","",""
"","","","","","image-keyboard-response","237","977283","0.0-3.0-7.0-1.6","5e13e0232d2185a20d9c3b4f","D2","batch4","pattern_response","3443","stim/yes_60_ver_b1_b.png","f","pattern_77","f","true","","","","3443","true","41","","","","","","","","","","","","","","","","",""
"","","","","","html-keyboard-response","238","978602","0.0-3.0-7.0-0.7","5e13e0232d2185a20d9c3b4f","D2","batch4","pattern_show_trial_num","null","<p class=block-text>Trial 47 out of 78</p>","null","","","","","","","","","","","","","","","","","","","","","","","","","",""
"","","","","","image-keyboard-response","239","981136","0.0-3.0-7.0-1.7","5e13e0232d2185a20d9c3b4f","D2","batch4","pattern_response","2531.4000000059605","stim/yes_67_hor_b1.png","f","pattern_79","f","true","","","","2531.4000000059605","true","42","","","","","","","","","","","","","","","","",""
"","","","","","html-keyboard-response","240","982446","0.0-3.0-7.0-0.8","5e13e0232d2185a20d9c3b4f","D2","batch4","pattern_show_trial_num","null","<p class=block-text>Trial 48 out of 78</p>","null","","","","","","","","","","","","","","","","","","","","","","","","","",""
"","","","","","image-keyboard-response","241","983079","0.0-3.0-7.0-1.8","5e13e0232d2185a20d9c3b4f","D2","batch4","pattern_response","631.5","stim/yes_17_dia_w1.png","f","pattern_45","f","true","","","","631.5","true","43","","","","","","","","","","","","","","","","",""
"","","","","","html-keyboard-response","242","984402","0.0-3.0-7.0-0.9","5e13e0232d2185a20d9c3b4f","D2","batch4","pattern_show_trial_num","null","<p class=block-text>Trial 49 out of 78</p>","null","","","","","","","","","","","","","","","","","","","","","","","","","",""
"","","","","","image-keyboard-response","243","986533","0.0-3.0-7.0-1.9","5e13e0232d2185a20d9c3b4f","D2","batch4","pattern_response","2131.5","stim/no_50_1.png","j","pattern_30","j","true","","","","2131.5","true","44","","","","","","","","","","","","","","","","",""
"","","","","","html-keyboard-response","244","987854","0.0-3.0-7.0-0.10","5e13e0232d2185a20d9c3b4f","D2","batch4","pattern_show_trial_num","null","<p class=block-text>Trial 50 out of 78</p>","null","","","","","","","","","","","","","","","","","","","","","","","","","",""
"","","","","","image-keyboard-response","245","990217","0.0-3.0-7.0-1.10","5e13e0232d2185a20d9c3b4f","D2","batch4","pattern_response","2360.100000023842","stim/no_52_1.png","j","pattern_32","j","true","","","","2360.100000023842","true","45","","","","","","","","","","","","","","","","",""
"","","","","","html-keyboard-response","246","991543","0.0-3.0-7.0-0.11","5e13e0232d2185a20d9c3b4f","D2","batch4","pattern_show_trial_num","null","<p class=block-text>Trial 51 out of 78</p>","null","","","","","","","","","","","","","","","","","","","","","","","","","",""
"","","","","","image-keyboard-response","247","992743","0.0-3.0-7.0-1.11","5e13e0232d2185a20d9c3b4f","D2","batch4","pattern_response","1197.0999999940395","stim/no_26_1_w.png","j","pattern_10","j","true","","","","1197.0999999940395","true","46","","","","","","","","","","","","","","","","",""
"","","","","","html-keyboard-response","248","994061","0.0-3.0-7.0-0.12","5e13e0232d2185a20d9c3b4f","D2","batch4","pattern_show_trial_num","null","<p class=block-text>Trial 52 out of 78</p>","null","","","","","","","","","","","","","","","","","","","","","","","","","",""
"","","","","","image-keyboard-response","249","998976","0.0-3.0-7.0-1.12","5e13e0232d2185a20d9c3b4f","D2","batch4","pattern_response","4912.5","stim/no_62_1_w.png","j","pattern_36","j","true","","","","4912.5","true","47","","","","","","","","","","","","","","","","",""
"","","","","","html-keyboard-response","250","1000301","0.0-3.0-7.0-0.13","5e13e0232d2185a20d9c3b4f","D2","batch4","pattern_show_trial_num","null","<p class=block-text>Trial 53 out of 78</p>","null","","","","","","","","","","","","","","","","","","","","","","","","","",""
"","","","","","image-keyboard-response","251","1001369","0.0-3.0-7.0-1.13","5e13e0232d2185a20d9c3b4f","D2","batch4","pattern_response","1064.5999999940395","stim/no_13_2_b.png","j","pattern_02","j","true","","","","1064.5999999940395","true","48","","","","","","","","","","","","","","","","",""
"","","","","","html-keyboard-response","252","1002690","0.0-3.0-7.0-0.14","5e13e0232d2185a20d9c3b4f","D2","batch4","pattern_show_trial_num","null","<p class=block-text>Trial 54 out of 78</p>","null","","","","","","","","","","","","","","","","","","","","","","","","","",""
"","","","","","image-keyboard-response","253","1003473","0.0-3.0-7.0-1.14","5e13e0232d2185a20d9c3b4f","D2","batch4","pattern_response","781.6999999880791","stim/yes_14_hor_b1_w.png","f","pattern_43","f","true","","","","781.6999999880791","true","49","","","","","","","","","","","","","","","","",""
"","","","","","html-keyboard-response","254","1004799","0.0-3.0-7.0-0.15","5e13e0232d2185a20d9c3b4f","D2","batch4","pattern_show_trial_num","null","<p class=block-text>Trial 55 out of 78</p>","null","","","","","","","","","","","","","","","","","","","","","","","","","",""
"","","","","","image-keyboard-response","255","1005896","0.0-3.0-7.0-1.15","5e13e0232d2185a20d9c3b4f","D2","batch4","pattern_response","1096","stim/yes_52_ver_w1.png","f","pattern_73","f","true","","","","1096","true","50","","","","","","","","","","","","","","","","",""
"","","","","","html-keyboard-response","256","1007210","0.0-3.0-7.0-0.16","5e13e0232d2185a20d9c3b4f","D2","batch4","pattern_show_trial_num","null","<p class=block-text>Trial 56 out of 78</p>","null","","","","","","","","","","","","","","","","","","","","","","","","","",""
"","","","","","image-keyboard-response","257","1009940","0.0-3.0-7.0-1.16","5e13e0232d2185a20d9c3b4f","D2","batch4","pattern_response","2727.5","stim/no_44_1.png","j","pattern_24","j","true","","","","2727.5","true","51","","","","","","","","","","","","","","","","",""
"","","","","","html-keyboard-response","258","1011260","0.0-3.0-7.0-0.17","5e13e0232d2185a20d9c3b4f","D2","batch4","pattern_show_trial_num","null","<p class=block-text>Trial 57 out of 78</p>","null","","","","","","","","","","","","","","","","","","","","","","","","","",""
"","","","","","image-keyboard-response","259","1013847","0.0-3.0-7.0-1.17","5e13e0232d2185a20d9c3b4f","D2","batch4","pattern_response","2585.0999999940395","stim/yes_37_dia_w1.png","j","pattern_59","f","false","","","","2585.0999999940395","false","51","","","","","","","","","","","","","","","","",""
"","","","","","html-keyboard-response","260","1015163","0.0-3.0-7.0-0.18","5e13e0232d2185a20d9c3b4f","D2","batch4","pattern_show_trial_num","null","<p class=block-text>Trial 58 out of 78</p>","null","","","","","","","","","","","","","","","","","","","","","","","","","",""
"","","","","","image-keyboard-response","261","1016293","0.0-3.0-7.0-1.18","5e13e0232d2185a20d9c3b4f","D2","batch4","pattern_response","1127.2000000178814","stim/yes_31_hor_b1.png","f","pattern_55","f","true","","","","1127.2000000178814","true","52","","","","","","","","","","","","","","","","",""
"","","","","","html-keyboard-response","262","1017603","0.0-3.0-7.0-0.19","5e13e0232d2185a20d9c3b4f","D2","batch4","pattern_show_trial_num","null","<p class=block-text>Trial 59 out of 78</p>","null","","","","","","","","","","","","","","","","","","","","","","","","","",""
"","","","","","image-keyboard-response","263","1019370","0.0-3.0-7.0-1.19","5e13e0232d2185a20d9c3b4f","D2","batch4","pattern_response","1764.5","stim/yes_48_dia_w1_w.png","j","pattern_69","f","false","","","","1764.5","false","52","","","","","","","","","","","","","","","","",""
"","","","","","html-keyboard-response","264","1020691","0.0-3.0-7.0-0.20","5e13e0232d2185a20d9c3b4f","D2","batch4","pattern_show_trial_num","null","<p class=block-text>Trial 60 out of 78</p>","null","","","","","","","","","","","","","","","","","","","","","","","","","",""
"","","","","","image-keyboard-response","265","1023482","0.0-3.0-7.0-1.20","5e13e0232d2185a20d9c3b4f","D2","batch4","pattern_response","2789.0999999940395","stim/no_42_1_w.png","j","pattern_22","j","true","","","","2789.0999999940395","true","53","","","","","","","","","","","","","","","","",""
"","","","","","html-keyboard-response","266","1024785","0.0-3.0-7.0-0.21","5e13e0232d2185a20d9c3b4f","D2","batch4","pattern_show_trial_num","null","<p class=block-text>Trial 61 out of 78</p>","null","","","","","","","","","","","","","","","","","","","","","","","","","",""
"","","","","","image-keyboard-response","267","1025537","0.0-3.0-7.0-1.21","5e13e0232d2185a20d9c3b4f","D2","batch4","pattern_response","750.0999999940395","stim/no_17_1_w.png","j","pattern_04","j","true","","","","750.0999999940395","true","54","","","","","","","","","","","","","","","","",""
"","","","","","html-keyboard-response","268","1026857","0.0-3.0-7.0-0.22","5e13e0232d2185a20d9c3b4f","D2","batch4","pattern_show_trial_num","null","<p class=block-text>Trial 62 out of 78</p>","null","","","","","","","","","","","","","","","","","","","","","","","","","",""
"","","","","","image-keyboard-response","269","1028866","0.0-3.0-7.0-1.22","5e13e0232d2185a20d9c3b4f","D2","batch4","pattern_response","2007.199999988079","stim/yes_35_dia_b1.png","f","pattern_57","f","true","","","","2007.199999988079","true","55","","","","","","","","","","","","","","","","",""
"","","","","","html-keyboard-response","270","1030186","0.0-3.0-7.0-0.23","5e13e0232d2185a20d9c3b4f","D2","batch4","pattern_show_trial_num","null","<p class=block-text>Trial 63 out of 78</p>","null","","","","","","","","","","","","","","","","","","","","","","","","","",""
"","","","","","image-keyboard-response","271","1032085","0.0-3.0-7.0-1.23","5e13e0232d2185a20d9c3b4f","D2","batch4","pattern_response","1895.5","stim/no_29_1_b.png","j","pattern_12","j","true","","","","1895.5","true","56","","","","","","","","","","","","","","","","",""
"","","","","","html-keyboard-response","272","1033406","0.0-3.0-7.0-0.24","5e13e0232d2185a20d9c3b4f","D2","batch4","pattern_show_trial_num","null","<p class=block-text>Trial 64 out of 78</p>","null","","","","","","","","","","","","","","","","","","","","","","","","","",""
"","","","","","image-keyboard-response","273","1038542","0.0-3.0-7.0-1.24","5e13e0232d2185a20d9c3b4f","D2","batch4","pattern_response","5134.300000011921","stim/yes_50_dia_w1.png","f","pattern_71","f","true","","","","5134.300000011921","true","57","","","","","","","","","","","","","","","","",""
"","","","","","html-keyboard-response","274","1039872","0.0-3.0-7.0-0.25","5e13e0232d2185a20d9c3b4f","D2","batch4","pattern_show_trial_num","null","<p class=block-text>Trial 65 out of 78</p>","null","","","","","","","","","","","","","","","","","","","","","","","","","",""
"","","","","","image-keyboard-response","275","1043152","0.0-3.0-7.0-1.25","5e13e0232d2185a20d9c3b4f","D2","batch4","pattern_response","3277","stim/no_38_1_b.png","j","pattern_20","j","true","","","","3277","true","58","","","","","","","","","","","","","","","","",""
"","","","","","html-keyboard-response","276","1044466","0.0-3.0-7.0-0.26","5e13e0232d2185a20d9c3b4f","D2","batch4","pattern_show_trial_num","null","<p class=block-text>Trial 66 out of 78</p>","null","","","","","","","","","","","","","","","","","","","","","","","","","",""
"","","","","","image-keyboard-response","277","1045272","0.0-3.0-7.0-1.26","5e13e0232d2185a20d9c3b4f","D2","batch4","pattern_response","804.1999999880791","stim/yes_25_hor_b1_b.png","f","pattern_49","f","true","","","","804.1999999880791","true","59","","","","","","","","","","","","","","","","",""
"","","","","","html-keyboard-response","278","1046600","0.0-3.0-7.0-0.27","5e13e0232d2185a20d9c3b4f","D2","batch4","pattern_show_trial_num","null","<p class=block-text>Trial 67 out of 78</p>","null","","","","","","","","","","","","","","","","","","","","","","","","","",""
"","","","","","image-keyboard-response","279","1049943","0.0-3.0-7.0-1.27","5e13e0232d2185a20d9c3b4f","D2","batch4","pattern_response","3340.4000000059605","stim/no_48_1_w.png","j","pattern_28","j","true","","","","3340.4000000059605","true","60","","","","","","","","","","","","","","","","",""
"","","","","","html-keyboard-response","280","1051268","0.0-3.0-7.0-0.28","5e13e0232d2185a20d9c3b4f","D2","batch4","pattern_show_trial_num","null","<p class=block-text>Trial 68 out of 78</p>","null","","","","","","","","","","","","","","","","","","","","","","","","","",""
"","","","","","image-keyboard-response","281","1052190","0.0-3.0-7.0-1.28","5e13e0232d2185a20d9c3b4f","D2","batch4","pattern_response","919.5999999940395","stim/yes_22_ver_w1.png","f","pattern_47","f","true","","","","919.5999999940395","true","61","","","","","","","","","","","","","","","","",""
"","","","","","html-keyboard-response","282","1053505","0.0-3.0-7.0-0.29","5e13e0232d2185a20d9c3b4f","D2","batch4","pattern_show_trial_num","null","<p class=block-text>Trial 69 out of 78</p>","null","","","","","","","","","","","","","","","","","","","","","","","","","",""
"","","","","","image-keyboard-response","283","1055671","0.0-3.0-7.0-1.29","5e13e0232d2185a20d9c3b4f","D2","batch4","pattern_response","2163.899999976158","stim/yes_29_ver_w1.png","f","pattern_53","f","true","","","","2163.899999976158","true","62","","","","","","","","","","","","","","","","",""
"","","","","","html-keyboard-response","284","1056985","0.0-3.0-7.0-0.30","5e13e0232d2185a20d9c3b4f","D2","batch4","pattern_show_trial_num","null","<p class=block-text>Trial 70 out of 78</p>","null","","","","","","","","","","","","","","","","","","","","","","","","","",""
"","","","","","image-keyboard-response","285","1057695","0.0-3.0-7.0-1.30","5e13e0232d2185a20d9c3b4f","D2","batch4","pattern_response","706.5","stim/yes_38_hor_b1_b.png","f","pattern_61","f","true","","","","706.5","true","63","","","","","","","","","","","","","","","","",""
"","","","","","html-keyboard-response","286","1059016","0.0-3.0-7.0-0.31","5e13e0232d2185a20d9c3b4f","D2","batch4","pattern_show_trial_num","null","<p class=block-text>Trial 71 out of 78</p>","null","","","","","","","","","","","","","","","","","","","","","","","","","",""
"","","","","","image-keyboard-response","287","1063676","0.0-3.0-7.0-1.31","5e13e0232d2185a20d9c3b4f","D2","batch4","pattern_response","4657.899999976158","stim/no_65_1_b.png","j","pattern_38","j","true","","","","4657.899999976158","true","64","","","","","","","","","","","","","","","","",""
"","","","","","html-keyboard-response","288","1064983","0.0-3.0-7.0-0.32","5e13e0232d2185a20d9c3b4f","D2","batch4","pattern_show_trial_num","null","<p class=block-text>Trial 72 out of 78</p>","null","","","","","","","","","","","","","","","","","","","","","","","","","",""
"","","","","","image-keyboard-response","289","1066127","0.0-3.0-7.0-1.32","5e13e0232d2185a20d9c3b4f","D2","batch4","pattern_response","1142.199999988079","stim/yes_28_ver_b1.png","f","pattern_51","f","true","","","","1142.199999988079","true","65","","","","","","","","","","","","","","","","",""
"","","","","","html-keyboard-response","290","1067443","0.0-3.0-7.0-0.33","5e13e0232d2185a20d9c3b4f","D2","batch4","pattern_show_trial_num","null","<p class=block-text>Trial 73 out of 78</p>","null","","","","","","","","","","","","","","","","","","","","","","","","","",""
"","","","","","image-keyboard-response","291","1068790","0.0-3.0-7.0-1.33","5e13e0232d2185a20d9c3b4f","D2","batch4","pattern_response","1344.8999999761581","stim/no_32_1_w.png","j","pattern_14","j","true","","","","1344.8999999761581","true","66","","","","","","","","","","","","","","","","",""
"","","","","","html-keyboard-response","292","1070097","0.0-3.0-7.0-0.34","5e13e0232d2185a20d9c3b4f","D2","batch4","pattern_show_trial_num","null","<p class=block-text>Trial 74 out of 78</p>","null","","","","","","","","","","","","","","","","","","","","","","","","","",""
"","","","","","image-keyboard-response","293","1071179","0.0-3.0-7.0-1.34","5e13e0232d2185a20d9c3b4f","D2","batch4","pattern_response","1079.0999999940395","stim/yes_43_ver_w1_w.png","f","pattern_65","f","true","","","","1079.0999999940395","true","67","","","","","","","","","","","","","","","","",""
"","","","","","html-keyboard-response","294","1072488","0.0-3.0-7.0-0.35","5e13e0232d2185a20d9c3b4f","D2","batch4","pattern_show_trial_num","null","<p class=block-text>Trial 75 out of 78</p>","null","","","","","","","","","","","","","","","","","","","","","","","","","",""
"","","","","","image-keyboard-response","295","1074158","0.0-3.0-7.0-1.35","5e13e0232d2185a20d9c3b4f","D2","batch4","pattern_response","1669.1000000238419","stim/no_23_1.png","j","pattern_08","j","true","","","","1669.1000000238419","true","68","","","","","","","","","","","","","","","","",""
"","","","","","html-keyboard-response","296","1075465","0.0-3.0-7.0-0.36","5e13e0232d2185a20d9c3b4f","D2","batch4","pattern_show_trial_num","null","<p class=block-text>Trial 76 out of 78</p>","null","","","","","","","","","","","","","","","","","","","","","","","","","",""
"","","","","","image-keyboard-response","297","1078229","0.0-3.0-7.0-1.36","5e13e0232d2185a20d9c3b4f","D2","batch4","pattern_response","2761.300000011921","stim/yes_55_hor_w1_w.png","j","pattern_75","f","false","","","","2761.300000011921","false","68","","","","","","","","","","","","","","","","",""
"","","","","","html-keyboard-response","298","1079544","0.0-3.0-7.0-0.37","5e13e0232d2185a20d9c3b4f","D2","batch4","pattern_show_trial_num","null","<p class=block-text>Trial 77 out of 78</p>","null","","","","","","","","","","","","","","","","","","","","","","","","","",""
"","","","","","image-keyboard-response","299","1081361","0.0-3.0-7.0-1.37","5e13e0232d2185a20d9c3b4f","D2","batch4","pattern_response","1814.7000000178814","stim/no_46_1_b.png","j","pattern_26","j","true","","","","1814.7000000178814","true","69","","","","","","","","","","","","","","","","",""
"","","","","","html-keyboard-response","300","1082668","0.0-3.0-7.0-0.38","5e13e0232d2185a20d9c3b4f","D2","batch4","pattern_show_trial_num","null","<p class=block-text>Trial 78 out of 78</p>","null","","","","","","","","","","","","","","","","","","","","","","","","","",""
"","","","","","image-keyboard-response","301","1086352","0.0-3.0-7.0-1.38","5e13e0232d2185a20d9c3b4f","D2","batch4","pattern_response","3681.7999999821186","stim/no_36_2_w.png","j","pattern_18","j","true","","","","3681.7999999821186","true","70","","","","","","","","","","","","","","","","",""
"","","","","","html-button-response","302","1091514","0.0-3.0-8.0","5e13e0232d2185a20d9c3b4f","D2","batch4","","4643.4000000059605","<p class = block-text>This concludes the 4-in-a-row detection game.Thank you for your responses!<br>
            You responded correctly on 90% of the trials.<br>
            When you are ready, press ""Continue"" button to continue </p>","0","","","","","","","","","","","","","","","","","","","","","","","","","",""
"true","","","","","fullscreen","303","1095111","0.0-4.0-0.0","5e13e0232d2185a20d9c3b4f","D2","batch4","","","","","","","","","","","","","","","","","","","","","","","","","","","","","",""
"","","","","","instructions","304","1130373","0.0-4.0-1.0-0.0-0.0","5e13e0232d2185a20d9c3b4f","D2","batch4","tol-instructions","35260.79999998212","","","","","","","","[{""page_index"":0,""viewing_time"":8232.09999999404},{""page_index"":1,""viewing_time"":2893.4000000059605},{""page_index"":2,""viewing_time"":5791.199999988079},{""page_index"":3,""viewing_time"":10617.90000000596},{""page_index"":4,""viewing_time"":4539.5999999940395},{""page_index"":5,""viewing_time"":1625.2000000178814},{""page_index"":6,""viewing_time"":1560.8999999761581}]","","","","","","","","","","","","","","","","","","","",""
"","","","","","html-button-response","305","1131433","0.0-4.0-1.0-1.0-0.0","5e13e0232d2185a20d9c3b4f","D2","batch4","tol_enter_quiz","1058.5999999940395","<p class=block-text> Let's answer a few questions <br>","0","","","","","","","","","","","","","","","","","","","","","","","","","",""
"","","","","","html-button-response","306","1133568","0.0-4.0-1.0-1.0-1.0","5e13e0232d2185a20d9c3b4f","D2","batch4","tol_quiz","2133.0999999940395","<p class = block-text>True or False: You can only move the ball on top of a peg. <br></p>","0","","","true","","","","","","","","","","","","","","","","","","","","","","",""
"","","","","","html-button-response","307","1135207","0.0-4.0-1.0-1.0-2.0","5e13e0232d2185a20d9c3b4f","D2","batch4","tol_quiz_feedback","1637","<p class = block-text>Correct! You can only move the ball on top of a peg.</p>","0","","","","","","","","","","","","","","","","","","","","","","","","","",""
"","","","","","html-button-response","308","1137499","0.0-4.0-1.0-1.0-3.0","5e13e0232d2185a20d9c3b4f","D2","batch4","tol_quiz","2290.2000000178814","<p class = block-text>True or False: You should try to match your board with the target board with fewest moves possible. <br></p>","0","","","true","","","","","","","","","","","","","","","","","","","","","","",""
"","","","","","html-button-response","309","1138429","0.0-4.0-1.0-1.0-4.0","5e13e0232d2185a20d9c3b4f","D2","batch4","tol_quiz_feedback","929.0999999940395","<p class = block-text>Correct! </p>","0","","","","","","","","","","","","","","","","","","","","","","","","","",""
"","","","","","html-button-response","310","1139769","0.0-4.0-2.0","5e13e0232d2185a20d9c3b4f","D2","batch4","","1337.1000000238419","<p class=block-text> Now that you've understood the game, let's practice a few easier examples before we start!<br> <br>","0","","","","","","","","","","","","","","","","","","","","","","","","","",""
"","","","","","single-stim-button","311","1141611","0.0-4.0-3.0-0.0","5e13e0232d2185a20d9c3b4f","D2","batch4","tol_practice","1839","","","","","","","","","","","","","","tol_peg_2","1839","1839","0","[[1,2,0],[0,0],[0]]","1","[[1,2,0],[0,0],[3]]","practice","1839","","","","","",""
"","","","","","single-stim-button","312","1143105","0.0-4.0-3.0-1.0","5e13e0232d2185a20d9c3b4f","D2","batch4","tol_practice","1493","","","","","","","","","","","","","","tol_peg_1","1493","1493","0","[[1,2,3],[0,0],[0]]","1","[[1,2,0],[0,0],[3]]","practice","1493","","","","","",""
"","","","","","single-stim-button","313","1144588","0.0-4.0-3.1-0.1","5e13e0232d2185a20d9c3b4f","D2","batch4","tol_practice","1481","","","","","","","","","","","","","","tol_peg_1","1481","1481","0","[[1,2,0],[0,0],[0]]","2","[[1,2,0],[0,0],[3]]","practice","1481","","","","","",""
"","","","","","single-stim-button","314","1145819","0.0-4.0-3.1-1.1","5e13e0232d2185a20d9c3b4f","D2","batch4","tol_practice","1230","","","","","","","","","","","","","","tol_peg_3","1230","1230","0","[[1,2,0],[0,0],[3]]","2","[[1,2,0],[0,0],[3]]","practice","1230","","","","","",""
"","","","","","poldrack-single-stim","315","1146822","0.0-4.0-4.0","5e13e0232d2185a20d9c3b4f","D2","batch4","tol_feedback","-1","","","","","true","","","","","","","","","","1000","1000","500","","","","","","-1","none","true","","0",""
"","","","","","single-stim-button","316","1150022","0.0-4.0-5.0-0.0","5e13e0232d2185a20d9c3b4f","D2","batch4","tol_practice","3199","","","","","","","","","","","","","","tol_peg_1","3199","3199","0","[[1,0,0],[3,0],[0]]","3","[[0,0,0],[3,1],[2]]","practice","3199","","","","","",""
"","","","","","single-stim-button","317","1151053","0.0-4.0-5.0-1.0","5e13e0232d2185a20d9c3b4f","D2","batch4","tol_practice","1029","","","","","","","","","","","","","","tol_peg_3","1029","1029","0","[[1,0,0],[3,0],[2]]","3","[[0,0,0],[3,1],[2]]","practice","1029","","","","","",""
"","","","","","single-stim-button","318","1151984","0.0-4.0-5.1-0.1","5e13e0232d2185a20d9c3b4f","D2","batch4","tol_practice","930","","","","","","","","","","","","","","tol_peg_1","930","930","0","[[0,0,0],[3,0],[2]]","4","[[0,0,0],[3,1],[2]]","practice","930","","","","","",""
"","","","","","single-stim-button","319","1152972","0.0-4.0-5.1-1.1","5e13e0232d2185a20d9c3b4f","D2","batch4","tol_practice","987","","","","","","","","","","","","","","tol_peg_2","987","987","0","[[0,0,0],[3,1],[2]]","4","[[0,0,0],[3,1],[2]]","practice","987","","","","","",""
"","","","","","poldrack-single-stim","320","1153976","0.0-4.0-6.0","5e13e0232d2185a20d9c3b4f","D2","batch4","tol_feedback","-1","","","","","true","","","","","","","","","","1000","1000","500","","","","","","-1","none","true","","0",""
"","","","","","single-stim-button","321","1156380","0.0-4.0-7.0-0.0","5e13e0232d2185a20d9c3b4f","D2","batch4","tol_practice","2403","","","","","","","","","","","","","","tol_peg_2","2403","2403","0","[[1,2,0],[0,0],[0]]","5","[[1,0,0],[2,0],[3]]","practice","2403","","","","","",""
"","","","","","single-stim-button","322","1157218","0.0-4.0-7.0-1.0","5e13e0232d2185a20d9c3b4f","D2","batch4","tol_practice","837","","","","","","","","","","","","","","tol_peg_3","837","837","0","[[1,2,0],[0,0],[3]]","5","[[1,0,0],[2,0],[3]]","practice","837","","","","","",""
"","","","","","single-stim-button","323","1158134","0.0-4.0-7.1-0.1","5e13e0232d2185a20d9c3b4f","D2","batch4","tol_practice","915","","","","","","","","","","","","","","tol_peg_1","915","915","0","[[1,0,0],[0,0],[3]]","6","[[1,0,0],[2,0],[3]]","practice","915","","","","","",""
"","","","","","single-stim-button","324","1159316","0.0-4.0-7.1-1.1","5e13e0232d2185a20d9c3b4f","D2","batch4","tol_practice","1181","","","","","","","","","","","","","","tol_peg_2","1181","1181","0","[[1,0,0],[2,0],[3]]","6","[[1,0,0],[2,0],[3]]","practice","1181","","","","","",""
"","","","","","poldrack-single-stim","325","1160320","0.0-4.0-8.0","5e13e0232d2185a20d9c3b4f","D2","batch4","tol_feedback","-1","","","","","true","","","","","","","","","","1000","1000","500","","","","","","-1","none","true","","0",""
"","","","","","html-button-response","326","1161765","0.0-4.0-9.0","5e13e0232d2185a20d9c3b4f","D2","batch4","tol_instruction","1444.2000000178814","<div class = centerbox><p class = center-block-text>Great job! You are done with practice trials<br>You are about to start official trials.<br> <br> Problem <strong>1</strong> out of 25 problems</p></div>","0","","","","","","","","","","","","","","","","","","","","","","","","","",""
"","","","","","single-stim-button","327","1166363","0.0-4.0-10.0-0.0","5e13e0232d2185a20d9c3b4f","D2","batch4","tol_tohand","3586","","","","","","","","","","","","","","tol_peg_1","3586","3586","0","[[1,0,0],[3,0],[0]]","1","[[1,3,0],[2,0],[0]]","0","0","","","","","","3"
"","","","","","single-stim-button","328","1173337","0.0-4.0-10.0-1.0","5e13e0232d2185a20d9c3b4f","D2","batch4","tol_toboard","6973","","","","","","","","","","","","","","tol_peg_2","6973","6973","0","[[1,0,0],[3,2],[0]]","1","[[1,3,0],[2,0],[0]]","0","0","","","","","","3"
"","","","","","single-stim-button","329","1175887","0.0-4.0-10.1-0.1","5e13e0232d2185a20d9c3b4f","D2","batch4","tol_tohand","2548","","","","","","","","","","","","","","tol_peg_2","2548","2548","0","[[1,0,0],[3,0],[0]]","2","[[1,3,0],[2,0],[0]]","0","0","","","","","","3"
"","","","","","single-stim-button","330","1176739","0.0-4.0-10.1-1.1","5e13e0232d2185a20d9c3b4f","D2","batch4","tol_toboard","850","","","","","","","","","","","","","","tol_peg_3","850","850","0","[[1,0,0],[3,0],[2]]","2","[[1,3,0],[2,0],[0]]","0","0","","","","","","3"
"","","","","","single-stim-button","331","1177913","0.0-4.0-10.2-0.2","5e13e0232d2185a20d9c3b4f","D2","batch4","tol_tohand","1174","","","","","","","","","","","","","","tol_peg_2","1174","1174","0","[[1,0,0],[0,0],[2]]","3","[[1,3,0],[2,0],[0]]","0","0","","","","","","3"
"","","","","","single-stim-button","332","1179030","0.0-4.0-10.2-1.2","5e13e0232d2185a20d9c3b4f","D2","batch4","tol_toboard","1115","","","","","","","","","","","","","","tol_peg_1","1115","1115","0","[[1,3,0],[0,0],[2]]","3","[[1,3,0],[2,0],[0]]","0","0","","","","","","3"
"","","","","","single-stim-button","333","1179918","0.0-4.0-10.3-0.3","5e13e0232d2185a20d9c3b4f","D2","batch4","tol_tohand","886","","","","","","","","","","","","","","tol_peg_3","886","886","0","[[1,3,0],[0,0],[0]]","4","[[1,3,0],[2,0],[0]]","0","0","","","","","","3"
"","","","","","single-stim-button","334","1180792","0.0-4.0-10.3-1.3","5e13e0232d2185a20d9c3b4f","D2","batch4","tol_toboard","874","","","","","","","","","","","","","","tol_peg_2","874","874","0","[[1,3,0],[2,0],[0]]","4","[[1,3,0],[2,0],[0]]","0","0","","","","","","3"
"","","","","","poldrack-single-stim","335","1181807","0.0-4.0-11.0","5e13e0232d2185a20d9c3b4f","D2","batch4","tol_feedback","-1","","","","","true","","","","","","","","","","1000","1000","500","","","","","","-1","none","true","3586","8194",""
"","","","","","html-button-response","336","1183055","0.0-4.0-12.0","5e13e0232d2185a20d9c3b4f","D2","batch4","tol_trial_num","1245.7000000178814","<div class = centerbox><p class = center-block-text>problem <strong>2</strong> out of 25 problems</p></div>","0","","","","","","","","","","","","","","","","","","","","","","","","","",""
"","","","","","single-stim-button","337","1191216","0.0-4.0-13.0-0.0","5e13e0232d2185a20d9c3b4f","D2","batch4","tol_tohand","8160","","","","","","","","","","","","","","tol_peg_1","8160","8160","0","[[1,0,0],[3,0],[0]]","1","[[2,1,3],[0,0],[0]]","1","0","","","","","","5"
"","","","","","single-stim-button","338","1192033","0.0-4.0-13.0-1.0","5e13e0232d2185a20d9c3b4f","D2","batch4","tol_toboard","816","","","","","","","","","","","","","","tol_peg_2","816","816","0","[[1,0,0],[3,2],[0]]","1","[[2,1,3],[0,0],[0]]","1","0","","","","","","5"
"","","","","","single-stim-button","339","1192849","0.0-4.0-13.1-0.1","5e13e0232d2185a20d9c3b4f","D2","batch4","tol_tohand","815","","","","","","","","","","","","","","tol_peg_1","815","815","0","[[0,0,0],[3,2],[0]]","2","[[2,1,3],[0,0],[0]]","1","0","","","","","","5"
"","","","","","single-stim-button","340","1194080","0.0-4.0-13.1-1.1","5e13e0232d2185a20d9c3b4f","D2","batch4","tol_toboard","1230","","","","","","","","","","","","","","tol_peg_3","1230","1230","0","[[0,0,0],[3,2],[1]]","2","[[2,1,3],[0,0],[0]]","1","0","","","","","","5"
"","","","","","single-stim-button","341","1195585","0.0-4.0-13.2-0.2","5e13e0232d2185a20d9c3b4f","D2","batch4","tol_tohand","1504","","","","","","","","","","","","","","tol_peg_2","1504","1504","0","[[0,0,0],[3,0],[1]]","3","[[2,1,3],[0,0],[0]]","1","0","","","","","","5"
"","","","","","single-stim-button","342","1196388","0.0-4.0-13.2-1.2","5e13e0232d2185a20d9c3b4f","D2","batch4","tol_toboard","801","","","","","","","","","","","","","","tol_peg_1","801","801","0","[[2,0,0],[3,0],[1]]","3","[[2,1,3],[0,0],[0]]","1","0","","","","","","5"
"","","","","","single-stim-button","343","1197898","0.0-4.0-13.3-0.3","5e13e0232d2185a20d9c3b4f","D2","batch4","tol_tohand","1509","","","","","","","","","","","","","","tol_peg_3","1509","1509","0","[[2,0,0],[3,0],[0]]","4","[[2,1,3],[0,0],[0]]","1","0","","","","","","5"
"","","","","","single-stim-button","344","1198843","0.0-4.0-13.3-1.3","5e13e0232d2185a20d9c3b4f","D2","batch4","tol_toboard","943","","","","","","","","","","","","","","tol_peg_1","943","943","0","[[2,1,0],[3,0],[0]]","4","[[2,1,3],[0,0],[0]]","1","0","","","","","","5"
"","","","","","single-stim-button","345","1199566","0.0-4.0-13.4-0.4","5e13e0232d2185a20d9c3b4f","D2","batch4","tol_tohand","721","","","","","","","","","","","","","","tol_peg_2","721","721","0","[[2,1,0],[0,0],[0]]","5","[[2,1,3],[0,0],[0]]","1","0","","","","","","5"
"","","","","","single-stim-button","346","1200261","0.0-4.0-13.4-1.4","5e13e0232d2185a20d9c3b4f","D2","batch4","tol_toboard","694","","","","","","","","","","","","","","tol_peg_1","694","694","0","[[2,1,3],[0,0],[0]]","5","[[2,1,3],[0,0],[0]]","1","0","","","","","","5"
"","","","","","poldrack-single-stim","347","1201266","0.0-4.0-14.0","5e13e0232d2185a20d9c3b4f","D2","batch4","tol_feedback","-1","","","","","true","","","","","","","","","","1000","1000","500","","","","","","-1","none","true","8160","12709",""
