"success","timeout","failed_images","failed_audio","failed_video","trial_type","trial_index","time_elapsed","internal_node_id","subject_id","study_id","session_id","task","rt","stimulus","response","item","answer","correct","spm_correct","spm_rt","view_history","fiar_detect_rt","fiar_detect_correct","total_correct_fiar_detect","post_trial_gap","choices","mouse_click","stim_duration","block_duration","timing_post_trial","current_position","tol_num_moves_made","tol_target","tol_problem_id","tol_rt","key_press","possible_responses","tol_correct","preplanning","tol_rt_per_trial","tol_min_moves"
"true","false","[]","[]","[]","preload","0","2092","0.0-0.0","5e1a7114a90da52e206de7ea","C3","batch3","","","","","","","","","","","","","","","","","","","","","","","","","","","","","",""
"true","","","","","fullscreen","1","10800","0.0-1.0-0.0","5e1a7114a90da52e206de7ea","C3","batch3","","","","","","","","","","","","","","","","","","","","","","","","","","","","","",""
"true","","","","","fullscreen","2","14342","0.0-2.0-0.0","5e1a7114a90da52e206de7ea","C3","batch3","spm_fullscreen","","","","","","","","","","","","","","","","","","","","","","","","","","","","",""
"","","","","","html-button-response","3","24023","0.0-2.0-1.0","5e1a7114a90da52e206de7ea","C3","batch3","","9679.700000047684","<p class = block-text><b>Instructions</b> <br>This is a widely used intelligence test in research. <br>In this test, a figure with a missing piece will be presented.<br>Below the figure are alternative pieces to complete the figure, only one of which is correct.<br> Different figures might involve different principles for obtaining the missing piece<br>Your job is to select the most logical piece to complete the figure.</p>","0","","","","","","","","","","","","","","","","","","","","","","","","","",""
"","","","","","html-keyboard-response","4","24825","0.0-2.0-2.0-0.0","5e1a7114a90da52e206de7ea","C3","batch3","spm_show_trial_num","null","<p class=block-text>Trial 1 out of 60</p>","null","","","","","","","","","","","","","","","","","","","","","","","","","",""
"","","","","","image-button-response","5","31321","0.0-2.0-2.0-1.0","5e1a7114a90da52e206de7ea","C3","batch3","spm_respsonse","6492.5","img/question_1_1.jpeg","1","mat_01","4","0","0","6492.5","","","","","","","","","","","","","","","","","","","","",""
"","","","","","html-keyboard-response","6","32372","0.0-2.0-2.0-0.1","5e1a7114a90da52e206de7ea","C3","batch3","spm_show_trial_num","null","<p class=block-text>Trial 2 out of 60</p>","null","","","","","","","","","","","","","","","","","","","","","","","","","",""
"","","","","","image-button-response","7","35302","0.0-2.0-2.0-1.1","5e1a7114a90da52e206de7ea","C3","batch3","spm_respsonse","2928.899999976158","img/question_1_2.jpeg","4","mat_02","5","1","1","2928.899999976158","","","","","","","","","","","","","","","","","","","","",""
"","","","","","html-keyboard-response","8","36362","0.0-2.0-2.0-0.2","5e1a7114a90da52e206de7ea","C3","batch3","spm_show_trial_num","null","<p class=block-text>Trial 3 out of 60</p>","null","","","","","","","","","","","","","","","","","","","","","","","","","",""
"","","","","","image-button-response","9","38722","0.0-2.0-2.0-1.2","5e1a7114a90da52e206de7ea","C3","batch3","spm_respsonse","2359.199999988079","img/question_1_3.jpeg","0","mat_03","1","1","1","2359.199999988079","","","","","","","","","","","","","","","","","","","","",""
"","","","","","html-keyboard-response","10","39774","0.0-2.0-2.0-0.3","5e1a7114a90da52e206de7ea","C3","batch3","spm_show_trial_num","null","<p class=block-text>Trial 4 out of 60</p>","null","","","","","","","","","","","","","","","","","","","","","","","","","",""
"","","","","","image-button-response","11","45371","0.0-2.0-2.0-1.3","5e1a7114a90da52e206de7ea","C3","batch3","spm_respsonse","5595.299999952316","img/question_1_4.jpeg","1","mat_04","2","1","1","5595.299999952316","","","","","","","","","","","","","","","","","","","","",""
"","","","","","html-keyboard-response","12","46422","0.0-2.0-2.0-0.4","5e1a7114a90da52e206de7ea","C3","batch3","spm_show_trial_num","null","<p class=block-text>Trial 5 out of 60</p>","null","","","","","","","","","","","","","","","","","","","","","","","","","",""
"","","","","","image-button-response","13","50243","0.0-2.0-2.0-1.4","5e1a7114a90da52e206de7ea","C3","batch3","spm_respsonse","3820","img/question_1_5.jpeg","5","mat_05","6","1","1","3820","","","","","","","","","","","","","","","","","","","","",""
"","","","","","html-keyboard-response","14","51303","0.0-2.0-2.0-0.5","5e1a7114a90da52e206de7ea","C3","batch3","spm_show_trial_num","null","<p class=block-text>Trial 6 out of 60</p>","null","","","","","","","","","","","","","","","","","","","","","","","","","",""
"","","","","","image-button-response","15","54952","0.0-2.0-2.0-1.5","5e1a7114a90da52e206de7ea","C3","batch3","spm_respsonse","3648.300000011921","img/question_1_6.jpeg","2","mat_06","3","1","1","3648.300000011921","","","","","","","","","","","","","","","","","","","","",""
"","","","","","html-keyboard-response","16","56015","0.0-2.0-2.0-0.6","5e1a7114a90da52e206de7ea","C3","batch3","spm_show_trial_num","null","<p class=block-text>Trial 7 out of 60</p>","null","","","","","","","","","","","","","","","","","","","","","","","","","",""
"","","","","","image-button-response","17","60860","0.0-2.0-2.0-1.6","5e1a7114a90da52e206de7ea","C3","batch3","spm_respsonse","4844.099999964237","img/question_1_7.jpeg","5","mat_07","6","1","1","4844.099999964237","","","","","","","","","","","","","","","","","","","","",""
"","","","","","html-keyboard-response","18","61912","0.0-2.0-2.0-0.7","5e1a7114a90da52e206de7ea","C3","batch3","spm_show_trial_num","null","<p class=block-text>Trial 8 out of 60</p>","null","","","","","","","","","","","","","","","","","","","","","","","","","",""
"","","","","","image-button-response","19","66179","0.0-2.0-2.0-1.7","5e1a7114a90da52e206de7ea","C3","batch3","spm_respsonse","4266.5","img/question_1_8.jpeg","0","mat_08","2","0","0","4266.5","","","","","","","","","","","","","","","","","","","","",""
"","","","","","html-keyboard-response","20","67241","0.0-2.0-2.0-0.8","5e1a7114a90da52e206de7ea","C3","batch3","spm_show_trial_num","null","<p class=block-text>Trial 9 out of 60</p>","null","","","","","","","","","","","","","","","","","","","","","","","","","",""
"","","","","","image-button-response","21","72118","0.0-2.0-2.0-1.8","5e1a7114a90da52e206de7ea","C3","batch3","spm_respsonse","4880.5","img/question_1_9.jpeg","0","mat_09","1","1","1","4880.5","","","","","","","","","","","","","","","","","","","","",""
"","","","","","html-keyboard-response","22","73179","0.0-2.0-2.0-0.9","5e1a7114a90da52e206de7ea","C3","batch3","spm_show_trial_num","null","<p class=block-text>Trial 10 out of 60</p>","null","","","","","","","","","","","","","","","","","","","","","","","","","",""
"","","","","","image-button-response","23","78365","0.0-2.0-2.0-1.9","5e1a7114a90da52e206de7ea","C3","batch3","spm_respsonse","5185.300000011921","img/question_1_10.jpeg","2","mat_10","3","1","1","5185.300000011921","","","","","","","","","","","","","","","","","","","","",""
"","","","","","html-keyboard-response","24","79424","0.0-2.0-2.0-0.10","5e1a7114a90da52e206de7ea","C3","batch3","spm_show_trial_num","null","<p class=block-text>Trial 11 out of 60</p>","null","","","","","","","","","","","","","","","","","","","","","","","","","",""
"","","","","","image-button-response","25","89708","0.0-2.0-2.0-1.10","5e1a7114a90da52e206de7ea","C3","batch3","spm_respsonse","10282.899999976158","img/question_1_11.jpeg","3","mat_11","4","1","1","10282.899999976158","","","","","","","","","","","","","","","","","","","","",""
"","","","","","html-keyboard-response","26","90765","0.0-2.0-2.0-0.11","5e1a7114a90da52e206de7ea","C3","batch3","spm_show_trial_num","null","<p class=block-text>Trial 12 out of 60</p>","null","","","","","","","","","","","","","","","","","","","","","","","","","",""
"","","","","","image-button-response","27","102439","0.0-2.0-2.0-1.11","5e1a7114a90da52e206de7ea","C3","batch3","spm_respsonse","11672.5","img/question_1_12.jpeg","0","mat_12","5","0","0","11672.5","","","","","","","","","","","","","","","","","","","","",""
"","","","","","html-keyboard-response","28","103497","0.0-2.0-2.0-0.12","5e1a7114a90da52e206de7ea","C3","batch3","spm_show_trial_num","null","<p class=block-text>Trial 13 out of 60</p>","null","","","","","","","","","","","","","","","","","","","","","","","","","",""
"","","","","","image-button-response","29","105605","0.0-2.0-2.0-1.12","5e1a7114a90da52e206de7ea","C3","batch3","spm_respsonse","2106.899999976158","img/question_2_1.jpeg","1","mat_13","2","1","1","2106.899999976158","","","","","","","","","","","","","","","","","","","","",""
"","","","","","html-keyboard-response","30","106656","0.0-2.0-2.0-0.13","5e1a7114a90da52e206de7ea","C3","batch3","spm_show_trial_num","null","<p class=block-text>Trial 14 out of 60</p>","null","","","","","","","","","","","","","","","","","","","","","","","","","",""
"","","","","","image-button-response","31","110561","0.0-2.0-2.0-1.13","5e1a7114a90da52e206de7ea","C3","batch3","spm_respsonse","3903.699999988079","img/question_2_2.jpeg","5","mat_14","6","1","1","3903.699999988079","","","","","","","","","","","","","","","","","","","","",""
"","","","","","html-keyboard-response","32","111613","0.0-2.0-2.0-0.14","5e1a7114a90da52e206de7ea","C3","batch3","spm_show_trial_num","null","<p class=block-text>Trial 15 out of 60</p>","null","","","","","","","","","","","","","","","","","","","","","","","","","",""
"","","","","","image-button-response","33","114394","0.0-2.0-2.0-1.14","5e1a7114a90da52e206de7ea","C3","batch3","spm_respsonse","2780.100000023842","img/question_2_3.jpeg","0","mat_15","1","1","1","2780.100000023842","","","","","","","","","","","","","","","","","","","","",""
"","","","","","html-keyboard-response","34","115459","0.0-2.0-2.0-0.15","5e1a7114a90da52e206de7ea","C3","batch3","spm_show_trial_num","null","<p class=block-text>Trial 16 out of 60</p>","null","","","","","","","","","","","","","","","","","","","","","","","","","",""
"","","","","","image-button-response","35","118246","0.0-2.0-2.0-1.15","5e1a7114a90da52e206de7ea","C3","batch3","spm_respsonse","2785.5","img/question_2_4.jpeg","1","mat_16","2","1","1","2785.5","","","","","","","","","","","","","","","","","","","","",""
"","","","","","html-keyboard-response","36","119306","0.0-2.0-2.0-0.16","5e1a7114a90da52e206de7ea","C3","batch3","spm_show_trial_num","null","<p class=block-text>Trial 17 out of 60</p>","null","","","","","","","","","","","","","","","","","","","","","","","","","",""
"","","","","","image-button-response","37","122792","0.0-2.0-2.0-1.16","5e1a7114a90da52e206de7ea","C3","batch3","spm_respsonse","3485","img/question_2_5.jpeg","0","mat_17","1","1","1","3485","","","","","","","","","","","","","","","","","","","","",""
"","","","","","html-keyboard-response","38","123844","0.0-2.0-2.0-0.17","5e1a7114a90da52e206de7ea","C3","batch3","spm_show_trial_num","null","<p class=block-text>Trial 18 out of 60</p>","null","","","","","","","","","","","","","","","","","","","","","","","","","",""
"","","","","","image-button-response","39","127276","0.0-2.0-2.0-1.17","5e1a7114a90da52e206de7ea","C3","batch3","spm_respsonse","3430.599999964237","img/question_2_6.jpeg","2","mat_18","3","1","1","3430.599999964237","","","","","","","","","","","","","","","","","","","","",""
"","","","","","html-keyboard-response","40","128329","0.0-2.0-2.0-0.18","5e1a7114a90da52e206de7ea","C3","batch3","spm_show_trial_num","null","<p class=block-text>Trial 19 out of 60</p>","null","","","","","","","","","","","","","","","","","","","","","","","","","",""
"","","","","","image-button-response","41","135819","0.0-2.0-2.0-1.18","5e1a7114a90da52e206de7ea","C3","batch3","spm_respsonse","7493.800000011921","img/question_2_7.jpeg","4","mat_19","5","1","1","7493.800000011921","","","","","","","","","","","","","","","","","","","","",""
"","","","","","html-keyboard-response","42","136876","0.0-2.0-2.0-0.19","5e1a7114a90da52e206de7ea","C3","batch3","spm_show_trial_num","null","<p class=block-text>Trial 20 out of 60</p>","null","","","","","","","","","","","","","","","","","","","","","","","","","",""
"","","","","","image-button-response","43","152721","0.0-2.0-2.0-1.19","5e1a7114a90da52e206de7ea","C3","batch3","spm_respsonse","15843.800000011921","img/question_2_8.jpeg","5","mat_20","6","1","1","15843.800000011921","","","","","","","","","","","","","","","","","","","","",""
"","","","","","html-keyboard-response","44","153779","0.0-2.0-2.0-0.20","5e1a7114a90da52e206de7ea","C3","batch3","spm_show_trial_num","null","<p class=block-text>Trial 21 out of 60</p>","null","","","","","","","","","","","","","","","","","","","","","","","","","",""
"","","","","","image-button-response","45","158943","0.0-2.0-2.0-1.20","5e1a7114a90da52e206de7ea","C3","batch3","spm_respsonse","5163","img/question_2_9.jpeg","3","mat_21","4","1","1","5163","","","","","","","","","","","","","","","","","","","","",""
"","","","","","html-keyboard-response","46","160009","0.0-2.0-2.0-0.21","5e1a7114a90da52e206de7ea","C3","batch3","spm_show_trial_num","null","<p class=block-text>Trial 22 out of 60</p>","null","","","","","","","","","","","","","","","","","","","","","","","","","",""
"","","","","","image-button-response","47","167057","0.0-2.0-2.0-1.21","5e1a7114a90da52e206de7ea","C3","batch3","spm_respsonse","7046.600000023842","img/question_2_10.jpeg","2","mat_22","3","1","1","7046.600000023842","","","","","","","","","","","","","","","","","","","","",""
"","","","","","html-keyboard-response","48","168118","0.0-2.0-2.0-0.22","5e1a7114a90da52e206de7ea","C3","batch3","spm_show_trial_num","null","<p class=block-text>Trial 23 out of 60</p>","null","","","","","","","","","","","","","","","","","","","","","","","","","",""
"","","","","","image-button-response","49","177634","0.0-2.0-2.0-1.22","5e1a7114a90da52e206de7ea","C3","batch3","spm_respsonse","9514.800000011921","img/question_2_11.jpeg","3","mat_23","4","1","1","9514.800000011921","","","","","","","","","","","","","","","","","","","","",""
"","","","","","html-keyboard-response","50","178685","0.0-2.0-2.0-0.23","5e1a7114a90da52e206de7ea","C3","batch3","spm_show_trial_num","null","<p class=block-text>Trial 24 out of 60</p>","null","","","","","","","","","","","","","","","","","","","","","","","","","",""
"","","","","","image-button-response","51","190023","0.0-2.0-2.0-1.23","5e1a7114a90da52e206de7ea","C3","batch3","spm_respsonse","11336.800000011921","img/question_2_12.jpeg","4","mat_24","5","1","1","11336.800000011921","","","","","","","","","","","","","","","","","","","","",""
"","","","","","html-button-response","52","191876","0.0-2.0-3.0","5e1a7114a90da52e206de7ea","C3","batch3","attention_check","1601.699999988079","<p class = block-text>Attention check: Please choose 1<br></p>","0","","","true","","","","","","","","","","","","","","","","","","","","","","",""
"","","","","","html-keyboard-response","53","192677","0.0-2.0-4.0-0.0","5e1a7114a90da52e206de7ea","C3","batch3","spm_show_trial_num","null","<p class=block-text>Trial 25 out of 60</p>","null","","","","","","","","","","","","","","","","","","","","","","","","","",""
"","","","","","image-button-response","54","200575","0.0-2.0-4.0-1.0","5e1a7114a90da52e206de7ea","C3","batch3","spm_respsonse","7902.199999988079","img/question_3_1.jpeg","7","mat_25","8","1","1","7902.199999988079","","","","","","","","","","","","","","","","","","","","",""
"","","","","","html-keyboard-response","55","201627","0.0-2.0-4.0-0.1","5e1a7114a90da52e206de7ea","C3","batch3","spm_show_trial_num","null","<p class=block-text>Trial 26 out of 60</p>","null","","","","","","","","","","","","","","","","","","","","","","","","","",""
"","","","","","image-button-response","56","208947","0.0-2.0-4.0-1.1","5e1a7114a90da52e206de7ea","C3","batch3","spm_respsonse","7319.5","img/question_3_2.jpeg","1","mat_26","2","1","1","7319.5","","","","","","","","","","","","","","","","","","","","",""
"","","","","","html-keyboard-response","57","210001","0.0-2.0-4.0-0.2","5e1a7114a90da52e206de7ea","C3","batch3","spm_show_trial_num","null","<p class=block-text>Trial 27 out of 60</p>","null","","","","","","","","","","","","","","","","","","","","","","","","","",""
"","","","","","image-button-response","58","218134","0.0-2.0-4.0-1.2","5e1a7114a90da52e206de7ea","C3","batch3","spm_respsonse","8132.399999976158","img/question_3_3.jpeg","2","mat_27","3","1","1","8132.399999976158","","","","","","","","","","","","","","","","","","","","",""
"","","","","","html-keyboard-response","59","219191","0.0-2.0-4.0-0.3","5e1a7114a90da52e206de7ea","C3","batch3","spm_show_trial_num","null","<p class=block-text>Trial 28 out of 60</p>","null","","","","","","","","","","","","","","","","","","","","","","","","","",""
"","","","","","image-button-response","60","227516","0.0-2.0-4.0-1.3","5e1a7114a90da52e206de7ea","C3","batch3","spm_respsonse","8324.699999988079","img/question_3_4.jpeg","7","mat_28","8","1","1","8324.699999988079","","","","","","","","","","","","","","","","","","","","",""
"","","","","","html-keyboard-response","61","228570","0.0-2.0-4.0-0.4","5e1a7114a90da52e206de7ea","C3","batch3","spm_show_trial_num","null","<p class=block-text>Trial 29 out of 60</p>","null","","","","","","","","","","","","","","","","","","","","","","","","","",""
"","","","","","image-button-response","62","238042","0.0-2.0-4.0-1.4","5e1a7114a90da52e206de7ea","C3","batch3","spm_respsonse","9471.100000023842","img/question_3_5.jpeg","6","mat_29","7","1","1","9471.100000023842","","","","","","","","","","","","","","","","","","","","",""
"","","","","","html-keyboard-response","63","239101","0.0-2.0-4.0-0.5","5e1a7114a90da52e206de7ea","C3","batch3","spm_show_trial_num","null","<p class=block-text>Trial 30 out of 60</p>","null","","","","","","","","","","","","","","","","","","","","","","","","","",""
"","","","","","image-button-response","64","245109","0.0-2.0-4.0-1.5","5e1a7114a90da52e206de7ea","C3","batch3","spm_respsonse","6006.900000035763","img/question_3_6.jpeg","3","mat_30","4","1","1","6006.900000035763","","","","","","","","","","","","","","","","","","","","",""
"","","","","","html-keyboard-response","65","246161","0.0-2.0-4.0-0.6","5e1a7114a90da52e206de7ea","C3","batch3","spm_show_trial_num","null","<p class=block-text>Trial 31 out of 60</p>","null","","","","","","","","","","","","","","","","","","","","","","","","","",""
"","","","","","image-button-response","66","251797","0.0-2.0-4.0-1.6","5e1a7114a90da52e206de7ea","C3","batch3","spm_respsonse","5635.800000011921","img/question_3_7.jpeg","4","mat_31","5","1","1","5635.800000011921","","","","","","","","","","","","","","","","","","","","",""
"","","","","","html-keyboard-response","67","252854","0.0-2.0-4.0-0.7","5e1a7114a90da52e206de7ea","C3","batch3","spm_show_trial_num","null","<p class=block-text>Trial 32 out of 60</p>","null","","","","","","","","","","","","","","","","","","","","","","","","","",""
"","","","","","image-button-response","68","267953","0.0-2.0-4.0-1.7","5e1a7114a90da52e206de7ea","C3","batch3","spm_respsonse","15104","img/question_3_8.jpeg","0","mat_32","1","1","1","15104","","","","","","","","","","","","","","","","","","","","",""
"","","","","","html-keyboard-response","69","269014","0.0-2.0-4.0-0.8","5e1a7114a90da52e206de7ea","C3","batch3","spm_show_trial_num","null","<p class=block-text>Trial 33 out of 60</p>","null","","","","","","","","","","","","","","","","","","","","","","","","","",""
"","","","","","image-button-response","70","280495","0.0-2.0-4.0-1.8","5e1a7114a90da52e206de7ea","C3","batch3","spm_respsonse","11479.599999964237","img/question_3_9.jpeg","6","mat_33","7","1","1","11479.599999964237","","","","","","","","","","","","","","","","","","","","",""
"","","","","","html-keyboard-response","71","281559","0.0-2.0-4.0-0.9","5e1a7114a90da52e206de7ea","C3","batch3","spm_show_trial_num","null","<p class=block-text>Trial 34 out of 60</p>","null","","","","","","","","","","","","","","","","","","","","","","","","","",""
"","","","","","image-button-response","72","287082","0.0-2.0-4.0-1.9","5e1a7114a90da52e206de7ea","C3","batch3","spm_respsonse","5521.600000023842","img/question_3_10.jpeg","5","mat_34","6","1","1","5521.600000023842","","","","","","","","","","","","","","","","","","","","",""
"","","","","","html-keyboard-response","73","288147","0.0-2.0-4.0-0.10","5e1a7114a90da52e206de7ea","C3","batch3","spm_show_trial_num","null","<p class=block-text>Trial 35 out of 60</p>","null","","","","","","","","","","","","","","","","","","","","","","","","","",""
"","","","","","image-button-response","74","303944","0.0-2.0-4.0-1.10","5e1a7114a90da52e206de7ea","C3","batch3","spm_respsonse","15795.600000023842","img/question_3_11.jpeg","0","mat_35","1","1","1","15795.600000023842","","","","","","","","","","","","","","","","","","","","",""
"","","","","","html-keyboard-response","75","305011","0.0-2.0-4.0-0.11","5e1a7114a90da52e206de7ea","C3","batch3","spm_show_trial_num","null","<p class=block-text>Trial 36 out of 60</p>","null","","","","","","","","","","","","","","","","","","","","","","","","","",""
"","","","","","image-button-response","76","327815","0.0-2.0-4.0-1.11","5e1a7114a90da52e206de7ea","C3","batch3","spm_respsonse","22807.80000001192","img/question_3_12.jpeg","1","mat_36","2","1","1","22807.80000001192","","","","","","","","","","","","","","","","","","","","",""
"","","","","","html-keyboard-response","77","328868","0.0-2.0-4.0-0.12","5e1a7114a90da52e206de7ea","C3","batch3","spm_show_trial_num","null","<p class=block-text>Trial 37 out of 60</p>","null","","","","","","","","","","","","","","","","","","","","","","","","","",""
"","","","","","image-button-response","78","335479","0.0-2.0-4.0-1.12","5e1a7114a90da52e206de7ea","C3","batch3","spm_respsonse","6609.800000011921","img/question_4_1.jpeg","2","mat_37","3","1","1","6609.800000011921","","","","","","","","","","","","","","","","","","","","",""
"","","","","","html-keyboard-response","79","336530","0.0-2.0-4.0-0.13","5e1a7114a90da52e206de7ea","C3","batch3","spm_show_trial_num","null","<p class=block-text>Trial 38 out of 60</p>","null","","","","","","","","","","","","","","","","","","","","","","","","","",""
"","","","","","image-button-response","80","340620","0.0-2.0-4.0-1.13","5e1a7114a90da52e206de7ea","C3","batch3","spm_respsonse","4088.699999988079","img/question_4_2.jpeg","3","mat_38","4","1","1","4088.699999988079","","","","","","","","","","","","","","","","","","","","",""
"","","","","","html-keyboard-response","81","341672","0.0-2.0-4.0-0.14","5e1a7114a90da52e206de7ea","C3","batch3","spm_show_trial_num","null","<p class=block-text>Trial 39 out of 60</p>","null","","","","","","","","","","","","","","","","","","","","","","","","","",""
"","","","","","image-button-response","82","350846","0.0-2.0-4.0-1.14","5e1a7114a90da52e206de7ea","C3","batch3","spm_respsonse","9172.800000011921","img/question_4_3.jpeg","2","mat_39","3","1","1","9172.800000011921","","","","","","","","","","","","","","","","","","","","",""
"","","","","","html-keyboard-response","83","351911","0.0-2.0-4.0-0.15","5e1a7114a90da52e206de7ea","C3","batch3","spm_show_trial_num","null","<p class=block-text>Trial 40 out of 60</p>","null","","","","","","","","","","","","","","","","","","","","","","","","","",""
"","","","","","image-button-response","84","358599","0.0-2.0-4.0-1.15","5e1a7114a90da52e206de7ea","C3","batch3","spm_respsonse","6686.399999976158","img/question_4_4.jpeg","6","mat_40","7","1","1","6686.399999976158","","","","","","","","","","","","","","","","","","","","",""
"","","","","","html-keyboard-response","85","359650","0.0-2.0-4.0-0.16","5e1a7114a90da52e206de7ea","C3","batch3","spm_show_trial_num","null","<p class=block-text>Trial 41 out of 60</p>","null","","","","","","","","","","","","","","","","","","","","","","","","","",""
"","","","","","image-button-response","86","368526","0.0-2.0-4.0-1.16","5e1a7114a90da52e206de7ea","C3","batch3","spm_respsonse","8875.199999988079","img/question_4_5.jpeg","7","mat_41","8","1","1","8875.199999988079","","","","","","","","","","","","","","","","","","","","",""
"","","","","","html-keyboard-response","87","369578","0.0-2.0-4.0-0.17","5e1a7114a90da52e206de7ea","C3","batch3","spm_show_trial_num","null","<p class=block-text>Trial 42 out of 60</p>","null","","","","","","","","","","","","","","","","","","","","","","","","","",""
"","","","","","image-button-response","88","386977","0.0-2.0-4.0-1.17","5e1a7114a90da52e206de7ea","C3","batch3","spm_respsonse","17403.400000035763","img/question_4_6.jpeg","5","mat_42","6","1","1","17403.400000035763","","","","","","","","","","","","","","","","","","","","",""
"","","","","","html-keyboard-response","89","388033","0.0-2.0-4.0-0.18","5e1a7114a90da52e206de7ea","C3","batch3","spm_show_trial_num","null","<p class=block-text>Trial 43 out of 60</p>","null","","","","","","","","","","","","","","","","","","","","","","","","","",""
"","","","","","image-button-response","90","402523","0.0-2.0-4.0-1.18","5e1a7114a90da52e206de7ea","C3","batch3","spm_respsonse","14489.5","img/question_4_7.jpeg","4","mat_43","5","1","1","14489.5","","","","","","","","","","","","","","","","","","","","",""
"","","","","","html-keyboard-response","91","403589","0.0-2.0-4.0-0.19","5e1a7114a90da52e206de7ea","C3","batch3","spm_show_trial_num","null","<p class=block-text>Trial 44 out of 60</p>","null","","","","","","","","","","","","","","","","","","","","","","","","","",""
"","","","","","image-button-response","92","417379","0.0-2.0-4.0-1.19","5e1a7114a90da52e206de7ea","C3","batch3","spm_respsonse","13789","img/question_4_8.jpeg","3","mat_44","4","1","1","13789","","","","","","","","","","","","","","","","","","","","",""
"","","","","","html-keyboard-response","93","418437","0.0-2.0-4.0-0.20","5e1a7114a90da52e206de7ea","C3","batch3","spm_show_trial_num","null","<p class=block-text>Trial 45 out of 60</p>","null","","","","","","","","","","","","","","","","","","","","","","","","","",""
"","","","","","image-button-response","94","435435","0.0-2.0-4.0-1.20","5e1a7114a90da52e206de7ea","C3","batch3","spm_respsonse","16996.69999998808","img/question_4_9.jpeg","0","mat_45","1","1","1","16996.69999998808","","","","","","","","","","","","","","","","","","","","",""
"","","","","","html-keyboard-response","95","436487","0.0-2.0-4.0-0.21","5e1a7114a90da52e206de7ea","C3","batch3","spm_show_trial_num","null","<p class=block-text>Trial 46 out of 60</p>","null","","","","","","","","","","","","","","","","","","","","","","","","","",""
"","","","","","image-button-response","96","455974","0.0-2.0-4.0-1.21","5e1a7114a90da52e206de7ea","C3","batch3","spm_respsonse","19491.5","img/question_4_10.jpeg","1","mat_46","2","1","1","19491.5","","","","","","","","","","","","","","","","","","","","",""
"","","","","","html-keyboard-response","97","457025","0.0-2.0-4.0-0.22","5e1a7114a90da52e206de7ea","C3","batch3","spm_show_trial_num","null","<p class=block-text>Trial 47 out of 60</p>","null","","","","","","","","","","","","","","","","","","","","","","","","","",""
"","","","","","image-button-response","98","529741","0.0-2.0-4.0-1.22","5e1a7114a90da52e206de7ea","C3","batch3","spm_respsonse","72720.29999995232","img/question_4_11.jpeg","1","mat_47","5","0","0","72720.29999995232","","","","","","","","","","","","","","","","","","","","",""
"","","","","","html-keyboard-response","99","530793","0.0-2.0-4.0-0.23","5e1a7114a90da52e206de7ea","C3","batch3","spm_show_trial_num","null","<p class=block-text>Trial 48 out of 60</p>","null","","","","","","","","","","","","","","","","","","","","","","","","","",""
"","","","","","image-button-response","100","560732","0.0-2.0-4.0-1.23","5e1a7114a90da52e206de7ea","C3","batch3","spm_respsonse","29937","img/question_4_12.jpeg","7","mat_48","6","0","0","29937","","","","","","","","","","","","","","","","","","","","",""
"","","","","","html-keyboard-response","101","561783","0.0-2.0-4.0-0.24","5e1a7114a90da52e206de7ea","C3","batch3","spm_show_trial_num","null","<p class=block-text>Trial 49 out of 60</p>","null","","","","","","","","","","","","","","","","","","","","","","","","","",""
"","","","","","image-button-response","102","567600","0.0-2.0-4.0-1.24","5e1a7114a90da52e206de7ea","C3","batch3","spm_respsonse","5821.100000023842","img/question_5_1.jpeg","6","mat_49","7","1","1","5821.100000023842","","","","","","","","","","","","","","","","","","","","",""
"","","","","","html-keyboard-response","103","568653","0.0-2.0-4.0-0.25","5e1a7114a90da52e206de7ea","C3","batch3","spm_show_trial_num","null","<p class=block-text>Trial 50 out of 60</p>","null","","","","","","","","","","","","","","","","","","","","","","","","","",""
"","","","","","image-button-response","104","577281","0.0-2.0-4.0-1.25","5e1a7114a90da52e206de7ea","C3","batch3","spm_respsonse","8627.300000011921","img/question_5_2.jpeg","5","mat_50","6","1","1","8627.300000011921","","","","","","","","","","","","","","","","","","","","",""
"","","","","","html-keyboard-response","105","578333","0.0-2.0-4.0-0.26","5e1a7114a90da52e206de7ea","C3","batch3","spm_show_trial_num","null","<p class=block-text>Trial 51 out of 60</p>","null","","","","","","","","","","","","","","","","","","","","","","","","","",""
"","","","","","image-button-response","106","586511","0.0-2.0-4.0-1.26","5e1a7114a90da52e206de7ea","C3","batch3","spm_respsonse","8176.400000035763","img/question_5_3.jpeg","7","mat_51","8","1","1","8176.400000035763","","","","","","","","","","","","","","","","","","","","",""
"","","","","","html-keyboard-response","107","587562","0.0-2.0-4.0-0.27","5e1a7114a90da52e206de7ea","C3","batch3","spm_show_trial_num","null","<p class=block-text>Trial 52 out of 60</p>","null","","","","","","","","","","","","","","","","","","","","","","","","","",""
"","","","","","image-button-response","108","598671","0.0-2.0-4.0-1.27","5e1a7114a90da52e206de7ea","C3","batch3","spm_respsonse","11107.800000011921","img/question_5_4.jpeg","1","mat_52","2","1","1","11107.800000011921","","","","","","","","","","","","","","","","","","","","",""
"","","","","","html-keyboard-response","109","599723","0.0-2.0-4.0-0.28","5e1a7114a90da52e206de7ea","C3","batch3","spm_show_trial_num","null","<p class=block-text>Trial 53 out of 60</p>","null","","","","","","","","","","","","","","","","","","","","","","","","","",""
"","","","","","image-button-response","110","637407","0.0-2.0-4.0-1.28","5e1a7114a90da52e206de7ea","C3","batch3","spm_respsonse","37688.60000002384","img/question_5_5.jpeg","1","mat_53","1","0","0","37688.60000002384","","","","","","","","","","","","","","","","","","","","",""
"","","","","","html-keyboard-response","111","638459","0.0-2.0-4.0-0.29","5e1a7114a90da52e206de7ea","C3","batch3","spm_show_trial_num","null","<p class=block-text>Trial 54 out of 60</p>","null","","","","","","","","","","","","","","","","","","","","","","","","","",""
"","","","","","image-button-response","112","665086","0.0-2.0-4.0-1.29","5e1a7114a90da52e206de7ea","C3","batch3","spm_respsonse","26625.599999964237","img/question_5_6.jpeg","4","mat_54","5","1","1","26625.599999964237","","","","","","","","","","","","","","","","","","","","",""
"","","","","","html-keyboard-response","113","666154","0.0-2.0-4.0-0.30","5e1a7114a90da52e206de7ea","C3","batch3","spm_show_trial_num","null","<p class=block-text>Trial 55 out of 60</p>","null","","","","","","","","","","","","","","","","","","","","","","","","","",""
"","","","","","image-button-response","114","713758","0.0-2.0-4.0-1.30","5e1a7114a90da52e206de7ea","C3","batch3","spm_respsonse","47608.90000003576","img/question_5_7.jpeg","0","mat_55","1","1","1","47608.90000003576","","","","","","","","","","","","","","","","","","","","",""
"","","","","","html-keyboard-response","115","714818","0.0-2.0-4.0-0.31","5e1a7114a90da52e206de7ea","C3","batch3","spm_show_trial_num","null","<p class=block-text>Trial 56 out of 60</p>","null","","","","","","","","","","","","","","","","","","","","","","","","","",""
"","","","","","image-button-response","116","730507","0.0-2.0-4.0-1.31","5e1a7114a90da52e206de7ea","C3","batch3","spm_respsonse","15688.199999988079","img/question_5_8.jpeg","5","mat_56","6","1","1","15688.199999988079","","","","","","","","","","","","","","","","","","","","",""
"","","","","","html-keyboard-response","117","731559","0.0-2.0-4.0-0.32","5e1a7114a90da52e206de7ea","C3","batch3","spm_show_trial_num","null","<p class=block-text>Trial 57 out of 60</p>","null","","","","","","","","","","","","","","","","","","","","","","","","","",""
"","","","","","image-button-response","118","767582","0.0-2.0-4.0-1.32","5e1a7114a90da52e206de7ea","C3","batch3","spm_respsonse","36027.90000003576","img/question_5_9.jpeg","2","mat_57","3","1","1","36027.90000003576","","","","","","","","","","","","","","","","","","","","",""
"","","","","","html-keyboard-response","119","768639","0.0-2.0-4.0-0.33","5e1a7114a90da52e206de7ea","C3","batch3","spm_show_trial_num","null","<p class=block-text>Trial 58 out of 60</p>","null","","","","","","","","","","","","","","","","","","","","","","","","","",""
"","","","","","image-button-response","120","809967","0.0-2.0-4.0-1.33","5e1a7114a90da52e206de7ea","C3","batch3","spm_respsonse","41327","img/question_5_10.jpeg","5","mat_58","2","0","0","41327","","","","","","","","","","","","","","","","","","","","",""
"","","","","","html-keyboard-response","121","811029","0.0-2.0-4.0-0.34","5e1a7114a90da52e206de7ea","C3","batch3","spm_show_trial_num","null","<p class=block-text>Trial 59 out of 60</p>","null","","","","","","","","","","","","","","","","","","","","","","","","","",""
"","","","","","image-button-response","122","836293","0.0-2.0-4.0-1.34","5e1a7114a90da52e206de7ea","C3","batch3","spm_respsonse","25267.80000001192","img/question_5_11.jpeg","6","mat_59","4","0","0","25267.80000001192","","","","","","","","","","","","","","","","","","","","",""
"","","","","","html-keyboard-response","123","837346","0.0-2.0-4.0-0.35","5e1a7114a90da52e206de7ea","C3","batch3","spm_show_trial_num","null","<p class=block-text>Trial 60 out of 60</p>","null","","","","","","","","","","","","","","","","","","","","","","","","","",""
"","","","","","image-button-response","124","870495","0.0-2.0-4.0-1.35","5e1a7114a90da52e206de7ea","C3","batch3","spm_respsonse","33147.39999997616","img/question_5_12.jpeg","4","mat_60","5","1","1","33147.39999997616","","","","","","","","","","","","","","","","","","","","",""
"","","","","","html-button-response","125","874531","0.0-2.0-5.0","5e1a7114a90da52e206de7ea","C3","batch3","spm_goodbye","3785.599999964237","<p class= block-text>This concludes the Standard Progressive Matrix game. Thank you for your responses!<br> When you are ready, click the button continue</p>","0","","","","","","","","","","","","","","","","","","","","","","","","","",""
"true","","","","","fullscreen","126","879541","0.0-3.0-0.0","5e1a7114a90da52e206de7ea","C3","batch3","","","","","","","","","","","","","","","","","","","","","","","","","","","","","",""
"","","","","","instructions","127","894283","0.0-3.0-1.0-0.0","5e1a7114a90da52e206de7ea","C3","batch3","","14742","","","","","","","","[{""page_index"":0,""viewing_time"":8720.100000023842},{""page_index"":1,""viewing_time"":6021.800000011921}]","","","","","","","","","","","","","","","","","","","",""
"","","","","","html-button-response","128","895386","0.0-3.0-1.0-1.0-0.0","5e1a7114a90da52e206de7ea","C3","batch3","pattern_enter_quiz","1102.5","<p class=block-text> Let's answer a few questions <br>","0","","","","","","","","","","","","","","","","","","","","","","","","","",""
"","","","","","html-button-response","129","897664","0.0-3.0-1.0-1.0-1.0","5e1a7114a90da52e206de7ea","C3","batch3","pattern_quiz","2276.900000035763","<p class = block-text>True or False: You will have as much time as you want to make each choice. <br></p>","1","","","true","","","","","","","","","","","","","","","","","","","","","","",""
"","","","","","html-button-response","130","898442","0.0-3.0-1.0-1.0-2.0","5e1a7114a90da52e206de7ea","C3","batch3","pattern_quiz_feedback","777.2999999523163","<p class = block-text>Correct! You should make your choice <strong> as fast as you can</strong>.</p>","0","","","","","","","","","","","","","","","","","","","","","","","","","",""
"","","","","","html-button-response","131","901991","0.0-3.0-1.0-1.0-3.0","5e1a7114a90da52e206de7ea","C3","batch3","pattern_quiz","3548.800000011921","<p class = block-text>True or False: You will look for 4 pieces in black or white color connected in a row either horizontally, vertically or diagonally. <br></p>","0","","","true","","","","","","","","","","","","","","","","","","","","","","",""
"","","","","","html-button-response","132","902762","0.0-3.0-1.0-1.0-4.0","5e1a7114a90da52e206de7ea","C3","batch3","pattern_quiz_feedback","770.6999999880791","<p class = block-text>Correct! </p>","0","","","","","","","","","","","","","","","","","","","","","","","","","",""
"","","","","","html-button-response","133","904463","0.0-3.0-2.0","5e1a7114a90da52e206de7ea","C3","batch3","pattern_enter_practice","1700.300000011921","<p class=block-text> Now that you've understood the game, let's do a few practice trials before we start!<br> <br>","0","","","","","","","","","","","","","","","","","","","","","","","","","",""
"","","","","","image-keyboard-response","134","906452","0.0-3.0-3.0-0.0","5e1a7114a90da52e206de7ea","C3","batch3","pattern_practice","1987.3999999761581","stim/prac_no_18_1.png","j","","j","true","","","","","","","","","","","","","","","","","","","","","","",""
"","","","","","html-keyboard-response","135","907460","0.0-3.0-3.0-1.0","5e1a7114a90da52e206de7ea","C3","batch3","pattern_feedback","null","<p style=""font-size:30px;color:green;"">Correct!</p>","null","","","","","","","","","","","","","","","","","","","","","","","","","",""
"","","","","","image-keyboard-response","136","908185","0.0-3.0-3.0-0.1","5e1a7114a90da52e206de7ea","C3","batch3","pattern_practice","725.1999999880791","stim/prac_yes_18_hor_w1.png","f","","f","true","","","","","","","","","","","","","","","","","","","","","","",""
"","","","","","html-keyboard-response","137","909198","0.0-3.0-3.0-1.1","5e1a7114a90da52e206de7ea","C3","batch3","pattern_feedback","null","<p style=""font-size:30px;color:green;"">Correct!</p>","null","","","","","","","","","","","","","","","","","","","","","","","","","",""
"","","","","","image-keyboard-response","138","909860","0.0-3.0-3.0-0.2","5e1a7114a90da52e206de7ea","C3","batch3","pattern_practice","661.2999999523163","stim/prac_yes_16_ver_w1.png","f","","f","true","","","","","","","","","","","","","","","","","","","","","","",""
"","","","","","html-keyboard-response","139","910873","0.0-3.0-3.0-1.2","5e1a7114a90da52e206de7ea","C3","batch3","pattern_feedback","null","<p style=""font-size:30px;color:green;"">Correct!</p>","null","","","","","","","","","","","","","","","","","","","","","","","","","",""
"","","","","","image-keyboard-response","140","911995","0.0-3.0-3.0-0.3","5e1a7114a90da52e206de7ea","C3","batch3","pattern_practice","1120.3999999761581","stim/prac_no_16_1.png","j","","j","true","","","","","","","","","","","","","","","","","","","","","","",""
"","","","","","html-keyboard-response","141","913007","0.0-3.0-3.0-1.3","5e1a7114a90da52e206de7ea","C3","batch3","pattern_feedback","null","<p style=""font-size:30px;color:green;"">Correct!</p>","null","","","","","","","","","","","","","","","","","","","","","","","","","",""
"","","","","","image-keyboard-response","142","914156","0.0-3.0-3.0-0.4","5e1a7114a90da52e206de7ea","C3","batch3","pattern_practice","1149.300000011921","stim/prac_yes_20_dia_b1.png","j","","f","false","","","","","","","","","","","","","","","","","","","","","","",""
"","","","","","html-keyboard-response","143","915182","0.0-3.0-3.0-1.4","5e1a7114a90da52e206de7ea","C3","batch3","pattern_feedback","null","<p style=""font-size:30px;color:red;"">Wrong.</p>","null","","","","","","","","","","","","","","","","","","","","","","","","","",""
"","","","","","html-button-response","144","919161","0.0-3.0-4.0","5e1a7114a90da52e206de7ea","C3","batch3","pattern_enter_official_trials","3979","<p class=block-text> Good job! You are done with practice trials!<br>
        You responded correctly on 80% of the trials.<br>
        Press the button below to start official trials. Now you won't see any feedback about your response</p>","0","","","","","","","","","","","","","","","","","","","","","","","","","",""
"","","","","","html-keyboard-response","145","919963","0.0-3.0-5.0-0.0","5e1a7114a90da52e206de7ea","C3","batch3","pattern_show_trial_num","null","<p class=block-text>Trial 1 out of 78</p>","null","","","","","","","","","","","","","","","","","","","","","","","","","",""
"","","","","","image-keyboard-response","146","921322","0.0-3.0-5.0-1.0","5e1a7114a90da52e206de7ea","C3","batch3","pattern_response","1358.9000000357628","stim/yes_33_dia_w1_w.png","f","pattern_56","f","true","","","","1358.9000000357628","true","1","","","","","","","","","","","","","","","","",""
"","","","","","html-keyboard-response","147","922638","0.0-3.0-5.0-0.1","5e1a7114a90da52e206de7ea","C3","batch3","pattern_show_trial_num","null","<p class=block-text>Trial 2 out of 78</p>","null","","","","","","","","","","","","","","","","","","","","","","","","","",""
"","","","","","image-keyboard-response","148","926245","0.0-3.0-5.0-1.1","5e1a7114a90da52e206de7ea","C3","batch3","pattern_response","3607.199999988079","stim/no_45_1_w.png","j","pattern_25","j","true","","","","3607.199999988079","true","2","","","","","","","","","","","","","","","","",""
"","","","","","html-keyboard-response","149","927563","0.0-3.0-5.0-0.2","5e1a7114a90da52e206de7ea","C3","batch3","pattern_show_trial_num","null","<p class=block-text>Trial 3 out of 78</p>","null","","","","","","","","","","","","","","","","","","","","","","","","","",""
"","","","","","image-keyboard-response","150","928266","0.0-3.0-5.0-1.2","5e1a7114a90da52e206de7ea","C3","batch3","pattern_response","703","stim/yes_39_hor_w1_w.png","f","pattern_62","f","true","","","","703","true","3","","","","","","","","","","","","","","","","",""
"","","","","","html-keyboard-response","151","929583","0.0-3.0-5.0-0.3","5e1a7114a90da52e206de7ea","C3","batch3","pattern_show_trial_num","null","<p class=block-text>Trial 4 out of 78</p>","null","","","","","","","","","","","","","","","","","","","","","","","","","",""
"","","","","","image-keyboard-response","152","933786","0.0-3.0-5.0-1.3","5e1a7114a90da52e206de7ea","C3","batch3","pattern_response","4201.399999976158","stim/no_58_1_w.png","j","pattern_35","j","true","","","","4201.399999976158","true","4","","","","","","","","","","","","","","","","",""
"","","","","","html-keyboard-response","153","935099","0.0-3.0-5.0-0.4","5e1a7114a90da52e206de7ea","C3","batch3","pattern_show_trial_num","null","<p class=block-text>Trial 5 out of 78</p>","null","","","","","","","","","","","","","","","","","","","","","","","","","",""
"","","","","","image-keyboard-response","154","940166","0.0-3.0-5.0-1.4","5e1a7114a90da52e206de7ea","C3","batch3","pattern_response","5066.099999964237","stim/no_37_2_w.png","j","pattern_19","j","true","","","","5066.099999964237","true","5","","","","","","","","","","","","","","","","",""
"","","","","","html-keyboard-response","155","941489","0.0-3.0-5.0-0.5","5e1a7114a90da52e206de7ea","C3","batch3","pattern_show_trial_num","null","<p class=block-text>Trial 6 out of 78</p>","null","","","","","","","","","","","","","","","","","","","","","","","","","",""
"","","","","","image-keyboard-response","156","945850","0.0-3.0-5.0-1.5","5e1a7114a90da52e206de7ea","C3","batch3","pattern_response","4360.199999988079","stim/no_49_2_b.png","j","pattern_29","j","true","","","","4360.199999988079","true","6","","","","","","","","","","","","","","","","",""
"","","","","","html-keyboard-response","157","947161","0.0-3.0-5.0-0.6","5e1a7114a90da52e206de7ea","C3","batch3","pattern_show_trial_num","null","<p class=block-text>Trial 7 out of 78</p>","null","","","","","","","","","","","","","","","","","","","","","","","","","",""
"","","","","","image-keyboard-response","158","949034","0.0-3.0-5.0-1.6","5e1a7114a90da52e206de7ea","C3","batch3","pattern_response","1872.199999988079","stim/no_25_1_b.png","j","pattern_09","j","true","","","","1872.199999988079","true","7","","","","","","","","","","","","","","","","",""
"","","","","","html-keyboard-response","159","950355","0.0-3.0-5.0-0.7","5e1a7114a90da52e206de7ea","C3","batch3","pattern_show_trial_num","null","<p class=block-text>Trial 8 out of 78</p>","null","","","","","","","","","","","","","","","","","","","","","","","","","",""
"","","","","","image-keyboard-response","160","953421","0.0-3.0-5.0-1.7","5e1a7114a90da52e206de7ea","C3","batch3","pattern_response","3065.100000023842","stim/yes_51_dia_b1.png","f","pattern_72","f","true","","","","3065.100000023842","true","8","","","","","","","","","","","","","","","","",""
"","","","","","html-keyboard-response","161","954734","0.0-3.0-5.0-0.8","5e1a7114a90da52e206de7ea","C3","batch3","pattern_show_trial_num","null","<p class=block-text>Trial 9 out of 78</p>","null","","","","","","","","","","","","","","","","","","","","","","","","","",""
"","","","","","image-keyboard-response","162","955700","0.0-3.0-5.0-1.8","5e1a7114a90da52e206de7ea","C3","batch3","pattern_response","965.0999999642372","stim/yes_26_dia_w2_w.png","f","pattern_50","f","true","","","","965.0999999642372","true","9","","","","","","","","","","","","","","","","",""
"","","","","","html-keyboard-response","163","957019","0.0-3.0-5.0-0.9","5e1a7114a90da52e206de7ea","C3","batch3","pattern_show_trial_num","null","<p class=block-text>Trial 10 out of 78</p>","null","","","","","","","","","","","","","","","","","","","","","","","","","",""
"","","","","","image-keyboard-response","164","958656","0.0-3.0-5.0-1.9","5e1a7114a90da52e206de7ea","C3","batch3","pattern_response","1636.199999988079","stim/no_15_1_w.png","j","pattern_03","j","true","","","","1636.199999988079","true","10","","","","","","","","","","","","","","","","",""
"","","","","","html-keyboard-response","165","959967","0.0-3.0-5.0-0.10","5e1a7114a90da52e206de7ea","C3","batch3","pattern_show_trial_num","null","<p class=block-text>Trial 11 out of 78</p>","null","","","","","","","","","","","","","","","","","","","","","","","","","",""
"","","","","","image-keyboard-response","166","963998","0.0-3.0-5.0-1.10","5e1a7114a90da52e206de7ea","C3","batch3","pattern_response","4030.100000023842","stim/no_43_2_b.png","j","pattern_23","j","true","","","","4030.100000023842","true","11","","","","","","","","","","","","","","","","",""
"","","","","","html-keyboard-response","167","965318","0.0-3.0-5.0-0.11","5e1a7114a90da52e206de7ea","C3","batch3","pattern_show_trial_num","null","<p class=block-text>Trial 12 out of 78</p>","null","","","","","","","","","","","","","","","","","","","","","","","","","",""
"","","","","","image-keyboard-response","168","969332","0.0-3.0-5.0-1.11","5e1a7114a90da52e206de7ea","C3","batch3","pattern_response","4012.899999976158","stim/no_51_1.png","j","pattern_31","j","true","","","","4012.899999976158","true","12","","","","","","","","","","","","","","","","",""
"","","","","","html-keyboard-response","169","970657","0.0-3.0-5.0-0.12","5e1a7114a90da52e206de7ea","C3","batch3","pattern_show_trial_num","null","<p class=block-text>Trial 13 out of 78</p>","null","","","","","","","","","","","","","","","","","","","","","","","","","",""
"","","","","","image-keyboard-response","170","974746","0.0-3.0-5.0-1.12","5e1a7114a90da52e206de7ea","C3","batch3","pattern_response","4088","stim/no_36_1_b.png","j","pattern_17","j","true","","","","4088","true","13","","","","","","","","","","","","","","","","",""
"","","","","","html-keyboard-response","171","976061","0.0-3.0-5.0-0.13","5e1a7114a90da52e206de7ea","C3","batch3","pattern_show_trial_num","null","<p class=block-text>Trial 14 out of 78</p>","null","","","","","","","","","","","","","","","","","","","","","","","","","",""
"","","","","","image-keyboard-response","172","979196","0.0-3.0-5.0-1.13","5e1a7114a90da52e206de7ea","C3","batch3","pattern_response","3134.099999964237","stim/yes_42_dia_w1_w.png","f","pattern_64","f","true","","","","3134.099999964237","true","14","","","","","","","","","","","","","","","","",""
"","","","","","html-keyboard-response","173","980515","0.0-3.0-5.0-0.14","5e1a7114a90da52e206de7ea","C3","batch3","pattern_show_trial_num","null","<p class=block-text>Trial 15 out of 78</p>","null","","","","","","","","","","","","","","","","","","","","","","","","","",""
"","","","","","image-keyboard-response","174","985200","0.0-3.0-5.0-1.14","5e1a7114a90da52e206de7ea","C3","batch3","pattern_response","4684.199999988079","stim/no_47_1_b.png","j","pattern_27","j","true","","","","4684.199999988079","true","15","","","","","","","","","","","","","","","","",""
"","","","","","html-keyboard-response","175","986517","0.0-3.0-5.0-0.15","5e1a7114a90da52e206de7ea","C3","batch3","pattern_show_trial_num","null","<p class=block-text>Trial 16 out of 78</p>","null","","","","","","","","","","","","","","","","","","","","","","","","","",""
"","","","","","image-keyboard-response","176","991358","0.0-3.0-5.0-1.15","5e1a7114a90da52e206de7ea","C3","batch3","pattern_response","4840","stim/no_67_1.png","j","pattern_39","j","true","","","","4840","true","16","","","","","","","","","","","","","","","","",""
"","","","","","html-keyboard-response","177","992681","0.0-3.0-5.0-0.16","5e1a7114a90da52e206de7ea","C3","batch3","pattern_show_trial_num","null","<p class=block-text>Trial 17 out of 78</p>","null","","","","","","","","","","","","","","","","","","","","","","","","","",""
"","","","","","image-keyboard-response","178","993325","0.0-3.0-5.0-1.16","5e1a7114a90da52e206de7ea","C3","batch3","pattern_response","642.8999999761581","stim/yes_17_ver_b1_b.png","f","pattern_46","f","true","","","","642.8999999761581","true","17","","","","","","","","","","","","","","","","",""
"","","","","","html-keyboard-response","179","994649","0.0-3.0-5.0-0.17","5e1a7114a90da52e206de7ea","C3","batch3","pattern_show_trial_num","null","<p class=block-text>Trial 18 out of 78</p>","null","","","","","","","","","","","","","","","","","","","","","","","","","",""
"","","","","","image-keyboard-response","180","997171","0.0-3.0-5.0-1.17","5e1a7114a90da52e206de7ea","C3","batch3","pattern_response","2526.2999999523163","stim/yes_46_ver_b1_b.png","f","pattern_68","f","true","","","","2526.2999999523163","true","18","","","","","","","","","","","","","","","","",""
"","","","","","html-keyboard-response","181","998498","0.0-3.0-5.0-0.18","5e1a7114a90da52e206de7ea","C3","batch3","pattern_show_trial_num","null","<p class=block-text>Trial 19 out of 78</p>","null","","","","","","","","","","","","","","","","","","","","","","","","","",""
"","","","","","image-keyboard-response","182","1000088","0.0-3.0-5.0-1.18","5e1a7114a90da52e206de7ea","C3","batch3","pattern_response","1589.1000000238419","stim/yes_23_ver_b1.png","f","pattern_48","f","true","","","","1589.1000000238419","true","19","","","","","","","","","","","","","","","","",""
"","","","","","html-keyboard-response","183","1001404","0.0-3.0-5.0-0.19","5e1a7114a90da52e206de7ea","C3","batch3","pattern_show_trial_num","null","<p class=block-text>Trial 20 out of 78</p>","null","","","","","","","","","","","","","","","","","","","","","","","","","",""
"","","","","","image-keyboard-response","184","1007777","0.0-3.0-5.0-1.19","5e1a7114a90da52e206de7ea","C3","batch3","pattern_response","6372.199999988079","stim/no_53_1_b.png","j","pattern_33","j","true","","","","6372.199999988079","true","20","","","","","","","","","","","","","","","","",""
"","","","","","html-keyboard-response","185","1009092","0.0-3.0-5.0-0.20","5e1a7114a90da52e206de7ea","C3","batch3","pattern_show_trial_num","null","<p class=block-text>Trial 21 out of 78</p>","null","","","","","","","","","","","","","","","","","","","","","","","","","",""
"","","","","","image-keyboard-response","186","1014723","0.0-3.0-5.0-1.20","5e1a7114a90da52e206de7ea","C3","batch3","pattern_response","5629.899999976158","stim/yes_58_dia_w1_w.png","j","pattern_76","f","false","","","","5629.899999976158","false","20","","","","","","","","","","","","","","","","",""
"","","","","","html-keyboard-response","187","1016038","0.0-3.0-5.0-0.21","5e1a7114a90da52e206de7ea","C3","batch3","pattern_show_trial_num","null","<p class=block-text>Trial 22 out of 78</p>","null","","","","","","","","","","","","","","","","","","","","","","","","","",""
"","","","","","image-keyboard-response","188","1021400","0.0-3.0-5.0-1.21","5e1a7114a90da52e206de7ea","C3","batch3","pattern_response","5361","stim/yes_44_ver_w1_w.png","j","pattern_66","f","false","","","","5361","false","20","","","","","","","","","","","","","","","","",""
"","","","","","html-keyboard-response","189","1022709","0.0-3.0-5.0-0.22","5e1a7114a90da52e206de7ea","C3","batch3","pattern_show_trial_num","null","<p class=block-text>Trial 23 out of 78</p>","null","","","","","","","","","","","","","","","","","","","","","","","","","",""
"","","","","","image-keyboard-response","190","1023759","0.0-3.0-5.0-1.22","5e1a7114a90da52e206de7ea","C3","batch3","pattern_response","1049.199999988079","stim/yes_30_ver_b1_b.png","f","pattern_54","f","true","","","","1049.199999988079","true","21","","","","","","","","","","","","","","","","",""
"","","","","","html-keyboard-response","191","1025070","0.0-3.0-5.0-0.23","5e1a7114a90da52e206de7ea","C3","batch3","pattern_show_trial_num","null","<p class=block-text>Trial 24 out of 78</p>","null","","","","","","","","","","","","","","","","","","","","","","","","","",""
"","","","","","image-keyboard-response","192","1025675","0.0-3.0-5.0-1.23","5e1a7114a90da52e206de7ea","C3","batch3","pattern_response","604.3000000119209","stim/yes_15_dia_b1u_b.png","f","pattern_44","f","true","","","","604.3000000119209","true","22","","","","","","","","","","","","","","","","",""
"","","","","","html-keyboard-response","193","1027000","0.0-3.0-5.0-0.24","5e1a7114a90da52e206de7ea","C3","batch3","pattern_show_trial_num","null","<p class=block-text>Trial 25 out of 78</p>","null","","","","","","","","","","","","","","","","","","","","","","","","","",""
"","","","","","image-keyboard-response","194","1028209","0.0-3.0-5.0-1.24","5e1a7114a90da52e206de7ea","C3","batch3","pattern_response","1208.3999999761581","stim/yes_36_ver_w1_w.png","f","pattern_58","f","true","","","","1208.3999999761581","true","23","","","","","","","","","","","","","","","","",""
"","","","","","html-keyboard-response","195","1029532","0.0-3.0-5.0-0.25","5e1a7114a90da52e206de7ea","C3","batch3","pattern_show_trial_num","null","<p class=block-text>Trial 26 out of 78</p>","null","","","","","","","","","","","","","","","","","","","","","","","","","",""
"","","","","","image-keyboard-response","196","1033275","0.0-3.0-5.0-1.25","5e1a7114a90da52e206de7ea","C3","batch3","pattern_response","3742.300000011921","stim/no_33_1_b.png","j","pattern_15","j","true","","","","3742.300000011921","true","24","","","","","","","","","","","","","","","","",""
"","","","","","html-keyboard-response","197","1034590","0.0-3.0-5.0-0.26","5e1a7114a90da52e206de7ea","C3","batch3","pattern_show_trial_num","null","<p class=block-text>Trial 27 out of 78</p>","null","","","","","","","","","","","","","","","","","","","","","","","","","",""
"","","","","","image-keyboard-response","198","1037486","0.0-3.0-5.0-1.26","5e1a7114a90da52e206de7ea","C3","batch3","pattern_response","2895","stim/no_28_2.png","j","pattern_11","j","true","","","","2895","true","25","","","","","","","","","","","","","","","","",""
"","","","","","html-keyboard-response","199","1038814","0.0-3.0-5.0-0.27","5e1a7114a90da52e206de7ea","C3","batch3","pattern_show_trial_num","null","<p class=block-text>Trial 28 out of 78</p>","null","","","","","","","","","","","","","","","","","","","","","","","","","",""
"","","","","","image-keyboard-response","200","1039621","0.0-3.0-5.0-1.27","5e1a7114a90da52e206de7ea","C3","batch3","pattern_response","805.9000000357628","stim/yes_29_hor_b1_b.png","f","pattern_52","f","true","","","","805.9000000357628","true","26","","","","","","","","","","","","","","","","",""
"","","","","","html-keyboard-response","201","1040935","0.0-3.0-5.0-0.28","5e1a7114a90da52e206de7ea","C3","batch3","pattern_show_trial_num","null","<p class=block-text>Trial 29 out of 78</p>","null","","","","","","","","","","","","","","","","","","","","","","","","","",""
"","","","","","image-keyboard-response","202","1041775","0.0-3.0-5.0-1.28","5e1a7114a90da52e206de7ea","C3","batch3","pattern_response","839.1999999880791","stim/yes_49_hor_w1_b.png","f","pattern_70","f","true","","","","839.1999999880791","true","27","","","","","","","","","","","","","","","","",""
"","","","","","html-keyboard-response","203","1043094","0.0-3.0-5.0-0.29","5e1a7114a90da52e206de7ea","C3","batch3","pattern_show_trial_num","null","<p class=block-text>Trial 30 out of 78</p>","null","","","","","","","","","","","","","","","","","","","","","","","","","",""
"","","","","","image-keyboard-response","204","1043590","0.0-3.0-5.0-1.29","5e1a7114a90da52e206de7ea","C3","batch3","pattern_response","495.39999997615814","stim/yes_12_hor_w1_w.png","f","pattern_42","f","true","","","","495.39999997615814","true","28","","","","","","","","","","","","","","","","",""
"","","","","","html-keyboard-response","205","1044892","0.0-3.0-5.0-0.30","5e1a7114a90da52e206de7ea","C3","batch3","pattern_show_trial_num","null","<p class=block-text>Trial 31 out of 78</p>","null","","","","","","","","","","","","","","","","","","","","","","","","","",""
"","","","","","image-keyboard-response","206","1046510","0.0-3.0-5.0-1.30","5e1a7114a90da52e206de7ea","C3","batch3","pattern_response","1617.199999988079","stim/yes_53_ver_b1_b.png","f","pattern_74","f","true","","","","1617.199999988079","true","29","","","","","","","","","","","","","","","","",""
"","","","","","html-keyboard-response","207","1047826","0.0-3.0-5.0-0.31","5e1a7114a90da52e206de7ea","C3","batch3","pattern_show_trial_num","null","<p class=block-text>Trial 32 out of 78</p>","null","","","","","","","","","","","","","","","","","","","","","","","","","",""
"","","","","","image-keyboard-response","208","1052478","0.0-3.0-5.0-1.31","5e1a7114a90da52e206de7ea","C3","batch3","pattern_response","4651","stim/yes_63_dia_b1.png","j","pattern_78","f","false","","","","4651","false","29","","","","","","","","","","","","","","","","",""
"","","","","","html-keyboard-response","209","1053802","0.0-3.0-5.0-0.32","5e1a7114a90da52e206de7ea","C3","batch3","pattern_show_trial_num","null","<p class=block-text>Trial 33 out of 78</p>","null","","","","","","","","","","","","","","","","","","","","","","","","","",""
"","","","","","image-keyboard-response","210","1055413","0.0-3.0-5.0-1.32","5e1a7114a90da52e206de7ea","C3","batch3","pattern_response","1610.300000011921","stim/yes_70_ver_b1.png","f","pattern_80","f","true","","","","1610.300000011921","true","30","","","","","","","","","","","","","","","","",""
"","","","","","html-keyboard-response","211","1056736","0.0-3.0-5.0-0.33","5e1a7114a90da52e206de7ea","C3","batch3","pattern_show_trial_num","null","<p class=block-text>Trial 34 out of 78</p>","null","","","","","","","","","","","","","","","","","","","","","","","","","",""
"","","","","","image-keyboard-response","212","1057351","0.0-3.0-5.0-1.33","5e1a7114a90da52e206de7ea","C3","batch3","pattern_response","619.1999999880791","stim/yes_37_hor_w1_w.png","f","pattern_60","f","true","","","","619.1999999880791","true","31","","","","","","","","","","","","","","","","",""
"","","","","","html-keyboard-response","213","1058671","0.0-3.0-5.0-0.34","5e1a7114a90da52e206de7ea","C3","batch3","pattern_show_trial_num","null","<p class=block-text>Trial 35 out of 78</p>","null","","","","","","","","","","","","","","","","","","","","","","","","","",""
"","","","","","image-keyboard-response","214","1061232","0.0-3.0-5.0-1.34","5e1a7114a90da52e206de7ea","C3","batch3","pattern_response","2559.5","stim/no_30_1_b.png","j","pattern_13","j","true","","","","2559.5","true","32","","","","","","","","","","","","","","","","",""
"","","","","","html-keyboard-response","215","1062542","0.0-3.0-5.0-0.35","5e1a7114a90da52e206de7ea","C3","batch3","pattern_show_trial_num","null","<p class=block-text>Trial 36 out of 78</p>","null","","","","","","","","","","","","","","","","","","","","","","","","","",""
"","","","","","image-keyboard-response","216","1063465","0.0-3.0-5.0-1.35","5e1a7114a90da52e206de7ea","C3","batch3","pattern_response","922.0999999642372","stim/no_12_1.png","j","pattern_01","j","true","","","","922.0999999642372","true","33","","","","","","","","","","","","","","","","",""
"","","","","","html-keyboard-response","217","1064777","0.0-3.0-5.0-0.36","5e1a7114a90da52e206de7ea","C3","batch3","pattern_show_trial_num","null","<p class=block-text>Trial 37 out of 78</p>","null","","","","","","","","","","","","","","","","","","","","","","","","","",""
"","","","","","image-keyboard-response","218","1066076","0.0-3.0-5.0-1.36","5e1a7114a90da52e206de7ea","C3","batch3","pattern_response","1298.4000000357628","stim/no_22_1_b.png","j","pattern_07","j","true","","","","1298.4000000357628","true","34","","","","","","","","","","","","","","","","",""
"","","","","","html-keyboard-response","219","1067391","0.0-3.0-5.0-0.37","5e1a7114a90da52e206de7ea","C3","batch3","pattern_show_trial_num","null","<p class=block-text>Trial 38 out of 78</p>","null","","","","","","","","","","","","","","","","","","","","","","","","","",""
"","","","","","image-keyboard-response","220","1068906","0.0-3.0-5.0-1.37","5e1a7114a90da52e206de7ea","C3","batch3","pattern_response","1514.0999999642372","stim/no_18_1_b.png","j","pattern_05","j","true","","","","1514.0999999642372","true","35","","","","","","","","","","","","","","","","",""
"","","","","","html-keyboard-response","221","1070228","0.0-3.0-5.0-0.38","5e1a7114a90da52e206de7ea","C3","batch3","pattern_show_trial_num","null","<p class=block-text>Trial 39 out of 78</p>","null","","","","","","","","","","","","","","","","","","","","","","","","","",""
"","","","","","image-keyboard-response","222","1072928","0.0-3.0-5.0-1.38","5e1a7114a90da52e206de7ea","C3","batch3","pattern_response","2700","stim/no_39_1_w.png","j","pattern_21","j","true","","","","2700","true","36","","","","","","","","","","","","","","","","",""
"","","","","","image-keyboard-response","223","1075171","0.0-3.0-6.0","5e1a7114a90da52e206de7ea","C3","batch3","attention_check","1730.2000000476837","stim/empty_board.png","j","","j","true","","","","","","","500","[""f"",""j""]","","","","","","","","","","","","","","",""
"","","","","","html-keyboard-response","224","1075983","0.0-3.0-7.0-0.0","5e1a7114a90da52e206de7ea","C3","batch3","pattern_show_trial_num","null","<p class=block-text>Trial 40 out of 78</p>","null","","","","","","","","","","","","","","","","","","","","","","","","","",""
"","","","","","image-keyboard-response","225","1080226","0.0-3.0-7.0-1.0","5e1a7114a90da52e206de7ea","C3","batch3","pattern_response","4242.100000023842","stim/no_55_1_w.png","j","pattern_34","j","true","","","","4242.100000023842","true","37","","","","","","","","","","","","","","","","",""
"","","","","","html-keyboard-response","226","1081537","0.0-3.0-7.0-0.1","5e1a7114a90da52e206de7ea","C3","batch3","pattern_show_trial_num","null","<p class=block-text>Trial 41 out of 78</p>","null","","","","","","","","","","","","","","","","","","","","","","","","","",""
"","","","","","image-keyboard-response","227","1082598","0.0-3.0-7.0-1.1","5e1a7114a90da52e206de7ea","C3","batch3","pattern_response","1060.7000000476837","stim/no_17_1_w.png","j","pattern_04","j","true","","","","1060.7000000476837","true","38","","","","","","","","","","","","","","","","",""
"","","","","","html-keyboard-response","228","1083920","0.0-3.0-7.0-0.2","5e1a7114a90da52e206de7ea","C3","batch3","pattern_show_trial_num","null","<p class=block-text>Trial 42 out of 78</p>","null","","","","","","","","","","","","","","","","","","","","","","","","","",""
"","","","","","image-keyboard-response","229","1085120","0.0-3.0-7.0-1.2","5e1a7114a90da52e206de7ea","C3","batch3","pattern_response","1199.4000000357628","stim/no_20_1_w.png","j","pattern_06","j","true","","","","1199.4000000357628","true","39","","","","","","","","","","","","","","","","",""
"","","","","","html-keyboard-response","230","1086438","0.0-3.0-7.0-0.3","5e1a7114a90da52e206de7ea","C3","batch3","pattern_show_trial_num","null","<p class=block-text>Trial 43 out of 78</p>","null","","","","","","","","","","","","","","","","","","","","","","","","","",""
"","","","","","image-keyboard-response","231","1088821","0.0-3.0-7.0-1.3","5e1a7114a90da52e206de7ea","C3","batch3","pattern_response","2382.199999988079","stim/no_38_1_b.png","j","pattern_20","j","true","","","","2382.199999988079","true","40","","","","","","","","","","","","","","","","",""
"","","","","","html-keyboard-response","232","1090123","0.0-3.0-7.0-0.4","5e1a7114a90da52e206de7ea","C3","batch3","pattern_show_trial_num","null","<p class=block-text>Trial 44 out of 78</p>","null","","","","","","","","","","","","","","","","","","","","","","","","","",""
"","","","","","image-keyboard-response","233","1093428","0.0-3.0-7.0-1.4","5e1a7114a90da52e206de7ea","C3","batch3","pattern_response","3303.399999976158","stim/no_44_1.png","j","pattern_24","j","true","","","","3303.399999976158","true","41","","","","","","","","","","","","","","","","",""
"","","","","","html-keyboard-response","234","1094744","0.0-3.0-7.0-0.5","5e1a7114a90da52e206de7ea","C3","batch3","pattern_show_trial_num","null","<p class=block-text>Trial 45 out of 78</p>","null","","","","","","","","","","","","","","","","","","","","","","","","","",""
"","","","","","image-keyboard-response","235","1095436","0.0-3.0-7.0-1.5","5e1a7114a90da52e206de7ea","C3","batch3","pattern_response","691.1999999880791","stim/yes_22_ver_w1.png","f","pattern_47","f","true","","","","691.1999999880791","true","42","","","","","","","","","","","","","","","","",""
"","","","","","html-keyboard-response","236","1096751","0.0-3.0-7.0-0.6","5e1a7114a90da52e206de7ea","C3","batch3","pattern_show_trial_num","null","<p class=block-text>Trial 46 out of 78</p>","null","","","","","","","","","","","","","","","","","","","","","","","","","",""
"","","","","","image-keyboard-response","237","1097437","0.0-3.0-7.0-1.6","5e1a7114a90da52e206de7ea","C3","batch3","pattern_response","685.1999999880791","stim/yes_28_ver_b1.png","f","pattern_51","f","true","","","","685.1999999880791","true","43","","","","","","","","","","","","","","","","",""
"","","","","","html-keyboard-response","238","1098757","0.0-3.0-7.0-0.7","5e1a7114a90da52e206de7ea","C3","batch3","pattern_show_trial_num","null","<p class=block-text>Trial 47 out of 78</p>","null","","","","","","","","","","","","","","","","","","","","","","","","","",""
"","","","","","image-keyboard-response","239","1100890","0.0-3.0-7.0-1.7","5e1a7114a90da52e206de7ea","C3","batch3","pattern_response","2132.100000023842","stim/no_36_2_w.png","j","pattern_18","j","true","","","","2132.100000023842","true","44","","","","","","","","","","","","","","","","",""
"","","","","","html-keyboard-response","240","1102198","0.0-3.0-7.0-0.8","5e1a7114a90da52e206de7ea","C3","batch3","pattern_show_trial_num","null","<p class=block-text>Trial 48 out of 78</p>","null","","","","","","","","","","","","","","","","","","","","","","","","","",""
"","","","","","image-keyboard-response","241","1103561","0.0-3.0-7.0-1.8","5e1a7114a90da52e206de7ea","C3","batch3","pattern_response","1362.199999988079","stim/yes_40_dia_b1_b.png","f","pattern_63","f","true","","","","1362.199999988079","true","45","","","","","","","","","","","","","","","","",""
"","","","","","html-keyboard-response","242","1104877","0.0-3.0-7.0-0.9","5e1a7114a90da52e206de7ea","C3","batch3","pattern_show_trial_num","null","<p class=block-text>Trial 49 out of 78</p>","null","","","","","","","","","","","","","","","","","","","","","","","","","",""
"","","","","","image-keyboard-response","243","1106588","0.0-3.0-7.0-1.9","5e1a7114a90da52e206de7ea","C3","batch3","pattern_response","1711","stim/yes_52_ver_w1.png","f","pattern_73","f","true","","","","1711","true","46","","","","","","","","","","","","","","","","",""
"","","","","","html-keyboard-response","244","1107902","0.0-3.0-7.0-0.10","5e1a7114a90da52e206de7ea","C3","batch3","pattern_show_trial_num","null","<p class=block-text>Trial 50 out of 78</p>","null","","","","","","","","","","","","","","","","","","","","","","","","","",""
"","","","","","image-keyboard-response","245","1111862","0.0-3.0-7.0-1.10","5e1a7114a90da52e206de7ea","C3","batch3","pattern_response","3959.300000011921","stim/no_52_1.png","j","pattern_32","j","true","","","","3959.300000011921","true","47","","","","","","","","","","","","","","","","",""
"","","","","","html-keyboard-response","246","1113173","0.0-3.0-7.0-0.11","5e1a7114a90da52e206de7ea","C3","batch3","pattern_show_trial_num","null","<p class=block-text>Trial 51 out of 78</p>","null","","","","","","","","","","","","","","","","","","","","","","","","","",""
"","","","","","image-keyboard-response","247","1115030","0.0-3.0-7.0-1.11","5e1a7114a90da52e206de7ea","C3","batch3","pattern_response","1856.1000000238419","stim/no_23_1.png","j","pattern_08","j","true","","","","1856.1000000238419","true","48","","","","","","","","","","","","","","","","",""
"","","","","","html-keyboard-response","248","1116353","0.0-3.0-7.0-0.12","5e1a7114a90da52e206de7ea","C3","batch3","pattern_show_trial_num","null","<p class=block-text>Trial 52 out of 78</p>","null","","","","","","","","","","","","","","","","","","","","","","","","","",""
"","","","","","image-keyboard-response","249","1117701","0.0-3.0-7.0-1.12","5e1a7114a90da52e206de7ea","C3","batch3","pattern_response","1353","stim/yes_29_ver_w1.png","f","pattern_53","f","true","","","","1353","true","49","","","","","","","","","","","","","","","","",""
"","","","","","html-keyboard-response","250","1119027","0.0-3.0-7.0-0.13","5e1a7114a90da52e206de7ea","C3","batch3","pattern_show_trial_num","null","<p class=block-text>Trial 53 out of 78</p>","null","","","","","","","","","","","","","","","","","","","","","","","","","",""
"","","","","","image-keyboard-response","251","1123477","0.0-3.0-7.0-1.13","5e1a7114a90da52e206de7ea","C3","batch3","pattern_response","4449.900000035763","stim/no_62_1_w.png","j","pattern_36","j","true","","","","4449.900000035763","true","50","","","","","","","","","","","","","","","","",""
"","","","","","html-keyboard-response","252","1124794","0.0-3.0-7.0-0.14","5e1a7114a90da52e206de7ea","C3","batch3","pattern_show_trial_num","null","<p class=block-text>Trial 54 out of 78</p>","null","","","","","","","","","","","","","","","","","","","","","","","","","",""
"","","","","","image-keyboard-response","253","1128864","0.0-3.0-7.0-1.14","5e1a7114a90da52e206de7ea","C3","batch3","pattern_response","4070","stim/yes_48_dia_w1_w.png","j","pattern_69","f","false","","","","4070","false","50","","","","","","","","","","","","","","","","",""
"","","","","","html-keyboard-response","254","1130171","0.0-3.0-7.0-0.15","5e1a7114a90da52e206de7ea","C3","batch3","pattern_show_trial_num","null","<p class=block-text>Trial 55 out of 78</p>","null","","","","","","","","","","","","","","","","","","","","","","","","","",""
"","","","","","image-keyboard-response","255","1133176","0.0-3.0-7.0-1.15","5e1a7114a90da52e206de7ea","C3","batch3","pattern_response","3004.900000035763","stim/no_48_1_w.png","j","pattern_28","j","true","","","","3004.900000035763","true","51","","","","","","","","","","","","","","","","",""
"","","","","","html-keyboard-response","256","1134501","0.0-3.0-7.0-0.16","5e1a7114a90da52e206de7ea","C3","batch3","pattern_show_trial_num","null","<p class=block-text>Trial 56 out of 78</p>","null","","","","","","","","","","","","","","","","","","","","","","","","","",""
"","","","","","image-keyboard-response","257","1135539","0.0-3.0-7.0-1.16","5e1a7114a90da52e206de7ea","C3","batch3","pattern_response","1037.9000000357628","stim/yes_38_hor_b1_b.png","f","pattern_61","f","true","","","","1037.9000000357628","true","52","","","","","","","","","","","","","","","","",""
"","","","","","html-keyboard-response","258","1136864","0.0-3.0-7.0-0.17","5e1a7114a90da52e206de7ea","C3","batch3","pattern_show_trial_num","null","<p class=block-text>Trial 57 out of 78</p>","null","","","","","","","","","","","","","","","","","","","","","","","","","",""
"","","","","","image-keyboard-response","259","1140523","0.0-3.0-7.0-1.17","5e1a7114a90da52e206de7ea","C3","batch3","pattern_response","3658.600000023842","stim/no_42_1_w.png","j","pattern_22","j","true","","","","3658.600000023842","true","53","","","","","","","","","","","","","","","","",""
"","","","","","html-keyboard-response","260","1141837","0.0-3.0-7.0-0.18","5e1a7114a90da52e206de7ea","C3","batch3","pattern_show_trial_num","null","<p class=block-text>Trial 58 out of 78</p>","null","","","","","","","","","","","","","","","","","","","","","","","","","",""
"","","","","","image-keyboard-response","261","1143556","0.0-3.0-7.0-1.18","5e1a7114a90da52e206de7ea","C3","batch3","pattern_response","1718.9000000357628","stim/no_32_1_w.png","j","pattern_14","j","true","","","","1718.9000000357628","true","54","","","","","","","","","","","","","","","","",""
"","","","","","html-keyboard-response","262","1144867","0.0-3.0-7.0-0.19","5e1a7114a90da52e206de7ea","C3","batch3","pattern_show_trial_num","null","<p class=block-text>Trial 59 out of 78</p>","null","","","","","","","","","","","","","","","","","","","","","","","","","",""
"","","","","","image-keyboard-response","263","1148846","0.0-3.0-7.0-1.19","5e1a7114a90da52e206de7ea","C3","batch3","pattern_response","3978","stim/no_70_2.png","j","pattern_40","j","true","","","","3978","true","55","","","","","","","","","","","","","","","","",""
"","","","","","html-keyboard-response","264","1150163","0.0-3.0-7.0-0.20","5e1a7114a90da52e206de7ea","C3","batch3","pattern_show_trial_num","null","<p class=block-text>Trial 60 out of 78</p>","null","","","","","","","","","","","","","","","","","","","","","","","","","",""
"","","","","","image-keyboard-response","265","1151154","0.0-3.0-7.0-1.20","5e1a7114a90da52e206de7ea","C3","batch3","pattern_response","991","stim/yes_43_ver_w1_w.png","f","pattern_65","f","true","","","","991","true","56","","","","","","","","","","","","","","","","",""
"","","","","","html-keyboard-response","266","1152469","0.0-3.0-7.0-0.21","5e1a7114a90da52e206de7ea","C3","batch3","pattern_show_trial_num","null","<p class=block-text>Trial 61 out of 78</p>","null","","","","","","","","","","","","","","","","","","","","","","","","","",""
"","","","","","image-keyboard-response","267","1153583","0.0-3.0-7.0-1.21","5e1a7114a90da52e206de7ea","C3","batch3","pattern_response","1113.8999999761581","stim/yes_37_dia_w1.png","f","pattern_59","f","true","","","","1113.8999999761581","true","57","","","","","","","","","","","","","","","","",""
"","","","","","html-keyboard-response","268","1154907","0.0-3.0-7.0-0.22","5e1a7114a90da52e206de7ea","C3","batch3","pattern_show_trial_num","null","<p class=block-text>Trial 62 out of 78</p>","null","","","","","","","","","","","","","","","","","","","","","","","","","",""
"","","","","","image-keyboard-response","269","1159038","0.0-3.0-7.0-1.22","5e1a7114a90da52e206de7ea","C3","batch3","pattern_response","4130.199999988079","stim/yes_50_dia_w1.png","j","pattern_71","f","false","","","","4130.199999988079","false","57","","","","","","","","","","","","","","","","",""
"","","","","","html-keyboard-response","270","1160358","0.0-3.0-7.0-0.23","5e1a7114a90da52e206de7ea","C3","batch3","pattern_show_trial_num","null","<p class=block-text>Trial 63 out of 78</p>","null","","","","","","","","","","","","","","","","","","","","","","","","","",""
"","","","","","image-keyboard-response","271","1161209","0.0-3.0-7.0-1.23","5e1a7114a90da52e206de7ea","C3","batch3","pattern_response","851","stim/yes_17_dia_w1.png","f","pattern_45","f","true","","","","851","true","58","","","","","","","","","","","","","","","","",""
"","","","","","html-keyboard-response","272","1162522","0.0-3.0-7.0-0.24","5e1a7114a90da52e206de7ea","C3","batch3","pattern_show_trial_num","null","<p class=block-text>Trial 64 out of 78</p>","null","","","","","","","","","","","","","","","","","","","","","","","","","",""
"","","","","","image-keyboard-response","273","1167631","0.0-3.0-7.0-1.24","5e1a7114a90da52e206de7ea","C3","batch3","pattern_response","5108.800000011921","stim/no_46_1_b.png","j","pattern_26","j","true","","","","5108.800000011921","true","59","","","","","","","","","","","","","","","","",""
"","","","","","html-keyboard-response","274","1168957","0.0-3.0-7.0-0.25","5e1a7114a90da52e206de7ea","C3","batch3","pattern_show_trial_num","null","<p class=block-text>Trial 65 out of 78</p>","null","","","","","","","","","","","","","","","","","","","","","","","","","",""
"","","","","","image-keyboard-response","275","1171220","0.0-3.0-7.0-1.25","5e1a7114a90da52e206de7ea","C3","batch3","pattern_response","2261.800000011921","stim/no_50_1.png","j","pattern_30","j","true","","","","2261.800000011921","true","60","","","","","","","","","","","","","","","","",""
"","","","","","html-keyboard-response","276","1172541","0.0-3.0-7.0-0.26","5e1a7114a90da52e206de7ea","C3","batch3","pattern_show_trial_num","null","<p class=block-text>Trial 66 out of 78</p>","null","","","","","","","","","","","","","","","","","","","","","","","","","",""
"","","","","","image-keyboard-response","277","1173426","0.0-3.0-7.0-1.26","5e1a7114a90da52e206de7ea","C3","batch3","pattern_response","885.1000000238419","stim/no_13_2_b.png","j","pattern_02","j","true","","","","885.1000000238419","true","61","","","","","","","","","","","","","","","","",""
"","","","","","html-keyboard-response","278","1174749","0.0-3.0-7.0-0.27","5e1a7114a90da52e206de7ea","C3","batch3","pattern_show_trial_num","null","<p class=block-text>Trial 67 out of 78</p>","null","","","","","","","","","","","","","","","","","","","","","","","","","",""
"","","","","","image-keyboard-response","279","1176819","0.0-3.0-7.0-1.27","5e1a7114a90da52e206de7ea","C3","batch3","pattern_response","2070.199999988079","stim/yes_35_dia_b1.png","f","pattern_57","f","true","","","","2070.199999988079","true","62","","","","","","","","","","","","","","","","",""
"","","","","","html-keyboard-response","280","1178133","0.0-3.0-7.0-0.28","5e1a7114a90da52e206de7ea","C3","batch3","pattern_show_trial_num","null","<p class=block-text>Trial 68 out of 78</p>","null","","","","","","","","","","","","","","","","","","","","","","","","","",""
"","","","","","image-keyboard-response","281","1178783","0.0-3.0-7.0-1.28","5e1a7114a90da52e206de7ea","C3","batch3","pattern_response","649.1000000238419","stim/yes_14_hor_b1_w.png","f","pattern_43","f","true","","","","649.1000000238419","true","63","","","","","","","","","","","","","","","","",""
"","","","","","html-keyboard-response","282","1180112","0.0-3.0-7.0-0.29","5e1a7114a90da52e206de7ea","C3","batch3","pattern_show_trial_num","null","<p class=block-text>Trial 69 out of 78</p>","null","","","","","","","","","","","","","","","","","","","","","","","","","",""
"","","","","","image-keyboard-response","283","1182311","0.0-3.0-7.0-1.29","5e1a7114a90da52e206de7ea","C3","batch3","pattern_response","2198.300000011921","stim/no_29_1_b.png","j","pattern_12","j","true","","","","2198.300000011921","true","64","","","","","","","","","","","","","","","","",""
"","","","","","html-keyboard-response","284","1183622","0.0-3.0-7.0-0.30","5e1a7114a90da52e206de7ea","C3","batch3","pattern_show_trial_num","null","<p class=block-text>Trial 70 out of 78</p>","null","","","","","","","","","","","","","","","","","","","","","","","","","",""
"","","","","","image-keyboard-response","285","1186665","0.0-3.0-7.0-1.30","5e1a7114a90da52e206de7ea","C3","batch3","pattern_response","3042.100000023842","stim/no_34_1_b.png","j","pattern_16","j","true","","","","3042.100000023842","true","65","","","","","","","","","","","","","","","","",""
"","","","","","html-keyboard-response","286","1187980","0.0-3.0-7.0-0.31","5e1a7114a90da52e206de7ea","C3","batch3","pattern_show_trial_num","null","<p class=block-text>Trial 71 out of 78</p>","null","","","","","","","","","","","","","","","","","","","","","","","","","",""
"","","","","","image-keyboard-response","287","1188761","0.0-3.0-7.0-1.31","5e1a7114a90da52e206de7ea","C3","batch3","pattern_response","779.8000000119209","stim/yes_67_hor_b1.png","f","pattern_79","f","true","","","","779.8000000119209","true","66","","","","","","","","","","","","","","","","",""
"","","","","","html-keyboard-response","288","1190082","0.0-3.0-7.0-0.32","5e1a7114a90da52e206de7ea","C3","batch3","pattern_show_trial_num","null","<p class=block-text>Trial 72 out of 78</p>","null","","","","","","","","","","","","","","","","","","","","","","","","","",""
"","","","","","image-keyboard-response","289","1191660","0.0-3.0-7.0-1.32","5e1a7114a90da52e206de7ea","C3","batch3","pattern_response","1577.300000011921","stim/no_26_1_w.png","j","pattern_10","j","true","","","","1577.300000011921","true","67","","","","","","","","","","","","","","","","",""
"","","","","","html-keyboard-response","290","1192980","0.0-3.0-7.0-0.33","5e1a7114a90da52e206de7ea","C3","batch3","pattern_show_trial_num","null","<p class=block-text>Trial 73 out of 78</p>","null","","","","","","","","","","","","","","","","","","","","","","","","","",""
"","","","","","image-keyboard-response","291","1193589","0.0-3.0-7.0-1.33","5e1a7114a90da52e206de7ea","C3","batch3","pattern_response","608.1000000238419","stim/yes_25_hor_b1_b.png","f","pattern_49","f","true","","","","608.1000000238419","true","68","","","","","","","","","","","","","","","","",""
"","","","","","html-keyboard-response","292","1194915","0.0-3.0-7.0-0.34","5e1a7114a90da52e206de7ea","C3","batch3","pattern_show_trial_num","null","<p class=block-text>Trial 74 out of 78</p>","null","","","","","","","","","","","","","","","","","","","","","","","","","",""
"","","","","","image-keyboard-response","293","1198988","0.0-3.0-7.0-1.34","5e1a7114a90da52e206de7ea","C3","batch3","pattern_response","4072.300000011921","stim/no_65_1_b.png","j","pattern_38","j","true","","","","4072.300000011921","true","69","","","","","","","","","","","","","","","","",""
"","","","","","html-keyboard-response","294","1200296","0.0-3.0-7.0-0.35","5e1a7114a90da52e206de7ea","C3","batch3","pattern_show_trial_num","null","<p class=block-text>Trial 75 out of 78</p>","null","","","","","","","","","","","","","","","","","","","","","","","","","",""
"","","","","","image-keyboard-response","295","1201326","0.0-3.0-7.0-1.35","5e1a7114a90da52e206de7ea","C3","batch3","pattern_response","1029.1000000238419","stim/yes_45_hor_b2_b.png","f","pattern_67","f","true","","","","1029.1000000238419","true","70","","","","","","","","","","","","","","","","",""
"","","","","","html-keyboard-response","296","1202635","0.0-3.0-7.0-0.36","5e1a7114a90da52e206de7ea","C3","batch3","pattern_show_trial_num","null","<p class=block-text>Trial 76 out of 78</p>","null","","","","","","","","","","","","","","","","","","","","","","","","","",""
"","","","","","image-keyboard-response","297","1203551","0.0-3.0-7.0-1.36","5e1a7114a90da52e206de7ea","C3","batch3","pattern_response","915.1999999880791","stim/yes_55_hor_w1_w.png","f","pattern_75","f","true","","","","915.1999999880791","true","71","","","","","","","","","","","","","","","","",""
"","","","","","html-keyboard-response","298","1204872","0.0-3.0-7.0-0.37","5e1a7114a90da52e206de7ea","C3","batch3","pattern_show_trial_num","null","<p class=block-text>Trial 77 out of 78</p>","null","","","","","","","","","","","","","","","","","","","","","","","","","",""
"","","","","","image-keyboard-response","299","1205974","0.0-3.0-7.0-1.37","5e1a7114a90da52e206de7ea","C3","batch3","pattern_response","1101.300000011921","stim/yes_31_hor_b1.png","f","pattern_55","f","true","","","","1101.300000011921","true","72","","","","","","","","","","","","","","","","",""
"","","","","","html-keyboard-response","300","1207294","0.0-3.0-7.0-0.38","5e1a7114a90da52e206de7ea","C3","batch3","pattern_show_trial_num","null","<p class=block-text>Trial 78 out of 78</p>","null","","","","","","","","","","","","","","","","","","","","","","","","","",""
"","","","","","image-keyboard-response","301","1209187","0.0-3.0-7.0-1.38","5e1a7114a90da52e206de7ea","C3","batch3","pattern_response","1892.6000000238419","stim/yes_60_ver_b1_b.png","f","pattern_77","f","true","","","","1892.6000000238419","true","73","","","","","","","","","","","","","","","","",""
"","","","","","html-button-response","302","1213449","0.0-3.0-8.0","5e1a7114a90da52e206de7ea","C3","batch3","","3760.599999964237","<p class = block-text>This concludes the 4-in-a-row detection game.Thank you for your responses!<br>
            You responded correctly on 94% of the trials.<br>
            When you are ready, press ""Continue"" button to continue </p>","0","","","","","","","","","","","","","","","","","","","","","","","","","",""
"true","","","","","fullscreen","303","1216428","0.0-4.0-0.0","5e1a7114a90da52e206de7ea","C3","batch3","","","","","","","","","","","","","","","","","","","","","","","","","","","","","",""
"","","","","","instructions","304","1259472","0.0-4.0-1.0-0.0-0.0","5e1a7114a90da52e206de7ea","C3","batch3","tol-instructions","43049.69999998808","","","","","","","","[{""page_index"":0,""viewing_time"":9842.199999988079},{""page_index"":1,""viewing_time"":6693},{""page_index"":2,""viewing_time"":3621.5},{""page_index"":3,""viewing_time"":6556.700000047684},{""page_index"":4,""viewing_time"":4015.599999964237},{""page_index"":5,""viewing_time"":8284},{""page_index"":6,""viewing_time"":4036.600000023842}]","","","","","","","","","","","","","","","","","","","",""
"","","","","","html-button-response","305","1260525","0.0-4.0-1.0-1.0-0.0","5e1a7114a90da52e206de7ea","C3","batch3","tol_enter_quiz","1052.699999988079","<p class=block-text> Let's answer a few questions <br>","0","","","","","","","","","","","","","","","","","","","","","","","","","",""
"","","","","","html-button-response","306","1262824","0.0-4.0-1.0-1.0-1.0","5e1a7114a90da52e206de7ea","C3","batch3","tol_quiz","2298","<p class = block-text>True or False: You can only move the ball on top of a peg. <br></p>","0","","","true","","","","","","","","","","","","","","","","","","","","","","",""
"","","","","","html-button-response","307","1264010","0.0-4.0-1.0-1.0-2.0","5e1a7114a90da52e206de7ea","C3","batch3","tol_quiz_feedback","1185.5","<p class = block-text>Correct! You can only move the ball on top of a peg.</p>","0","","","","","","","","","","","","","","","","","","","","","","","","","",""
"","","","","","html-button-response","308","1266568","0.0-4.0-1.0-1.0-3.0","5e1a7114a90da52e206de7ea","C3","batch3","tol_quiz","2557.900000035763","<p class = block-text>True or False: You should try to match your board with the target board with fewest moves possible. <br></p>","0","","","true","","","","","","","","","","","","","","","","","","","","","","",""
"","","","","","html-button-response","309","1267161","0.0-4.0-1.0-1.0-4.0","5e1a7114a90da52e206de7ea","C3","batch3","tol_quiz_feedback","592.6000000238419","<p class = block-text>Correct! </p>","0","","","","","","","","","","","","","","","","","","","","","","","","","",""
"","","","","","html-button-response","310","1269138","0.0-4.0-2.0","5e1a7114a90da52e206de7ea","C3","batch3","","1976.7000000476837","<p class=block-text> Now that you've understood the game, let's practice a few easier examples before we start!<br> <br>","0","","","","","","","","","","","","","","","","","","","","","","","","","",""
"","","","","","single-stim-button","311","1270791","0.0-4.0-3.0-0.0","5e1a7114a90da52e206de7ea","C3","batch3","tol_practice","1652","","","","","","","","","","","","","","tol_peg_2","1652","1652","0","[[1,2,0],[0,0],[0]]","1","[[1,2,0],[0,0],[3]]","practice","1652","","","","","",""
"","","","","","single-stim-button","312","1271619","0.0-4.0-3.0-1.0","5e1a7114a90da52e206de7ea","C3","batch3","tol_practice","827","","","","","","","","","","","","","","tol_peg_3","827","827","0","[[1,2,0],[0,0],[3]]","1","[[1,2,0],[0,0],[3]]","practice","827","","","","","",""
"","","","","","poldrack-single-stim","313","1272634","0.0-4.0-4.0","5e1a7114a90da52e206de7ea","C3","batch3","tol_feedback","-1","","","","","true","","","","","","","","","","1000","1000","500","","","","","","-1","none","true","","0",""
"","","","","","single-stim-button","314","1275200","0.0-4.0-5.0-0.0","5e1a7114a90da52e206de7ea","C3","batch3","tol_practice","2565","","","","","","","","","","","","","","tol_peg_1","2565","2565","0","[[1,0,0],[3,0],[0]]","2","[[0,0,0],[3,1],[2]]","practice","2565","","","","","",""
"","","","","","single-stim-button","315","1275861","0.0-4.0-5.0-1.0","5e1a7114a90da52e206de7ea","C3","batch3","tol_practice","661","","","","","","","","","","","","","","tol_peg_3","661","661","0","[[1,0,0],[3,0],[2]]","2","[[0,0,0],[3,1],[2]]","practice","661","","","","","",""
"","","","","","single-stim-button","316","1276392","0.0-4.0-5.1-0.1","5e1a7114a90da52e206de7ea","C3","batch3","tol_practice","531","","","","","","","","","","","","","","tol_peg_1","531","531","0","[[0,0,0],[3,0],[2]]","3","[[0,0,0],[3,1],[2]]","practice","531","","","","","",""
"","","","","","single-stim-button","317","1277059","0.0-4.0-5.1-1.1","5e1a7114a90da52e206de7ea","C3","batch3","tol_practice","667","","","","","","","","","","","","","","tol_peg_2","667","667","0","[[0,0,0],[3,1],[2]]","3","[[0,0,0],[3,1],[2]]","practice","667","","","","","",""
"","","","","","poldrack-single-stim","318","1278069","0.0-4.0-6.0","5e1a7114a90da52e206de7ea","C3","batch3","tol_feedback","-1","","","","","true","","","","","","","","","","1000","1000","500","","","","","","-1","none","true","","0",""
"","","","","","single-stim-button","319","1279772","0.0-4.0-7.0-0.0","5e1a7114a90da52e206de7ea","C3","batch3","tol_practice","1701","","","","","","","","","","","","","","tol_peg_2","1701","1701","0","[[1,2,0],[0,0],[0]]","4","[[1,0,0],[2,0],[3]]","practice","1701","","","","","",""
"","","","","","single-stim-button","320","1280273","0.0-4.0-7.0-1.0","5e1a7114a90da52e206de7ea","C3","batch3","tol_practice","501","","","","","","","","","","","","","","tol_peg_3","501","501","0","[[1,2,0],[0,0],[3]]","4","[[1,0,0],[2,0],[3]]","practice","501","","","","","",""
"","","","","","single-stim-button","321","1280761","0.0-4.0-7.1-0.1","5e1a7114a90da52e206de7ea","C3","batch3","tol_practice","488","","","","","","","","","","","","","","tol_peg_1","488","488","0","[[1,0,0],[0,0],[3]]","5","[[1,0,0],[2,0],[3]]","practice","488","","","","","",""
"","","","","","single-stim-button","322","1281229","0.0-4.0-7.1-1.1","5e1a7114a90da52e206de7ea","C3","batch3","tol_practice","468","","","","","","","","","","","","","","tol_peg_2","468","468","0","[[1,0,0],[2,0],[3]]","5","[[1,0,0],[2,0],[3]]","practice","468","","","","","",""
"","","","","","poldrack-single-stim","323","1282243","0.0-4.0-8.0","5e1a7114a90da52e206de7ea","C3","batch3","tol_feedback","-1","","","","","true","","","","","","","","","","1000","1000","500","","","","","","-1","none","true","","0",""
"","","","","","html-button-response","324","1285647","0.0-4.0-9.0","5e1a7114a90da52e206de7ea","C3","batch3","tol_instruction","3403","<div class = centerbox><p class = center-block-text>Great job! You are done with practice trials<br>You are about to start official trials.<br> <br> Problem <strong>1</strong> out of 25 problems</p></div>","0","","","","","","","","","","","","","","","","","","","","","","","","","",""
"","","","","","single-stim-button","325","1288646","0.0-4.0-10.0-0.0","5e1a7114a90da52e206de7ea","C3","batch3","tol_tohand","1999","","","","","","","","","","","","","","tol_peg_1","1999","1999","0","[[1,0,0],[3,0],[0]]","1","[[1,3,0],[2,0],[0]]","0","0","","","","","","3"
"","","","","","single-stim-button","326","1289108","0.0-4.0-10.0-1.0","5e1a7114a90da52e206de7ea","C3","batch3","tol_toboard","462","","","","","","","","","","","","","","tol_peg_3","462","462","0","[[1,0,0],[3,0],[2]]","1","[[1,3,0],[2,0],[0]]","0","0","","","","","","3"
"","","","","","single-stim-button","327","1289478","0.0-4.0-10.1-0.1","5e1a7114a90da52e206de7ea","C3","batch3","tol_tohand","370","","","","","","","","","","","","","","tol_peg_2","370","370","0","[[1,0,0],[0,0],[2]]","2","[[1,3,0],[2,0],[0]]","0","0","","","","","","3"
"","","","","","single-stim-button","328","1290019","0.0-4.0-10.1-1.1","5e1a7114a90da52e206de7ea","C3","batch3","tol_toboard","541","","","","","","","","","","","","","","tol_peg_1","541","541","0","[[1,3,0],[0,0],[2]]","2","[[1,3,0],[2,0],[0]]","0","0","","","","","","3"
"","","","","","single-stim-button","329","1290469","0.0-4.0-10.2-0.2","5e1a7114a90da52e206de7ea","C3","batch3","tol_tohand","450","","","","","","","","","","","","","","tol_peg_3","450","450","0","[[1,3,0],[0,0],[0]]","3","[[1,3,0],[2,0],[0]]","0","0","","","","","","3"
"","","","","","single-stim-button","330","1290974","0.0-4.0-10.2-1.2","5e1a7114a90da52e206de7ea","C3","batch3","tol_toboard","505","","","","","","","","","","","","","","tol_peg_2","505","505","0","[[1,3,0],[2,0],[0]]","3","[[1,3,0],[2,0],[0]]","0","0","","","","","","3"
"","","","","","poldrack-single-stim","331","1291982","0.0-4.0-11.0","5e1a7114a90da52e206de7ea","C3","batch3","tol_feedback","-1","","","","","true","","","","","","","","","","1000","1000","500","","","","","","-1","none","true","1999","2819",""
"","","","","","html-button-response","332","1292937","0.0-4.0-12.0","5e1a7114a90da52e206de7ea","C3","batch3","tol_trial_num","954.5999999642372","<div class = centerbox><p class = center-block-text>problem <strong>2</strong> out of 25 problems</p></div>","0","","","","","","","","","","","","","","","","","","","","","","","","","",""
"","","","","","single-stim-button","333","1298062","0.0-4.0-13.0-0.0","5e1a7114a90da52e206de7ea","C3","batch3","tol_tohand","5124","","","","","","","","","","","","","","tol_peg_1","5124","5124","0","[[1,0,0],[3,0],[0]]","1","[[2,1,3],[0,0],[0]]","1","0","","","","","","5"
"","","","","","single-stim-button","334","1298969","0.0-4.0-13.0-1.0","5e1a7114a90da52e206de7ea","C3","batch3","tol_toboard","907","","","","","","","","","","","","","","tol_peg_3","907","907","0","[[1,0,0],[3,0],[2]]","1","[[2,1,3],[0,0],[0]]","1","0","","","","","","5"
"","","","","","single-stim-button","335","1299469","0.0-4.0-13.1-0.1","5e1a7114a90da52e206de7ea","C3","batch3","tol_tohand","499","","","","","","","","","","","","","","tol_peg_1","499","499","0","[[0,0,0],[3,0],[2]]","2","[[2,1,3],[0,0],[0]]","1","0","","","","","","5"
"","","","","","single-stim-button","336","1300150","0.0-4.0-13.1-1.1","5e1a7114a90da52e206de7ea","C3","batch3","tol_toboard","681","","","","","","","","","","","","","","tol_peg_2","681","681","0","[[0,0,0],[3,1],[2]]","2","[[2,1,3],[0,0],[0]]","1","0","","","","","","5"
"","","","","","single-stim-button","337","1300618","0.0-4.0-13.2-0.2","5e1a7114a90da52e206de7ea","C3","batch3","tol_tohand","467","","","","","","","","","","","","","","tol_peg_3","467","467","0","[[0,0,0],[3,1],[0]]","3","[[2,1,3],[0,0],[0]]","1","0","","","","","","5"
"","","","","","single-stim-button","338","1301061","0.0-4.0-13.2-1.2","5e1a7114a90da52e206de7ea","C3","batch3","tol_toboard","441","","","","","","","","","","","","","","tol_peg_1","441","441","0","[[2,0,0],[3,1],[0]]","3","[[2,1,3],[0,0],[0]]","1","0","","","","","","5"
"","","","","","single-stim-button","339","1301475","0.0-4.0-13.3-0.3","5e1a7114a90da52e206de7ea","C3","batch3","tol_tohand","414","","","","","","","","","","","","","","tol_peg_2","414","414","0","[[2,0,0],[3,0],[0]]","4","[[2,1,3],[0,0],[0]]","1","0","","","","","","5"
"","","","","","single-stim-button","340","1301876","0.0-4.0-13.3-1.3","5e1a7114a90da52e206de7ea","C3","batch3","tol_toboard","400","","","","","","","","","","","","","","tol_peg_1","400","400","0","[[2,1,0],[3,0],[0]]","4","[[2,1,3],[0,0],[0]]","1","0","","","","","","5"
"","","","","","single-stim-button","341","1302253","0.0-4.0-13.4-0.4","5e1a7114a90da52e206de7ea","C3","batch3","tol_tohand","376","","","","","","","","","","","","","","tol_peg_2","376","376","0","[[2,1,0],[0,0],[0]]","5","[[2,1,3],[0,0],[0]]","1","0","","","","","","5"
"","","","","","single-stim-button","342","1302777","0.0-4.0-13.4-1.4","5e1a7114a90da52e206de7ea","C3","batch3","tol_toboard","524","","","","","","","","","","","","","","tol_peg_1","524","524","0","[[2,1,3],[0,0],[0]]","5","[[2,1,3],[0,0],[0]]","1","0","","","","","","5"
"","","","","","poldrack-single-stim","343","1303778","0.0-4.0-14.0","5e1a7114a90da52e206de7ea","C3","batch3","tol_feedback","-1","","","","","true","","","","","","","","","","1000","1000","500","","","","","","-1","none","true","5124","6880",""
"","","","","","html-button-response","344","1304727","0.0-4.0-15.0","5e1a7114a90da52e206de7ea","C3","batch3","tol_trial_num","948.2000000476837","<div class = centerbox><p class = center-block-text>problem <strong>3</strong> out of 25 problems</p></div>","0","","","","","","","","","","","","","","","","","","","","","","","","","",""
"","","","","","single-stim-button","345","1311700","0.0-4.0-16.0-0.0","5e1a7114a90da52e206de7ea","C3","batch3","tol_tohand","6973","","","","","","","","","","","","","","tol_peg_1","6973","6973","0","[[2,0,0],[0,0],[1]]","1","[[1,2,0],[3,0],[0]]","2","0","","","","","","4"
"","","","","","single-stim-button","346","1312304","0.0-4.0-16.0-1.0","5e1a7114a90da52e206de7ea","C3","batch3","tol_toboard","604","","","","","","","","","","","","","","tol_peg_2","604","604","0","[[2,0,0],[3,0],[1]]","1","[[1,2,0],[3,0],[0]]","2","0","","","","","","4"
"","","","","","single-stim-button","347","1312704","0.0-4.0-16.1-0.1","5e1a7114a90da52e206de7ea","C3","batch3","tol_tohand","400","","","","","","","","","","","","","","tol_peg_1","400","400","0","[[0,0,0],[3,0],[1]]","2","[[1,2,0],[3,0],[0]]","2","0","","","","","","4"
