"success","timeout","failed_images","failed_audio","failed_video","trial_type","trial_index","time_elapsed","internal_node_id","subject_id","study_id","session_id","task","rt","stimulus","response","item","answer","correct","spm_correct","spm_rt","view_history","fiar_detect_rt","fiar_detect_correct","total_correct_fiar_detect","post_trial_gap","choices","mouse_click","stim_duration","block_duration","timing_post_trial","current_position","tol_num_moves_made","tol_target","tol_problem_id","tol_rt","key_press","possible_responses","tol_correct","preplanning","tol_rt_per_trial","tol_min_moves"
"true","false","[]","[]","[]","preload","0","10085","0.0-0.0","5e1a40cc477f3b2bfbbf056d","F1","batch6","","","","","","","","","","","","","","","","","","","","","","","","","","","","","",""
"true","","","","","fullscreen","1","31655","0.0-1.0-0.0","5e1a40cc477f3b2bfbbf056d","F1","batch6","","","","","","","","","","","","","","","","","","","","","","","","","","","","","",""
"true","","","","","fullscreen","2","36682","0.0-2.0-0.0","5e1a40cc477f3b2bfbbf056d","F1","batch6","spm_fullscreen","","","","","","","","","","","","","","","","","","","","","","","","","","","","",""
"","","","","","html-button-response","3","53261","0.0-2.0-1.0","5e1a40cc477f3b2bfbbf056d","F1","batch6","","16569.099999904633","<p class = block-text><b>Instructions</b> <br>This is a widely used intelligence test in research. <br>In this test, a figure with a missing piece will be presented.<br>Below the figure are alternative pieces to complete the figure, only one of which is correct.<br> Different figures might involve different principles for obtaining the missing piece<br>Your job is to select the most logical piece to complete the figure.</p>","0","","","","","","","","","","","","","","","","","","","","","","","","","",""
"","","","","","html-keyboard-response","4","54080","0.0-2.0-2.0-0.0","5e1a40cc477f3b2bfbbf056d","F1","batch6","spm_show_trial_num","null","<p class=block-text>Trial 1 out of 60</p>","null","","","","","","","","","","","","","","","","","","","","","","","","","",""
"","","","","","image-button-response","5","59606","0.0-2.0-2.0-1.0","5e1a40cc477f3b2bfbbf056d","F1","batch6","spm_respsonse","5494.299999952316","img/question_1_1.jpeg","3","mat_01","4","1","1","5494.299999952316","","","","","","","","","","","","","","","","","","","","",""
"","","","","","html-keyboard-response","6","60671","0.0-2.0-2.0-0.1","5e1a40cc477f3b2bfbbf056d","F1","batch6","spm_show_trial_num","null","<p class=block-text>Trial 2 out of 60</p>","null","","","","","","","","","","","","","","","","","","","","","","","","","",""
"","","","","","image-button-response","7","65029","0.0-2.0-2.0-1.1","5e1a40cc477f3b2bfbbf056d","F1","batch6","spm_respsonse","4334.400000095367","img/question_1_2.jpeg","4","mat_02","5","1","1","4334.400000095367","","","","","","","","","","","","","","","","","","","","",""
"","","","","","html-keyboard-response","8","66097","0.0-2.0-2.0-0.2","5e1a40cc477f3b2bfbbf056d","F1","batch6","spm_show_trial_num","null","<p class=block-text>Trial 3 out of 60</p>","null","","","","","","","","","","","","","","","","","","","","","","","","","",""
"","","","","","image-button-response","9","69749","0.0-2.0-2.0-1.2","5e1a40cc477f3b2bfbbf056d","F1","batch6","spm_respsonse","3638.0999999046326","img/question_1_3.jpeg","0","mat_03","1","1","1","3638.0999999046326","","","","","","","","","","","","","","","","","","","","",""
"","","","","","html-keyboard-response","10","70803","0.0-2.0-2.0-0.3","5e1a40cc477f3b2bfbbf056d","F1","batch6","spm_show_trial_num","null","<p class=block-text>Trial 4 out of 60</p>","null","","","","","","","","","","","","","","","","","","","","","","","","","",""
"","","","","","image-button-response","11","74565","0.0-2.0-2.0-1.3","5e1a40cc477f3b2bfbbf056d","F1","batch6","spm_respsonse","3757.0999999046326","img/question_1_4.jpeg","1","mat_04","2","1","1","3757.0999999046326","","","","","","","","","","","","","","","","","","","","",""
"","","","","","html-keyboard-response","12","75627","0.0-2.0-2.0-0.4","5e1a40cc477f3b2bfbbf056d","F1","batch6","spm_show_trial_num","null","<p class=block-text>Trial 5 out of 60</p>","null","","","","","","","","","","","","","","","","","","","","","","","","","",""
"","","","","","image-button-response","13","80197","0.0-2.0-2.0-1.4","5e1a40cc477f3b2bfbbf056d","F1","batch6","spm_respsonse","4556.899999856949","img/question_1_5.jpeg","5","mat_05","6","1","1","4556.899999856949","","","","","","","","","","","","","","","","","","","","",""
"","","","","","html-keyboard-response","14","81271","0.0-2.0-2.0-0.5","5e1a40cc477f3b2bfbbf056d","F1","batch6","spm_show_trial_num","null","<p class=block-text>Trial 6 out of 60</p>","null","","","","","","","","","","","","","","","","","","","","","","","","","",""
"","","","","","image-button-response","15","83821","0.0-2.0-2.0-1.5","5e1a40cc477f3b2bfbbf056d","F1","batch6","spm_respsonse","2538.5","img/question_1_6.jpeg","2","mat_06","3","1","1","2538.5","","","","","","","","","","","","","","","","","","","","",""
"","","","","","html-keyboard-response","16","84896","0.0-2.0-2.0-0.6","5e1a40cc477f3b2bfbbf056d","F1","batch6","spm_show_trial_num","null","<p class=block-text>Trial 7 out of 60</p>","null","","","","","","","","","","","","","","","","","","","","","","","","","",""
"","","","","","image-button-response","17","90180","0.0-2.0-2.0-1.6","5e1a40cc477f3b2bfbbf056d","F1","batch6","spm_respsonse","5280.5","img/question_1_7.jpeg","5","mat_07","6","1","1","5280.5","","","","","","","","","","","","","","","","","","","","",""
"","","","","","html-keyboard-response","18","91236","0.0-2.0-2.0-0.7","5e1a40cc477f3b2bfbbf056d","F1","batch6","spm_show_trial_num","null","<p class=block-text>Trial 8 out of 60</p>","null","","","","","","","","","","","","","","","","","","","","","","","","","",""
"","","","","","image-button-response","19","97445","0.0-2.0-2.0-1.7","5e1a40cc477f3b2bfbbf056d","F1","batch6","spm_respsonse","6195.299999952316","img/question_1_8.jpeg","1","mat_08","2","1","1","6195.299999952316","","","","","","","","","","","","","","","","","","","","",""
"","","","","","html-keyboard-response","20","98516","0.0-2.0-2.0-0.8","5e1a40cc477f3b2bfbbf056d","F1","batch6","spm_show_trial_num","null","<p class=block-text>Trial 9 out of 60</p>","null","","","","","","","","","","","","","","","","","","","","","","","","","",""
"","","","","","image-button-response","21","102140","0.0-2.0-2.0-1.8","5e1a40cc477f3b2bfbbf056d","F1","batch6","spm_respsonse","3620.2999999523163","img/question_1_9.jpeg","0","mat_09","1","1","1","3620.2999999523163","","","","","","","","","","","","","","","","","","","","",""
"","","","","","html-keyboard-response","22","103211","0.0-2.0-2.0-0.9","5e1a40cc477f3b2bfbbf056d","F1","batch6","spm_show_trial_num","null","<p class=block-text>Trial 10 out of 60</p>","null","","","","","","","","","","","","","","","","","","","","","","","","","",""
"","","","","","image-button-response","23","110229","0.0-2.0-2.0-1.9","5e1a40cc477f3b2bfbbf056d","F1","batch6","spm_respsonse","7013.5","img/question_1_10.jpeg","2","mat_10","3","1","1","7013.5","","","","","","","","","","","","","","","","","","","","",""
"","","","","","html-keyboard-response","24","111290","0.0-2.0-2.0-0.10","5e1a40cc477f3b2bfbbf056d","F1","batch6","spm_show_trial_num","null","<p class=block-text>Trial 11 out of 60</p>","null","","","","","","","","","","","","","","","","","","","","","","","","","",""
"","","","","","image-button-response","25","118172","0.0-2.0-2.0-1.10","5e1a40cc477f3b2bfbbf056d","F1","batch6","spm_respsonse","6868.400000095367","img/question_1_11.jpeg","3","mat_11","4","1","1","6868.400000095367","","","","","","","","","","","","","","","","","","","","",""
"","","","","","html-keyboard-response","26","119236","0.0-2.0-2.0-0.11","5e1a40cc477f3b2bfbbf056d","F1","batch6","spm_show_trial_num","null","<p class=block-text>Trial 12 out of 60</p>","null","","","","","","","","","","","","","","","","","","","","","","","","","",""
"","","","","","image-button-response","27","138557","0.0-2.0-2.0-1.11","5e1a40cc477f3b2bfbbf056d","F1","batch6","spm_respsonse","19308.099999904633","img/question_1_12.jpeg","1","mat_12","5","0","0","19308.099999904633","","","","","","","","","","","","","","","","","","","","",""
"","","","","","html-keyboard-response","28","139613","0.0-2.0-2.0-0.12","5e1a40cc477f3b2bfbbf056d","F1","batch6","spm_show_trial_num","null","<p class=block-text>Trial 13 out of 60</p>","null","","","","","","","","","","","","","","","","","","","","","","","","","",""
"","","","","","image-button-response","29","144141","0.0-2.0-2.0-1.12","5e1a40cc477f3b2bfbbf056d","F1","batch6","spm_respsonse","4511.299999952316","img/question_2_1.jpeg","1","mat_13","2","1","1","4511.299999952316","","","","","","","","","","","","","","","","","","","","",""
"","","","","","html-keyboard-response","30","145198","0.0-2.0-2.0-0.13","5e1a40cc477f3b2bfbbf056d","F1","batch6","spm_show_trial_num","null","<p class=block-text>Trial 14 out of 60</p>","null","","","","","","","","","","","","","","","","","","","","","","","","","",""
"","","","","","image-button-response","31","150197","0.0-2.0-2.0-1.13","5e1a40cc477f3b2bfbbf056d","F1","batch6","spm_respsonse","4991.400000095367","img/question_2_2.jpeg","5","mat_14","6","1","1","4991.400000095367","","","","","","","","","","","","","","","","","","","","",""
"","","","","","html-keyboard-response","32","151266","0.0-2.0-2.0-0.14","5e1a40cc477f3b2bfbbf056d","F1","batch6","spm_show_trial_num","null","<p class=block-text>Trial 15 out of 60</p>","null","","","","","","","","","","","","","","","","","","","","","","","","","",""
"","","","","","image-button-response","33","154484","0.0-2.0-2.0-1.14","5e1a40cc477f3b2bfbbf056d","F1","batch6","spm_respsonse","3205.9000000953674","img/question_2_3.jpeg","0","mat_15","1","1","1","3205.9000000953674","","","","","","","","","","","","","","","","","","","","",""
"","","","","","html-keyboard-response","34","155543","0.0-2.0-2.0-0.15","5e1a40cc477f3b2bfbbf056d","F1","batch6","spm_show_trial_num","null","<p class=block-text>Trial 16 out of 60</p>","null","","","","","","","","","","","","","","","","","","","","","","","","","",""
"","","","","","image-button-response","35","158733","0.0-2.0-2.0-1.15","5e1a40cc477f3b2bfbbf056d","F1","batch6","spm_respsonse","3177.899999856949","img/question_2_4.jpeg","1","mat_16","2","1","1","3177.899999856949","","","","","","","","","","","","","","","","","","","","",""
"","","","","","html-keyboard-response","36","159795","0.0-2.0-2.0-0.16","5e1a40cc477f3b2bfbbf056d","F1","batch6","spm_show_trial_num","null","<p class=block-text>Trial 17 out of 60</p>","null","","","","","","","","","","","","","","","","","","","","","","","","","",""
"","","","","","image-button-response","37","167589","0.0-2.0-2.0-1.16","5e1a40cc477f3b2bfbbf056d","F1","batch6","spm_respsonse","7787.600000143051","img/question_2_5.jpeg","0","mat_17","1","1","1","7787.600000143051","","","","","","","","","","","","","","","","","","","","",""
"","","","","","html-keyboard-response","38","168650","0.0-2.0-2.0-0.17","5e1a40cc477f3b2bfbbf056d","F1","batch6","spm_show_trial_num","null","<p class=block-text>Trial 18 out of 60</p>","null","","","","","","","","","","","","","","","","","","","","","","","","","",""
"","","","","","image-button-response","39","173790","0.0-2.0-2.0-1.17","5e1a40cc477f3b2bfbbf056d","F1","batch6","spm_respsonse","5126.100000143051","img/question_2_6.jpeg","2","mat_18","3","1","1","5126.100000143051","","","","","","","","","","","","","","","","","","","","",""
"","","","","","html-keyboard-response","40","174871","0.0-2.0-2.0-0.18","5e1a40cc477f3b2bfbbf056d","F1","batch6","spm_show_trial_num","null","<p class=block-text>Trial 19 out of 60</p>","null","","","","","","","","","","","","","","","","","","","","","","","","","",""
"","","","","","image-button-response","41","181815","0.0-2.0-2.0-1.18","5e1a40cc477f3b2bfbbf056d","F1","batch6","spm_respsonse","6929.900000095367","img/question_2_7.jpeg","4","mat_19","5","1","1","6929.900000095367","","","","","","","","","","","","","","","","","","","","",""
"","","","","","html-keyboard-response","42","182879","0.0-2.0-2.0-0.19","5e1a40cc477f3b2bfbbf056d","F1","batch6","spm_show_trial_num","null","<p class=block-text>Trial 20 out of 60</p>","null","","","","","","","","","","","","","","","","","","","","","","","","","",""
"","","","","","image-button-response","43","188798","0.0-2.0-2.0-1.19","5e1a40cc477f3b2bfbbf056d","F1","batch6","spm_respsonse","5905.5","img/question_2_8.jpeg","5","mat_20","6","1","1","5905.5","","","","","","","","","","","","","","","","","","","","",""
"","","","","","html-keyboard-response","44","189857","0.0-2.0-2.0-0.20","5e1a40cc477f3b2bfbbf056d","F1","batch6","spm_show_trial_num","null","<p class=block-text>Trial 21 out of 60</p>","null","","","","","","","","","","","","","","","","","","","","","","","","","",""
"","","","","","image-button-response","45","194349","0.0-2.0-2.0-1.20","5e1a40cc477f3b2bfbbf056d","F1","batch6","spm_respsonse","4479.5","img/question_2_9.jpeg","3","mat_21","4","1","1","4479.5","","","","","","","","","","","","","","","","","","","","",""
"","","","","","html-keyboard-response","46","195408","0.0-2.0-2.0-0.21","5e1a40cc477f3b2bfbbf056d","F1","batch6","spm_show_trial_num","null","<p class=block-text>Trial 22 out of 60</p>","null","","","","","","","","","","","","","","","","","","","","","","","","","",""
"","","","","","image-button-response","47","201558","0.0-2.0-2.0-1.21","5e1a40cc477f3b2bfbbf056d","F1","batch6","spm_respsonse","6140","img/question_2_10.jpeg","2","mat_22","3","1","1","6140","","","","","","","","","","","","","","","","","","","","",""
"","","","","","html-keyboard-response","48","202623","0.0-2.0-2.0-0.22","5e1a40cc477f3b2bfbbf056d","F1","batch6","spm_show_trial_num","null","<p class=block-text>Trial 23 out of 60</p>","null","","","","","","","","","","","","","","","","","","","","","","","","","",""
"","","","","","image-button-response","49","208598","0.0-2.0-2.0-1.22","5e1a40cc477f3b2bfbbf056d","F1","batch6","spm_respsonse","5961.5","img/question_2_11.jpeg","3","mat_23","4","1","1","5961.5","","","","","","","","","","","","","","","","","","","","",""
"","","","","","html-keyboard-response","50","209660","0.0-2.0-2.0-0.23","5e1a40cc477f3b2bfbbf056d","F1","batch6","spm_show_trial_num","null","<p class=block-text>Trial 24 out of 60</p>","null","","","","","","","","","","","","","","","","","","","","","","","","","",""
"","","","","","image-button-response","51","224517","0.0-2.0-2.0-1.23","5e1a40cc477f3b2bfbbf056d","F1","batch6","spm_respsonse","14846","img/question_2_12.jpeg","5","mat_24","5","0","0","14846","","","","","","","","","","","","","","","","","","","","",""
"","","","","","html-button-response","52","227974","0.0-2.0-3.0","5e1a40cc477f3b2bfbbf056d","F1","batch6","attention_check","3195.5","<p class = block-text>Attention check: Please choose 1<br></p>","0","","","true","","","","","","","","","","","","","","","","","","","","","","",""
"","","","","","html-keyboard-response","53","228778","0.0-2.0-4.0-0.0","5e1a40cc477f3b2bfbbf056d","F1","batch6","spm_show_trial_num","null","<p class=block-text>Trial 25 out of 60</p>","null","","","","","","","","","","","","","","","","","","","","","","","","","",""
"","","","","","image-button-response","54","240646","0.0-2.0-4.0-1.0","5e1a40cc477f3b2bfbbf056d","F1","batch6","spm_respsonse","11851.700000047684","img/question_3_1.jpeg","7","mat_25","8","1","1","11851.700000047684","","","","","","","","","","","","","","","","","","","","",""
"","","","","","html-keyboard-response","55","241714","0.0-2.0-4.0-0.1","5e1a40cc477f3b2bfbbf056d","F1","batch6","spm_show_trial_num","null","<p class=block-text>Trial 26 out of 60</p>","null","","","","","","","","","","","","","","","","","","","","","","","","","",""
"","","","","","image-button-response","56","250310","0.0-2.0-4.0-1.1","5e1a40cc477f3b2bfbbf056d","F1","batch6","spm_respsonse","8582.700000047684","img/question_3_2.jpeg","1","mat_26","2","1","1","8582.700000047684","","","","","","","","","","","","","","","","","","","","",""
"","","","","","html-keyboard-response","57","251365","0.0-2.0-4.0-0.2","5e1a40cc477f3b2bfbbf056d","F1","batch6","spm_show_trial_num","null","<p class=block-text>Trial 27 out of 60</p>","null","","","","","","","","","","","","","","","","","","","","","","","","","",""
"","","","","","image-button-response","58","266702","0.0-2.0-4.0-1.2","5e1a40cc477f3b2bfbbf056d","F1","batch6","spm_respsonse","15325","img/question_3_3.jpeg","2","mat_27","3","1","1","15325","","","","","","","","","","","","","","","","","","","","",""
"","","","","","html-keyboard-response","59","267769","0.0-2.0-4.0-0.3","5e1a40cc477f3b2bfbbf056d","F1","batch6","spm_show_trial_num","null","<p class=block-text>Trial 28 out of 60</p>","null","","","","","","","","","","","","","","","","","","","","","","","","","",""
"","","","","","image-button-response","60","277086","0.0-2.0-4.0-1.3","5e1a40cc477f3b2bfbbf056d","F1","batch6","spm_respsonse","9301.299999952316","img/question_3_4.jpeg","7","mat_28","8","1","1","9301.299999952316","","","","","","","","","","","","","","","","","","","","",""
"","","","","","html-keyboard-response","61","278150","0.0-2.0-4.0-0.4","5e1a40cc477f3b2bfbbf056d","F1","batch6","spm_show_trial_num","null","<p class=block-text>Trial 29 out of 60</p>","null","","","","","","","","","","","","","","","","","","","","","","","","","",""
"","","","","","image-button-response","62","284614","0.0-2.0-4.0-1.4","5e1a40cc477f3b2bfbbf056d","F1","batch6","spm_respsonse","6451","img/question_3_5.jpeg","6","mat_29","7","1","1","6451","","","","","","","","","","","","","","","","","","","","",""
"","","","","","html-keyboard-response","63","285679","0.0-2.0-4.0-0.5","5e1a40cc477f3b2bfbbf056d","F1","batch6","spm_show_trial_num","null","<p class=block-text>Trial 30 out of 60</p>","null","","","","","","","","","","","","","","","","","","","","","","","","","",""
"","","","","","image-button-response","64","301958","0.0-2.0-4.0-1.5","5e1a40cc477f3b2bfbbf056d","F1","batch6","spm_respsonse","16271.299999952316","img/question_3_6.jpeg","1","mat_30","4","0","0","16271.299999952316","","","","","","","","","","","","","","","","","","","","",""
"","","","","","html-keyboard-response","65","303014","0.0-2.0-4.0-0.6","5e1a40cc477f3b2bfbbf056d","F1","batch6","spm_show_trial_num","null","<p class=block-text>Trial 31 out of 60</p>","null","","","","","","","","","","","","","","","","","","","","","","","","","",""
"","","","","","image-button-response","66","315133","0.0-2.0-4.0-1.6","5e1a40cc477f3b2bfbbf056d","F1","batch6","spm_respsonse","12104.899999856949","img/question_3_7.jpeg","4","mat_31","5","1","1","12104.899999856949","","","","","","","","","","","","","","","","","","","","",""
"","","","","","html-keyboard-response","67","316206","0.0-2.0-4.0-0.7","5e1a40cc477f3b2bfbbf056d","F1","batch6","spm_show_trial_num","null","<p class=block-text>Trial 32 out of 60</p>","null","","","","","","","","","","","","","","","","","","","","","","","","","",""
"","","","","","image-button-response","68","323390","0.0-2.0-4.0-1.7","5e1a40cc477f3b2bfbbf056d","F1","batch6","spm_respsonse","7170.099999904633","img/question_3_8.jpeg","3","mat_32","1","0","0","7170.099999904633","","","","","","","","","","","","","","","","","","","","",""
"","","","","","html-keyboard-response","69","324448","0.0-2.0-4.0-0.8","5e1a40cc477f3b2bfbbf056d","F1","batch6","spm_show_trial_num","null","<p class=block-text>Trial 33 out of 60</p>","null","","","","","","","","","","","","","","","","","","","","","","","","","",""
"","","","","","image-button-response","70","331222","0.0-2.0-4.0-1.8","5e1a40cc477f3b2bfbbf056d","F1","batch6","spm_respsonse","6758","img/question_3_9.jpeg","6","mat_33","7","1","1","6758","","","","","","","","","","","","","","","","","","","","",""
"","","","","","html-keyboard-response","71","332283","0.0-2.0-4.0-0.9","5e1a40cc477f3b2bfbbf056d","F1","batch6","spm_show_trial_num","null","<p class=block-text>Trial 34 out of 60</p>","null","","","","","","","","","","","","","","","","","","","","","","","","","",""
"","","","","","image-button-response","72","343015","0.0-2.0-4.0-1.9","5e1a40cc477f3b2bfbbf056d","F1","batch6","spm_respsonse","10716.400000095367","img/question_3_10.jpeg","7","mat_34","6","0","0","10716.400000095367","","","","","","","","","","","","","","","","","","","","",""
"","","","","","html-keyboard-response","73","344096","0.0-2.0-4.0-0.10","5e1a40cc477f3b2bfbbf056d","F1","batch6","spm_show_trial_num","null","<p class=block-text>Trial 35 out of 60</p>","null","","","","","","","","","","","","","","","","","","","","","","","","","",""
"","","","","","image-button-response","74","364350","0.0-2.0-4.0-1.10","5e1a40cc477f3b2bfbbf056d","F1","batch6","spm_respsonse","20240.5","img/question_3_11.jpeg","3","mat_35","1","0","0","20240.5","","","","","","","","","","","","","","","","","","","","",""
"","","","","","html-keyboard-response","75","365415","0.0-2.0-4.0-0.11","5e1a40cc477f3b2bfbbf056d","F1","batch6","spm_show_trial_num","null","<p class=block-text>Trial 36 out of 60</p>","null","","","","","","","","","","","","","","","","","","","","","","","","","",""
"","","","","","image-button-response","76","385294","0.0-2.0-4.0-1.11","5e1a40cc477f3b2bfbbf056d","F1","batch6","spm_respsonse","19864","img/question_3_12.jpeg","3","mat_36","2","0","0","19864","","","","","","","","","","","","","","","","","","","","",""
"","","","","","html-keyboard-response","77","386349","0.0-2.0-4.0-0.12","5e1a40cc477f3b2bfbbf056d","F1","batch6","spm_show_trial_num","null","<p class=block-text>Trial 37 out of 60</p>","null","","","","","","","","","","","","","","","","","","","","","","","","","",""
"","","","","","image-button-response","78","392007","0.0-2.0-4.0-1.12","5e1a40cc477f3b2bfbbf056d","F1","batch6","spm_respsonse","5647","img/question_4_1.jpeg","2","mat_37","3","1","1","5647","","","","","","","","","","","","","","","","","","","","",""
"","","","","","html-keyboard-response","79","393065","0.0-2.0-4.0-0.13","5e1a40cc477f3b2bfbbf056d","F1","batch6","spm_show_trial_num","null","<p class=block-text>Trial 38 out of 60</p>","null","","","","","","","","","","","","","","","","","","","","","","","","","",""
"","","","","","image-button-response","80","401774","0.0-2.0-4.0-1.13","5e1a40cc477f3b2bfbbf056d","F1","batch6","spm_respsonse","8693.599999904633","img/question_4_2.jpeg","3","mat_38","4","1","1","8693.599999904633","","","","","","","","","","","","","","","","","","","","",""
"","","","","","html-keyboard-response","81","402848","0.0-2.0-4.0-0.14","5e1a40cc477f3b2bfbbf056d","F1","batch6","spm_show_trial_num","null","<p class=block-text>Trial 39 out of 60</p>","null","","","","","","","","","","","","","","","","","","","","","","","","","",""
"","","","","","image-button-response","82","414054","0.0-2.0-4.0-1.14","5e1a40cc477f3b2bfbbf056d","F1","batch6","spm_respsonse","11191.599999904633","img/question_4_3.jpeg","2","mat_39","3","1","1","11191.599999904633","","","","","","","","","","","","","","","","","","","","",""
"","","","","","html-keyboard-response","83","415111","0.0-2.0-4.0-0.15","5e1a40cc477f3b2bfbbf056d","F1","batch6","spm_show_trial_num","null","<p class=block-text>Trial 40 out of 60</p>","null","","","","","","","","","","","","","","","","","","","","","","","","","",""
"","","","","","image-button-response","84","423310","0.0-2.0-4.0-1.15","5e1a40cc477f3b2bfbbf056d","F1","batch6","spm_respsonse","8190.199999809265","img/question_4_4.jpeg","6","mat_40","7","1","1","8190.199999809265","","","","","","","","","","","","","","","","","","","","",""
"","","","","","html-keyboard-response","85","424365","0.0-2.0-4.0-0.16","5e1a40cc477f3b2bfbbf056d","F1","batch6","spm_show_trial_num","null","<p class=block-text>Trial 41 out of 60</p>","null","","","","","","","","","","","","","","","","","","","","","","","","","",""
"","","","","","image-button-response","86","432646","0.0-2.0-4.0-1.16","5e1a40cc477f3b2bfbbf056d","F1","batch6","spm_respsonse","8265","img/question_4_5.jpeg","7","mat_41","8","1","1","8265","","","","","","","","","","","","","","","","","","","","",""
"","","","","","html-keyboard-response","87","433719","0.0-2.0-4.0-0.17","5e1a40cc477f3b2bfbbf056d","F1","batch6","spm_show_trial_num","null","<p class=block-text>Trial 42 out of 60</p>","null","","","","","","","","","","","","","","","","","","","","","","","","","",""
"","","","","","image-button-response","88","451199","0.0-2.0-4.0-1.17","5e1a40cc477f3b2bfbbf056d","F1","batch6","spm_respsonse","17465.799999952316","img/question_4_6.jpeg","5","mat_42","6","1","1","17465.799999952316","","","","","","","","","","","","","","","","","","","","",""
"","","","","","html-keyboard-response","89","452256","0.0-2.0-4.0-0.18","5e1a40cc477f3b2bfbbf056d","F1","batch6","spm_show_trial_num","null","<p class=block-text>Trial 43 out of 60</p>","null","","","","","","","","","","","","","","","","","","","","","","","","","",""
"","","","","","image-button-response","90","471190","0.0-2.0-4.0-1.18","5e1a40cc477f3b2bfbbf056d","F1","batch6","spm_respsonse","18920.299999952316","img/question_4_7.jpeg","4","mat_43","5","1","1","18920.299999952316","","","","","","","","","","","","","","","","","","","","",""
"","","","","","html-keyboard-response","91","472247","0.0-2.0-4.0-0.19","5e1a40cc477f3b2bfbbf056d","F1","batch6","spm_show_trial_num","null","<p class=block-text>Trial 44 out of 60</p>","null","","","","","","","","","","","","","","","","","","","","","","","","","",""
"","","","","","image-button-response","92","488807","0.0-2.0-4.0-1.19","5e1a40cc477f3b2bfbbf056d","F1","batch6","spm_respsonse","16547.700000047684","img/question_4_8.jpeg","3","mat_44","4","1","1","16547.700000047684","","","","","","","","","","","","","","","","","","","","",""
"","","","","","html-keyboard-response","93","489861","0.0-2.0-4.0-0.20","5e1a40cc477f3b2bfbbf056d","F1","batch6","spm_show_trial_num","null","<p class=block-text>Trial 45 out of 60</p>","null","","","","","","","","","","","","","","","","","","","","","","","","","",""
"","","","","","image-button-response","94","504206","0.0-2.0-4.0-1.20","5e1a40cc477f3b2bfbbf056d","F1","batch6","spm_respsonse","14336.799999952316","img/question_4_9.jpeg","0","mat_45","1","1","1","14336.799999952316","","","","","","","","","","","","","","","","","","","","",""
"","","","","","html-keyboard-response","95","505273","0.0-2.0-4.0-0.21","5e1a40cc477f3b2bfbbf056d","F1","batch6","spm_show_trial_num","null","<p class=block-text>Trial 46 out of 60</p>","null","","","","","","","","","","","","","","","","","","","","","","","","","",""
"","","","","","image-button-response","96","532263","0.0-2.0-4.0-1.21","5e1a40cc477f3b2bfbbf056d","F1","batch6","spm_respsonse","26976.5","img/question_4_10.jpeg","4","mat_46","2","0","0","26976.5","","","","","","","","","","","","","","","","","","","","",""
"","","","","","html-keyboard-response","97","533319","0.0-2.0-4.0-0.22","5e1a40cc477f3b2bfbbf056d","F1","batch6","spm_show_trial_num","null","<p class=block-text>Trial 47 out of 60</p>","null","","","","","","","","","","","","","","","","","","","","","","","","","",""
"","","","","","image-button-response","98","559935","0.0-2.0-4.0-1.22","5e1a40cc477f3b2bfbbf056d","F1","batch6","spm_respsonse","26602","img/question_4_11.jpeg","6","mat_47","5","0","0","26602","","","","","","","","","","","","","","","","","","","","",""
"","","","","","html-keyboard-response","99","560993","0.0-2.0-4.0-0.23","5e1a40cc477f3b2bfbbf056d","F1","batch6","spm_show_trial_num","null","<p class=block-text>Trial 48 out of 60</p>","null","","","","","","","","","","","","","","","","","","","","","","","","","",""
"","","","","","image-button-response","100","593039","0.0-2.0-4.0-1.23","5e1a40cc477f3b2bfbbf056d","F1","batch6","spm_respsonse","32031.39999985695","img/question_4_12.jpeg","6","mat_48","6","0","0","32031.39999985695","","","","","","","","","","","","","","","","","","","","",""
"","","","","","html-keyboard-response","101","594104","0.0-2.0-4.0-0.24","5e1a40cc477f3b2bfbbf056d","F1","batch6","spm_show_trial_num","null","<p class=block-text>Trial 49 out of 60</p>","null","","","","","","","","","","","","","","","","","","","","","","","","","",""
"","","","","","image-button-response","102","600855","0.0-2.0-4.0-1.24","5e1a40cc477f3b2bfbbf056d","F1","batch6","spm_respsonse","6736.700000047684","img/question_5_1.jpeg","6","mat_49","7","1","1","6736.700000047684","","","","","","","","","","","","","","","","","","","","",""
"","","","","","html-keyboard-response","103","601925","0.0-2.0-4.0-0.25","5e1a40cc477f3b2bfbbf056d","F1","batch6","spm_show_trial_num","null","<p class=block-text>Trial 50 out of 60</p>","null","","","","","","","","","","","","","","","","","","","","","","","","","",""
"","","","","","image-button-response","104","615239","0.0-2.0-4.0-1.25","5e1a40cc477f3b2bfbbf056d","F1","batch6","spm_respsonse","13300.700000047684","img/question_5_2.jpeg","5","mat_50","6","1","1","13300.700000047684","","","","","","","","","","","","","","","","","","","","",""
"","","","","","html-keyboard-response","105","616297","0.0-2.0-4.0-0.26","5e1a40cc477f3b2bfbbf056d","F1","batch6","spm_show_trial_num","null","<p class=block-text>Trial 51 out of 60</p>","null","","","","","","","","","","","","","","","","","","","","","","","","","",""
"","","","","","image-button-response","106","621791","0.0-2.0-4.0-1.26","5e1a40cc477f3b2bfbbf056d","F1","batch6","spm_respsonse","5480.199999809265","img/question_5_3.jpeg","7","mat_51","8","1","1","5480.199999809265","","","","","","","","","","","","","","","","","","","","",""
"","","","","","html-keyboard-response","107","622850","0.0-2.0-4.0-0.27","5e1a40cc477f3b2bfbbf056d","F1","batch6","spm_show_trial_num","null","<p class=block-text>Trial 52 out of 60</p>","null","","","","","","","","","","","","","","","","","","","","","","","","","",""
"","","","","","image-button-response","108","637839","0.0-2.0-4.0-1.27","5e1a40cc477f3b2bfbbf056d","F1","batch6","spm_respsonse","14984.099999904633","img/question_5_4.jpeg","2","mat_52","2","0","0","14984.099999904633","","","","","","","","","","","","","","","","","","","","",""
"","","","","","html-keyboard-response","109","638903","0.0-2.0-4.0-0.28","5e1a40cc477f3b2bfbbf056d","F1","batch6","spm_show_trial_num","null","<p class=block-text>Trial 53 out of 60</p>","null","","","","","","","","","","","","","","","","","","","","","","","","","",""
"","","","","","image-button-response","110","654103","0.0-2.0-4.0-1.28","5e1a40cc477f3b2bfbbf056d","F1","batch6","spm_respsonse","15187.099999904633","img/question_5_5.jpeg","6","mat_53","1","0","0","15187.099999904633","","","","","","","","","","","","","","","","","","","","",""
"","","","","","html-keyboard-response","111","655158","0.0-2.0-4.0-0.29","5e1a40cc477f3b2bfbbf056d","F1","batch6","spm_show_trial_num","null","<p class=block-text>Trial 54 out of 60</p>","null","","","","","","","","","","","","","","","","","","","","","","","","","",""
"","","","","","image-button-response","112","673224","0.0-2.0-4.0-1.29","5e1a40cc477f3b2bfbbf056d","F1","batch6","spm_respsonse","18048.900000095367","img/question_5_6.jpeg","6","mat_54","5","0","0","18048.900000095367","","","","","","","","","","","","","","","","","","","","",""
"","","","","","html-keyboard-response","113","674281","0.0-2.0-4.0-0.30","5e1a40cc477f3b2bfbbf056d","F1","batch6","spm_show_trial_num","null","<p class=block-text>Trial 55 out of 60</p>","null","","","","","","","","","","","","","","","","","","","","","","","","","",""
"","","","","","image-button-response","114","697079","0.0-2.0-4.0-1.30","5e1a40cc477f3b2bfbbf056d","F1","batch6","spm_respsonse","22781.200000047684","img/question_5_7.jpeg","5","mat_55","1","0","0","22781.200000047684","","","","","","","","","","","","","","","","","","","","",""
"","","","","","html-keyboard-response","115","698138","0.0-2.0-4.0-0.31","5e1a40cc477f3b2bfbbf056d","F1","batch6","spm_show_trial_num","null","<p class=block-text>Trial 56 out of 60</p>","null","","","","","","","","","","","","","","","","","","","","","","","","","",""
"","","","","","image-button-response","116","714702","0.0-2.0-4.0-1.31","5e1a40cc477f3b2bfbbf056d","F1","batch6","spm_respsonse","16554.799999952316","img/question_5_8.jpeg","1","mat_56","6","0","0","16554.799999952316","","","","","","","","","","","","","","","","","","","","",""
"","","","","","html-keyboard-response","117","715759","0.0-2.0-4.0-0.32","5e1a40cc477f3b2bfbbf056d","F1","batch6","spm_show_trial_num","null","<p class=block-text>Trial 57 out of 60</p>","null","","","","","","","","","","","","","","","","","","","","","","","","","",""
"","","","","","image-button-response","118","728823","0.0-2.0-4.0-1.32","5e1a40cc477f3b2bfbbf056d","F1","batch6","spm_respsonse","13050.700000047684","img/question_5_9.jpeg","3","mat_57","3","0","0","13050.700000047684","","","","","","","","","","","","","","","","","","","","",""
"","","","","","html-keyboard-response","119","729892","0.0-2.0-4.0-0.33","5e1a40cc477f3b2bfbbf056d","F1","batch6","spm_show_trial_num","null","<p class=block-text>Trial 58 out of 60</p>","null","","","","","","","","","","","","","","","","","","","","","","","","","",""
"","","","","","image-button-response","120","742136","0.0-2.0-4.0-1.33","5e1a40cc477f3b2bfbbf056d","F1","batch6","spm_respsonse","12228.5","img/question_5_10.jpeg","6","mat_58","2","0","0","12228.5","","","","","","","","","","","","","","","","","","","","",""
"","","","","","html-keyboard-response","121","743203","0.0-2.0-4.0-0.34","5e1a40cc477f3b2bfbbf056d","F1","batch6","spm_show_trial_num","null","<p class=block-text>Trial 59 out of 60</p>","null","","","","","","","","","","","","","","","","","","","","","","","","","",""
"","","","","","image-button-response","122","760920","0.0-2.0-4.0-1.34","5e1a40cc477f3b2bfbbf056d","F1","batch6","spm_respsonse","17703.799999952316","img/question_5_11.jpeg","2","mat_59","4","0","0","17703.799999952316","","","","","","","","","","","","","","","","","","","","",""
"","","","","","html-keyboard-response","123","761975","0.0-2.0-4.0-0.35","5e1a40cc477f3b2bfbbf056d","F1","batch6","spm_show_trial_num","null","<p class=block-text>Trial 60 out of 60</p>","null","","","","","","","","","","","","","","","","","","","","","","","","","",""
"","","","","","image-button-response","124","773504","0.0-2.0-4.0-1.35","5e1a40cc477f3b2bfbbf056d","F1","batch6","spm_respsonse","11524.099999904633","img/question_5_12.jpeg","2","mat_60","5","0","0","11524.099999904633","","","","","","","","","","","","","","","","","","","","",""
"","","","","","html-button-response","125","797823","0.0-2.0-5.0","5e1a40cc477f3b2bfbbf056d","F1","batch6","spm_goodbye","24065.299999952316","<p class= block-text>This concludes the Standard Progressive Matrix game. Thank you for your responses!<br> When you are ready, click the button continue</p>","0","","","","","","","","","","","","","","","","","","","","","","","","","",""
"true","","","","","fullscreen","126","802543","0.0-3.0-0.0","5e1a40cc477f3b2bfbbf056d","F1","batch6","","","","","","","","","","","","","","","","","","","","","","","","","","","","","",""
"","","","","","instructions","127","842095","0.0-3.0-1.0-0.0","5e1a40cc477f3b2bfbbf056d","F1","batch6","","39542.89999985695","","","","","","","","[{""page_index"":0,""viewing_time"":25342.5},{""page_index"":1,""viewing_time"":14199.599999904633}]","","","","","","","","","","","","","","","","","","","",""
"","","","","","html-button-response","128","844623","0.0-3.0-1.0-1.0-0.0","5e1a40cc477f3b2bfbbf056d","F1","batch6","pattern_enter_quiz","2525.5","<p class=block-text> Let's answer a few questions <br>","0","","","","","","","","","","","","","","","","","","","","","","","","","",""
"","","","","","html-button-response","129","852687","0.0-3.0-1.0-1.0-1.0","5e1a40cc477f3b2bfbbf056d","F1","batch6","pattern_quiz","8061.299999952316","<p class = block-text>True or False: You will have as much time as you want to make each choice. <br></p>","0","","","false","","","","","","","","","","","","","","","","","","","","","","",""
"","","","","","html-button-response","130","858288","0.0-3.0-1.0-1.0-2.0","5e1a40cc477f3b2bfbbf056d","F1","batch6","pattern_quiz_feedback","5595.900000095367","<p class = block-text>Incorrect. Remember, You should make your choice as fast as you can.</p>","0","","","","","","","","","","","","","","","","","","","","","","","","","",""
"","","","","","html-button-response","131","868304","0.0-3.0-1.0-1.0-3.0","5e1a40cc477f3b2bfbbf056d","F1","batch6","pattern_quiz","10013.399999856949","<p class = block-text>True or False: You will look for 4 pieces in black or white color connected in a row either horizontally, vertically or diagonally. <br></p>","0","","","true","","","","","","","","","","","","","","","","","","","","","","",""
"","","","","","html-button-response","132","870633","0.0-3.0-1.0-1.0-4.0","5e1a40cc477f3b2bfbbf056d","F1","batch6","pattern_quiz_feedback","2324.7999999523163","<p class = block-text>Correct! </p>","0","","","","","","","","","","","","","","","","","","","","","","","","","",""
"","","","","","html-button-response","133","875351","0.0-3.0-1.0-2.0-0.0","5e1a40cc477f3b2bfbbf056d","F1","batch6","","4713.800000190735","<p class = block-text>You made too many incorrect choices.</p><p class = block-text>You will now repeat the instruction and quiz</p>","0","","","","","","","","","","","","","","","","","","","","","","","","","",""
"","","","","","instructions","134","885399","0.0-3.0-1.1-0.1","5e1a40cc477f3b2bfbbf056d","F1","batch6","","10045.300000190735","","","","","","","","[{""page_index"":0,""viewing_time"":5589.100000143051},{""page_index"":1,""viewing_time"":4455.200000047684}]","","","","","","","","","","","","","","","","","","","",""
"","","","","","html-button-response","135","886680","0.0-3.0-1.1-1.1-0.1","5e1a40cc477f3b2bfbbf056d","F1","batch6","pattern_enter_quiz","1277.0999999046326","<p class=block-text> Let's answer a few questions <br>","0","","","","","","","","","","","","","","","","","","","","","","","","","",""
"","","","","","html-button-response","136","889736","0.0-3.0-1.1-1.1-1.1","5e1a40cc477f3b2bfbbf056d","F1","batch6","pattern_quiz","3051.9000000953674","<p class = block-text>True or False: You will have as much time as you want to make each choice. <br></p>","1","","","true","","","","","","","","","","","","","","","","","","","","","","",""
"","","","","","html-button-response","137","892040","0.0-3.0-1.1-1.1-2.1","5e1a40cc477f3b2bfbbf056d","F1","batch6","pattern_quiz_feedback","2301.9000000953674","<p class = block-text>Correct! You should make your choice <strong> as fast as you can</strong>.</p>","0","","","","","","","","","","","","","","","","","","","","","","","","","",""
"","","","","","html-button-response","138","896047","0.0-3.0-1.1-1.1-3.1","5e1a40cc477f3b2bfbbf056d","F1","batch6","pattern_quiz","4005.100000143051","<p class = block-text>True or False: You will look for 4 pieces in black or white color connected in a row either horizontally, vertically or diagonally. <br></p>","0","","","true","","","","","","","","","","","","","","","","","","","","","","",""
"","","","","","html-button-response","139","897463","0.0-3.0-1.1-1.1-4.1","5e1a40cc477f3b2bfbbf056d","F1","batch6","pattern_quiz_feedback","1412.8000001907349","<p class = block-text>Correct! </p>","0","","","","","","","","","","","","","","","","","","","","","","","","","",""
"","","","","","html-button-response","140","900599","0.0-3.0-2.0","5e1a40cc477f3b2bfbbf056d","F1","batch6","pattern_enter_practice","3133.399999856949","<p class=block-text> Now that you've understood the game, let's do a few practice trials before we start!<br> <br>","0","","","","","","","","","","","","","","","","","","","","","","","","","",""
"","","","","","image-keyboard-response","141","904423","0.0-3.0-3.0-0.0","5e1a40cc477f3b2bfbbf056d","F1","batch6","pattern_practice","3816.5999999046326","stim/prac_yes_20_dia_b1.png","j","","f","false","","","","","","","","","","","","","","","","","","","","","","",""
"","","","","","html-keyboard-response","142","905436","0.0-3.0-3.0-1.0","5e1a40cc477f3b2bfbbf056d","F1","batch6","pattern_feedback","null","<p style=""font-size:30px;color:red;"">Wrong.</p>","null","","","","","","","","","","","","","","","","","","","","","","","","","",""
"","","","","","image-keyboard-response","143","908055","0.0-3.0-3.0-0.1","5e1a40cc477f3b2bfbbf056d","F1","batch6","pattern_practice","2611.2000000476837","stim/prac_no_18_1.png","j","","j","true","","","","","","","","","","","","","","","","","","","","","","",""
"","","","","","html-keyboard-response","144","909083","0.0-3.0-3.0-1.1","5e1a40cc477f3b2bfbbf056d","F1","batch6","pattern_feedback","null","<p style=""font-size:30px;color:green;"">Correct!</p>","null","","","","","","","","","","","","","","","","","","","","","","","","","",""
"","","","","","image-keyboard-response","145","909970","0.0-3.0-3.0-0.2","5e1a40cc477f3b2bfbbf056d","F1","batch6","pattern_practice","875.2999999523163","stim/prac_yes_16_ver_w1.png","f","","f","true","","","","","","","","","","","","","","","","","","","","","","",""
"","","","","","html-keyboard-response","146","910981","0.0-3.0-3.0-1.2","5e1a40cc477f3b2bfbbf056d","F1","batch6","pattern_feedback","null","<p style=""font-size:30px;color:green;"">Correct!</p>","null","","","","","","","","","","","","","","","","","","","","","","","","","",""
"","","","","","image-keyboard-response","147","911966","0.0-3.0-3.0-0.3","5e1a40cc477f3b2bfbbf056d","F1","batch6","pattern_practice","980.7999999523163","stim/prac_yes_18_hor_w1.png","f","","f","true","","","","","","","","","","","","","","","","","","","","","","",""
"","","","","","html-keyboard-response","148","912998","0.0-3.0-3.0-1.3","5e1a40cc477f3b2bfbbf056d","F1","batch6","pattern_feedback","null","<p style=""font-size:30px;color:green;"">Correct!</p>","null","","","","","","","","","","","","","","","","","","","","","","","","","",""
"","","","","","image-keyboard-response","149","914868","0.0-3.0-3.0-0.4","5e1a40cc477f3b2bfbbf056d","F1","batch6","pattern_practice","1861.2999999523163","stim/prac_no_16_1.png","j","","j","true","","","","","","","","","","","","","","","","","","","","","","",""
"","","","","","html-keyboard-response","150","915899","0.0-3.0-3.0-1.4","5e1a40cc477f3b2bfbbf056d","F1","batch6","pattern_feedback","null","<p style=""font-size:30px;color:green;"">Correct!</p>","null","","","","","","","","","","","","","","","","","","","","","","","","","",""
"","","","","","html-button-response","151","924112","0.0-3.0-4.0","5e1a40cc477f3b2bfbbf056d","F1","batch6","pattern_enter_official_trials","8204.399999856949","<p class=block-text> Good job! You are done with practice trials!<br>
        You responded correctly on 80% of the trials.<br>
        Press the button below to start official trials. Now you won't see any feedback about your response</p>","0","","","","","","","","","","","","","","","","","","","","","","","","","",""
"","","","","","html-keyboard-response","152","924921","0.0-3.0-5.0-0.0","5e1a40cc477f3b2bfbbf056d","F1","batch6","pattern_show_trial_num","null","<p class=block-text>Trial 1 out of 78</p>","null","","","","","","","","","","","","","","","","","","","","","","","","","",""
"","","","","","image-keyboard-response","153","927113","0.0-3.0-5.0-1.0","5e1a40cc477f3b2bfbbf056d","F1","batch6","pattern_response","2180.0999999046326","stim/no_45_1_w.png","f","pattern_25","j","false","","","","2180.0999999046326","false","0","","","","","","","","","","","","","","","","",""
"","","","","","html-keyboard-response","154","928436","0.0-3.0-5.0-0.1","5e1a40cc477f3b2bfbbf056d","F1","batch6","pattern_show_trial_num","null","<p class=block-text>Trial 2 out of 78</p>","null","","","","","","","","","","","","","","","","","","","","","","","","","",""
"","","","","","image-keyboard-response","155","929555","0.0-3.0-5.0-1.1","5e1a40cc477f3b2bfbbf056d","F1","batch6","pattern_response","1107.5","stim/yes_23_ver_b1.png","f","pattern_48","f","true","","","","1107.5","true","1","","","","","","","","","","","","","","","","",""
"","","","","","html-keyboard-response","156","930870","0.0-3.0-5.0-0.2","5e1a40cc477f3b2bfbbf056d","F1","batch6","pattern_show_trial_num","null","<p class=block-text>Trial 3 out of 78</p>","null","","","","","","","","","","","","","","","","","","","","","","","","","",""
"","","","","","image-keyboard-response","157","931933","0.0-3.0-5.0-1.2","5e1a40cc477f3b2bfbbf056d","F1","batch6","pattern_response","1057.2000000476837","stim/yes_17_ver_b1_b.png","f","pattern_46","f","true","","","","1057.2000000476837","true","2","","","","","","","","","","","","","","","","",""
"","","","","","html-keyboard-response","158","933246","0.0-3.0-5.0-0.3","5e1a40cc477f3b2bfbbf056d","F1","batch6","pattern_show_trial_num","null","<p class=block-text>Trial 4 out of 78</p>","null","","","","","","","","","","","","","","","","","","","","","","","","","",""
"","","","","","image-keyboard-response","159","936002","0.0-3.0-5.0-1.3","5e1a40cc477f3b2bfbbf056d","F1","batch6","pattern_response","2747.5","stim/no_43_2_b.png","j","pattern_23","j","true","","","","2747.5","true","3","","","","","","","","","","","","","","","","",""
"","","","","","html-keyboard-response","160","937319","0.0-3.0-5.0-0.4","5e1a40cc477f3b2bfbbf056d","F1","batch6","pattern_show_trial_num","null","<p class=block-text>Trial 5 out of 78</p>","null","","","","","","","","","","","","","","","","","","","","","","","","","",""
"","","","","","image-keyboard-response","161","938365","0.0-3.0-5.0-1.4","5e1a40cc477f3b2bfbbf056d","F1","batch6","pattern_response","1032.8999998569489","stim/yes_12_hor_w1_w.png","f","pattern_42","f","true","","","","1032.8999998569489","true","4","","","","","","","","","","","","","","","","",""
"","","","","","html-keyboard-response","162","939682","0.0-3.0-5.0-0.5","5e1a40cc477f3b2bfbbf056d","F1","batch6","pattern_show_trial_num","null","<p class=block-text>Trial 6 out of 78</p>","null","","","","","","","","","","","","","","","","","","","","","","","","","",""
"","","","","","image-keyboard-response","163","940811","0.0-3.0-5.0-1.5","5e1a40cc477f3b2bfbbf056d","F1","batch6","pattern_response","1124.7999999523163","stim/no_12_1.png","j","pattern_01","j","true","","","","1124.7999999523163","true","5","","","","","","","","","","","","","","","","",""
"","","","","","html-keyboard-response","164","942134","0.0-3.0-5.0-0.6","5e1a40cc477f3b2bfbbf056d","F1","batch6","pattern_show_trial_num","null","<p class=block-text>Trial 7 out of 78</p>","null","","","","","","","","","","","","","","","","","","","","","","","","","",""
"","","","","","image-keyboard-response","165","943687","0.0-3.0-5.0-1.6","5e1a40cc477f3b2bfbbf056d","F1","batch6","pattern_response","1544.2000000476837","stim/no_18_1_b.png","j","pattern_05","j","true","","","","1544.2000000476837","true","6","","","","","","","","","","","","","","","","",""
"","","","","","html-keyboard-response","166","945006","0.0-3.0-5.0-0.7","5e1a40cc477f3b2bfbbf056d","F1","batch6","pattern_show_trial_num","null","<p class=block-text>Trial 8 out of 78</p>","null","","","","","","","","","","","","","","","","","","","","","","","","","",""
"","","","","","image-keyboard-response","167","945793","0.0-3.0-5.0-1.7","5e1a40cc477f3b2bfbbf056d","F1","batch6","pattern_response","782.6000001430511","stim/yes_39_hor_w1_w.png","f","pattern_62","f","true","","","","782.6000001430511","true","7","","","","","","","","","","","","","","","","",""
"","","","","","html-keyboard-response","168","947123","0.0-3.0-5.0-0.8","5e1a40cc477f3b2bfbbf056d","F1","batch6","pattern_show_trial_num","null","<p class=block-text>Trial 9 out of 78</p>","null","","","","","","","","","","","","","","","","","","","","","","","","","",""
"","","","","","image-keyboard-response","169","950411","0.0-3.0-5.0-1.8","5e1a40cc477f3b2bfbbf056d","F1","batch6","pattern_response","3280.5","stim/no_53_1_b.png","j","pattern_33","j","true","","","","3280.5","true","8","","","","","","","","","","","","","","","","",""
"","","","","","html-keyboard-response","170","951730","0.0-3.0-5.0-0.9","5e1a40cc477f3b2bfbbf056d","F1","batch6","pattern_show_trial_num","null","<p class=block-text>Trial 10 out of 78</p>","null","","","","","","","","","","","","","","","","","","","","","","","","","",""
"","","","","","image-keyboard-response","171","952587","0.0-3.0-5.0-1.9","5e1a40cc477f3b2bfbbf056d","F1","batch6","pattern_response","852.5","stim/yes_30_ver_b1_b.png","f","pattern_54","f","true","","","","852.5","true","9","","","","","","","","","","","","","","","","",""
"","","","","","html-keyboard-response","172","953905","0.0-3.0-5.0-0.10","5e1a40cc477f3b2bfbbf056d","F1","batch6","pattern_show_trial_num","null","<p class=block-text>Trial 11 out of 78</p>","null","","","","","","","","","","","","","","","","","","","","","","","","","",""
"","","","","","image-keyboard-response","173","958055","0.0-3.0-5.0-1.10","5e1a40cc477f3b2bfbbf056d","F1","batch6","pattern_response","4145.299999952316","stim/no_58_1_w.png","j","pattern_35","j","true","","","","4145.299999952316","true","10","","","","","","","","","","","","","","","","",""
"","","","","","html-keyboard-response","174","959375","0.0-3.0-5.0-0.11","5e1a40cc477f3b2bfbbf056d","F1","batch6","pattern_show_trial_num","null","<p class=block-text>Trial 12 out of 78</p>","null","","","","","","","","","","","","","","","","","","","","","","","","","",""
"","","","","","image-keyboard-response","175","960427","0.0-3.0-5.0-1.11","5e1a40cc477f3b2bfbbf056d","F1","batch6","pattern_response","1038.7000000476837","stim/yes_46_ver_b1_b.png","f","pattern_68","f","true","","","","1038.7000000476837","true","11","","","","","","","","","","","","","","","","",""
"","","","","","html-keyboard-response","176","961740","0.0-3.0-5.0-0.12","5e1a40cc477f3b2bfbbf056d","F1","batch6","pattern_show_trial_num","null","<p class=block-text>Trial 13 out of 78</p>","null","","","","","","","","","","","","","","","","","","","","","","","","","",""
"","","","","","image-keyboard-response","177","962562","0.0-3.0-5.0-1.12","5e1a40cc477f3b2bfbbf056d","F1","batch6","pattern_response","813.0999999046326","stim/yes_70_ver_b1.png","f","pattern_80","f","true","","","","813.0999999046326","true","12","","","","","","","","","","","","","","","","",""
"","","","","","html-keyboard-response","178","963873","0.0-3.0-5.0-0.13","5e1a40cc477f3b2bfbbf056d","F1","batch6","pattern_show_trial_num","null","<p class=block-text>Trial 14 out of 78</p>","null","","","","","","","","","","","","","","","","","","","","","","","","","",""
"","","","","","image-keyboard-response","179","968815","0.0-3.0-5.0-1.13","5e1a40cc477f3b2bfbbf056d","F1","batch6","pattern_response","4933.899999856949","stim/yes_63_dia_b1.png","j","pattern_78","f","false","","","","4933.899999856949","false","12","","","","","","","","","","","","","","","","",""
"","","","","","html-keyboard-response","180","970137","0.0-3.0-5.0-0.14","5e1a40cc477f3b2bfbbf056d","F1","batch6","pattern_show_trial_num","null","<p class=block-text>Trial 15 out of 78</p>","null","","","","","","","","","","","","","","","","","","","","","","","","","",""
"","","","","","image-keyboard-response","181","974319","0.0-3.0-5.0-1.14","5e1a40cc477f3b2bfbbf056d","F1","batch6","pattern_response","4176.200000047684","stim/no_33_1_b.png","j","pattern_15","j","true","","","","4176.200000047684","true","13","","","","","","","","","","","","","","","","",""
"","","","","","html-keyboard-response","182","975638","0.0-3.0-5.0-0.15","5e1a40cc477f3b2bfbbf056d","F1","batch6","pattern_show_trial_num","null","<p class=block-text>Trial 16 out of 78</p>","null","","","","","","","","","","","","","","","","","","","","","","","","","",""
"","","","","","image-keyboard-response","183","979099","0.0-3.0-5.0-1.15","5e1a40cc477f3b2bfbbf056d","F1","batch6","pattern_response","3447.5","stim/no_25_1_b.png","j","pattern_09","j","true","","","","3447.5","true","14","","","","","","","","","","","","","","","","",""
"","","","","","html-keyboard-response","184","980428","0.0-3.0-5.0-0.16","5e1a40cc477f3b2bfbbf056d","F1","batch6","pattern_show_trial_num","null","<p class=block-text>Trial 17 out of 78</p>","null","","","","","","","","","","","","","","","","","","","","","","","","","",""
"","","","","","image-keyboard-response","185","981442","0.0-3.0-5.0-1.16","5e1a40cc477f3b2bfbbf056d","F1","batch6","pattern_response","1001.9000000953674","stim/yes_49_hor_w1_b.png","f","pattern_70","f","true","","","","1001.9000000953674","true","15","","","","","","","","","","","","","","","","",""
"","","","","","html-keyboard-response","186","982769","0.0-3.0-5.0-0.17","5e1a40cc477f3b2bfbbf056d","F1","batch6","pattern_show_trial_num","null","<p class=block-text>Trial 18 out of 78</p>","null","","","","","","","","","","","","","","","","","","","","","","","","","",""
"","","","","","image-keyboard-response","187","983666","0.0-3.0-5.0-1.17","5e1a40cc477f3b2bfbbf056d","F1","batch6","pattern_response","888.1000001430511","stim/yes_37_hor_w1_w.png","f","pattern_60","f","true","","","","888.1000001430511","true","16","","","","","","","","","","","","","","","","",""
"","","","","","html-keyboard-response","188","984986","0.0-3.0-5.0-0.18","5e1a40cc477f3b2bfbbf056d","F1","batch6","pattern_show_trial_num","null","<p class=block-text>Trial 19 out of 78</p>","null","","","","","","","","","","","","","","","","","","","","","","","","","",""
"","","","","","image-keyboard-response","189","989219","0.0-3.0-5.0-1.18","5e1a40cc477f3b2bfbbf056d","F1","batch6","pattern_response","4223.399999856949","stim/no_51_1.png","j","pattern_31","j","true","","","","4223.399999856949","true","17","","","","","","","","","","","","","","","","",""
"","","","","","html-keyboard-response","190","990541","0.0-3.0-5.0-0.19","5e1a40cc477f3b2bfbbf056d","F1","batch6","pattern_show_trial_num","null","<p class=block-text>Trial 20 out of 78</p>","null","","","","","","","","","","","","","","","","","","","","","","","","","",""
"","","","","","image-keyboard-response","191","992679","0.0-3.0-5.0-1.19","5e1a40cc477f3b2bfbbf056d","F1","batch6","pattern_response","2124.9000000953674","stim/yes_33_dia_w1_w.png","f","pattern_56","f","true","","","","2124.9000000953674","true","18","","","","","","","","","","","","","","","","",""
"","","","","","html-keyboard-response","192","994001","0.0-3.0-5.0-0.20","5e1a40cc477f3b2bfbbf056d","F1","batch6","pattern_show_trial_num","null","<p class=block-text>Trial 21 out of 78</p>","null","","","","","","","","","","","","","","","","","","","","","","","","","",""
"","","","","","image-keyboard-response","193","995022","0.0-3.0-5.0-1.20","5e1a40cc477f3b2bfbbf056d","F1","batch6","pattern_response","1013","stim/yes_15_dia_b1u_b.png","f","pattern_44","f","true","","","","1013","true","19","","","","","","","","","","","","","","","","",""
"","","","","","html-keyboard-response","194","996343","0.0-3.0-5.0-0.21","5e1a40cc477f3b2bfbbf056d","F1","batch6","pattern_show_trial_num","null","<p class=block-text>Trial 22 out of 78</p>","null","","","","","","","","","","","","","","","","","","","","","","","","","",""
"","","","","","image-keyboard-response","195","998102","0.0-3.0-5.0-1.21","5e1a40cc477f3b2bfbbf056d","F1","batch6","pattern_response","1752.1000001430511","stim/no_22_1_b.png","j","pattern_07","j","true","","","","1752.1000001430511","true","20","","","","","","","","","","","","","","","","",""
"","","","","","html-keyboard-response","196","999425","0.0-3.0-5.0-0.22","5e1a40cc477f3b2bfbbf056d","F1","batch6","pattern_show_trial_num","null","<p class=block-text>Trial 23 out of 78</p>","null","","","","","","","","","","","","","","","","","","","","","","","","","",""
"","","","","","image-keyboard-response","197","1000993","0.0-3.0-5.0-1.22","5e1a40cc477f3b2bfbbf056d","F1","batch6","pattern_response","1557.2999999523163","stim/no_15_1_w.png","j","pattern_03","j","true","","","","1557.2999999523163","true","21","","","","","","","","","","","","","","","","",""
"","","","","","html-keyboard-response","198","1002310","0.0-3.0-5.0-0.23","5e1a40cc477f3b2bfbbf056d","F1","batch6","pattern_show_trial_num","null","<p class=block-text>Trial 24 out of 78</p>","null","","","","","","","","","","","","","","","","","","","","","","","","","",""
"","","","","","image-keyboard-response","199","1005642","0.0-3.0-5.0-1.23","5e1a40cc477f3b2bfbbf056d","F1","batch6","pattern_response","3322.7000000476837","stim/no_47_1_b.png","j","pattern_27","j","true","","","","3322.7000000476837","true","22","","","","","","","","","","","","","","","","",""
"","","","","","html-keyboard-response","200","1006967","0.0-3.0-5.0-0.24","5e1a40cc477f3b2bfbbf056d","F1","batch6","pattern_show_trial_num","null","<p class=block-text>Trial 25 out of 78</p>","null","","","","","","","","","","","","","","","","","","","","","","","","","",""
"","","","","","image-keyboard-response","201","1009542","0.0-3.0-5.0-1.24","5e1a40cc477f3b2bfbbf056d","F1","batch6","pattern_response","2562.2000000476837","stim/yes_51_dia_b1.png","f","pattern_72","f","true","","","","2562.2000000476837","true","23","","","","","","","","","","","","","","","","",""
"","","","","","html-keyboard-response","202","1010860","0.0-3.0-5.0-0.25","5e1a40cc477f3b2bfbbf056d","F1","batch6","pattern_show_trial_num","null","<p class=block-text>Trial 26 out of 78</p>","null","","","","","","","","","","","","","","","","","","","","","","","","","",""
"","","","","","image-keyboard-response","203","1014498","0.0-3.0-5.0-1.25","5e1a40cc477f3b2bfbbf056d","F1","batch6","pattern_response","3626.2999999523163","stim/no_37_2_w.png","j","pattern_19","j","true","","","","3626.2999999523163","true","24","","","","","","","","","","","","","","","","",""
"","","","","","html-keyboard-response","204","1015823","0.0-3.0-5.0-0.26","5e1a40cc477f3b2bfbbf056d","F1","batch6","pattern_show_trial_num","null","<p class=block-text>Trial 27 out of 78</p>","null","","","","","","","","","","","","","","","","","","","","","","","","","",""
"","","","","","image-keyboard-response","205","1018664","0.0-3.0-5.0-1.26","5e1a40cc477f3b2bfbbf056d","F1","batch6","pattern_response","2825.0999999046326","stim/no_30_1_b.png","j","pattern_13","j","true","","","","2825.0999999046326","true","25","","","","","","","","","","","","","","","","",""
"","","","","","html-keyboard-response","206","1019981","0.0-3.0-5.0-0.27","5e1a40cc477f3b2bfbbf056d","F1","batch6","pattern_show_trial_num","null","<p class=block-text>Trial 28 out of 78</p>","null","","","","","","","","","","","","","","","","","","","","","","","","","",""
"","","","","","image-keyboard-response","207","1020763","0.0-3.0-5.0-1.27","5e1a40cc477f3b2bfbbf056d","F1","batch6","pattern_response","769","stim/yes_29_hor_b1_b.png","f","pattern_52","f","true","","","","769","true","26","","","","","","","","","","","","","","","","",""
"","","","","","html-keyboard-response","208","1022082","0.0-3.0-5.0-0.28","5e1a40cc477f3b2bfbbf056d","F1","batch6","pattern_show_trial_num","null","<p class=block-text>Trial 29 out of 78</p>","null","","","","","","","","","","","","","","","","","","","","","","","","","",""
"","","","","","image-keyboard-response","209","1027458","0.0-3.0-5.0-1.28","5e1a40cc477f3b2bfbbf056d","F1","batch6","pattern_response","5363.700000047684","stim/yes_58_dia_w1_w.png","j","pattern_76","f","false","","","","5363.700000047684","false","26","","","","","","","","","","","","","","","","",""
"","","","","","html-keyboard-response","210","1028770","0.0-3.0-5.0-0.29","5e1a40cc477f3b2bfbbf056d","F1","batch6","pattern_show_trial_num","null","<p class=block-text>Trial 30 out of 78</p>","null","","","","","","","","","","","","","","","","","","","","","","","","","",""
"","","","","","image-keyboard-response","211","1032191","0.0-3.0-5.0-1.29","5e1a40cc477f3b2bfbbf056d","F1","batch6","pattern_response","3407.7999999523163","stim/yes_42_dia_w1_w.png","j","pattern_64","f","false","","","","3407.7999999523163","false","26","","","","","","","","","","","","","","","","",""
"","","","","","html-keyboard-response","212","1033519","0.0-3.0-5.0-0.30","5e1a40cc477f3b2bfbbf056d","F1","batch6","pattern_show_trial_num","null","<p class=block-text>Trial 31 out of 78</p>","null","","","","","","","","","","","","","","","","","","","","","","","","","",""
"","","","","","image-keyboard-response","213","1039119","0.0-3.0-5.0-1.30","5e1a40cc477f3b2bfbbf056d","F1","batch6","pattern_response","5588.700000047684","stim/no_67_1.png","j","pattern_39","j","true","","","","5588.700000047684","true","27","","","","","","","","","","","","","","","","",""
"","","","","","html-keyboard-response","214","1040436","0.0-3.0-5.0-0.31","5e1a40cc477f3b2bfbbf056d","F1","batch6","pattern_show_trial_num","null","<p class=block-text>Trial 32 out of 78</p>","null","","","","","","","","","","","","","","","","","","","","","","","","","",""
"","","","","","image-keyboard-response","215","1044181","0.0-3.0-5.0-1.31","5e1a40cc477f3b2bfbbf056d","F1","batch6","pattern_response","3730.600000143051","stim/no_39_1_w.png","j","pattern_21","j","true","","","","3730.600000143051","true","28","","","","","","","","","","","","","","","","",""
"","","","","","html-keyboard-response","216","1045509","0.0-3.0-5.0-0.32","5e1a40cc477f3b2bfbbf056d","F1","batch6","pattern_show_trial_num","null","<p class=block-text>Trial 33 out of 78</p>","null","","","","","","","","","","","","","","","","","","","","","","","","","",""
"","","","","","image-keyboard-response","217","1049570","0.0-3.0-5.0-1.32","5e1a40cc477f3b2bfbbf056d","F1","batch6","pattern_response","4048.2000000476837","stim/no_49_2_b.png","j","pattern_29","j","true","","","","4048.2000000476837","true","29","","","","","","","","","","","","","","","","",""
"","","","","","html-keyboard-response","218","1050887","0.0-3.0-5.0-0.33","5e1a40cc477f3b2bfbbf056d","F1","batch6","pattern_show_trial_num","null","<p class=block-text>Trial 34 out of 78</p>","null","","","","","","","","","","","","","","","","","","","","","","","","","",""
"","","","","","image-keyboard-response","219","1051908","0.0-3.0-5.0-1.33","5e1a40cc477f3b2bfbbf056d","F1","batch6","pattern_response","1009.5999999046326","stim/yes_53_ver_b1_b.png","f","pattern_74","f","true","","","","1009.5999999046326","true","30","","","","","","","","","","","","","","","","",""
"","","","","","html-keyboard-response","220","1053216","0.0-3.0-5.0-0.34","5e1a40cc477f3b2bfbbf056d","F1","batch6","pattern_show_trial_num","null","<p class=block-text>Trial 35 out of 78</p>","null","","","","","","","","","","","","","","","","","","","","","","","","","",""
"","","","","","image-keyboard-response","221","1055968","0.0-3.0-5.0-1.34","5e1a40cc477f3b2bfbbf056d","F1","batch6","pattern_response","2742.7000000476837","stim/no_28_2.png","j","pattern_11","j","true","","","","2742.7000000476837","true","31","","","","","","","","","","","","","","","","",""
"","","","","","html-keyboard-response","222","1057292","0.0-3.0-5.0-0.35","5e1a40cc477f3b2bfbbf056d","F1","batch6","pattern_show_trial_num","null","<p class=block-text>Trial 36 out of 78</p>","null","","","","","","","","","","","","","","","","","","","","","","","","","",""
"","","","","","image-keyboard-response","223","1058119","0.0-3.0-5.0-1.35","5e1a40cc477f3b2bfbbf056d","F1","batch6","pattern_response","815.4000000953674","stim/yes_36_ver_w1_w.png","f","pattern_58","f","true","","","","815.4000000953674","true","32","","","","","","","","","","","","","","","","",""
"","","","","","html-keyboard-response","224","1059440","0.0-3.0-5.0-0.36","5e1a40cc477f3b2bfbbf056d","F1","batch6","pattern_show_trial_num","null","<p class=block-text>Trial 37 out of 78</p>","null","","","","","","","","","","","","","","","","","","","","","","","","","",""
"","","","","","image-keyboard-response","225","1060865","0.0-3.0-5.0-1.36","5e1a40cc477f3b2bfbbf056d","F1","batch6","pattern_response","1416.5","stim/yes_44_ver_w1_w.png","f","pattern_66","f","true","","","","1416.5","true","33","","","","","","","","","","","","","","","","",""
"","","","","","html-keyboard-response","226","1062174","0.0-3.0-5.0-0.37","5e1a40cc477f3b2bfbbf056d","F1","batch6","pattern_show_trial_num","null","<p class=block-text>Trial 38 out of 78</p>","null","","","","","","","","","","","","","","","","","","","","","","","","","",""
"","","","","","image-keyboard-response","227","1065234","0.0-3.0-5.0-1.37","5e1a40cc477f3b2bfbbf056d","F1","batch6","pattern_response","3050.800000190735","stim/no_36_1_b.png","j","pattern_17","j","true","","","","3050.800000190735","true","34","","","","","","","","","","","","","","","","",""
"","","","","","html-keyboard-response","228","1066550","0.0-3.0-5.0-0.38","5e1a40cc477f3b2bfbbf056d","F1","batch6","pattern_show_trial_num","null","<p class=block-text>Trial 39 out of 78</p>","null","","","","","","","","","","","","","","","","","","","","","","","","","",""
"","","","","","image-keyboard-response","229","1067841","0.0-3.0-5.0-1.38","5e1a40cc477f3b2bfbbf056d","F1","batch6","pattern_response","1278.7000000476837","stim/yes_26_dia_w2_w.png","f","pattern_50","f","true","","","","1278.7000000476837","true","35","","","","","","","","","","","","","","","","",""
"","","","","","image-keyboard-response","230","1072705","0.0-3.0-6.0","5e1a40cc477f3b2bfbbf056d","F1","batch6","attention_check","4341.099999904633","stim/empty_board.png","j","","j","true","","","","","","","500","[""f"",""j""]","","","","","","","","","","","","","","",""
"","","","","","html-keyboard-response","231","1073522","0.0-3.0-7.0-0.0","5e1a40cc477f3b2bfbbf056d","F1","batch6","pattern_show_trial_num","null","<p class=block-text>Trial 40 out of 78</p>","null","","","","","","","","","","","","","","","","","","","","","","","","","",""
"","","","","","image-keyboard-response","232","1079003","0.0-3.0-7.0-1.0","5e1a40cc477f3b2bfbbf056d","F1","batch6","pattern_response","5466.900000095367","stim/no_36_2_w.png","j","pattern_18","j","true","","","","5466.900000095367","true","36","","","","","","","","","","","","","","","","",""
"","","","","","html-keyboard-response","233","1080329","0.0-3.0-7.0-0.1","5e1a40cc477f3b2bfbbf056d","F1","batch6","pattern_show_trial_num","null","<p class=block-text>Trial 41 out of 78</p>","null","","","","","","","","","","","","","","","","","","","","","","","","","",""
"","","","","","image-keyboard-response","234","1081698","0.0-3.0-7.0-1.1","5e1a40cc477f3b2bfbbf056d","F1","batch6","pattern_response","1355.7999999523163","stim/yes_45_hor_b2_b.png","f","pattern_67","f","true","","","","1355.7999999523163","true","37","","","","","","","","","","","","","","","","",""
"","","","","","html-keyboard-response","235","1083012","0.0-3.0-7.0-0.2","5e1a40cc477f3b2bfbbf056d","F1","batch6","pattern_show_trial_num","null","<p class=block-text>Trial 42 out of 78</p>","null","","","","","","","","","","","","","","","","","","","","","","","","","",""
"","","","","","image-keyboard-response","236","1086683","0.0-3.0-7.0-1.2","5e1a40cc477f3b2bfbbf056d","F1","batch6","pattern_response","3660.600000143051","stim/no_46_1_b.png","j","pattern_26","j","true","","","","3660.600000143051","true","38","","","","","","","","","","","","","","","","",""
"","","","","","html-keyboard-response","237","1088005","0.0-3.0-7.0-0.3","5e1a40cc477f3b2bfbbf056d","F1","batch6","pattern_show_trial_num","null","<p class=block-text>Trial 43 out of 78</p>","null","","","","","","","","","","","","","","","","","","","","","","","","","",""
"","","","","","image-keyboard-response","238","1092604","0.0-3.0-7.0-1.3","5e1a40cc477f3b2bfbbf056d","F1","batch6","pattern_response","4587.5","stim/no_52_1.png","j","pattern_32","j","true","","","","4587.5","true","39","","","","","","","","","","","","","","","","",""
"","","","","","html-keyboard-response","239","1093920","0.0-3.0-7.0-0.4","5e1a40cc477f3b2bfbbf056d","F1","batch6","pattern_show_trial_num","null","<p class=block-text>Trial 44 out of 78</p>","null","","","","","","","","","","","","","","","","","","","","","","","","","",""
"","","","","","image-keyboard-response","240","1095376","0.0-3.0-7.0-1.4","5e1a40cc477f3b2bfbbf056d","F1","batch6","pattern_response","1440.7000000476837","stim/no_20_1_w.png","j","pattern_06","j","true","","","","1440.7000000476837","true","40","","","","","","","","","","","","","","","","",""
"","","","","","html-keyboard-response","241","1096701","0.0-3.0-7.0-0.5","5e1a40cc477f3b2bfbbf056d","F1","batch6","pattern_show_trial_num","null","<p class=block-text>Trial 45 out of 78</p>","null","","","","","","","","","","","","","","","","","","","","","","","","","",""
"","","","","","image-keyboard-response","242","1102827","0.0-3.0-7.0-1.5","5e1a40cc477f3b2bfbbf056d","F1","batch6","pattern_response","6115.800000190735","stim/yes_67_hor_b1.png","j","pattern_79","f","false","","","","6115.800000190735","false","40","","","","","","","","","","","","","","","","",""
"","","","","","html-keyboard-response","243","1104150","0.0-3.0-7.0-0.6","5e1a40cc477f3b2bfbbf056d","F1","batch6","pattern_show_trial_num","null","<p class=block-text>Trial 46 out of 78</p>","null","","","","","","","","","","","","","","","","","","","","","","","","","",""
"","","","","","image-keyboard-response","244","1105299","0.0-3.0-7.0-1.6","5e1a40cc477f3b2bfbbf056d","F1","batch6","pattern_response","1135.9000000953674","stim/yes_55_hor_w1_w.png","f","pattern_75","f","true","","","","1135.9000000953674","true","41","","","","","","","","","","","","","","","","",""
"","","","","","html-keyboard-response","245","1106615","0.0-3.0-7.0-0.7","5e1a40cc477f3b2bfbbf056d","F1","batch6","pattern_show_trial_num","null","<p class=block-text>Trial 47 out of 78</p>","null","","","","","","","","","","","","","","","","","","","","","","","","","",""
"","","","","","image-keyboard-response","246","1107452","0.0-3.0-7.0-1.7","5e1a40cc477f3b2bfbbf056d","F1","batch6","pattern_response","827.4000000953674","stim/yes_25_hor_b1_b.png","f","pattern_49","f","true","","","","827.4000000953674","true","42","","","","","","","","","","","","","","","","",""
"","","","","","html-keyboard-response","247","1108768","0.0-3.0-7.0-0.8","5e1a40cc477f3b2bfbbf056d","F1","batch6","pattern_show_trial_num","null","<p class=block-text>Trial 48 out of 78</p>","null","","","","","","","","","","","","","","","","","","","","","","","","","",""
"","","","","","image-keyboard-response","248","1109631","0.0-3.0-7.0-1.8","5e1a40cc477f3b2bfbbf056d","F1","batch6","pattern_response","854","stim/yes_14_hor_b1_w.png","f","pattern_43","f","true","","","","854","true","43","","","","","","","","","","","","","","","","",""
"","","","","","html-keyboard-response","249","1110942","0.0-3.0-7.0-0.9","5e1a40cc477f3b2bfbbf056d","F1","batch6","pattern_show_trial_num","null","<p class=block-text>Trial 49 out of 78</p>","null","","","","","","","","","","","","","","","","","","","","","","","","","",""
"","","","","","image-keyboard-response","250","1113381","0.0-3.0-7.0-1.9","5e1a40cc477f3b2bfbbf056d","F1","batch6","pattern_response","2430.2999999523163","stim/yes_48_dia_w1_w.png","j","pattern_69","f","false","","","","2430.2999999523163","false","43","","","","","","","","","","","","","","","","",""
"","","","","","html-keyboard-response","251","1114701","0.0-3.0-7.0-0.10","5e1a40cc477f3b2bfbbf056d","F1","batch6","pattern_show_trial_num","null","<p class=block-text>Trial 50 out of 78</p>","null","","","","","","","","","","","","","","","","","","","","","","","","","",""
"","","","","","image-keyboard-response","252","1115679","0.0-3.0-7.0-1.10","5e1a40cc477f3b2bfbbf056d","F1","batch6","pattern_response","965.1000001430511","stim/yes_17_dia_w1.png","f","pattern_45","f","true","","","","965.1000001430511","true","44","","","","","","","","","","","","","","","","",""
"","","","","","html-keyboard-response","253","1117000","0.0-3.0-7.0-0.11","5e1a40cc477f3b2bfbbf056d","F1","batch6","pattern_show_trial_num","null","<p class=block-text>Trial 51 out of 78</p>","null","","","","","","","","","","","","","","","","","","","","","","","","","",""
"","","","","","image-keyboard-response","254","1119622","0.0-3.0-7.0-1.11","5e1a40cc477f3b2bfbbf056d","F1","batch6","pattern_response","2613.800000190735","stim/no_42_1_w.png","j","pattern_22","j","true","","","","2613.800000190735","true","45","","","","","","","","","","","","","","","","",""
"","","","","","html-keyboard-response","255","1120940","0.0-3.0-7.0-0.12","5e1a40cc477f3b2bfbbf056d","F1","batch6","pattern_show_trial_num","null","<p class=block-text>Trial 52 out of 78</p>","null","","","","","","","","","","","","","","","","","","","","","","","","","",""
"","","","","","image-keyboard-response","256","1124002","0.0-3.0-7.0-1.12","5e1a40cc477f3b2bfbbf056d","F1","batch6","pattern_response","3048.5","stim/no_48_1_w.png","j","pattern_28","j","true","","","","3048.5","true","46","","","","","","","","","","","","","","","","",""
"","","","","","html-keyboard-response","257","1125322","0.0-3.0-7.0-0.13","5e1a40cc477f3b2bfbbf056d","F1","batch6","pattern_show_trial_num","null","<p class=block-text>Trial 53 out of 78</p>","null","","","","","","","","","","","","","","","","","","","","","","","","","",""
"","","","","","image-keyboard-response","258","1129579","0.0-3.0-7.0-1.13","5e1a40cc477f3b2bfbbf056d","F1","batch6","pattern_response","4244.299999952316","stim/yes_52_ver_w1.png","j","pattern_73","f","false","","","","4244.299999952316","false","46","","","","","","","","","","","","","","","","",""
"","","","","","html-keyboard-response","259","1130886","0.0-3.0-7.0-0.14","5e1a40cc477f3b2bfbbf056d","F1","batch6","pattern_show_trial_num","null","<p class=block-text>Trial 54 out of 78</p>","null","","","","","","","","","","","","","","","","","","","","","","","","","",""
"","","","","","image-keyboard-response","260","1131623","0.0-3.0-7.0-1.14","5e1a40cc477f3b2bfbbf056d","F1","batch6","pattern_response","724.2999999523163","stim/yes_28_ver_b1.png","f","pattern_51","f","true","","","","724.2999999523163","true","47","","","","","","","","","","","","","","","","",""
"","","","","","html-keyboard-response","261","1132947","0.0-3.0-7.0-0.15","5e1a40cc477f3b2bfbbf056d","F1","batch6","pattern_show_trial_num","null","<p class=block-text>Trial 55 out of 78</p>","null","","","","","","","","","","","","","","","","","","","","","","","","","",""
"","","","","","image-keyboard-response","262","1133832","0.0-3.0-7.0-1.15","5e1a40cc477f3b2bfbbf056d","F1","batch6","pattern_response","877.4000000953674","stim/yes_43_ver_w1_w.png","f","pattern_65","f","true","","","","877.4000000953674","true","48","","","","","","","","","","","","","","","","",""
"","","","","","html-keyboard-response","263","1135153","0.0-3.0-7.0-0.16","5e1a40cc477f3b2bfbbf056d","F1","batch6","pattern_show_trial_num","null","<p class=block-text>Trial 56 out of 78</p>","null","","","","","","","","","","","","","","","","","","","","","","","","","",""
"","","","","","image-keyboard-response","264","1136402","0.0-3.0-7.0-1.16","5e1a40cc477f3b2bfbbf056d","F1","batch6","pattern_response","1239","stim/no_17_1_w.png","j","pattern_04","j","true","","","","1239","true","49","","","","","","","","","","","","","","","","",""
"","","","","","html-keyboard-response","265","1137713","0.0-3.0-7.0-0.17","5e1a40cc477f3b2bfbbf056d","F1","batch6","pattern_show_trial_num","null","<p class=block-text>Trial 57 out of 78</p>","null","","","","","","","","","","","","","","","","","","","","","","","","","",""
"","","","","","image-keyboard-response","266","1141700","0.0-3.0-7.0-1.17","5e1a40cc477f3b2bfbbf056d","F1","batch6","pattern_response","3972.100000143051","stim/no_62_1_w.png","j","pattern_36","j","true","","","","3972.100000143051","true","50","","","","","","","","","","","","","","","","",""
"","","","","","html-keyboard-response","267","1143020","0.0-3.0-7.0-0.18","5e1a40cc477f3b2bfbbf056d","F1","batch6","pattern_show_trial_num","null","<p class=block-text>Trial 58 out of 78</p>","null","","","","","","","","","","","","","","","","","","","","","","","","","",""
"","","","","","image-keyboard-response","268","1146042","0.0-3.0-7.0-1.18","5e1a40cc477f3b2bfbbf056d","F1","batch6","pattern_response","3008.5","stim/yes_31_hor_b1.png","f","pattern_55","f","true","","","","3008.5","true","51","","","","","","","","","","","","","","","","",""
"","","","","","html-keyboard-response","269","1147369","0.0-3.0-7.0-0.19","5e1a40cc477f3b2bfbbf056d","F1","batch6","pattern_show_trial_num","null","<p class=block-text>Trial 59 out of 78</p>","null","","","","","","","","","","","","","","","","","","","","","","","","","",""
"","","","","","image-keyboard-response","270","1150400","0.0-3.0-7.0-1.19","5e1a40cc477f3b2bfbbf056d","F1","batch6","pattern_response","3018.7000000476837","stim/yes_35_dia_b1.png","f","pattern_57","f","true","","","","3018.7000000476837","true","52","","","","","","","","","","","","","","","","",""
"","","","","","html-keyboard-response","271","1151711","0.0-3.0-7.0-0.20","5e1a40cc477f3b2bfbbf056d","F1","batch6","pattern_show_trial_num","null","<p class=block-text>Trial 60 out of 78</p>","null","","","","","","","","","","","","","","","","","","","","","","","","","",""
"","","","","","image-keyboard-response","272","1155994","0.0-3.0-7.0-1.20","5e1a40cc477f3b2bfbbf056d","F1","batch6","pattern_response","4269.5","stim/yes_37_dia_w1.png","j","pattern_59","f","false","","","","4269.5","false","52","","","","","","","","","","","","","","","","",""
"","","","","","html-keyboard-response","273","1157308","0.0-3.0-7.0-0.21","5e1a40cc477f3b2bfbbf056d","F1","batch6","pattern_show_trial_num","null","<p class=block-text>Trial 61 out of 78</p>","null","","","","","","","","","","","","","","","","","","","","","","","","","",""
"","","","","","image-keyboard-response","274","1159196","0.0-3.0-7.0-1.21","5e1a40cc477f3b2bfbbf056d","F1","batch6","pattern_response","1877.6000001430511","stim/yes_38_hor_b1_b.png","f","pattern_61","f","true","","","","1877.6000001430511","true","53","","","","","","","","","","","","","","","","",""
"","","","","","html-keyboard-response","275","1160508","0.0-3.0-7.0-0.22","5e1a40cc477f3b2bfbbf056d","F1","batch6","pattern_show_trial_num","null","<p class=block-text>Trial 62 out of 78</p>","null","","","","","","","","","","","","","","","","","","","","","","","","","",""
"","","","","","image-keyboard-response","276","1161868","0.0-3.0-7.0-1.22","5e1a40cc477f3b2bfbbf056d","F1","batch6","pattern_response","1356.1999998092651","stim/no_23_1.png","j","pattern_08","j","true","","","","1356.1999998092651","true","54","","","","","","","","","","","","","","","","",""
"","","","","","html-keyboard-response","277","1163189","0.0-3.0-7.0-0.23","5e1a40cc477f3b2bfbbf056d","F1","batch6","pattern_show_trial_num","null","<p class=block-text>Trial 63 out of 78</p>","null","","","","","","","","","","","","","","","","","","","","","","","","","",""
"","","","","","image-keyboard-response","278","1172390","0.0-3.0-7.0-1.23","5e1a40cc477f3b2bfbbf056d","F1","batch6","pattern_response","9193","stim/no_70_2.png","j","pattern_40","j","true","","","","9193","true","55","","","","","","","","","","","","","","","","",""
"","","","","","html-keyboard-response","279","1173709","0.0-3.0-7.0-0.24","5e1a40cc477f3b2bfbbf056d","F1","batch6","pattern_show_trial_num","null","<p class=block-text>Trial 64 out of 78</p>","null","","","","","","","","","","","","","","","","","","","","","","","","","",""
"","","","","","image-keyboard-response","280","1178635","0.0-3.0-7.0-1.24","5e1a40cc477f3b2bfbbf056d","F1","batch6","pattern_response","4914.599999904633","stim/no_50_1.png","j","pattern_30","j","true","","","","4914.599999904633","true","56","","","","","","","","","","","","","","","","",""
"","","","","","html-keyboard-response","281","1179955","0.0-3.0-7.0-0.25","5e1a40cc477f3b2bfbbf056d","F1","batch6","pattern_show_trial_num","null","<p class=block-text>Trial 65 out of 78</p>","null","","","","","","","","","","","","","","","","","","","","","","","","","",""
"","","","","","image-keyboard-response","282","1182673","0.0-3.0-7.0-1.25","5e1a40cc477f3b2bfbbf056d","F1","batch6","pattern_response","2705.2000000476837","stim/yes_60_ver_b1_b.png","f","pattern_77","f","true","","","","2705.2000000476837","true","57","","","","","","","","","","","","","","","","",""
"","","","","","html-keyboard-response","283","1183989","0.0-3.0-7.0-0.26","5e1a40cc477f3b2bfbbf056d","F1","batch6","pattern_show_trial_num","null","<p class=block-text>Trial 66 out of 78</p>","null","","","","","","","","","","","","","","","","","","","","","","","","","",""
"","","","","","image-keyboard-response","284","1184926","0.0-3.0-7.0-1.26","5e1a40cc477f3b2bfbbf056d","F1","batch6","pattern_response","927.1000001430511","stim/yes_22_ver_w1.png","f","pattern_47","f","true","","","","927.1000001430511","true","58","","","","","","","","","","","","","","","","",""
"","","","","","html-keyboard-response","285","1186245","0.0-3.0-7.0-0.27","5e1a40cc477f3b2bfbbf056d","F1","batch6","pattern_show_trial_num","null","<p class=block-text>Trial 67 out of 78</p>","null","","","","","","","","","","","","","","","","","","","","","","","","","",""
"","","","","","image-keyboard-response","286","1190484","0.0-3.0-7.0-1.27","5e1a40cc477f3b2bfbbf056d","F1","batch6","pattern_response","4231.5","stim/yes_40_dia_b1_b.png","j","pattern_63","f","false","","","","4231.5","false","58","","","","","","","","","","","","","","","","",""
"","","","","","html-keyboard-response","287","1191795","0.0-3.0-7.0-0.28","5e1a40cc477f3b2bfbbf056d","F1","batch6","pattern_show_trial_num","null","<p class=block-text>Trial 68 out of 78</p>","null","","","","","","","","","","","","","","","","","","","","","","","","","",""
"","","","","","image-keyboard-response","288","1196935","0.0-3.0-7.0-1.28","5e1a40cc477f3b2bfbbf056d","F1","batch6","pattern_response","5128.5","stim/no_44_1.png","j","pattern_24","j","true","","","","5128.5","true","59","","","","","","","","","","","","","","","","",""
"","","","","","html-keyboard-response","289","1198254","0.0-3.0-7.0-0.29","5e1a40cc477f3b2bfbbf056d","F1","batch6","pattern_show_trial_num","null","<p class=block-text>Trial 69 out of 78</p>","null","","","","","","","","","","","","","","","","","","","","","","","","","",""
"","","","","","image-keyboard-response","290","1204632","0.0-3.0-7.0-1.29","5e1a40cc477f3b2bfbbf056d","F1","batch6","pattern_response","6365","stim/no_55_1_w.png","j","pattern_34","j","true","","","","6365","true","60","","","","","","","","","","","","","","","","",""
"","","","","","html-keyboard-response","291","1205959","0.0-3.0-7.0-0.30","5e1a40cc477f3b2bfbbf056d","F1","batch6","pattern_show_trial_num","null","<p class=block-text>Trial 70 out of 78</p>","null","","","","","","","","","","","","","","","","","","","","","","","","","",""
"","","","","","image-keyboard-response","292","1209395","0.0-3.0-7.0-1.30","5e1a40cc477f3b2bfbbf056d","F1","batch6","pattern_response","3423.2999999523163","stim/no_29_1_b.png","j","pattern_12","j","true","","","","3423.2999999523163","true","61","","","","","","","","","","","","","","","","",""
"","","","","","html-keyboard-response","293","1210717","0.0-3.0-7.0-0.31","5e1a40cc477f3b2bfbbf056d","F1","batch6","pattern_show_trial_num","null","<p class=block-text>Trial 71 out of 78</p>","null","","","","","","","","","","","","","","","","","","","","","","","","","",""
"","","","","","image-keyboard-response","294","1212527","0.0-3.0-7.0-1.31","5e1a40cc477f3b2bfbbf056d","F1","batch6","pattern_response","1796.5","stim/yes_50_dia_w1.png","f","pattern_71","f","true","","","","1796.5","true","62","","","","","","","","","","","","","","","","",""
"","","","","","html-keyboard-response","295","1213850","0.0-3.0-7.0-0.32","5e1a40cc477f3b2bfbbf056d","F1","batch6","pattern_show_trial_num","null","<p class=block-text>Trial 72 out of 78</p>","null","","","","","","","","","","","","","","","","","","","","","","","","","",""
"","","","","","image-keyboard-response","296","1216089","0.0-3.0-7.0-1.32","5e1a40cc477f3b2bfbbf056d","F1","batch6","pattern_response","2226.0999999046326","stim/no_32_1_w.png","j","pattern_14","j","true","","","","2226.0999999046326","true","63","","","","","","","","","","","","","","","","",""
"","","","","","html-keyboard-response","297","1217416","0.0-3.0-7.0-0.33","5e1a40cc477f3b2bfbbf056d","F1","batch6","pattern_show_trial_num","null","<p class=block-text>Trial 73 out of 78</p>","null","","","","","","","","","","","","","","","","","","","","","","","","","",""
"","","","","","image-keyboard-response","298","1218600","0.0-3.0-7.0-1.33","5e1a40cc477f3b2bfbbf056d","F1","batch6","pattern_response","1171.7999999523163","stim/yes_29_ver_w1.png","f","pattern_53","f","true","","","","1171.7999999523163","true","64","","","","","","","","","","","","","","","","",""
"","","","","","html-keyboard-response","299","1219916","0.0-3.0-7.0-0.34","5e1a40cc477f3b2bfbbf056d","F1","batch6","pattern_show_trial_num","null","<p class=block-text>Trial 74 out of 78</p>","null","","","","","","","","","","","","","","","","","","","","","","","","","",""
"","","","","","image-keyboard-response","300","1221245","0.0-3.0-7.0-1.34","5e1a40cc477f3b2bfbbf056d","F1","batch6","pattern_response","1320.5999999046326","stim/no_13_2_b.png","j","pattern_02","j","true","","","","1320.5999999046326","true","65","","","","","","","","","","","","","","","","",""
"","","","","","html-keyboard-response","301","1222559","0.0-3.0-7.0-0.35","5e1a40cc477f3b2bfbbf056d","F1","batch6","pattern_show_trial_num","null","<p class=block-text>Trial 75 out of 78</p>","null","","","","","","","","","","","","","","","","","","","","","","","","","",""
"","","","","","image-keyboard-response","302","1226471","0.0-3.0-7.0-1.35","5e1a40cc477f3b2bfbbf056d","F1","batch6","pattern_response","3909.899999856949","stim/no_38_1_b.png","j","pattern_20","j","true","","","","3909.899999856949","true","66","","","","","","","","","","","","","","","","",""
"","","","","","html-keyboard-response","303","1227789","0.0-3.0-7.0-0.36","5e1a40cc477f3b2bfbbf056d","F1","batch6","pattern_show_trial_num","null","<p class=block-text>Trial 76 out of 78</p>","null","","","","","","","","","","","","","","","","","","","","","","","","","",""
"","","","","","image-keyboard-response","304","1230936","0.0-3.0-7.0-1.36","5e1a40cc477f3b2bfbbf056d","F1","batch6","pattern_response","3141.399999856949","stim/no_26_1_w.png","j","pattern_10","j","true","","","","3141.399999856949","true","67","","","","","","","","","","","","","","","","",""
"","","","","","html-keyboard-response","305","1232249","0.0-3.0-7.0-0.37","5e1a40cc477f3b2bfbbf056d","F1","batch6","pattern_show_trial_num","null","<p class=block-text>Trial 77 out of 78</p>","null","","","","","","","","","","","","","","","","","","","","","","","","","",""
"","","","","","image-keyboard-response","306","1236821","0.0-3.0-7.0-1.37","5e1a40cc477f3b2bfbbf056d","F1","batch6","pattern_response","4557.700000047684","stim/no_34_1_b.png","j","pattern_16","j","true","","","","4557.700000047684","true","68","","","","","","","","","","","","","","","","",""
"","","","","","html-keyboard-response","307","1238138","0.0-3.0-7.0-0.38","5e1a40cc477f3b2bfbbf056d","F1","batch6","pattern_show_trial_num","null","<p class=block-text>Trial 78 out of 78</p>","null","","","","","","","","","","","","","","","","","","","","","","","","","",""
"","","","","","image-keyboard-response","308","1248948","0.0-3.0-7.0-1.38","5e1a40cc477f3b2bfbbf056d","F1","batch6","pattern_response","10798.299999952316","stim/no_65_1_b.png","j","pattern_38","j","true","","","","10798.299999952316","true","69","","","","","","","","","","","","","","","","",""
"","","","","","html-button-response","309","1267729","0.0-3.0-8.0","5e1a40cc477f3b2bfbbf056d","F1","batch6","","18270.299999952316","<p class = block-text>This concludes the 4-in-a-row detection game.Thank you for your responses!<br>
            You responded correctly on 88% of the trials.<br>
            When you are ready, press ""Continue"" button to continue </p>","0","","","","","","","","","","","","","","","","","","","","","","","","","",""
"true","","","","","fullscreen","310","1271207","0.0-4.0-0.0","5e1a40cc477f3b2bfbbf056d","F1","batch6","","","","","","","","","","","","","","","","","","","","","","","","","","","","","",""
"","","","","","instructions","311","1358177","0.0-4.0-1.0-0.0-0.0","5e1a40cc477f3b2bfbbf056d","F1","batch6","tol-instructions","86965","","","","","","","","[{""page_index"":0,""viewing_time"":19627.599999904633},{""page_index"":1,""viewing_time"":9136.599999904633},{""page_index"":2,""viewing_time"":8472.300000190735},{""page_index"":3,""viewing_time"":11976},{""page_index"":4,""viewing_time"":16168},{""page_index"":5,""viewing_time"":15967.5},{""page_index"":6,""viewing_time"":5616.399999856949}]","","","","","","","","","","","","","","","","","","","",""
"","","","","","html-button-response","312","1359585","0.0-4.0-1.0-1.0-0.0","5e1a40cc477f3b2bfbbf056d","F1","batch6","tol_enter_quiz","1405.7000000476837","<p class=block-text> Let's answer a few questions <br>","0","","","","","","","","","","","","","","","","","","","","","","","","","",""
"","","","","","html-button-response","313","1367458","0.0-4.0-1.0-1.0-1.0","5e1a40cc477f3b2bfbbf056d","F1","batch6","tol_quiz","7869.399999856949","<p class = block-text>True or False: You can only move the ball on top of a peg. <br></p>","0","","","true","","","","","","","","","","","","","","","","","","","","","","",""
"","","","","","html-button-response","314","1370569","0.0-4.0-1.0-1.0-2.0","5e1a40cc477f3b2bfbbf056d","F1","batch6","tol_quiz_feedback","3107.2999999523163","<p class = block-text>Correct! You can only move the ball on top of a peg.</p>","0","","","","","","","","","","","","","","","","","","","","","","","","","",""
"","","","","","html-button-response","315","1374345","0.0-4.0-1.0-1.0-3.0","5e1a40cc477f3b2bfbbf056d","F1","batch6","tol_quiz","3773.4000000953674","<p class = block-text>True or False: You should try to match your board with the target board with fewest moves possible. <br></p>","0","","","true","","","","","","","","","","","","","","","","","","","","","","",""
"","","","","","html-button-response","316","1375649","0.0-4.0-1.0-1.0-4.0","5e1a40cc477f3b2bfbbf056d","F1","batch6","tol_quiz_feedback","1301","<p class = block-text>Correct! </p>","0","","","","","","","","","","","","","","","","","","","","","","","","","",""
"","","","","","html-button-response","317","1378672","0.0-4.0-2.0","5e1a40cc477f3b2bfbbf056d","F1","batch6","","3020.600000143051","<p class=block-text> Now that you've understood the game, let's practice a few easier examples before we start!<br> <br>","0","","","","","","","","","","","","","","","","","","","","","","","","","",""
"","","","","","single-stim-button","318","1384171","0.0-4.0-3.0-0.0","5e1a40cc477f3b2bfbbf056d","F1","batch6","tol_practice","5494","","","","","","","","","","","","","","tol_peg_2","5494","5494","0","[[1,2,0],[0,0],[0]]","1","[[1,2,0],[0,0],[3]]","practice","5494","","","","","",""
"","","","","","single-stim-button","319","1387239","0.0-4.0-3.0-1.0","5e1a40cc477f3b2bfbbf056d","F1","batch6","tol_practice","3064","","","","","","","","","","","","","","tol_peg_3","3064","3064","0","[[1,2,0],[0,0],[3]]","1","[[1,2,0],[0,0],[3]]","practice","3064","","","","","",""
"","","","","","poldrack-single-stim","320","1388243","0.0-4.0-4.0","5e1a40cc477f3b2bfbbf056d","F1","batch6","tol_feedback","-1","","","","","true","","","","","","","","","","1000","1000","500","","","","","","-1","none","true","","0",""
"","","","","","single-stim-button","321","1394846","0.0-4.0-5.0-0.0","5e1a40cc477f3b2bfbbf056d","F1","batch6","tol_practice","6600","","","","","","","","","","","","","","tol_peg_1","6600","6600","0","[[1,0,0],[3,0],[0]]","2","[[0,0,0],[3,1],[2]]","practice","6600","","","","","",""
"","","","","","single-stim-button","322","1396438","0.0-4.0-5.0-1.0","5e1a40cc477f3b2bfbbf056d","F1","batch6","tol_practice","1590","","","","","","","","","","","","","","tol_peg_3","1590","1590","0","[[1,0,0],[3,0],[2]]","2","[[0,0,0],[3,1],[2]]","practice","1590","","","","","",""
"","","","","","single-stim-button","323","1404846","0.0-4.0-5.1-0.1","5e1a40cc477f3b2bfbbf056d","F1","batch6","tol_practice","8406","","","","","","","","","","","","","","tol_peg_1","8406","8406","0","[[0,0,0],[3,0],[2]]","3","[[0,0,0],[3,1],[2]]","practice","8406","","","","","",""
"","","","","","single-stim-button","324","1406598","0.0-4.0-5.1-1.1","5e1a40cc477f3b2bfbbf056d","F1","batch6","tol_practice","1750","","","","","","","","","","","","","","tol_peg_2","1750","1750","0","[[0,0,0],[3,1],[2]]","3","[[0,0,0],[3,1],[2]]","practice","1750","","","","","",""
"","","","","","poldrack-single-stim","325","1407604","0.0-4.0-6.0","5e1a40cc477f3b2bfbbf056d","F1","batch6","tol_feedback","-1","","","","","true","","","","","","","","","","1000","1000","500","","","","","","-1","none","true","","0",""
"","","","","","single-stim-button","326","1412822","0.0-4.0-7.0-0.0","5e1a40cc477f3b2bfbbf056d","F1","batch6","tol_practice","5216","","","","","","","","","","","","","","tol_peg_2","5216","5216","0","[[1,2,0],[0,0],[0]]","4","[[1,0,0],[2,0],[3]]","practice","5216","","","","","",""
"","","","","","single-stim-button","327","1414510","0.0-4.0-7.0-1.0","5e1a40cc477f3b2bfbbf056d","F1","batch6","tol_practice","1685","","","","","","","","","","","","","","tol_peg_3","1685","1685","0","[[1,2,0],[0,0],[3]]","4","[[1,0,0],[2,0],[3]]","practice","1685","","","","","",""
"","","","","","single-stim-button","328","1417015","0.0-4.0-7.1-0.1","5e1a40cc477f3b2bfbbf056d","F1","batch6","tol_practice","2501","","","","","","","","","","","","","","tol_peg_1","2501","2501","0","[[1,0,0],[0,0],[3]]","5","[[1,0,0],[2,0],[3]]","practice","2501","","","","","",""
"","","","","","single-stim-button","329","1418734","0.0-4.0-7.1-1.1","5e1a40cc477f3b2bfbbf056d","F1","batch6","tol_practice","1717","","","","","","","","","","","","","","tol_peg_2","1717","1717","0","[[1,0,0],[2,0],[3]]","5","[[1,0,0],[2,0],[3]]","practice","1717","","","","","",""
"","","","","","poldrack-single-stim","330","1419738","0.0-4.0-8.0","5e1a40cc477f3b2bfbbf056d","F1","batch6","tol_feedback","-1","","","","","true","","","","","","","","","","1000","1000","500","","","","","","-1","none","true","","0",""
"","","","","","html-button-response","331","1423169","0.0-4.0-9.0","5e1a40cc477f3b2bfbbf056d","F1","batch6","tol_instruction","3428.5999999046326","<div class = centerbox><p class = center-block-text>Great job! You are done with practice trials<br>You are about to start official trials.<br> <br> Problem <strong>1</strong> out of 25 problems</p></div>","0","","","","","","","","","","","","","","","","","","","","","","","","","",""
"","","","","","single-stim-button","332","1432376","0.0-4.0-10.0-0.0","5e1a40cc477f3b2bfbbf056d","F1","batch6","tol_tohand","8195","","","","","","","","","","","","","","tol_peg_1","8195","8195","0","[[1,0,0],[3,0],[0]]","1","[[1,3,0],[2,0],[0]]","0","0","","","","","","3"
"","","","","","single-stim-button","333","1433942","0.0-4.0-10.0-1.0","5e1a40cc477f3b2bfbbf056d","F1","batch6","tol_toboard","1563","","","","","","","","","","","","","","tol_peg_3","1563","1563","0","[[1,0,0],[3,0],[2]]","1","[[1,3,0],[2,0],[0]]","0","0","","","","","","3"
"","","","","","single-stim-button","334","1435654","0.0-4.0-10.1-0.1","5e1a40cc477f3b2bfbbf056d","F1","batch6","tol_tohand","1709","","","","","","","","","","","","","","tol_peg_2","1709","1709","0","[[1,0,0],[0,0],[2]]","2","[[1,3,0],[2,0],[0]]","0","0","","","","","","3"
"","","","","","single-stim-button","335","1436495","0.0-4.0-10.1-1.1","5e1a40cc477f3b2bfbbf056d","F1","batch6","tol_toboard","839","","","","","","","","","","","","","","tol_peg_1","839","839","0","[[1,3,0],[0,0],[2]]","2","[[1,3,0],[2,0],[0]]","0","0","","","","","","3"
"","","","","","single-stim-button","336","1439255","0.0-4.0-10.2-0.2","5e1a40cc477f3b2bfbbf056d","F1","batch6","tol_tohand","2756","","","","","","","","","","","","","","tol_peg_3","2756","2756","0","[[1,3,0],[0,0],[0]]","3","[[1,3,0],[2,0],[0]]","0","0","","","","","","3"
"","","","","","single-stim-button","337","1440423","0.0-4.0-10.2-1.2","5e1a40cc477f3b2bfbbf056d","F1","batch6","tol_toboard","1166","","","","","","","","","","","","","","tol_peg_2","1166","1166","0","[[1,3,0],[2,0],[0]]","3","[[1,3,0],[2,0],[0]]","0","0","","","","","","3"
"","","","","","poldrack-single-stim","338","1441427","0.0-4.0-11.0","5e1a40cc477f3b2bfbbf056d","F1","batch6","tol_feedback","-1","","","","","true","","","","","","","","","","1000","1000","500","","","","","","-1","none","true","8195","12660",""
"","","","","","html-button-response","339","1442705","0.0-4.0-12.0","5e1a40cc477f3b2bfbbf056d","F1","batch6","tol_trial_num","1276.5","<div class = centerbox><p class = center-block-text>problem <strong>2</strong> out of 25 problems</p></div>","0","","","","","","","","","","","","","","","","","","","","","","","","","",""
"","","","","","single-stim-button","340","1460223","0.0-4.0-13.0-0.0","5e1a40cc477f3b2bfbbf056d","F1","batch6","tol_tohand","17516","","","","","","","","","","","","","","tol_peg_1","17516","17516","0","[[1,0,0],[3,0],[0]]","1","[[2,1,3],[0,0],[0]]","1","0","","","","","","5"
"","","","","","single-stim-button","341","1461302","0.0-4.0-13.0-1.0","5e1a40cc477f3b2bfbbf056d","F1","batch6","tol_toboard","1076","","","","","","","","","","","","","","tol_peg_3","1076","1076","0","[[1,0,0],[3,0],[2]]","1","[[2,1,3],[0,0],[0]]","1","0","","","","","","5"
"","","","","","single-stim-button","342","1462296","0.0-4.0-13.1-0.1","5e1a40cc477f3b2bfbbf056d","F1","batch6","tol_tohand","992","","","","","","","","","","","","","","tol_peg_1","992","992","0","[[0,0,0],[3,0],[2]]","2","[[2,1,3],[0,0],[0]]","1","0","","","","","","5"
"","","","","","single-stim-button","343","1463295","0.0-4.0-13.1-1.1","5e1a40cc477f3b2bfbbf056d","F1","batch6","tol_toboard","997","","","","","","","","","","","","","","tol_peg_2","997","997","0","[[0,0,0],[3,1],[2]]","2","[[2,1,3],[0,0],[0]]","1","0","","","","","","5"
"","","","","","single-stim-button","344","1464343","0.0-4.0-13.2-0.2","5e1a40cc477f3b2bfbbf056d","F1","batch6","tol_tohand","1046","","","","","","","","","","","","","","tol_peg_3","1046","1046","0","[[0,0,0],[3,1],[0]]","3","[[2,1,3],[0,0],[0]]","1","0","","","","","","5"
"","","","","","single-stim-button","345","1465358","0.0-4.0-13.2-1.2","5e1a40cc477f3b2bfbbf056d","F1","batch6","tol_toboard","1013","","","","","","","","","","","","","","tol_peg_1","1013","1013","0","[[2,0,0],[3,1],[0]]","3","[[2,1,3],[0,0],[0]]","1","0","","","","","","5"
"","","","","","single-stim-button","346","1466030","0.0-4.0-13.3-0.3","5e1a40cc477f3b2bfbbf056d","F1","batch6","tol_tohand","670","","","","","","","","","","","","","","tol_peg_2","670","670","0","[[2,0,0],[3,0],[0]]","4","[[2,1,3],[0,0],[0]]","1","0","","","","","","5"
