"success","timeout","failed_images","failed_audio","failed_video","trial_type","trial_index","time_elapsed","internal_node_id","subject_id","study_id","session_id","view_history","rt","stimulus","response","task","correct","answer","item","fiar_detect_rt","fiar_detect_correct","total_correct_fiar_detect","post_trial_gap","choices","mouse_click","stim_duration","block_duration","timing_post_trial","current_position","tol_num_moves_made","tol_target","tol_problem_id","tol_rt","key_press","possible_responses","tol_correct","preplanning","tol_rt_per_trial","tol_min_moves","spm_correct","spm_rt"
"true","false","[]","[]","[]","preload","0","26288","0.0-0.0","5e1bfb604231d840ef7103d8","A3","batch1","","","","","","","","","","","","","","","","","","","","","","","","","","","","","",""
"true","","","","","fullscreen","1","150191","0.0-1.0-0.0","5e1bfb604231d840ef7103d8","A3","batch1","","","","","","","","","","","","","","","","","","","","","","","","","","","","","",""
"true","","","","","fullscreen","2","154030","0.0-2.0-0.0","5e1bfb604231d840ef7103d8","A3","batch1","","","","","","","","","","","","","","","","","","","","","","","","","","","","","",""
"","","","","","instructions","3","174669","0.0-2.0-1.0-0.0","5e1bfb604231d840ef7103d8","A3","batch1","[{""page_index"":0,""viewing_time"":4246},{""page_index"":1,""viewing_time"":8824.099999999627},{""page_index"":0,""viewing_time"":5471.9000000003725},{""page_index"":1,""viewing_time"":2095.699999999255}]","20638","","","","","","","","","","","","","","","","","","","","","","","","","","","",""
"","","","","","html-button-response","4","175654","0.0-2.0-1.0-1.0-0.0","5e1bfb604231d840ef7103d8","A3","batch1","","983.7000000001863","<p class=block-text> Let's answer a few questions <br>","0","pattern_enter_quiz","","","","","","","","","","","","","","","","","","","","","","","","",""
"","","","","","html-button-response","5","177453","0.0-2.0-1.0-1.0-1.0","5e1bfb604231d840ef7103d8","A3","batch1","","1798","<p class = block-text>True or False: You will have as much time as you want to make each choice. <br></p>","1","pattern_quiz","true","","","","","","","","","","","","","","","","","","","","","","","",""
"","","","","","html-button-response","6","178165","0.0-2.0-1.0-1.0-2.0","5e1bfb604231d840ef7103d8","A3","batch1","","710.5999999996275","<p class = block-text>Correct! You should make your choice <strong> as fast as you can</strong>.</p>","0","pattern_quiz_feedback","","","","","","","","","","","","","","","","","","","","","","","","",""
"","","","","","html-button-response","7","180725","0.0-2.0-1.0-1.0-3.0","5e1bfb604231d840ef7103d8","A3","batch1","","2558.699999999255","<p class = block-text>True or False: You will look for 4 pieces in black or white color connected in a row either horizontally, vertically or diagonally. <br></p>","0","pattern_quiz","true","","","","","","","","","","","","","","","","","","","","","","","",""
"","","","","","html-button-response","8","181357","0.0-2.0-1.0-1.0-4.0","5e1bfb604231d840ef7103d8","A3","batch1","","631.1000000005588","<p class = block-text>Correct! </p>","0","pattern_quiz_feedback","","","","","","","","","","","","","","","","","","","","","","","","",""
"","","","","","html-button-response","9","182917","0.0-2.0-2.0","5e1bfb604231d840ef7103d8","A3","batch1","","1558.3999999994412","<p class=block-text> Now that you've understood the game, let's do a few practice trials before we start!<br> <br>","0","pattern_enter_practice","","","","","","","","","","","","","","","","","","","","","","","","",""
"","","","","","image-keyboard-response","10","185627","0.0-2.0-3.0-0.0","5e1bfb604231d840ef7103d8","A3","batch1","","2699","stim/prac_no_16_1.png","j","pattern_practice","true","j","","","","","","","","","","","","","","","","","","","","","","",""
"","","","","","html-keyboard-response","11","186639","0.0-2.0-3.0-1.0","5e1bfb604231d840ef7103d8","A3","batch1","","null","<p style=""font-size:30px;color:green;"">Correct!</p>","null","pattern_feedback","","","","","","","","","","","","","","","","","","","","","","","","",""
"","","","","","image-keyboard-response","12","187459","0.0-2.0-3.0-0.1","5e1bfb604231d840ef7103d8","A3","batch1","","818.2999999998137","stim/prac_yes_20_dia_b1.png","f","pattern_practice","true","f","","","","","","","","","","","","","","","","","","","","","","",""
"","","","","","html-keyboard-response","13","188482","0.0-2.0-3.0-1.1","5e1bfb604231d840ef7103d8","A3","batch1","","null","<p style=""font-size:30px;color:green;"">Correct!</p>","null","pattern_feedback","","","","","","","","","","","","","","","","","","","","","","","","",""
"","","","","","image-keyboard-response","14","189346","0.0-2.0-3.0-0.2","5e1bfb604231d840ef7103d8","A3","batch1","","863.2999999998137","stim/prac_yes_16_ver_w1.png","f","pattern_practice","true","f","","","","","","","","","","","","","","","","","","","","","","",""
"","","","","","html-keyboard-response","15","190369","0.0-2.0-3.0-1.2","5e1bfb604231d840ef7103d8","A3","batch1","","null","<p style=""font-size:30px;color:green;"">Correct!</p>","null","pattern_feedback","","","","","","","","","","","","","","","","","","","","","","","","",""
"","","","","","image-keyboard-response","16","191074","0.0-2.0-3.0-0.3","5e1bfb604231d840ef7103d8","A3","batch1","","704.2000000001863","stim/prac_yes_18_hor_w1.png","f","pattern_practice","true","f","","","","","","","","","","","","","","","","","","","","","","",""
"","","","","","html-keyboard-response","17","192093","0.0-2.0-3.0-1.3","5e1bfb604231d840ef7103d8","A3","batch1","","null","<p style=""font-size:30px;color:green;"">Correct!</p>","null","pattern_feedback","","","","","","","","","","","","","","","","","","","","","","","","",""
"","","","","","image-keyboard-response","18","193278","0.0-2.0-3.0-0.4","5e1bfb604231d840ef7103d8","A3","batch1","","1180.7000000001863","stim/prac_no_18_1.png","j","pattern_practice","true","j","","","","","","","","","","","","","","","","","","","","","","",""
"","","","","","html-keyboard-response","19","194282","0.0-2.0-3.0-1.4","5e1bfb604231d840ef7103d8","A3","batch1","","null","<p style=""font-size:30px;color:green;"">Correct!</p>","null","pattern_feedback","","","","","","","","","","","","","","","","","","","","","","","","",""
"","","","","","html-button-response","20","196237","0.0-2.0-4.0","5e1bfb604231d840ef7103d8","A3","batch1","","1953.2000000001863","<p class=block-text> Good job! You are done with practice trials!<br>
        You responded correctly on 100% of the trials.<br>
        Press the button below to start official trials. Now you won't see any feedback about your response</p>","0","pattern_enter_official_trials","","","","","","","","","","","","","","","","","","","","","","","","",""
"","","","","","html-keyboard-response","21","197049","0.0-2.0-5.0-0.0","5e1bfb604231d840ef7103d8","A3","batch1","","null","<p class=block-text>Trial 1 out of 78</p>","null","pattern_show_trial_num","","","","","","","","","","","","","","","","","","","","","","","","",""
"","","","","","image-keyboard-response","22","198171","0.0-2.0-5.0-1.0","5e1bfb604231d840ef7103d8","A3","batch1","","1120.2999999998137","stim/yes_46_ver_b1_b.png","f","pattern_response","true","f","pattern_68","1120.2999999998137","true","1","","","","","","","","","","","","","","","","","","",""
"","","","","","html-keyboard-response","23","199476","0.0-2.0-5.0-0.1","5e1bfb604231d840ef7103d8","A3","batch1","","null","<p class=block-text>Trial 2 out of 78</p>","null","pattern_show_trial_num","","","","","","","","","","","","","","","","","","","","","","","","",""
"","","","","","image-keyboard-response","24","203074","0.0-2.0-5.0-1.1","5e1bfb604231d840ef7103d8","A3","batch1","","3597.5","stim/no_37_2_w.png","j","pattern_response","true","j","pattern_19","3597.5","true","2","","","","","","","","","","","","","","","","","","",""
"","","","","","html-keyboard-response","25","204392","0.0-2.0-5.0-0.2","5e1bfb604231d840ef7103d8","A3","batch1","","null","<p class=block-text>Trial 3 out of 78</p>","null","pattern_show_trial_num","","","","","","","","","","","","","","","","","","","","","","","","",""
"","","","","","image-keyboard-response","26","205282","0.0-2.0-5.0-1.2","5e1bfb604231d840ef7103d8","A3","batch1","","889","stim/yes_15_dia_b1u_b.png","f","pattern_response","true","f","pattern_44","889","true","3","","","","","","","","","","","","","","","","","","",""
"","","","","","html-keyboard-response","27","206589","0.0-2.0-5.0-0.3","5e1bfb604231d840ef7103d8","A3","batch1","","null","<p class=block-text>Trial 4 out of 78</p>","null","pattern_show_trial_num","","","","","","","","","","","","","","","","","","","","","","","","",""
"","","","","","image-keyboard-response","28","207650","0.0-2.0-5.0-1.3","5e1bfb604231d840ef7103d8","A3","batch1","","1059.2999999998137","stim/yes_49_hor_w1_b.png","f","pattern_response","true","f","pattern_70","1059.2999999998137","true","4","","","","","","","","","","","","","","","","","","",""
"","","","","","html-keyboard-response","29","208961","0.0-2.0-5.0-0.4","5e1bfb604231d840ef7103d8","A3","batch1","","null","<p class=block-text>Trial 5 out of 78</p>","null","pattern_show_trial_num","","","","","","","","","","","","","","","","","","","","","","","","",""
"","","","","","image-keyboard-response","30","209738","0.0-2.0-5.0-1.4","5e1bfb604231d840ef7103d8","A3","batch1","","775.3000000007451","stim/yes_26_dia_w2_w.png","f","pattern_response","true","f","pattern_50","775.3000000007451","true","5","","","","","","","","","","","","","","","","","","",""
"","","","","","html-keyboard-response","31","211046","0.0-2.0-5.0-0.5","5e1bfb604231d840ef7103d8","A3","batch1","","null","<p class=block-text>Trial 6 out of 78</p>","null","pattern_show_trial_num","","","","","","","","","","","","","","","","","","","","","","","","",""
"","","","","","image-keyboard-response","32","212050","0.0-2.0-5.0-1.5","5e1bfb604231d840ef7103d8","A3","batch1","","1002.2999999998137","stim/no_22_1_b.png","j","pattern_response","true","j","pattern_07","1002.2999999998137","true","6","","","","","","","","","","","","","","","","","","",""
"","","","","","html-keyboard-response","33","213355","0.0-2.0-5.0-0.6","5e1bfb604231d840ef7103d8","A3","batch1","","null","<p class=block-text>Trial 7 out of 78</p>","null","pattern_show_trial_num","","","","","","","","","","","","","","","","","","","","","","","","",""
"","","","","","image-keyboard-response","34","214186","0.0-2.0-5.0-1.6","5e1bfb604231d840ef7103d8","A3","batch1","","829.1000000005588","stim/yes_23_ver_b1.png","f","pattern_response","true","f","pattern_48","829.1000000005588","true","7","","","","","","","","","","","","","","","","","","",""
"","","","","","html-keyboard-response","35","215492","0.0-2.0-5.0-0.7","5e1bfb604231d840ef7103d8","A3","batch1","","null","<p class=block-text>Trial 8 out of 78</p>","null","pattern_show_trial_num","","","","","","","","","","","","","","","","","","","","","","","","",""
"","","","","","image-keyboard-response","36","220170","0.0-2.0-5.0-1.7","5e1bfb604231d840ef7103d8","A3","batch1","","4676.700000000186","stim/no_33_1_b.png","j","pattern_response","true","j","pattern_15","4676.700000000186","true","8","","","","","","","","","","","","","","","","","","",""
"","","","","","html-keyboard-response","37","221482","0.0-2.0-5.0-0.8","5e1bfb604231d840ef7103d8","A3","batch1","","null","<p class=block-text>Trial 9 out of 78</p>","null","pattern_show_trial_num","","","","","","","","","","","","","","","","","","","","","","","","",""
"","","","","","image-keyboard-response","38","222282","0.0-2.0-5.0-1.8","5e1bfb604231d840ef7103d8","A3","batch1","","797.7000000001863","stim/yes_29_hor_b1_b.png","f","pattern_response","true","f","pattern_52","797.7000000001863","true","9","","","","","","","","","","","","","","","","","","",""
"","","","","","html-keyboard-response","39","223584","0.0-2.0-5.0-0.9","5e1bfb604231d840ef7103d8","A3","batch1","","null","<p class=block-text>Trial 10 out of 78</p>","null","pattern_show_trial_num","","","","","","","","","","","","","","","","","","","","","","","","",""
"","","","","","image-keyboard-response","40","224258","0.0-2.0-5.0-1.9","5e1bfb604231d840ef7103d8","A3","batch1","","672.5","stim/yes_36_ver_w1_w.png","f","pattern_response","true","f","pattern_58","672.5","true","10","","","","","","","","","","","","","","","","","","",""
"","","","","","html-keyboard-response","41","225574","0.0-2.0-5.0-0.10","5e1bfb604231d840ef7103d8","A3","batch1","","null","<p class=block-text>Trial 11 out of 78</p>","null","pattern_show_trial_num","","","","","","","","","","","","","","","","","","","","","","","","",""
"","","","","","image-keyboard-response","42","226337","0.0-2.0-5.0-1.10","5e1bfb604231d840ef7103d8","A3","batch1","","761.5999999996275","stim/yes_39_hor_w1_w.png","f","pattern_response","true","f","pattern_62","761.5999999996275","true","11","","","","","","","","","","","","","","","","","","",""
"","","","","","html-keyboard-response","43","227645","0.0-2.0-5.0-0.11","5e1bfb604231d840ef7103d8","A3","batch1","","null","<p class=block-text>Trial 12 out of 78</p>","null","pattern_show_trial_num","","","","","","","","","","","","","","","","","","","","","","","","",""
"","","","","","image-keyboard-response","44","231626","0.0-2.0-5.0-1.11","5e1bfb604231d840ef7103d8","A3","batch1","","3979.5","stim/no_47_1_b.png","j","pattern_response","true","j","pattern_27","3979.5","true","12","","","","","","","","","","","","","","","","","","",""
"","","","","","html-keyboard-response","45","232956","0.0-2.0-5.0-0.12","5e1bfb604231d840ef7103d8","A3","batch1","","null","<p class=block-text>Trial 13 out of 78</p>","null","pattern_show_trial_num","","","","","","","","","","","","","","","","","","","","","","","","",""
"","","","","","image-keyboard-response","46","234185","0.0-2.0-5.0-1.12","5e1bfb604231d840ef7103d8","A3","batch1","","1227.4000000003725","stim/yes_44_ver_w1_w.png","f","pattern_response","true","f","pattern_66","1227.4000000003725","true","13","","","","","","","","","","","","","","","","","","",""
"","","","","","html-keyboard-response","47","235498","0.0-2.0-5.0-0.13","5e1bfb604231d840ef7103d8","A3","batch1","","null","<p class=block-text>Trial 14 out of 78</p>","null","pattern_show_trial_num","","","","","","","","","","","","","","","","","","","","","","","","",""
"","","","","","image-keyboard-response","48","239081","0.0-2.0-5.0-1.13","5e1bfb604231d840ef7103d8","A3","batch1","","3581.4000000003725","stim/no_36_1_b.png","j","pattern_response","true","j","pattern_17","3581.4000000003725","true","14","","","","","","","","","","","","","","","","","","",""
"","","","","","html-keyboard-response","49","240391","0.0-2.0-5.0-0.14","5e1bfb604231d840ef7103d8","A3","batch1","","null","<p class=block-text>Trial 15 out of 78</p>","null","pattern_show_trial_num","","","","","","","","","","","","","","","","","","","","","","","","",""
"","","","","","image-keyboard-response","50","245210","0.0-2.0-5.0-1.14","5e1bfb604231d840ef7103d8","A3","batch1","","4817.199999999255","stim/no_45_1_w.png","j","pattern_response","true","j","pattern_25","4817.199999999255","true","15","","","","","","","","","","","","","","","","","","",""
"","","","","","html-keyboard-response","51","246530","0.0-2.0-5.0-0.15","5e1bfb604231d840ef7103d8","A3","batch1","","null","<p class=block-text>Trial 16 out of 78</p>","null","pattern_show_trial_num","","","","","","","","","","","","","","","","","","","","","","","","",""
"","","","","","image-keyboard-response","52","247657","0.0-2.0-5.0-1.15","5e1bfb604231d840ef7103d8","A3","batch1","","1125.5999999996275","stim/yes_30_ver_b1_b.png","f","pattern_response","true","f","pattern_54","1125.5999999996275","true","16","","","","","","","","","","","","","","","","","","",""
"","","","","","html-keyboard-response","53","248970","0.0-2.0-5.0-0.16","5e1bfb604231d840ef7103d8","A3","batch1","","null","<p class=block-text>Trial 17 out of 78</p>","null","pattern_show_trial_num","","","","","","","","","","","","","","","","","","","","","","","","",""
"","","","","","image-keyboard-response","54","253025","0.0-2.0-5.0-1.16","5e1bfb604231d840ef7103d8","A3","batch1","","4053.5","stim/yes_42_dia_w1_w.png","j","pattern_response","false","f","pattern_64","4053.5","false","16","","","","","","","","","","","","","","","","","","",""
"","","","","","html-keyboard-response","55","254337","0.0-2.0-5.0-0.17","5e1bfb604231d840ef7103d8","A3","batch1","","null","<p class=block-text>Trial 18 out of 78</p>","null","pattern_show_trial_num","","","","","","","","","","","","","","","","","","","","","","","","",""
"","","","","","image-keyboard-response","56","255953","0.0-2.0-5.0-1.17","5e1bfb604231d840ef7103d8","A3","batch1","","1615.0999999996275","stim/no_18_1_b.png","j","pattern_response","true","j","pattern_05","1615.0999999996275","true","17","","","","","","","","","","","","","","","","","","",""
"","","","","","html-keyboard-response","57","257265","0.0-2.0-5.0-0.18","5e1bfb604231d840ef7103d8","A3","batch1","","null","<p class=block-text>Trial 19 out of 78</p>","null","pattern_show_trial_num","","","","","","","","","","","","","","","","","","","","","","","","",""
"","","","","","image-keyboard-response","58","260065","0.0-2.0-5.0-1.18","5e1bfb604231d840ef7103d8","A3","batch1","","2798.699999999255","stim/no_49_2_b.png","j","pattern_response","true","j","pattern_29","2798.699999999255","true","18","","","","","","","","","","","","","","","","","","",""
"","","","","","html-keyboard-response","59","261370","0.0-2.0-5.0-0.19","5e1bfb604231d840ef7103d8","A3","batch1","","null","<p class=block-text>Trial 20 out of 78</p>","null","pattern_show_trial_num","","","","","","","","","","","","","","","","","","","","","","","","",""
"","","","","","image-keyboard-response","60","263025","0.0-2.0-5.0-1.19","5e1bfb604231d840ef7103d8","A3","batch1","","1653.1000000005588","stim/no_25_1_b.png","j","pattern_response","true","j","pattern_09","1653.1000000005588","true","19","","","","","","","","","","","","","","","","","","",""
"","","","","","html-keyboard-response","61","264335","0.0-2.0-5.0-0.20","5e1bfb604231d840ef7103d8","A3","batch1","","null","<p class=block-text>Trial 21 out of 78</p>","null","pattern_show_trial_num","","","","","","","","","","","","","","","","","","","","","","","","",""
"","","","","","image-keyboard-response","62","265201","0.0-2.0-5.0-1.20","5e1bfb604231d840ef7103d8","A3","batch1","","864","stim/yes_37_hor_w1_w.png","f","pattern_response","true","f","pattern_60","864","true","20","","","","","","","","","","","","","","","","","","",""
"","","","","","html-keyboard-response","63","266505","0.0-2.0-5.0-0.21","5e1bfb604231d840ef7103d8","A3","batch1","","null","<p class=block-text>Trial 22 out of 78</p>","null","pattern_show_trial_num","","","","","","","","","","","","","","","","","","","","","","","","",""
"","","","","","image-keyboard-response","64","269505","0.0-2.0-5.0-1.21","5e1bfb604231d840ef7103d8","A3","batch1","","2998.2000000001863","stim/no_30_1_b.png","j","pattern_response","true","j","pattern_13","2998.2000000001863","true","21","","","","","","","","","","","","","","","","","","",""
"","","","","","html-keyboard-response","65","270814","0.0-2.0-5.0-0.22","5e1bfb604231d840ef7103d8","A3","batch1","","null","<p class=block-text>Trial 23 out of 78</p>","null","pattern_show_trial_num","","","","","","","","","","","","","","","","","","","","","","","","",""
"","","","","","image-keyboard-response","66","272345","0.0-2.0-5.0-1.22","5e1bfb604231d840ef7103d8","A3","batch1","","1529.5","stim/yes_53_ver_b1_b.png","f","pattern_response","true","f","pattern_74","1529.5","true","22","","","","","","","","","","","","","","","","","","",""
"","","","","","html-keyboard-response","67","273653","0.0-2.0-5.0-0.23","5e1bfb604231d840ef7103d8","A3","batch1","","null","<p class=block-text>Trial 24 out of 78</p>","null","pattern_show_trial_num","","","","","","","","","","","","","","","","","","","","","","","","",""
"","","","","","image-keyboard-response","68","274465","0.0-2.0-5.0-1.23","5e1bfb604231d840ef7103d8","A3","batch1","","810.7999999998137","stim/yes_33_dia_w1_w.png","f","pattern_response","true","f","pattern_56","810.7999999998137","true","23","","","","","","","","","","","","","","","","","","",""
"","","","","","html-keyboard-response","69","275772","0.0-2.0-5.0-0.24","5e1bfb604231d840ef7103d8","A3","batch1","","null","<p class=block-text>Trial 25 out of 78</p>","null","pattern_show_trial_num","","","","","","","","","","","","","","","","","","","","","","","","",""
"","","","","","image-keyboard-response","70","279969","0.0-2.0-5.0-1.24","5e1bfb604231d840ef7103d8","A3","batch1","","4195.600000000559","stim/no_51_1.png","j","pattern_response","true","j","pattern_31","4195.600000000559","true","24","","","","","","","","","","","","","","","","","","",""
"","","","","","html-keyboard-response","71","281282","0.0-2.0-5.0-0.25","5e1bfb604231d840ef7103d8","A3","batch1","","null","<p class=block-text>Trial 26 out of 78</p>","null","pattern_show_trial_num","","","","","","","","","","","","","","","","","","","","","","","","",""
"","","","","","image-keyboard-response","72","288281","0.0-2.0-5.0-1.25","5e1bfb604231d840ef7103d8","A3","batch1","","6997.5999999996275","stim/no_53_1_b.png","j","pattern_response","true","j","pattern_33","6997.5999999996275","true","25","","","","","","","","","","","","","","","","","","",""
"","","","","","html-keyboard-response","73","289588","0.0-2.0-5.0-0.26","5e1bfb604231d840ef7103d8","A3","batch1","","null","<p class=block-text>Trial 27 out of 78</p>","null","pattern_show_trial_num","","","","","","","","","","","","","","","","","","","","","","","","",""
"","","","","","image-keyboard-response","74","292017","0.0-2.0-5.0-1.26","5e1bfb604231d840ef7103d8","A3","batch1","","2427.0999999996275","stim/no_15_1_w.png","j","pattern_response","true","j","pattern_03","2427.0999999996275","true","26","","","","","","","","","","","","","","","","","","",""
"","","","","","html-keyboard-response","75","293333","0.0-2.0-5.0-0.27","5e1bfb604231d840ef7103d8","A3","batch1","","null","<p class=block-text>Trial 28 out of 78</p>","null","pattern_show_trial_num","","","","","","","","","","","","","","","","","","","","","","","","",""
"","","","","","image-keyboard-response","76","296777","0.0-2.0-5.0-1.27","5e1bfb604231d840ef7103d8","A3","batch1","","3442","stim/yes_63_dia_b1.png","f","pattern_response","true","f","pattern_78","3442","true","27","","","","","","","","","","","","","","","","","","",""
"","","","","","html-keyboard-response","77","298092","0.0-2.0-5.0-0.28","5e1bfb604231d840ef7103d8","A3","batch1","","null","<p class=block-text>Trial 29 out of 78</p>","null","pattern_show_trial_num","","","","","","","","","","","","","","","","","","","","","","","","",""
"","","","","","image-keyboard-response","78","299145","0.0-2.0-5.0-1.28","5e1bfb604231d840ef7103d8","A3","batch1","","1051.4000000003725","stim/yes_51_dia_b1.png","f","pattern_response","true","f","pattern_72","1051.4000000003725","true","28","","","","","","","","","","","","","","","","","","",""
"","","","","","html-keyboard-response","79","300455","0.0-2.0-5.0-0.29","5e1bfb604231d840ef7103d8","A3","batch1","","null","<p class=block-text>Trial 30 out of 78</p>","null","pattern_show_trial_num","","","","","","","","","","","","","","","","","","","","","","","","",""
"","","","","","image-keyboard-response","80","316209","0.0-2.0-5.0-1.29","5e1bfb604231d840ef7103d8","A3","batch1","","15752.200000000186","stim/no_67_1.png","j","pattern_response","true","j","pattern_39","15752.200000000186","true","29","","","","","","","","","","","","","","","","","","",""
"","","","","","html-keyboard-response","81","317522","0.0-2.0-5.0-0.30","5e1bfb604231d840ef7103d8","A3","batch1","","null","<p class=block-text>Trial 31 out of 78</p>","null","pattern_show_trial_num","","","","","","","","","","","","","","","","","","","","","","","","",""
"","","","","","image-keyboard-response","82","320233","0.0-2.0-5.0-1.30","5e1bfb604231d840ef7103d8","A3","batch1","","2708.5999999996275","stim/no_28_2.png","j","pattern_response","true","j","pattern_11","2708.5999999996275","true","30","","","","","","","","","","","","","","","","","","",""
"","","","","","html-keyboard-response","83","321549","0.0-2.0-5.0-0.31","5e1bfb604231d840ef7103d8","A3","batch1","","null","<p class=block-text>Trial 32 out of 78</p>","null","pattern_show_trial_num","","","","","","","","","","","","","","","","","","","","","","","","",""
"","","","","","image-keyboard-response","84","322264","0.0-2.0-5.0-1.31","5e1bfb604231d840ef7103d8","A3","batch1","","714.2000000001863","stim/no_12_1.png","j","pattern_response","true","j","pattern_01","714.2000000001863","true","31","","","","","","","","","","","","","","","","","","",""
"","","","","","html-keyboard-response","85","323572","0.0-2.0-5.0-0.32","5e1bfb604231d840ef7103d8","A3","batch1","","null","<p class=block-text>Trial 33 out of 78</p>","null","pattern_show_trial_num","","","","","","","","","","","","","","","","","","","","","","","","",""
"","","","","","image-keyboard-response","86","327553","0.0-2.0-5.0-1.32","5e1bfb604231d840ef7103d8","A3","batch1","","3979.2000000001863","stim/yes_58_dia_w1_w.png","f","pattern_response","true","f","pattern_76","3979.2000000001863","true","32","","","","","","","","","","","","","","","","","","",""
"","","","","","html-keyboard-response","87","328871","0.0-2.0-5.0-0.33","5e1bfb604231d840ef7103d8","A3","batch1","","null","<p class=block-text>Trial 34 out of 78</p>","null","pattern_show_trial_num","","","","","","","","","","","","","","","","","","","","","","","","",""
"","","","","","image-keyboard-response","88","329585","0.0-2.0-5.0-1.33","5e1bfb604231d840ef7103d8","A3","batch1","","712.0999999996275","stim/yes_12_hor_w1_w.png","f","pattern_response","true","f","pattern_42","712.0999999996275","true","33","","","","","","","","","","","","","","","","","","",""
"","","","","","html-keyboard-response","89","330902","0.0-2.0-5.0-0.34","5e1bfb604231d840ef7103d8","A3","batch1","","null","<p class=block-text>Trial 35 out of 78</p>","null","pattern_show_trial_num","","","","","","","","","","","","","","","","","","","","","","","","",""
"","","","","","image-keyboard-response","90","342345","0.0-2.0-5.0-1.34","5e1bfb604231d840ef7103d8","A3","batch1","","11442.200000000186","stim/no_58_1_w.png","j","pattern_response","true","j","pattern_35","11442.200000000186","true","34","","","","","","","","","","","","","","","","","","",""
"","","","","","html-keyboard-response","91","343652","0.0-2.0-5.0-0.35","5e1bfb604231d840ef7103d8","A3","batch1","","null","<p class=block-text>Trial 36 out of 78</p>","null","pattern_show_trial_num","","","","","","","","","","","","","","","","","","","","","","","","",""
"","","","","","image-keyboard-response","92","347890","0.0-2.0-5.0-1.35","5e1bfb604231d840ef7103d8","A3","batch1","","4236.299999999814","stim/no_39_1_w.png","j","pattern_response","true","j","pattern_21","4236.299999999814","true","35","","","","","","","","","","","","","","","","","","",""
"","","","","","html-keyboard-response","93","349204","0.0-2.0-5.0-0.36","5e1bfb604231d840ef7103d8","A3","batch1","","null","<p class=block-text>Trial 37 out of 78</p>","null","pattern_show_trial_num","","","","","","","","","","","","","","","","","","","","","","","","",""
"","","","","","image-keyboard-response","94","350145","0.0-2.0-5.0-1.36","5e1bfb604231d840ef7103d8","A3","batch1","","938.9000000003725","stim/yes_17_ver_b1_b.png","f","pattern_response","true","f","pattern_46","938.9000000003725","true","36","","","","","","","","","","","","","","","","","","",""
"","","","","","html-keyboard-response","95","351457","0.0-2.0-5.0-0.37","5e1bfb604231d840ef7103d8","A3","batch1","","null","<p class=block-text>Trial 38 out of 78</p>","null","pattern_show_trial_num","","","","","","","","","","","","","","","","","","","","","","","","",""
"","","","","","image-keyboard-response","96","352097","0.0-2.0-5.0-1.37","5e1bfb604231d840ef7103d8","A3","batch1","","638.0999999996275","stim/yes_70_ver_b1.png","f","pattern_response","true","f","pattern_80","638.0999999996275","true","37","","","","","","","","","","","","","","","","","","",""
"","","","","","html-keyboard-response","97","353416","0.0-2.0-5.0-0.38","5e1bfb604231d840ef7103d8","A3","batch1","","null","<p class=block-text>Trial 39 out of 78</p>","null","pattern_show_trial_num","","","","","","","","","","","","","","","","","","","","","","","","",""
"","","","","","image-keyboard-response","98","357681","0.0-2.0-5.0-1.38","5e1bfb604231d840ef7103d8","A3","batch1","","4263.5999999996275","stim/no_43_2_b.png","j","pattern_response","true","j","pattern_23","4263.5999999996275","true","38","","","","","","","","","","","","","","","","","","",""
"","","","","","image-keyboard-response","99","359225","0.0-2.0-6.0","5e1bfb604231d840ef7103d8","A3","batch1","","1026.7999999998137","stim/empty_board.png","j","attention_check","true","j","","","","","500","[""f"",""j""]","","","","","","","","","","","","","","","","",""
"","","","","","html-keyboard-response","100","360027","0.0-2.0-7.0-0.0","5e1bfb604231d840ef7103d8","A3","batch1","","null","<p class=block-text>Trial 40 out of 78</p>","null","pattern_show_trial_num","","","","","","","","","","","","","","","","","","","","","","","","",""
"","","","","","image-keyboard-response","101","361193","0.0-2.0-7.0-1.0","5e1bfb604231d840ef7103d8","A3","batch1","","1164.2000000001863","stim/yes_14_hor_b1_w.png","f","pattern_response","true","f","pattern_43","1164.2000000001863","true","39","","","","","","","","","","","","","","","","","","",""
"","","","","","html-keyboard-response","102","362515","0.0-2.0-7.0-0.1","5e1bfb604231d840ef7103d8","A3","batch1","","null","<p class=block-text>Trial 41 out of 78</p>","null","pattern_show_trial_num","","","","","","","","","","","","","","","","","","","","","","","","",""
"","","","","","image-keyboard-response","103","363537","0.0-2.0-7.0-1.1","5e1bfb604231d840ef7103d8","A3","batch1","","1020.5","stim/yes_22_ver_w1.png","f","pattern_response","true","f","pattern_47","1020.5","true","40","","","","","","","","","","","","","","","","","","",""
"","","","","","html-keyboard-response","104","364852","0.0-2.0-7.0-0.2","5e1bfb604231d840ef7103d8","A3","batch1","","null","<p class=block-text>Trial 42 out of 78</p>","null","pattern_show_trial_num","","","","","","","","","","","","","","","","","","","","","","","","",""
"","","","","","image-keyboard-response","105","374505","0.0-2.0-7.0-1.2","5e1bfb604231d840ef7103d8","A3","batch1","","9651.5","stim/no_70_2.png","j","pattern_response","true","j","pattern_40","9651.5","true","41","","","","","","","","","","","","","","","","","","",""
"","","","","","html-keyboard-response","106","375821","0.0-2.0-7.0-0.3","5e1bfb604231d840ef7103d8","A3","batch1","","null","<p class=block-text>Trial 43 out of 78</p>","null","pattern_show_trial_num","","","","","","","","","","","","","","","","","","","","","","","","",""
"","","","","","image-keyboard-response","107","379633","0.0-2.0-7.0-1.3","5e1bfb604231d840ef7103d8","A3","batch1","","3809.600000000559","stim/no_38_1_b.png","j","pattern_response","true","j","pattern_20","3809.600000000559","true","42","","","","","","","","","","","","","","","","","","",""
"","","","","","html-keyboard-response","108","380957","0.0-2.0-7.0-0.4","5e1bfb604231d840ef7103d8","A3","batch1","","null","<p class=block-text>Trial 44 out of 78</p>","null","pattern_show_trial_num","","","","","","","","","","","","","","","","","","","","","","","","",""
"","","","","","image-keyboard-response","109","382232","0.0-2.0-7.0-1.4","5e1bfb604231d840ef7103d8","A3","batch1","","1274.0999999996275","stim/no_17_1_w.png","j","pattern_response","true","j","pattern_04","1274.0999999996275","true","43","","","","","","","","","","","","","","","","","","",""
"","","","","","html-keyboard-response","110","383542","0.0-2.0-7.0-0.5","5e1bfb604231d840ef7103d8","A3","batch1","","null","<p class=block-text>Trial 45 out of 78</p>","null","pattern_show_trial_num","","","","","","","","","","","","","","","","","","","","","","","","",""
"","","","","","image-keyboard-response","111","393200","0.0-2.0-7.0-1.5","5e1bfb604231d840ef7103d8","A3","batch1","","9657.099999999627","stim/no_65_1_b.png","j","pattern_response","true","j","pattern_38","9657.099999999627","true","44","","","","","","","","","","","","","","","","","","",""
"","","","","","html-keyboard-response","112","394516","0.0-2.0-7.0-0.6","5e1bfb604231d840ef7103d8","A3","batch1","","null","<p class=block-text>Trial 46 out of 78</p>","null","pattern_show_trial_num","","","","","","","","","","","","","","","","","","","","","","","","",""
"","","","","","image-keyboard-response","113","399329","0.0-2.0-7.0-1.6","5e1bfb604231d840ef7103d8","A3","batch1","","4810.799999999814","stim/no_44_1.png","j","pattern_response","true","j","pattern_24","4810.799999999814","true","45","","","","","","","","","","","","","","","","","","",""
"","","","","","html-keyboard-response","114","400639","0.0-2.0-7.0-0.7","5e1bfb604231d840ef7103d8","A3","batch1","","null","<p class=block-text>Trial 47 out of 78</p>","null","pattern_show_trial_num","","","","","","","","","","","","","","","","","","","","","","","","",""
"","","","","","image-keyboard-response","115","406792","0.0-2.0-7.0-1.7","5e1bfb604231d840ef7103d8","A3","batch1","","6151.5","stim/no_62_1_w.png","j","pattern_response","true","j","pattern_36","6151.5","true","46","","","","","","","","","","","","","","","","","","",""
"","","","","","html-keyboard-response","116","408101","0.0-2.0-7.0-0.8","5e1bfb604231d840ef7103d8","A3","batch1","","null","<p class=block-text>Trial 48 out of 78</p>","null","pattern_show_trial_num","","","","","","","","","","","","","","","","","","","","","","","","",""
"","","","","","image-keyboard-response","117","409248","0.0-2.0-7.0-1.8","5e1bfb604231d840ef7103d8","A3","batch1","","1145.0999999996275","stim/yes_55_hor_w1_w.png","f","pattern_response","true","f","pattern_75","1145.0999999996275","true","47","","","","","","","","","","","","","","","","","","",""
"","","","","","html-keyboard-response","118","410553","0.0-2.0-7.0-0.9","5e1bfb604231d840ef7103d8","A3","batch1","","null","<p class=block-text>Trial 49 out of 78</p>","null","pattern_show_trial_num","","","","","","","","","","","","","","","","","","","","","","","","",""
"","","","","","image-keyboard-response","119","411384","0.0-2.0-7.0-1.9","5e1bfb604231d840ef7103d8","A3","batch1","","830","stim/yes_43_ver_w1_w.png","f","pattern_response","true","f","pattern_65","830","true","48","","","","","","","","","","","","","","","","","","",""
"","","","","","html-keyboard-response","120","412707","0.0-2.0-7.0-0.10","5e1bfb604231d840ef7103d8","A3","batch1","","null","<p class=block-text>Trial 50 out of 78</p>","null","pattern_show_trial_num","","","","","","","","","","","","","","","","","","","","","","","","",""
"","","","","","image-keyboard-response","121","418288","0.0-2.0-7.0-1.10","5e1bfb604231d840ef7103d8","A3","batch1","","5579.5999999996275","stim/no_50_1.png","j","pattern_response","true","j","pattern_30","5579.5999999996275","true","49","","","","","","","","","","","","","","","","","","",""
"","","","","","html-keyboard-response","122","419596","0.0-2.0-7.0-0.11","5e1bfb604231d840ef7103d8","A3","batch1","","null","<p class=block-text>Trial 51 out of 78</p>","null","pattern_show_trial_num","","","","","","","","","","","","","","","","","","","","","","","","",""
"","","","","","image-keyboard-response","123","420464","0.0-2.0-7.0-1.11","5e1bfb604231d840ef7103d8","A3","batch1","","866.2000000001863","stim/yes_67_hor_b1.png","f","pattern_response","true","f","pattern_79","866.2000000001863","true","50","","","","","","","","","","","","","","","","","","",""
"","","","","","html-keyboard-response","124","421785","0.0-2.0-7.0-0.12","5e1bfb604231d840ef7103d8","A3","batch1","","null","<p class=block-text>Trial 52 out of 78</p>","null","pattern_show_trial_num","","","","","","","","","","","","","","","","","","","","","","","","",""
"","","","","","image-keyboard-response","125","422520","0.0-2.0-7.0-1.12","5e1bfb604231d840ef7103d8","A3","batch1","","733.3999999994412","stim/yes_25_hor_b1_b.png","f","pattern_response","true","f","pattern_49","733.3999999994412","true","51","","","","","","","","","","","","","","","","","","",""
"","","","","","html-keyboard-response","126","423825","0.0-2.0-7.0-0.13","5e1bfb604231d840ef7103d8","A3","batch1","","null","<p class=block-text>Trial 53 out of 78</p>","null","pattern_show_trial_num","","","","","","","","","","","","","","","","","","","","","","","","",""
"","","","","","image-keyboard-response","127","424816","0.0-2.0-7.0-1.13","5e1bfb604231d840ef7103d8","A3","batch1","","989.4000000003725","stim/yes_60_ver_b1_b.png","f","pattern_response","true","f","pattern_77","989.4000000003725","true","52","","","","","","","","","","","","","","","","","","",""
"","","","","","html-keyboard-response","128","426135","0.0-2.0-7.0-0.14","5e1bfb604231d840ef7103d8","A3","batch1","","null","<p class=block-text>Trial 54 out of 78</p>","null","pattern_show_trial_num","","","","","","","","","","","","","","","","","","","","","","","","",""
"","","","","","image-keyboard-response","129","429888","0.0-2.0-7.0-1.14","5e1bfb604231d840ef7103d8","A3","batch1","","3750.7000000001863","stim/yes_52_ver_w1.png","f","pattern_response","true","f","pattern_73","3750.7000000001863","true","53","","","","","","","","","","","","","","","","","","",""
"","","","","","html-keyboard-response","130","431193","0.0-2.0-7.0-0.15","5e1bfb604231d840ef7103d8","A3","batch1","","null","<p class=block-text>Trial 55 out of 78</p>","null","pattern_show_trial_num","","","","","","","","","","","","","","","","","","","","","","","","",""
"","","","","","image-keyboard-response","131","437295","0.0-2.0-7.0-1.15","5e1bfb604231d840ef7103d8","A3","batch1","","6101.100000000559","stim/yes_37_dia_w1.png","j","pattern_response","false","f","pattern_59","6101.100000000559","false","53","","","","","","","","","","","","","","","","","","",""
"","","","","","html-keyboard-response","132","438621","0.0-2.0-7.0-0.16","5e1bfb604231d840ef7103d8","A3","batch1","","null","<p class=block-text>Trial 56 out of 78</p>","null","pattern_show_trial_num","","","","","","","","","","","","","","","","","","","","","","","","",""
"","","","","","image-keyboard-response","133","440496","0.0-2.0-7.0-1.16","5e1bfb604231d840ef7103d8","A3","batch1","","1872.7000000001863","stim/no_23_1.png","j","pattern_response","true","j","pattern_08","1872.7000000001863","true","54","","","","","","","","","","","","","","","","","","",""
"","","","","","html-keyboard-response","134","441808","0.0-2.0-7.0-0.17","5e1bfb604231d840ef7103d8","A3","batch1","","null","<p class=block-text>Trial 57 out of 78</p>","null","pattern_show_trial_num","","","","","","","","","","","","","","","","","","","","","","","","",""
"","","","","","image-keyboard-response","135","447519","0.0-2.0-7.0-1.17","5e1bfb604231d840ef7103d8","A3","batch1","","5710","stim/no_46_1_b.png","j","pattern_response","true","j","pattern_26","5710","true","55","","","","","","","","","","","","","","","","","","",""
"","","","","","html-keyboard-response","136","448837","0.0-2.0-7.0-0.18","5e1bfb604231d840ef7103d8","A3","batch1","","null","<p class=block-text>Trial 58 out of 78</p>","null","pattern_show_trial_num","","","","","","","","","","","","","","","","","","","","","","","","",""
"","","","","","image-keyboard-response","137","449831","0.0-2.0-7.0-1.18","5e1bfb604231d840ef7103d8","A3","batch1","","992.5999999996275","stim/yes_28_ver_b1.png","f","pattern_response","true","f","pattern_51","992.5999999996275","true","56","","","","","","","","","","","","","","","","","","",""
"","","","","","html-keyboard-response","138","451148","0.0-2.0-7.0-0.19","5e1bfb604231d840ef7103d8","A3","batch1","","null","<p class=block-text>Trial 59 out of 78</p>","null","pattern_show_trial_num","","","","","","","","","","","","","","","","","","","","","","","","",""
"","","","","","image-keyboard-response","139","452240","0.0-2.0-7.0-1.19","5e1bfb604231d840ef7103d8","A3","batch1","","1090.2999999998137","stim/yes_35_dia_b1.png","f","pattern_response","true","f","pattern_57","1090.2999999998137","true","57","","","","","","","","","","","","","","","","","","",""
"","","","","","html-keyboard-response","140","453544","0.0-2.0-7.0-0.20","5e1bfb604231d840ef7103d8","A3","batch1","","null","<p class=block-text>Trial 60 out of 78</p>","null","pattern_show_trial_num","","","","","","","","","","","","","","","","","","","","","","","","",""
"","","","","","image-keyboard-response","141","455376","0.0-2.0-7.0-1.20","5e1bfb604231d840ef7103d8","A3","batch1","","1830.5","stim/yes_38_hor_b1_b.png","f","pattern_response","true","f","pattern_61","1830.5","true","58","","","","","","","","","","","","","","","","","","",""
"","","","","","html-keyboard-response","142","456687","0.0-2.0-7.0-0.21","5e1bfb604231d840ef7103d8","A3","batch1","","null","<p class=block-text>Trial 61 out of 78</p>","null","pattern_show_trial_num","","","","","","","","","","","","","","","","","","","","","","","","",""
"","","","","","image-keyboard-response","143","457616","0.0-2.0-7.0-1.21","5e1bfb604231d840ef7103d8","A3","batch1","","926.9000000003725","stim/yes_17_dia_w1.png","f","pattern_response","true","f","pattern_45","926.9000000003725","true","59","","","","","","","","","","","","","","","","","","",""
"","","","","","html-keyboard-response","144","458924","0.0-2.0-7.0-0.22","5e1bfb604231d840ef7103d8","A3","batch1","","null","<p class=block-text>Trial 62 out of 78</p>","null","pattern_show_trial_num","","","","","","","","","","","","","","","","","","","","","","","","",""
"","","","","","image-keyboard-response","145","464352","0.0-2.0-7.0-1.22","5e1bfb604231d840ef7103d8","A3","batch1","","5427","stim/no_48_1_w.png","j","pattern_response","true","j","pattern_28","5427","true","60","","","","","","","","","","","","","","","","","","",""
"","","","","","html-keyboard-response","146","465669","0.0-2.0-7.0-0.23","5e1bfb604231d840ef7103d8","A3","batch1","","null","<p class=block-text>Trial 63 out of 78</p>","null","pattern_show_trial_num","","","","","","","","","","","","","","","","","","","","","","","","",""
"","","","","","image-keyboard-response","147","466887","0.0-2.0-7.0-1.23","5e1bfb604231d840ef7103d8","A3","batch1","","1216.7000000001863","stim/no_20_1_w.png","j","pattern_response","true","j","pattern_06","1216.7000000001863","true","61","","","","","","","","","","","","","","","","","","",""
"","","","","","html-keyboard-response","148","468209","0.0-2.0-7.0-0.24","5e1bfb604231d840ef7103d8","A3","batch1","","null","<p class=block-text>Trial 64 out of 78</p>","null","pattern_show_trial_num","","","","","","","","","","","","","","","","","","","","","","","","",""
"","","","","","image-keyboard-response","149","470464","0.0-2.0-7.0-1.24","5e1bfb604231d840ef7103d8","A3","batch1","","2253.2000000001863","stim/no_34_1_b.png","j","pattern_response","true","j","pattern_16","2253.2000000001863","true","62","","","","","","","","","","","","","","","","","","",""
"","","","","","html-keyboard-response","150","471786","0.0-2.0-7.0-0.25","5e1bfb604231d840ef7103d8","A3","batch1","","null","<p class=block-text>Trial 65 out of 78</p>","null","pattern_show_trial_num","","","","","","","","","","","","","","","","","","","","","","","","",""
"","","","","","image-keyboard-response","151","475064","0.0-2.0-7.0-1.25","5e1bfb604231d840ef7103d8","A3","batch1","","3276.4000000003725","stim/no_42_1_w.png","j","pattern_response","true","j","pattern_22","3276.4000000003725","true","63","","","","","","","","","","","","","","","","","","",""
"","","","","","html-keyboard-response","152","476375","0.0-2.0-7.0-0.26","5e1bfb604231d840ef7103d8","A3","batch1","","null","<p class=block-text>Trial 66 out of 78</p>","null","pattern_show_trial_num","","","","","","","","","","","","","","","","","","","","","","","","",""
"","","","","","image-keyboard-response","153","480119","0.0-2.0-7.0-1.26","5e1bfb604231d840ef7103d8","A3","batch1","","3742.5","stim/yes_31_hor_b1.png","f","pattern_response","true","f","pattern_55","3742.5","true","64","","","","","","","","","","","","","","","","","","",""
"","","","","","html-keyboard-response","154","481434","0.0-2.0-7.0-0.27","5e1bfb604231d840ef7103d8","A3","batch1","","null","<p class=block-text>Trial 67 out of 78</p>","null","pattern_show_trial_num","","","","","","","","","","","","","","","","","","","","","","","","",""
"","","","","","image-keyboard-response","155","482567","0.0-2.0-7.0-1.27","5e1bfb604231d840ef7103d8","A3","batch1","","1131.5","stim/no_26_1_w.png","j","pattern_response","true","j","pattern_10","1131.5","true","65","","","","","","","","","","","","","","","","","","",""
"","","","","","html-keyboard-response","156","483873","0.0-2.0-7.0-0.28","5e1bfb604231d840ef7103d8","A3","batch1","","null","<p class=block-text>Trial 68 out of 78</p>","null","pattern_show_trial_num","","","","","","","","","","","","","","","","","","","","","","","","",""
"","","","","","image-keyboard-response","157","485599","0.0-2.0-7.0-1.28","5e1bfb604231d840ef7103d8","A3","batch1","","1724.800000000745","stim/yes_29_ver_w1.png","f","pattern_response","true","f","pattern_53","1724.800000000745","true","66","","","","","","","","","","","","","","","","","","",""
"","","","","","html-keyboard-response","158","486907","0.0-2.0-7.0-0.29","5e1bfb604231d840ef7103d8","A3","batch1","","null","<p class=block-text>Trial 69 out of 78</p>","null","pattern_show_trial_num","","","","","","","","","","","","","","","","","","","","","","","","",""
"","","","","","image-keyboard-response","159","491639","0.0-2.0-7.0-1.29","5e1bfb604231d840ef7103d8","A3","batch1","","4730.5999999996275","stim/no_55_1_w.png","j","pattern_response","true","j","pattern_34","4730.5999999996275","true","67","","","","","","","","","","","","","","","","","","",""
"","","","","","html-keyboard-response","160","492954","0.0-2.0-7.0-0.30","5e1bfb604231d840ef7103d8","A3","batch1","","null","<p class=block-text>Trial 70 out of 78</p>","null","pattern_show_trial_num","","","","","","","","","","","","","","","","","","","","","","","","",""
"","","","","","image-keyboard-response","161","498839","0.0-2.0-7.0-1.30","5e1bfb604231d840ef7103d8","A3","batch1","","5884.0999999996275","stim/yes_45_hor_b2_b.png","j","pattern_response","false","f","pattern_67","5884.0999999996275","false","67","","","","","","","","","","","","","","","","","","",""
"","","","","","html-keyboard-response","162","500166","0.0-2.0-7.0-0.31","5e1bfb604231d840ef7103d8","A3","batch1","","null","<p class=block-text>Trial 71 out of 78</p>","null","pattern_show_trial_num","","","","","","","","","","","","","","","","","","","","","","","","",""
"","","","","","image-keyboard-response","163","503791","0.0-2.0-7.0-1.31","5e1bfb604231d840ef7103d8","A3","batch1","","3623.7000000001863","stim/no_32_1_w.png","j","pattern_response","true","j","pattern_14","3623.7000000001863","true","68","","","","","","","","","","","","","","","","","","",""
"","","","","","html-keyboard-response","164","505097","0.0-2.0-7.0-0.32","5e1bfb604231d840ef7103d8","A3","batch1","","null","<p class=block-text>Trial 72 out of 78</p>","null","pattern_show_trial_num","","","","","","","","","","","","","","","","","","","","","","","","",""
"","","","","","image-keyboard-response","165","507015","0.0-2.0-7.0-1.32","5e1bfb604231d840ef7103d8","A3","batch1","","1916.7000000001863","stim/yes_40_dia_b1_b.png","f","pattern_response","true","f","pattern_63","1916.7000000001863","true","69","","","","","","","","","","","","","","","","","","",""
"","","","","","html-keyboard-response","166","508322","0.0-2.0-7.0-0.33","5e1bfb604231d840ef7103d8","A3","batch1","","null","<p class=block-text>Trial 73 out of 78</p>","null","pattern_show_trial_num","","","","","","","","","","","","","","","","","","","","","","","","",""
"","","","","","image-keyboard-response","167","511615","0.0-2.0-7.0-1.33","5e1bfb604231d840ef7103d8","A3","batch1","","3291.5","stim/no_29_1_b.png","j","pattern_response","true","j","pattern_12","3291.5","true","70","","","","","","","","","","","","","","","","","","",""
"","","","","","html-keyboard-response","168","512930","0.0-2.0-7.0-0.34","5e1bfb604231d840ef7103d8","A3","batch1","","null","<p class=block-text>Trial 74 out of 78</p>","null","pattern_show_trial_num","","","","","","","","","","","","","","","","","","","","","","","","",""
"","","","","","image-keyboard-response","169","517078","0.0-2.0-7.0-1.34","5e1bfb604231d840ef7103d8","A3","batch1","","4147.5","stim/no_52_1.png","j","pattern_response","true","j","pattern_32","4147.5","true","71","","","","","","","","","","","","","","","","","","",""
"","","","","","html-keyboard-response","170","518398","0.0-2.0-7.0-0.35","5e1bfb604231d840ef7103d8","A3","batch1","","null","<p class=block-text>Trial 75 out of 78</p>","null","pattern_show_trial_num","","","","","","","","","","","","","","","","","","","","","","","","",""
"","","","","","image-keyboard-response","171","520318","0.0-2.0-7.0-1.35","5e1bfb604231d840ef7103d8","A3","batch1","","1919","stim/yes_48_dia_w1_w.png","f","pattern_response","true","f","pattern_69","1919","true","72","","","","","","","","","","","","","","","","","","",""
"","","","","","html-keyboard-response","172","521624","0.0-2.0-7.0-0.36","5e1bfb604231d840ef7103d8","A3","batch1","","null","<p class=block-text>Trial 76 out of 78</p>","null","pattern_show_trial_num","","","","","","","","","","","","","","","","","","","","","","","","",""
"","","","","","image-keyboard-response","173","525766","0.0-2.0-7.0-1.36","5e1bfb604231d840ef7103d8","A3","batch1","","4140.5","stim/yes_50_dia_w1.png","j","pattern_response","false","f","pattern_71","4140.5","false","72","","","","","","","","","","","","","","","","","","",""
"","","","","","html-keyboard-response","174","527079","0.0-2.0-7.0-0.37","5e1bfb604231d840ef7103d8","A3","batch1","","null","<p class=block-text>Trial 77 out of 78</p>","null","pattern_show_trial_num","","","","","","","","","","","","","","","","","","","","","","","","",""
"","","","","","image-keyboard-response","175","528038","0.0-2.0-7.0-1.37","5e1bfb604231d840ef7103d8","A3","batch1","","957.9000000003725","stim/no_13_2_b.png","j","pattern_response","true","j","pattern_02","957.9000000003725","true","73","","","","","","","","","","","","","","","","","","",""
"","","","","","html-keyboard-response","176","529349","0.0-2.0-7.0-0.38","5e1bfb604231d840ef7103d8","A3","batch1","","null","<p class=block-text>Trial 78 out of 78</p>","null","pattern_show_trial_num","","","","","","","","","","","","","","","","","","","","","","","","",""
"","","","","","image-keyboard-response","177","534374","0.0-2.0-7.0-1.38","5e1bfb604231d840ef7103d8","A3","batch1","","5024.0999999996275","stim/no_36_2_w.png","j","pattern_response","true","j","pattern_18","5024.0999999996275","true","74","","","","","","","","","","","","","","","","","","",""
"","","","","","html-button-response","178","565152","0.0-2.0-8.0","5e1bfb604231d840ef7103d8","A3","batch1","","30272.60000000056","<p class = block-text>This concludes the 4-in-a-row detection game.Thank you for your responses!<br>
            You responded correctly on 95% of the trials.<br>
            When you are ready, press ""Continue"" button to continue </p>","0","","","","","","","","","","","","","","","","","","","","","","","","","",""
"true","","","","","fullscreen","179","617507","0.0-3.0-0.0","5e1bfb604231d840ef7103d8","A3","batch1","","","","","","","","","","","","","","","","","","","","","","","","","","","","","",""
"","","","","","instructions","180","649183","0.0-3.0-1.0-0.0-0.0","5e1bfb604231d840ef7103d8","A3","batch1","[{""page_index"":0,""viewing_time"":8107.4000000003725},{""page_index"":1,""viewing_time"":5792},{""page_index"":2,""viewing_time"":3040},{""page_index"":3,""viewing_time"":5351.700000000186},{""page_index"":4,""viewing_time"":3736.0999999996275},{""page_index"":5,""viewing_time"":4023.9000000003725},{""page_index"":6,""viewing_time"":1624.0999999996275}]","31675.5","","","tol-instructions","","","","","","","","","","","","","","","","","","","","","","","","",""
"","","","","","html-button-response","181","650008","0.0-3.0-1.0-1.0-0.0","5e1bfb604231d840ef7103d8","A3","batch1","","823.3000000007451","<p class=block-text> Let's answer a few questions <br>","0","tol_enter_quiz","","","","","","","","","","","","","","","","","","","","","","","","",""
"","","","","","html-button-response","182","652303","0.0-3.0-1.0-1.0-1.0","5e1bfb604231d840ef7103d8","A3","batch1","","2294.4000000003725","<p class = block-text>True or False: You can only move the ball on top of a peg. <br></p>","0","tol_quiz","true","","","","","","","","","","","","","","","","","","","","","","","",""
"","","","","","html-button-response","183","653183","0.0-3.0-1.0-1.0-2.0","5e1bfb604231d840ef7103d8","A3","batch1","","879.4000000003725","<p class = block-text>Correct! You can only move the ball on top of a peg.</p>","0","tol_quiz_feedback","","","","","","","","","","","","","","","","","","","","","","","","",""
"","","","","","html-button-response","184","655512","0.0-3.0-1.0-1.0-3.0","5e1bfb604231d840ef7103d8","A3","batch1","","2327.800000000745","<p class = block-text>True or False: You should try to match your board with the target board with fewest moves possible. <br></p>","0","tol_quiz","true","","","","","","","","","","","","","","","","","","","","","","","",""
"","","","","","html-button-response","185","656071","0.0-3.0-1.0-1.0-4.0","5e1bfb604231d840ef7103d8","A3","batch1","","558.4000000003725","<p class = block-text>Correct! </p>","0","tol_quiz_feedback","","","","","","","","","","","","","","","","","","","","","","","","",""
"","","","","","html-button-response","186","657199","0.0-3.0-2.0","5e1bfb604231d840ef7103d8","A3","batch1","","1127","<p class=block-text> Now that you've understood the game, let's practice a few easier examples before we start!<br> <br>","0","","","","","","","","","","","","","","","","","","","","","","","","","",""
"","","","","","single-stim-button","187","659040","0.0-3.0-3.0-0.0","5e1bfb604231d840ef7103d8","A3","batch1","","1840","","","tol_practice","","","","","","","","","tol_peg_2","1840","1840","0","[[1,2,0],[0,0],[0]]","1","[[1,2,0],[0,0],[3]]","practice","1840","","","","","","","",""
"","","","","","single-stim-button","188","660024","0.0-3.0-3.0-1.0","5e1bfb604231d840ef7103d8","A3","batch1","","983","","","tol_practice","","","","","","","","","tol_peg_3","983","983","0","[[1,2,0],[0,0],[3]]","1","[[1,2,0],[0,0],[3]]","practice","983","","","","","","","",""
"","","","","","poldrack-single-stim","189","661026","0.0-3.0-4.0","5e1bfb604231d840ef7103d8","A3","batch1","","-1","","","tol_feedback","true","","","","","","","","","1000","1000","500","","","","","","-1","none","true","","0","","",""
"","","","","","single-stim-button","190","663727","0.0-3.0-5.0-0.0","5e1bfb604231d840ef7103d8","A3","batch1","","2700","","","tol_practice","","","","","","","","","tol_peg_1","2700","2700","0","[[1,0,0],[3,0],[0]]","2","[[0,0,0],[3,1],[2]]","practice","2700","","","","","","","",""
"","","","","","single-stim-button","191","666215","0.0-3.0-5.0-1.0","5e1bfb604231d840ef7103d8","A3","batch1","","2487","","","tol_practice","","","","","","","","","tol_peg_3","2487","2487","0","[[1,0,0],[3,0],[2]]","2","[[0,0,0],[3,1],[2]]","practice","2487","","","","","","","",""
"","","","","","single-stim-button","192","666927","0.0-3.0-5.1-0.1","5e1bfb604231d840ef7103d8","A3","batch1","","711","","","tol_practice","","","","","","","","","tol_peg_1","711","711","0","[[0,0,0],[3,0],[2]]","3","[[0,0,0],[3,1],[2]]","practice","711","","","","","","","",""
"","","","","","single-stim-button","193","667472","0.0-3.0-5.1-1.1","5e1bfb604231d840ef7103d8","A3","batch1","","544","","","tol_practice","","","","","","","","","tol_peg_2","544","544","0","[[0,0,0],[3,1],[2]]","3","[[0,0,0],[3,1],[2]]","practice","544","","","","","","","",""
"","","","","","poldrack-single-stim","194","668473","0.0-3.0-6.0","5e1bfb604231d840ef7103d8","A3","batch1","","-1","","","tol_feedback","true","","","","","","","","","1000","1000","500","","","","","","-1","none","true","","0","","",""
"","","","","","single-stim-button","195","671552","0.0-3.0-7.0-0.0","5e1bfb604231d840ef7103d8","A3","batch1","","3078","","","tol_practice","","","","","","","","","tol_peg_2","3078","3078","0","[[1,2,0],[0,0],[0]]","4","[[1,0,0],[2,0],[3]]","practice","3078","","","","","","","",""
"","","","","","single-stim-button","196","672527","0.0-3.0-7.0-1.0","5e1bfb604231d840ef7103d8","A3","batch1","","975","","","tol_practice","","","","","","","","","tol_peg_3","975","975","0","[[1,2,0],[0,0],[3]]","4","[[1,0,0],[2,0],[3]]","practice","975","","","","","","","",""
"","","","","","single-stim-button","197","673768","0.0-3.0-7.1-0.1","5e1bfb604231d840ef7103d8","A3","batch1","","1240","","","tol_practice","","","","","","","","","tol_peg_1","1240","1240","0","[[1,0,0],[0,0],[3]]","5","[[1,0,0],[2,0],[3]]","practice","1240","","","","","","","",""
"","","","","","single-stim-button","198","674455","0.0-3.0-7.1-1.1","5e1bfb604231d840ef7103d8","A3","batch1","","687","","","tol_practice","","","","","","","","","tol_peg_2","687","687","0","[[1,0,0],[2,0],[3]]","5","[[1,0,0],[2,0],[3]]","practice","687","","","","","","","",""
"","","","","","poldrack-single-stim","199","675456","0.0-3.0-8.0","5e1bfb604231d840ef7103d8","A3","batch1","","-1","","","tol_feedback","true","","","","","","","","","1000","1000","500","","","","","","-1","none","true","","0","","",""
"","","","","","html-button-response","200","677511","0.0-3.0-9.0","5e1bfb604231d840ef7103d8","A3","batch1","","2054.2000000001863","<div class = centerbox><p class = center-block-text>Great job! You are done with practice trials<br>You are about to start official trials.<br> <br> Problem <strong>1</strong> out of 25 problems</p></div>","0","tol_instruction","","","","","","","","","","","","","","","","","","","","","","","","",""
"","","","","","single-stim-button","201","682832","0.0-3.0-10.0-0.0","5e1bfb604231d840ef7103d8","A3","batch1","","4320","","","tol_tohand","","","","","","","","","tol_peg_1","4320","4320","0","[[1,0,0],[3,0],[0]]","1","[[1,3,0],[2,0],[0]]","0","0","","","","","","3","",""
"","","","","","single-stim-button","202","683439","0.0-3.0-10.0-1.0","5e1bfb604231d840ef7103d8","A3","batch1","","606","","","tol_toboard","","","","","","","","","tol_peg_3","606","606","0","[[1,0,0],[3,0],[2]]","1","[[1,3,0],[2,0],[0]]","0","0","","","","","","3","",""
"","","","","","single-stim-button","203","683887","0.0-3.0-10.1-0.1","5e1bfb604231d840ef7103d8","A3","batch1","","448","","","tol_tohand","","","","","","","","","tol_peg_2","448","448","0","[[1,0,0],[0,0],[2]]","2","[[1,3,0],[2,0],[0]]","0","0","","","","","","3","",""
"","","","","","single-stim-button","204","684687","0.0-3.0-10.1-1.1","5e1bfb604231d840ef7103d8","A3","batch1","","798","","","tol_toboard","","","","","","","","","tol_peg_1","798","798","0","[[1,3,0],[0,0],[2]]","2","[[1,3,0],[2,0],[0]]","0","0","","","","","","3","",""
"","","","","","single-stim-button","205","685351","0.0-3.0-10.2-0.2","5e1bfb604231d840ef7103d8","A3","batch1","","664","","","tol_tohand","","","","","","","","","tol_peg_3","664","664","0","[[1,3,0],[0,0],[0]]","3","[[1,3,0],[2,0],[0]]","0","0","","","","","","3","",""
"","","","","","single-stim-button","206","685990","0.0-3.0-10.2-1.2","5e1bfb604231d840ef7103d8","A3","batch1","","638","","","tol_toboard","","","","","","","","","tol_peg_2","638","638","0","[[1,3,0],[2,0],[0]]","3","[[1,3,0],[2,0],[0]]","0","0","","","","","","3","",""
"","","","","","poldrack-single-stim","207","686992","0.0-3.0-11.0","5e1bfb604231d840ef7103d8","A3","batch1","","-1","","","tol_feedback","true","","","","","","","","","1000","1000","500","","","","","","-1","none","true","4320","5432","","",""
"","","","","","html-button-response","208","687831","0.0-3.0-12.0","5e1bfb604231d840ef7103d8","A3","batch1","","837.2999999998137","<div class = centerbox><p class = center-block-text>problem <strong>2</strong> out of 25 problems</p></div>","0","tol_trial_num","","","","","","","","","","","","","","","","","","","","","","","","",""
"","","","","","single-stim-button","209","693934","0.0-3.0-13.0-0.0","5e1bfb604231d840ef7103d8","A3","batch1","","6102","","","tol_tohand","","","","","","","","","tol_peg_1","6102","6102","0","[[1,0,0],[3,0],[0]]","1","[[2,1,3],[0,0],[0]]","1","0","","","","","","5","",""
"","","","","","single-stim-button","210","694607","0.0-3.0-13.0-1.0","5e1bfb604231d840ef7103d8","A3","batch1","","671","","","tol_toboard","","","","","","","","","tol_peg_3","671","671","0","[[1,0,0],[3,0],[2]]","1","[[2,1,3],[0,0],[0]]","1","0","","","","","","5","",""
"","","","","","single-stim-button","211","695567","0.0-3.0-13.1-0.1","5e1bfb604231d840ef7103d8","A3","batch1","","960","","","tol_tohand","","","","","","","","","tol_peg_1","960","960","0","[[0,0,0],[3,0],[2]]","2","[[2,1,3],[0,0],[0]]","1","0","","","","","","5","",""
"","","","","","single-stim-button","212","696167","0.0-3.0-13.1-1.1","5e1bfb604231d840ef7103d8","A3","batch1","","598","","","tol_toboard","","","","","","","","","tol_peg_2","598","598","0","[[0,0,0],[3,1],[2]]","2","[[2,1,3],[0,0],[0]]","1","0","","","","","","5","",""
"","","","","","single-stim-button","213","696671","0.0-3.0-13.2-0.2","5e1bfb604231d840ef7103d8","A3","batch1","","503","","","tol_tohand","","","","","","","","","tol_peg_3","503","503","0","[[0,0,0],[3,1],[0]]","3","[[2,1,3],[0,0],[0]]","1","0","","","","","","5","",""
"","","","","","single-stim-button","214","697479","0.0-3.0-13.2-1.2","5e1bfb604231d840ef7103d8","A3","batch1","","808","","","tol_toboard","","","","","","","","","tol_peg_1","808","808","0","[[2,0,0],[3,1],[0]]","3","[[2,1,3],[0,0],[0]]","1","0","","","","","","5","",""
"","","","","","single-stim-button","215","698095","0.0-3.0-13.3-0.3","5e1bfb604231d840ef7103d8","A3","batch1","","614","","","tol_tohand","","","","","","","","","tol_peg_2","614","614","0","[[2,0,0],[3,0],[0]]","4","[[2,1,3],[0,0],[0]]","1","0","","","","","","5","",""
"","","","","","single-stim-button","216","698671","0.0-3.0-13.3-1.3","5e1bfb604231d840ef7103d8","A3","batch1","","576","","","tol_toboard","","","","","","","","","tol_peg_1","576","576","0","[[2,1,0],[3,0],[0]]","4","[[2,1,3],[0,0],[0]]","1","0","","","","","","5","",""
"","","","","","single-stim-button","217","699166","0.0-3.0-13.4-0.4","5e1bfb604231d840ef7103d8","A3","batch1","","494","","","tol_tohand","","","","","","","","","tol_peg_2","494","494","0","[[2,1,0],[0,0],[0]]","5","[[2,1,3],[0,0],[0]]","1","0","","","","","","5","",""
"","","","","","single-stim-button","218","699903","0.0-3.0-13.4-1.4","5e1bfb604231d840ef7103d8","A3","batch1","","735","","","tol_toboard","","","","","","","","","tol_peg_1","735","735","0","[[2,1,3],[0,0],[0]]","5","[[2,1,3],[0,0],[0]]","1","0","","","","","","5","",""
"","","","","","poldrack-single-stim","219","700904","0.0-3.0-14.0","5e1bfb604231d840ef7103d8","A3","batch1","","-1","","","tol_feedback","true","","","","","","","","","1000","1000","500","","","","","","-1","none","true","6102","8673","","",""
"","","","","","html-button-response","220","701894","0.0-3.0-15.0","5e1bfb604231d840ef7103d8","A3","batch1","","989.2000000001863","<div class = centerbox><p class = center-block-text>problem <strong>3</strong> out of 25 problems</p></div>","0","tol_trial_num","","","","","","","","","","","","","","","","","","","","","","","","",""
"","","","","","single-stim-button","221","706542","0.0-3.0-16.0-0.0","5e1bfb604231d840ef7103d8","A3","batch1","","4648","","","tol_tohand","","","","","","","","","tol_peg_1","4648","4648","0","[[2,0,0],[0,0],[1]]","1","[[1,2,0],[3,0],[0]]","2","0","","","","","","4","",""
"","","","","","single-stim-button","222","707719","0.0-3.0-16.0-1.0","5e1bfb604231d840ef7103d8","A3","batch1","","1175","","","tol_toboard","","","","","","","","","tol_peg_2","1175","1175","0","[[2,0,0],[3,0],[1]]","1","[[1,2,0],[3,0],[0]]","2","0","","","","","","4","",""
"","","","","","single-stim-button","223","708502","0.0-3.0-16.1-0.1","5e1bfb604231d840ef7103d8","A3","batch1","","783","","","tol_tohand","","","","","","","","","tol_peg_1","783","783","0","[[0,0,0],[3,0],[1]]","2","[[1,2,0],[3,0],[0]]","2","0","","","","","","4","",""
"","","","","","single-stim-button","224","709214","0.0-3.0-16.1-1.1","5e1bfb604231d840ef7103d8","A3","batch1","","712","","","tol_toboard","","","","","","","","","tol_peg_2","712","712","0","[[0,0,0],[3,2],[1]]","2","[[1,2,0],[3,0],[0]]","2","0","","","","","","4","",""
"","","","","","single-stim-button","225","709751","0.0-3.0-16.2-0.2","5e1bfb604231d840ef7103d8","A3","batch1","","536","","","tol_tohand","","","","","","","","","tol_peg_3","536","536","0","[[0,0,0],[3,2],[0]]","3","[[1,2,0],[3,0],[0]]","2","0","","","","","","4","",""
"","","","","","single-stim-button","226","710687","0.0-3.0-16.2-1.2","5e1bfb604231d840ef7103d8","A3","batch1","","935","","","tol_toboard","","","","","","","","","tol_peg_1","935","935","0","[[1,0,0],[3,2],[0]]","3","[[1,2,0],[3,0],[0]]","2","0","","","","","","4","",""
"","","","","","single-stim-button","227","711190","0.0-3.0-16.3-0.3","5e1bfb604231d840ef7103d8","A3","batch1","","503","","","tol_tohand","","","","","","","","","tol_peg_2","503","503","0","[[1,0,0],[3,0],[0]]","4","[[1,2,0],[3,0],[0]]","2","0","","","","","","4","",""
"","","","","","single-stim-button","228","711782","0.0-3.0-16.3-1.3","5e1bfb604231d840ef7103d8","A3","batch1","","591","","","tol_toboard","","","","","","","","","tol_peg_1","591","591","0","[[1,2,0],[3,0],[0]]","4","[[1,2,0],[3,0],[0]]","2","0","","","","","","4","",""
"","","","","","poldrack-single-stim","229","712798","0.0-3.0-17.0","5e1bfb604231d840ef7103d8","A3","batch1","","-1","","","tol_feedback","true","","","","","","","","","1000","1000","500","","","","","","-1","none","true","4648","6470","","",""
"","","","","","html-button-response","230","713958","0.0-3.0-18.0","5e1bfb604231d840ef7103d8","A3","batch1","","1159","<div class = centerbox><p class = center-block-text>problem <strong>4</strong> out of 25 problems</p></div>","0","tol_trial_num","","","","","","","","","","","","","","","","","","","","","","","","",""
"","","","","","single-stim-button","231","718815","0.0-3.0-19.0-0.0","5e1bfb604231d840ef7103d8","A3","batch1","","4856","","","tol_tohand","","","","","","","","","tol_peg_2","4856","4856","0","[[3,0,0],[2,0],[0]]","1","[[3,0,0],[1,0],[2]]","3","0","","","","","","3","",""
"","","","","","single-stim-button","232","719470","0.0-3.0-19.0-1.0","5e1bfb604231d840ef7103d8","A3","batch1","","654","","","tol_toboard","","","","","","","","","tol_peg_1","654","654","0","[[3,1,0],[2,0],[0]]","1","[[3,0,0],[1,0],[2]]","3","0","","","","","","3","",""
"","","","","","single-stim-button","233","719990","0.0-3.0-19.1-0.1","5e1bfb604231d840ef7103d8","A3","batch1","","519","","","tol_tohand","","","","","","","","","tol_peg_2","519","519","0","[[3,1,0],[0,0],[0]]","2","[[3,0,0],[1,0],[2]]","3","0","","","","","","3","",""
"","","","","","single-stim-button","234","720702","0.0-3.0-19.1-1.1","5e1bfb604231d840ef7103d8","A3","batch1","","711","","","tol_toboard","","","","","","","","","tol_peg_3","711","711","0","[[3,1,0],[0,0],[2]]","2","[[3,0,0],[1,0],[2]]","3","0","","","","","","3","",""
"","","","","","single-stim-button","235","721511","0.0-3.0-19.2-0.2","5e1bfb604231d840ef7103d8","A3","batch1","","808","","","tol_tohand","","","","","","","","","tol_peg_1","808","808","0","[[3,0,0],[0,0],[2]]","3","[[3,0,0],[1,0],[2]]","3","0","","","","","","3","",""
"","","","","","single-stim-button","236","722103","0.0-3.0-19.2-1.2","5e1bfb604231d840ef7103d8","A3","batch1","","592","","","tol_toboard","","","","","","","","","tol_peg_2","592","592","0","[[3,0,0],[1,0],[2]]","3","[[3,0,0],[1,0],[2]]","3","0","","","","","","3","",""
"","","","","","poldrack-single-stim","237","723104","0.0-3.0-20.0","5e1bfb604231d840ef7103d8","A3","batch1","","-1","","","tol_feedback","true","","","","","","","","","1000","1000","500","","","","","","-1","none","true","4856","6183","","",""
"","","","","","html-button-response","238","724710","0.0-3.0-21.0","5e1bfb604231d840ef7103d8","A3","batch1","","1605.2000000001863","<div class = centerbox><p class = center-block-text>problem <strong>5</strong> out of 25 problems</p></div>","0","tol_trial_num","","","","","","","","","","","","","","","","","","","","","","","","",""
"","","","","","single-stim-button","239","749551","0.0-3.0-22.0-0.0","5e1bfb604231d840ef7103d8","A3","batch1","","24840","","","tol_tohand","","","","","","","","","tol_peg_3","24840","24840","0","[[1,0,0],[2,0],[0]]","1","[[0,0,0],[1,2],[3]]","4","0","","","","","","7","",""
"","","","","","single-stim-button","240","774350","0.0-3.0-22.0-1.0","5e1bfb604231d840ef7103d8","A3","batch1","","24799","","","tol_toboard","","","","","","","","","tol_peg_3","24799","24799","0","[[1,0,0],[2,0],[3]]","1","[[0,0,0],[1,2],[3]]","4","0","","","","","","7","",""
"","","","","","single-stim-button","241","776414","0.0-3.0-22.1-0.1","5e1bfb604231d840ef7103d8","A3","batch1","","2063","","","tol_tohand","","","","","","","","","tol_peg_1","2063","2063","0","[[0,0,0],[2,0],[3]]","2","[[0,0,0],[1,2],[3]]","4","0","","","","","","7","",""
"","","","","","single-stim-button","242","776951","0.0-3.0-22.1-1.1","5e1bfb604231d840ef7103d8","A3","batch1","","536","","","tol_toboard","","","","","","","","","tol_peg_2","536","536","0","[[0,0,0],[2,1],[3]]","2","[[0,0,0],[1,2],[3]]","4","0","","","","","","7","",""
"","","","","","single-stim-button","243","777471","0.0-3.0-22.2-0.2","5e1bfb604231d840ef7103d8","A3","batch1","","519","","","tol_tohand","","","","","","","","","tol_peg_3","519","519","0","[[0,0,0],[2,1],[0]]","3","[[0,0,0],[1,2],[3]]","4","0","","","","","","7","",""
"","","","","","single-stim-button","244","778230","0.0-3.0-22.2-1.2","5e1bfb604231d840ef7103d8","A3","batch1","","759","","","tol_toboard","","","","","","","","","tol_peg_1","759","759","0","[[3,0,0],[2,1],[0]]","3","[[0,0,0],[1,2],[3]]","4","0","","","","","","7","",""
"","","","","","single-stim-button","245","780038","0.0-3.0-22.3-0.3","5e1bfb604231d840ef7103d8","A3","batch1","","1807","","","tol_tohand","","","","","","","","","tol_peg_2","1807","1807","0","[[3,0,0],[2,0],[0]]","4","[[0,0,0],[1,2],[3]]","4","0","","","","","","7","",""
"","","","","","single-stim-button","246","780846","0.0-3.0-22.3-1.3","5e1bfb604231d840ef7103d8","A3","batch1","","807","","","tol_toboard","","","","","","","","","tol_peg_3","807","807","0","[[3,0,0],[2,0],[1]]","4","[[0,0,0],[1,2],[3]]","4","0","","","","","","7","",""
"","","","","","single-stim-button","247","781270","0.0-3.0-22.4-0.4","5e1bfb604231d840ef7103d8","A3","batch1","","424","","","tol_tohand","","","","","","","","","tol_peg_2","424","424","0","[[3,0,0],[0,0],[1]]","5","[[0,0,0],[1,2],[3]]","4","0","","","","","","7","",""
"","","","","","single-stim-button","248","781751","0.0-3.0-22.4-1.4","5e1bfb604231d840ef7103d8","A3","batch1","","480","","","tol_toboard","","","","","","","","","tol_peg_1","480","480","0","[[3,2,0],[0,0],[1]]","5","[[0,0,0],[1,2],[3]]","4","0","","","","","","7","",""
"","","","","","single-stim-button","249","782270","0.0-3.0-22.5-0.5","5e1bfb604231d840ef7103d8","A3","batch1","","519","","","tol_tohand","","","","","","","","","tol_peg_3","519","519","0","[[3,2,0],[0,0],[0]]","6","[[0,0,0],[1,2],[3]]","4","0","","","","","","7","",""
"","","","","","single-stim-button","250","782839","0.0-3.0-22.5-1.5","5e1bfb604231d840ef7103d8","A3","batch1","","568","","","tol_toboard","","","","","","","","","tol_peg_2","568","568","0","[[3,2,0],[1,0],[0]]","6","[[0,0,0],[1,2],[3]]","4","0","","","","","","7","",""
"","","","","","single-stim-button","251","783423","0.0-3.0-22.6-0.6","5e1bfb604231d840ef7103d8","A3","batch1","","583","","","tol_tohand","","","","","","","","","tol_peg_1","583","583","0","[[3,0,0],[1,0],[0]]","7","[[0,0,0],[1,2],[3]]","4","0","","","","","","7","",""
"","","","","","single-stim-button","252","784198","0.0-3.0-22.6-1.6","5e1bfb604231d840ef7103d8","A3","batch1","","775","","","tol_toboard","","","","","","","","","tol_peg_2","775","775","0","[[3,0,0],[1,2],[0]]","7","[[0,0,0],[1,2],[3]]","4","0","","","","","","7","",""
"","","","","","single-stim-button","253","784727","0.0-3.0-22.7-0.7","5e1bfb604231d840ef7103d8","A3","batch1","","529","","","tol_tohand","","","","","","","","","tol_peg_1","529","529","0","[[0,0,0],[1,2],[0]]","8","[[0,0,0],[1,2],[3]]","4","0","","","","","","7","",""
"","","","","","single-stim-button","254","785422","0.0-3.0-22.7-1.7","5e1bfb604231d840ef7103d8","A3","batch1","","695","","","tol_toboard","","","","","","","","","tol_peg_3","695","695","0","[[0,0,0],[1,2],[3]]","8","[[0,0,0],[1,2],[3]]","4","0","","","","","","7","",""
"","","","","","poldrack-single-stim","255","786427","0.0-3.0-23.0","5e1bfb604231d840ef7103d8","A3","batch1","","-1","","","tol_feedback","true","","","","","","","","","1000","1000","500","","","","","","-1","none","true","24840","31284","","",""
"","","","","","html-button-response","256","787302","0.0-3.0-24.0","5e1bfb604231d840ef7103d8","A3","batch1","","873.5","<div class = centerbox><p class = center-block-text>problem <strong>6</strong> out of 25 problems</p></div>","0","tol_trial_num","","","","","","","","","","","","","","","","","","","","","","","","",""
"","","","","","single-stim-button","257","795454","0.0-3.0-25.0-0.0","5e1bfb604231d840ef7103d8","A3","batch1","","8151","","","tol_tohand","","","","","","","","","tol_peg_3","8151","8151","0","[[0,0,0],[1,2],[0]]","1","[[1,0,0],[2,3],[0]]","5","0","","","","","","6","",""
"","","","","","single-stim-button","258","796445","0.0-3.0-25.0-1.0","5e1bfb604231d840ef7103d8","A3","batch1","","991","","","tol_toboard","","","","","","","","","tol_peg_1","991","991","0","[[3,0,0],[1,2],[0]]","1","[[1,0,0],[2,3],[0]]","5","0","","","","","","6","",""
"","","","","","single-stim-button","259","797141","0.0-3.0-25.1-0.1","5e1bfb604231d840ef7103d8","A3","batch1","","696","","","tol_tohand","","","","","","","","","tol_peg_2","696","696","0","[[3,0,0],[1,0],[0]]","2","[[1,0,0],[2,3],[0]]","5","0","","","","","","6","",""
"","","","","","single-stim-button","260","797797","0.0-3.0-25.1-1.1","5e1bfb604231d840ef7103d8","A3","batch1","","655","","","tol_toboard","","","","","","","","","tol_peg_3","655","655","0","[[3,0,0],[1,0],[2]]","2","[[1,0,0],[2,3],[0]]","5","0","","","","","","6","",""
"","","","","","single-stim-button","261","808429","0.0-3.0-25.2-0.2","5e1bfb604231d840ef7103d8","A3","batch1","","10631","","","tol_tohand","","","","","","","","","tol_peg_3","10631","10631","0","[[3,0,0],[1,0],[0]]","3","[[1,0,0],[2,3],[0]]","5","0","","","","","","6","",""
"","","","","","single-stim-button","262","809077","0.0-3.0-25.2-1.2","5e1bfb604231d840ef7103d8","A3","batch1","","647","","","tol_toboard","","","","","","","","","tol_peg_1","647","647","0","[[3,2,0],[1,0],[0]]","3","[[1,0,0],[2,3],[0]]","5","0","","","","","","6","",""
"","","","","","single-stim-button","263","809982","0.0-3.0-25.3-0.3","5e1bfb604231d840ef7103d8","A3","batch1","","904","","","tol_tohand","","","","","","","","","tol_peg_2","904","904","0","[[3,2,0],[0,0],[0]]","4","[[1,0,0],[2,3],[0]]","5","0","","","","","","6","",""
"","","","","","single-stim-button","264","810781","0.0-3.0-25.3-1.3","5e1bfb604231d840ef7103d8","A3","batch1","","799","","","tol_toboard","","","","","","","","","tol_peg_3","799","799","0","[[3,2,0],[0,0],[1]]","4","[[1,0,0],[2,3],[0]]","5","0","","","","","","6","",""
"","","","","","single-stim-button","265","812789","0.0-3.0-25.4-0.4","5e1bfb604231d840ef7103d8","A3","batch1","","2007","","","tol_tohand","","","","","","","","","tol_peg_1","2007","2007","0","[[3,0,0],[0,0],[1]]","5","[[1,0,0],[2,3],[0]]","5","0","","","","","","6","",""
"","","","","","single-stim-button","266","813510","0.0-3.0-25.4-1.4","5e1bfb604231d840ef7103d8","A3","batch1","","720","","","tol_toboard","","","","","","","","","tol_peg_2","720","720","0","[[3,0,0],[2,0],[1]]","5","[[1,0,0],[2,3],[0]]","5","0","","","","","","6","",""
"","","","","","single-stim-button","267","813941","0.0-3.0-25.5-0.5","5e1bfb604231d840ef7103d8","A3","batch1","","431","","","tol_tohand","","","","","","","","","tol_peg_1","431","431","0","[[0,0,0],[2,0],[1]]","6","[[1,0,0],[2,3],[0]]","5","0","","","","","","6","",""
"","","","","","single-stim-button","268","814445","0.0-3.0-25.5-1.5","5e1bfb604231d840ef7103d8","A3","batch1","","503","","","tol_toboard","","","","","","","","","tol_peg_2","503","503","0","[[0,0,0],[2,3],[1]]","6","[[1,0,0],[2,3],[0]]","5","0","","","","","","6","",""
"","","","","","single-stim-button","269","815038","0.0-3.0-25.6-0.6","5e1bfb604231d840ef7103d8","A3","batch1","","592","","","tol_tohand","","","","","","","","","tol_peg_3","592","592","0","[[0,0,0],[2,3],[0]]","7","[[1,0,0],[2,3],[0]]","5","0","","","","","","6","",""
"","","","","","single-stim-button","270","815862","0.0-3.0-25.6-1.6","5e1bfb604231d840ef7103d8","A3","batch1","","824","","","tol_toboard","","","","","","","","","tol_peg_1","824","824","0","[[1,0,0],[2,3],[0]]","7","[[1,0,0],[2,3],[0]]","5","0","","","","","","6","",""
"","","","","","poldrack-single-stim","271","816866","0.0-3.0-26.0","5e1bfb604231d840ef7103d8","A3","batch1","","-1","","","tol_feedback","true","","","","","","","","","1000","1000","500","","","","","","-1","none","true","8151","23412","","",""
"","","","","","html-button-response","272","817918","0.0-3.0-27.0","5e1bfb604231d840ef7103d8","A3","batch1","","1051.5","<div class = centerbox><p class = center-block-text>problem <strong>7</strong> out of 25 problems</p></div>","0","tol_trial_num","","","","","","","","","","","","","","","","","","","","","","","","",""
"","","","","","single-stim-button","273","870981","0.0-3.0-28.0-0.0","5e1bfb604231d840ef7103d8","A3","batch1","","53063","","","tol_tohand","","","","","","","","","tol_peg_1","53063","53063","0","[[2,0,0],[0,0],[3]]","1","[[1,2,0],[3,0],[0]]","6","0","","","","","","5","",""
"","","","","","single-stim-button","274","871661","0.0-3.0-28.0-1.0","5e1bfb604231d840ef7103d8","A3","batch1","","679","","","tol_toboard","","","","","","","","","tol_peg_2","679","679","0","[[2,0,0],[1,0],[3]]","1","[[1,2,0],[3,0],[0]]","6","0","","","","","","5","",""
"","","","","","single-stim-button","275","878941","0.0-3.0-28.1-0.1","5e1bfb604231d840ef7103d8","A3","batch1","","7279","","","tol_tohand","","","","","","","","","tol_peg_3","7279","7279","0","[[2,0,0],[1,0],[0]]","2","[[1,2,0],[3,0],[0]]","6","0","","","","","","5","",""
"","","","","","single-stim-button","276","883757","0.0-3.0-28.1-1.1","5e1bfb604231d840ef7103d8","A3","batch1","","4816","","","tol_toboard","","","","","","","","","tol_peg_1","4816","4816","0","[[2,3,0],[1,0],[0]]","2","[[1,2,0],[3,0],[0]]","6","0","","","","","","5","",""
"","","","","","single-stim-button","277","884445","0.0-3.0-28.2-0.2","5e1bfb604231d840ef7103d8","A3","batch1","","687","","","tol_tohand","","","","","","","","","tol_peg_2","687","687","0","[[2,3,0],[0,0],[0]]","3","[[1,2,0],[3,0],[0]]","6","0","","","","","","5","",""
"","","","","","single-stim-button","278","885221","0.0-3.0-28.2-1.2","5e1bfb604231d840ef7103d8","A3","batch1","","776","","","tol_toboard","","","","","","","","","tol_peg_3","776","776","0","[[2,3,0],[0,0],[1]]","3","[[1,2,0],[3,0],[0]]","6","0","","","","","","5","",""
"","","","","","single-stim-button","279","886117","0.0-3.0-28.3-0.3","5e1bfb604231d840ef7103d8","A3","batch1","","896","","","tol_tohand","","","","","","","","","tol_peg_1","896","896","0","[[2,0,0],[0,0],[1]]","4","[[1,2,0],[3,0],[0]]","6","0","","","","","","5","",""
"","","","","","single-stim-button","280","886749","0.0-3.0-28.3-1.3","5e1bfb604231d840ef7103d8","A3","batch1","","632","","","tol_toboard","","","","","","","","","tol_peg_2","632","632","0","[[2,0,0],[3,0],[1]]","4","[[1,2,0],[3,0],[0]]","6","0","","","","","","5","",""
"","","","","","single-stim-button","281","887461","0.0-3.0-28.4-0.4","5e1bfb604231d840ef7103d8","A3","batch1","","712","","","tol_tohand","","","","","","","","","tol_peg_1","712","712","0","[[0,0,0],[3,0],[1]]","5","[[1,2,0],[3,0],[0]]","6","0","","","","","","5","",""
"","","","","","single-stim-button","282","888077","0.0-3.0-28.4-1.4","5e1bfb604231d840ef7103d8","A3","batch1","","616","","","tol_toboard","","","","","","","","","tol_peg_2","616","616","0","[[0,0,0],[3,2],[1]]","5","[[1,2,0],[3,0],[0]]","6","0","","","","","","5","",""
"","","","","","single-stim-button","283","888741","0.0-3.0-28.5-0.5","5e1bfb604231d840ef7103d8","A3","batch1","","664","","","tol_tohand","","","","","","","","","tol_peg_3","664","664","0","[[0,0,0],[3,2],[0]]","6","[[1,2,0],[3,0],[0]]","6","0","","","","","","5","",""
"","","","","","single-stim-button","284","889517","0.0-3.0-28.5-1.5","5e1bfb604231d840ef7103d8","A3","batch1","","776","","","tol_toboard","","","","","","","","","tol_peg_1","776","776","0","[[1,0,0],[3,2],[0]]","6","[[1,2,0],[3,0],[0]]","6","0","","","","","","5","",""
"","","","","","single-stim-button","285","890141","0.0-3.0-28.6-0.6","5e1bfb604231d840ef7103d8","A3","batch1","","624","","","tol_tohand","","","","","","","","","tol_peg_2","624","624","0","[[1,0,0],[3,0],[0]]","7","[[1,2,0],[3,0],[0]]","6","0","","","","","","5","",""
"","","","","","single-stim-button","286","890813","0.0-3.0-28.6-1.6","5e1bfb604231d840ef7103d8","A3","batch1","","672","","","tol_toboard","","","","","","","","","tol_peg_1","672","672","0","[[1,2,0],[3,0],[0]]","7","[[1,2,0],[3,0],[0]]","6","0","","","","","","5","",""
"","","","","","poldrack-single-stim","287","891821","0.0-3.0-29.0","5e1bfb604231d840ef7103d8","A3","batch1","","-1","","","tol_feedback","true","","","","","","","","","1000","1000","500","","","","","","-1","none","true","53063","63925","","",""
"","","","","","html-button-response","288","892693","0.0-3.0-30.0","5e1bfb604231d840ef7103d8","A3","batch1","","871","<div class = centerbox><p class = center-block-text>problem <strong>8</strong> out of 25 problems</p></div>","0","tol_trial_num","","","","","","","","","","","","","","","","","","","","","","","","",""
"","","","","","single-stim-button","289","899109","0.0-3.0-31.0-0.0","5e1bfb604231d840ef7103d8","A3","batch1","","6416","","","tol_tohand","","","","","","","","","tol_peg_3","6416","6416","0","[[0,0,0],[2,3],[0]]","1","[[1,2,0],[3,0],[0]]","7","0","","","","","","4","",""
"","","","","","single-stim-button","290","900013","0.0-3.0-31.0-1.0","5e1bfb604231d840ef7103d8","A3","batch1","","904","","","tol_toboard","","","","","","","","","tol_peg_1","904","904","0","[[1,0,0],[2,3],[0]]","1","[[1,2,0],[3,0],[0]]","7","0","","","","","","4","",""
"","","","","","single-stim-button","291","901533","0.0-3.0-31.1-0.1","5e1bfb604231d840ef7103d8","A3","batch1","","1520","","","tol_tohand","","","","","","","","","tol_peg_2","1520","1520","0","[[1,0,0],[2,0],[0]]","2","[[1,2,0],[3,0],[0]]","7","0","","","","","","4","",""
"","","","","","single-stim-button","292","902246","0.0-3.0-31.1-1.1","5e1bfb604231d840ef7103d8","A3","batch1","","712","","","tol_toboard","","","","","","","","","tol_peg_3","712","712","0","[[1,0,0],[2,0],[3]]","2","[[1,2,0],[3,0],[0]]","7","0","","","","","","4","",""
"","","","","","single-stim-button","293","902685","0.0-3.0-31.2-0.2","5e1bfb604231d840ef7103d8","A3","batch1","","439","","","tol_tohand","","","","","","","","","tol_peg_2","439","439","0","[[1,0,0],[0,0],[3]]","3","[[1,2,0],[3,0],[0]]","7","0","","","","","","4","",""
"","","","","","single-stim-button","294","903293","0.0-3.0-31.2-1.2","5e1bfb604231d840ef7103d8","A3","batch1","","607","","","tol_toboard","","","","","","","","","tol_peg_1","607","607","0","[[1,2,0],[0,0],[3]]","3","[[1,2,0],[3,0],[0]]","7","0","","","","","","4","",""
"","","","","","single-stim-button","295","903901","0.0-3.0-31.3-0.3","5e1bfb604231d840ef7103d8","A3","batch1","","607","","","tol_tohand","","","","","","","","","tol_peg_3","607","607","0","[[1,2,0],[0,0],[0]]","4","[[1,2,0],[3,0],[0]]","7","0","","","","","","4","",""
"","","","","","single-stim-button","296","904725","0.0-3.0-31.3-1.3","5e1bfb604231d840ef7103d8","A3","batch1","","823","","","tol_toboard","","","","","","","","","tol_peg_2","823","823","0","[[1,2,0],[3,0],[0]]","4","[[1,2,0],[3,0],[0]]","7","0","","","","","","4","",""
"","","","","","poldrack-single-stim","297","905726","0.0-3.0-32.0","5e1bfb604231d840ef7103d8","A3","batch1","","-1","","","tol_feedback","true","","","","","","","","","1000","1000","500","","","","","","-1","none","true","6416","8982","","",""
"","","","","","html-button-response","298","906725","0.0-3.0-33.0","5e1bfb604231d840ef7103d8","A3","batch1","","997.7999999998137","<div class = centerbox><p class = center-block-text>problem <strong>9</strong> out of 25 problems</p></div>","0","tol_trial_num","","","","","","","","","","","","","","","","","","","","","","","","",""
"","","","","","single-stim-button","299","914116","0.0-3.0-34.0-0.0","5e1bfb604231d840ef7103d8","A3","batch1","","7391","","","tol_tohand","","","","","","","","","tol_peg_1","7391","7391","0","[[3,0,0],[0,0],[1]]","1","[[2,1,0],[3,0],[0]]","8","0","","","","","","6","",""
"","","","","","single-stim-button","300","915053","0.0-3.0-34.0-1.0","5e1bfb604231d840ef7103d8","A3","batch1","","935","","","tol_toboard","","","","","","","","","tol_peg_2","935","935","0","[[3,0,0],[2,0],[1]]","1","[[2,1,0],[3,0],[0]]","8","0","","","","","","6","",""
"","","","","","single-stim-button","301","919181","0.0-3.0-34.1-0.1","5e1bfb604231d840ef7103d8","A3","batch1","","4128","","","tol_tohand","","","","","","","","","tol_peg_3","4128","4128","0","[[3,0,0],[2,0],[0]]","2","[[2,1,0],[3,0],[0]]","8","0","","","","","","6","",""
"","","","","","single-stim-button","302","919964","0.0-3.0-34.1-1.1","5e1bfb604231d840ef7103d8","A3","batch1","","783","","","tol_toboard","","","","","","","","","tol_peg_2","783","783","0","[[3,0,0],[2,1],[0]]","2","[[2,1,0],[3,0],[0]]","8","0","","","","","","6","",""
"","","","","","single-stim-button","303","920597","0.0-3.0-34.2-0.2","5e1bfb604231d840ef7103d8","A3","batch1","","631","","","tol_tohand","","","","","","","","","tol_peg_1","631","631","0","[[0,0,0],[2,1],[0]]","3","[[2,1,0],[3,0],[0]]","8","0","","","","","","6","",""
"","","","","","single-stim-button","304","921429","0.0-3.0-34.2-1.2","5e1bfb604231d840ef7103d8","A3","batch1","","831","","","tol_toboard","","","","","","","","","tol_peg_3","831","831","0","[[0,0,0],[2,1],[3]]","3","[[2,1,0],[3,0],[0]]","8","0","","","","","","6","",""
"","","","","","single-stim-button","305","923189","0.0-3.0-34.3-0.3","5e1bfb604231d840ef7103d8","A3","batch1","","1759","","","tol_tohand","","","","","","","","","tol_peg_2","1759","1759","0","[[0,0,0],[2,0],[3]]","4","[[2,1,0],[3,0],[0]]","8","0","","","","","","6","",""
"","","","","","single-stim-button","306","927189","0.0-3.0-34.3-1.3","5e1bfb604231d840ef7103d8","A3","batch1","","4000","","","tol_toboard","","","","","","","","","tol_peg_2","4000","4000","0","[[0,0,0],[2,1],[3]]","4","[[2,1,0],[3,0],[0]]","8","0","","","","","","6","",""
"","","","","","single-stim-button","307","927709","0.0-3.0-34.4-0.4","5e1bfb604231d840ef7103d8","A3","batch1","","518","","","tol_tohand","","","","","","","","","tol_peg_3","518","518","0","[[0,0,0],[2,1],[0]]","5","[[2,1,0],[3,0],[0]]","8","0","","","","","","6","",""
"","","","","","single-stim-button","308","929348","0.0-3.0-34.4-1.4","5e1bfb604231d840ef7103d8","A3","batch1","","1639","","","tol_toboard","","","","","","","","","tol_peg_1","1639","1639","0","[[3,0,0],[2,1],[0]]","5","[[2,1,0],[3,0],[0]]","8","0","","","","","","6","",""
"","","","","","single-stim-button","309","930093","0.0-3.0-34.5-0.5","5e1bfb604231d840ef7103d8","A3","batch1","","744","","","tol_tohand","","","","","","","","","tol_peg_2","744","744","0","[[3,0,0],[2,0],[0]]","6","[[2,1,0],[3,0],[0]]","8","0","","","","","","6","",""
"","","","","","single-stim-button","310","930811","0.0-3.0-34.5-1.5","5e1bfb604231d840ef7103d8","A3","batch1","","718","","","tol_toboard","","","","","","","","","tol_peg_3","718","718","0","[[3,0,0],[2,0],[1]]","6","[[2,1,0],[3,0],[0]]","8","0","","","","","","6","",""
"","","","","","single-stim-button","311","947347","0.0-3.0-34.6-0.6","5e1bfb604231d840ef7103d8","A3","batch1","","16535","","","tol_tohand","","","","","","","","","tol_peg_3","16535","16535","0","[[3,0,0],[2,0],[0]]","7","[[2,1,0],[3,0],[0]]","8","0","","","","","","6","",""
"","","","","","single-stim-button","312","947875","0.0-3.0-34.6-1.6","5e1bfb604231d840ef7103d8","A3","batch1","","527","","","tol_toboard","","","","","","","","","tol_peg_1","527","527","0","[[3,1,0],[2,0],[0]]","7","[[2,1,0],[3,0],[0]]","8","0","","","","","","6","",""
"","","","","","single-stim-button","313","948307","0.0-3.0-34.7-0.7","5e1bfb604231d840ef7103d8","A3","batch1","","431","","","tol_tohand","","","","","","","","","tol_peg_2","431","431","0","[[3,1,0],[0,0],[0]]","8","[[2,1,0],[3,0],[0]]","8","0","","","","","","6","",""
"","","","","","single-stim-button","314","949027","0.0-3.0-34.7-1.7","5e1bfb604231d840ef7103d8","A3","batch1","","719","","","tol_toboard","","","","","","","","","tol_peg_3","719","719","0","[[3,1,0],[0,0],[2]]","8","[[2,1,0],[3,0],[0]]","8","0","","","","","","6","",""
"","","","","","single-stim-button","315","949668","0.0-3.0-34.8-0.8","5e1bfb604231d840ef7103d8","A3","batch1","","640","","","tol_tohand","","","","","","","","","tol_peg_1","640","640","0","[[3,0,0],[0,0],[2]]","9","[[2,1,0],[3,0],[0]]","8","0","","","","","","6","",""
"","","","","","single-stim-button","316","950259","0.0-3.0-34.8-1.8","5e1bfb604231d840ef7103d8","A3","batch1","","591","","","tol_toboard","","","","","","","","","tol_peg_2","591","591","0","[[3,0,0],[1,0],[2]]","9","[[2,1,0],[3,0],[0]]","8","0","","","","","","6","",""
"","","","","","single-stim-button","317","950659","0.0-3.0-34.9-0.9","5e1bfb604231d840ef7103d8","A3","batch1","","400","","","tol_tohand","","","","","","","","","tol_peg_1","400","400","0","[[0,0,0],[1,0],[2]]","10","[[2,1,0],[3,0],[0]]","8","0","","","","","","6","",""
"","","","","","single-stim-button","318","951107","0.0-3.0-34.9-1.9","5e1bfb604231d840ef7103d8","A3","batch1","","447","","","tol_toboard","","","","","","","","","tol_peg_2","447","447","0","[[0,0,0],[1,3],[2]]","10","[[2,1,0],[3,0],[0]]","8","0","","","","","","6","",""
"","","","","","single-stim-button","319","951851","0.0-3.0-34.10-0.10","5e1bfb604231d840ef7103d8","A3","batch1","","743","","","tol_tohand","","","","","","","","","tol_peg_3","743","743","0","[[0,0,0],[1,3],[0]]","11","[[2,1,0],[3,0],[0]]","8","0","","","","","","6","",""
"","","","","","single-stim-button","320","952659","0.0-3.0-34.10-1.10","5e1bfb604231d840ef7103d8","A3","batch1","","807","","","tol_toboard","","","","","","","","","tol_peg_1","807","807","0","[[2,0,0],[1,3],[0]]","11","[[2,1,0],[3,0],[0]]","8","0","","","","","","6","",""
"","","","","","single-stim-button","321","953540","0.0-3.0-34.11-0.11","5e1bfb604231d840ef7103d8","A3","batch1","","880","","","tol_tohand","","","","","","","","","tol_peg_2","880","880","0","[[2,0,0],[1,0],[0]]","12","[[2,1,0],[3,0],[0]]","8","0","","","","","","6","",""
"","","","","","single-stim-button","322","954083","0.0-3.0-34.11-1.11","5e1bfb604231d840ef7103d8","A3","batch1","","543","","","tol_toboard","","","","","","","","","tol_peg_3","543","543","0","[[2,0,0],[1,0],[3]]","12","[[2,1,0],[3,0],[0]]","8","0","","","","","","6","",""
"","","","","","single-stim-button","323","954635","0.0-3.0-34.12-0.12","5e1bfb604231d840ef7103d8","A3","batch1","","551","","","tol_tohand","","","","","","","","","tol_peg_2","551","551","0","[[2,0,0],[0,0],[3]]","13","[[2,1,0],[3,0],[0]]","8","0","","","","","","6","",""
"","","","","","single-stim-button","324","955093","0.0-3.0-34.12-1.12","5e1bfb604231d840ef7103d8","A3","batch1","","458","","","tol_toboard","","","","","","","","","tol_peg_1","458","458","0","[[2,1,0],[0,0],[3]]","13","[[2,1,0],[3,0],[0]]","8","0","","","","","","6","",""
"","","","","","single-stim-button","325","955667","0.0-3.0-34.13-0.13","5e1bfb604231d840ef7103d8","A3","batch1","","573","","","tol_tohand","","","","","","","","","tol_peg_3","573","573","0","[[2,1,0],[0,0],[0]]","14","[[2,1,0],[3,0],[0]]","8","0","","","","","","6","",""
"","","","","","single-stim-button","326","956595","0.0-3.0-34.13-1.13","5e1bfb604231d840ef7103d8","A3","batch1","","927","","","tol_toboard","","","","","","","","","tol_peg_2","927","927","0","[[2,1,0],[3,0],[0]]","14","[[2,1,0],[3,0],[0]]","8","0","","","","","","6","",""
"","","","","","poldrack-single-stim","327","957596","0.0-3.0-35.0","5e1bfb604231d840ef7103d8","A3","batch1","","-1","","","tol_feedback","true","","","","","","","","","1000","1000","500","","","","","","-1","none","true","7391","35924","","",""
"","","","","","html-button-response","328","958523","0.0-3.0-36.0","5e1bfb604231d840ef7103d8","A3","batch1","","926","<div class = centerbox><p class = center-block-text>problem <strong>10</strong> out of 25 problems</p></div>","0","tol_trial_num","","","","","","","","","","","","","","","","","","","","","","","","",""
"","","","","","single-stim-button","329","963107","0.0-3.0-37.0-0.0","5e1bfb604231d840ef7103d8","A3","batch1","","4583","","","tol_tohand","","","","","","","","","tol_peg_3","4583","4583","0","[[3,0,0],[1,0],[0]]","1","[[3,0,0],[2,1],[0]]","9","0","","","","","","3","",""
"","","","","","single-stim-button","330","963795","0.0-3.0-37.0-1.0","5e1bfb604231d840ef7103d8","A3","batch1","","687","","","tol_toboard","","","","","","","","","tol_peg_1","687","687","0","[[3,2,0],[1,0],[0]]","1","[[3,0,0],[2,1],[0]]","9","0","","","","","","3","",""
"","","","","","single-stim-button","331","964684","0.0-3.0-37.1-0.1","5e1bfb604231d840ef7103d8","A3","batch1","","887","","","tol_tohand","","","","","","","","","tol_peg_2","887","887","0","[[3,2,0],[0,0],[0]]","2","[[3,0,0],[2,1],[0]]","9","0","","","","","","3","",""
"","","","","","single-stim-button","332","965164","0.0-3.0-37.1-1.1","5e1bfb604231d840ef7103d8","A3","batch1","","479","","","tol_toboard","","","","","","","","","tol_peg_3","479","479","0","[[3,2,0],[0,0],[1]]","2","[[3,0,0],[2,1],[0]]","9","0","","","","","","3","",""
"","","","","","single-stim-button","333","965780","0.0-3.0-37.2-0.2","5e1bfb604231d840ef7103d8","A3","batch1","","616","","","tol_tohand","","","","","","","","","tol_peg_1","616","616","0","[[3,0,0],[0,0],[1]]","3","[[3,0,0],[2,1],[0]]","9","0","","","","","","3","",""
"","","","","","single-stim-button","334","966259","0.0-3.0-37.2-1.2","5e1bfb604231d840ef7103d8","A3","batch1","","479","","","tol_toboard","","","","","","","","","tol_peg_2","479","479","0","[[3,0,0],[2,0],[1]]","3","[[3,0,0],[2,1],[0]]","9","0","","","","","","3","",""
"","","","","","single-stim-button","335","966915","0.0-3.0-37.3-0.3","5e1bfb604231d840ef7103d8","A3","batch1","","655","","","tol_tohand","","","","","","","","","tol_peg_3","655","655","0","[[3,0,0],[2,0],[0]]","4","[[3,0,0],[2,1],[0]]","9","0","","","","","","3","",""
"","","","","","single-stim-button","336","967379","0.0-3.0-37.3-1.3","5e1bfb604231d840ef7103d8","A3","batch1","","464","","","tol_toboard","","","","","","","","","tol_peg_2","464","464","0","[[3,0,0],[2,1],[0]]","4","[[3,0,0],[2,1],[0]]","9","0","","","","","","3","",""
"","","","","","poldrack-single-stim","337","968394","0.0-3.0-38.0","5e1bfb604231d840ef7103d8","A3","batch1","","-1","","","tol_feedback","true","","","","","","","","","1000","1000","500","","","","","","-1","none","true","4583","6741","","",""
"","","","","","html-button-response","338","969675","0.0-3.0-39.0","5e1bfb604231d840ef7103d8","A3","batch1","","1280","<div class = centerbox><p class = center-block-text>problem <strong>11</strong> out of 25 problems</p></div>","0","tol_trial_num","","","","","","","","","","","","","","","","","","","","","","","","",""
"","","","","","single-stim-button","339","974563","0.0-3.0-40.0-0.0","5e1bfb604231d840ef7103d8","A3","batch1","","4888","","","tol_tohand","","","","","","","","","tol_peg_2","4888","4888","0","[[1,2,0],[0,0],[0]]","1","[[2,0,0],[1,3],[0]]","10","0","","","","","","6","",""
"","","","","","single-stim-button","340","975139","0.0-3.0-40.0-1.0","5e1bfb604231d840ef7103d8","A3","batch1","","576","","","tol_toboard","","","","","","","","","tol_peg_3","576","576","0","[[1,2,0],[0,0],[3]]","1","[[2,0,0],[1,3],[0]]","10","0","","","","","","6","",""
"","","","","","single-stim-button","341","982123","0.0-3.0-40.1-0.1","5e1bfb604231d840ef7103d8","A3","batch1","","6984","","","tol_tohand","","","","","","","","","tol_peg_3","6984","6984","0","[[1,2,0],[0,0],[0]]","2","[[2,0,0],[1,3],[0]]","10","0","","","","","","6","",""
"","","","","","single-stim-button","342","982612","0.0-3.0-40.1-1.1","5e1bfb604231d840ef7103d8","A3","batch1","","488","","","tol_toboard","","","","","","","","","tol_peg_2","488","488","0","[[1,2,0],[3,0],[0]]","2","[[2,0,0],[1,3],[0]]","10","0","","","","","","6","",""
"","","","","","single-stim-button","343","984115","0.0-3.0-40.2-0.2","5e1bfb604231d840ef7103d8","A3","batch1","","1503","","","tol_tohand","","","","","","","","","tol_peg_1","1503","1503","0","[[1,0,0],[3,0],[0]]","3","[[2,0,0],[1,3],[0]]","10","0","","","","","","6","",""
"","","","","","single-stim-button","344","985779","0.0-3.0-40.2-1.2","5e1bfb604231d840ef7103d8","A3","batch1","","1664","","","tol_toboard","","","","","","","","","tol_peg_3","1664","1664","0","[[1,0,0],[3,0],[2]]","3","[[2,0,0],[1,3],[0]]","10","0","","","","","","6","",""
"","","","","","single-stim-button","345","991596","0.0-3.0-40.3-0.3","5e1bfb604231d840ef7103d8","A3","batch1","","5816","","","tol_tohand","","","","","","","","","tol_peg_1","5816","5816","0","[[0,0,0],[3,0],[2]]","4","[[2,0,0],[1,3],[0]]","10","0","","","","","","6","",""
"","","","","","single-stim-button","346","992203","0.0-3.0-40.3-1.3","5e1bfb604231d840ef7103d8","A3","batch1","","607","","","tol_toboard","","","","","","","","","tol_peg_2","607","607","0","[[0,0,0],[3,1],[2]]","4","[[2,0,0],[1,3],[0]]","10","0","","","","","","6","",""
"","","","","","single-stim-button","347","992812","0.0-3.0-40.4-0.4","5e1bfb604231d840ef7103d8","A3","batch1","","608","","","tol_tohand","","","","","","","","","tol_peg_3","608","608","0","[[0,0,0],[3,1],[0]]","5","[[2,0,0],[1,3],[0]]","10","0","","","","","","6","",""
"","","","","","single-stim-button","348","994300","0.0-3.0-40.4-1.4","5e1bfb604231d840ef7103d8","A3","batch1","","1488","","","tol_toboard","","","","","","","","","tol_peg_1","1488","1488","0","[[2,0,0],[3,1],[0]]","5","[[2,0,0],[1,3],[0]]","10","0","","","","","","6","",""
"","","","","","single-stim-button","349","995475","0.0-3.0-40.5-0.5","5e1bfb604231d840ef7103d8","A3","batch1","","1175","","","tol_tohand","","","","","","","","","tol_peg_2","1175","1175","0","[[2,0,0],[3,0],[0]]","6","[[2,0,0],[1,3],[0]]","10","0","","","","","","6","",""
