"success","timeout","failed_images","failed_audio","failed_video","trial_type","trial_index","time_elapsed","internal_node_id","subject_id","study_id","session_id","task","rt","stimulus","response","item","answer","correct","spm_correct","spm_rt","view_history","fiar_detect_rt","fiar_detect_correct","total_correct_fiar_detect","post_trial_gap","choices","mouse_click","stim_duration","block_duration","timing_post_trial","current_position","tol_num_moves_made","tol_target","tol_problem_id","tol_rt","key_press","possible_responses","tol_correct","preplanning","tol_rt_per_trial","tol_min_moves"
"true","false","[]","[]","[]","preload","0","881","0.0-0.0","5e1f7b9242998a2ab95cff70","A3","batch1","","","","","","","","","","","","","","","","","","","","","","","","","","","","","",""
"true","","","","","fullscreen","1","7810","0.0-1.0-0.0","5e1f7b9242998a2ab95cff70","A3","batch1","","","","","","","","","","","","","","","","","","","","","","","","","","","","","",""
"true","","","","","fullscreen","2","29929","0.0-2.0-0.0","5e1f7b9242998a2ab95cff70","A3","batch1","spm_fullscreen","","","","","","","","","","","","","","","","","","","","","","","","","","","","",""
"","","","","","html-button-response","3","45064","0.0-2.0-1.0","5e1f7b9242998a2ab95cff70","A3","batch1","","15133.599999999977","<p class = block-text><b>Instructions</b> <br>This is a widely used intelligence test in research. <br>In this test, a figure with a missing piece will be presented.<br>Below the figure are alternative pieces to complete the figure, only one of which is correct.<br> Different figures might involve different principles for obtaining the missing piece<br>Your job is to select the most logical piece to complete the figure.</p>","0","","","","","","","","","","","","","","","","","","","","","","","","","",""
"","","","","","html-keyboard-response","4","45868","0.0-2.0-2.0-0.0","5e1f7b9242998a2ab95cff70","A3","batch1","spm_show_trial_num","null","<p class=block-text>Trial 1 out of 60</p>","null","","","","","","","","","","","","","","","","","","","","","","","","","",""
"","","","","","image-button-response","5","50065","0.0-2.0-2.0-1.0","5e1f7b9242998a2ab95cff70","A3","batch1","spm_respsonse","4192.900000000023","img/question_1_1.jpeg","3","mat_01","4","1","1","4192.900000000023","","","","","","","","","","","","","","","","","","","","",""
"","","","","","html-keyboard-response","6","51120","0.0-2.0-2.0-0.1","5e1f7b9242998a2ab95cff70","A3","batch1","spm_show_trial_num","null","<p class=block-text>Trial 2 out of 60</p>","null","","","","","","","","","","","","","","","","","","","","","","","","","",""
"","","","","","image-button-response","7","53080","0.0-2.0-2.0-1.1","5e1f7b9242998a2ab95cff70","A3","batch1","spm_respsonse","1959","img/question_1_2.jpeg","4","mat_02","5","1","1","1959","","","","","","","","","","","","","","","","","","","","",""
"","","","","","html-keyboard-response","8","54147","0.0-2.0-2.0-0.2","5e1f7b9242998a2ab95cff70","A3","batch1","spm_show_trial_num","null","<p class=block-text>Trial 3 out of 60</p>","null","","","","","","","","","","","","","","","","","","","","","","","","","",""
"","","","","","image-button-response","9","56608","0.0-2.0-2.0-1.2","5e1f7b9242998a2ab95cff70","A3","batch1","spm_respsonse","2459.5999999999767","img/question_1_3.jpeg","0","mat_03","1","1","1","2459.5999999999767","","","","","","","","","","","","","","","","","","","","",""
"","","","","","html-keyboard-response","10","57660","0.0-2.0-2.0-0.3","5e1f7b9242998a2ab95cff70","A3","batch1","spm_show_trial_num","null","<p class=block-text>Trial 4 out of 60</p>","null","","","","","","","","","","","","","","","","","","","","","","","","","",""
"","","","","","image-button-response","11","59984","0.0-2.0-2.0-1.3","5e1f7b9242998a2ab95cff70","A3","batch1","spm_respsonse","2322.600000000093","img/question_1_4.jpeg","1","mat_04","2","1","1","2322.600000000093","","","","","","","","","","","","","","","","","","","","",""
"","","","","","html-keyboard-response","12","61044","0.0-2.0-2.0-0.4","5e1f7b9242998a2ab95cff70","A3","batch1","spm_show_trial_num","null","<p class=block-text>Trial 5 out of 60</p>","null","","","","","","","","","","","","","","","","","","","","","","","","","",""
"","","","","","image-button-response","13","64120","0.0-2.0-2.0-1.4","5e1f7b9242998a2ab95cff70","A3","batch1","spm_respsonse","3074.8000000000466","img/question_1_5.jpeg","5","mat_05","6","1","1","3074.8000000000466","","","","","","","","","","","","","","","","","","","","",""
"","","","","","html-keyboard-response","14","65172","0.0-2.0-2.0-0.5","5e1f7b9242998a2ab95cff70","A3","batch1","spm_show_trial_num","null","<p class=block-text>Trial 6 out of 60</p>","null","","","","","","","","","","","","","","","","","","","","","","","","","",""
"","","","","","image-button-response","15","67657","0.0-2.0-2.0-1.5","5e1f7b9242998a2ab95cff70","A3","batch1","spm_respsonse","2482.5","img/question_1_6.jpeg","2","mat_06","3","1","1","2482.5","","","","","","","","","","","","","","","","","","","","",""
"","","","","","html-keyboard-response","16","68719","0.0-2.0-2.0-0.6","5e1f7b9242998a2ab95cff70","A3","batch1","spm_show_trial_num","null","<p class=block-text>Trial 7 out of 60</p>","null","","","","","","","","","","","","","","","","","","","","","","","","","",""
"","","","","","image-button-response","17","72649","0.0-2.0-2.0-1.6","5e1f7b9242998a2ab95cff70","A3","batch1","spm_respsonse","3928.1999999999534","img/question_1_7.jpeg","5","mat_07","6","1","1","3928.1999999999534","","","","","","","","","","","","","","","","","","","","",""
"","","","","","html-keyboard-response","18","73715","0.0-2.0-2.0-0.7","5e1f7b9242998a2ab95cff70","A3","batch1","spm_show_trial_num","null","<p class=block-text>Trial 8 out of 60</p>","null","","","","","","","","","","","","","","","","","","","","","","","","","",""
"","","","","","image-button-response","19","76993","0.0-2.0-2.0-1.7","5e1f7b9242998a2ab95cff70","A3","batch1","spm_respsonse","3275.4000000000233","img/question_1_8.jpeg","1","mat_08","2","1","1","3275.4000000000233","","","","","","","","","","","","","","","","","","","","",""
"","","","","","html-keyboard-response","20","78056","0.0-2.0-2.0-0.8","5e1f7b9242998a2ab95cff70","A3","batch1","spm_show_trial_num","null","<p class=block-text>Trial 9 out of 60</p>","null","","","","","","","","","","","","","","","","","","","","","","","","","",""
"","","","","","image-button-response","21","80904","0.0-2.0-2.0-1.8","5e1f7b9242998a2ab95cff70","A3","batch1","spm_respsonse","2846.70000000007","img/question_1_9.jpeg","0","mat_09","1","1","1","2846.70000000007","","","","","","","","","","","","","","","","","","","","",""
"","","","","","html-keyboard-response","22","81956","0.0-2.0-2.0-0.9","5e1f7b9242998a2ab95cff70","A3","batch1","spm_show_trial_num","null","<p class=block-text>Trial 10 out of 60</p>","null","","","","","","","","","","","","","","","","","","","","","","","","","",""
"","","","","","image-button-response","23","85569","0.0-2.0-2.0-1.9","5e1f7b9242998a2ab95cff70","A3","batch1","spm_respsonse","3610.6999999999534","img/question_1_10.jpeg","2","mat_10","3","1","1","3610.6999999999534","","","","","","","","","","","","","","","","","","","","",""
"","","","","","html-keyboard-response","24","86621","0.0-2.0-2.0-0.10","5e1f7b9242998a2ab95cff70","A3","batch1","spm_show_trial_num","null","<p class=block-text>Trial 11 out of 60</p>","null","","","","","","","","","","","","","","","","","","","","","","","","","",""
"","","","","","image-button-response","25","92440","0.0-2.0-2.0-1.10","5e1f7b9242998a2ab95cff70","A3","batch1","spm_respsonse","5817.29999999993","img/question_1_11.jpeg","3","mat_11","4","1","1","5817.29999999993","","","","","","","","","","","","","","","","","","","","",""
"","","","","","html-keyboard-response","26","93497","0.0-2.0-2.0-0.11","5e1f7b9242998a2ab95cff70","A3","batch1","spm_show_trial_num","null","<p class=block-text>Trial 12 out of 60</p>","null","","","","","","","","","","","","","","","","","","","","","","","","","",""
"","","","","","image-button-response","27","99232","0.0-2.0-2.0-1.11","5e1f7b9242998a2ab95cff70","A3","batch1","spm_respsonse","5733.400000000023","img/question_1_12.jpeg","5","mat_12","5","0","0","5733.400000000023","","","","","","","","","","","","","","","","","","","","",""
"","","","","","html-keyboard-response","28","100284","0.0-2.0-2.0-0.12","5e1f7b9242998a2ab95cff70","A3","batch1","spm_show_trial_num","null","<p class=block-text>Trial 13 out of 60</p>","null","","","","","","","","","","","","","","","","","","","","","","","","","",""
"","","","","","image-button-response","29","102577","0.0-2.0-2.0-1.12","5e1f7b9242998a2ab95cff70","A3","batch1","spm_respsonse","2290.9000000000233","img/question_2_1.jpeg","1","mat_13","2","1","1","2290.9000000000233","","","","","","","","","","","","","","","","","","","","",""
"","","","","","html-keyboard-response","30","103637","0.0-2.0-2.0-0.13","5e1f7b9242998a2ab95cff70","A3","batch1","spm_show_trial_num","null","<p class=block-text>Trial 14 out of 60</p>","null","","","","","","","","","","","","","","","","","","","","","","","","","",""
"","","","","","image-button-response","31","108369","0.0-2.0-2.0-1.13","5e1f7b9242998a2ab95cff70","A3","batch1","spm_respsonse","4730.599999999977","img/question_2_2.jpeg","5","mat_14","6","1","1","4730.599999999977","","","","","","","","","","","","","","","","","","","","",""
"","","","","","html-keyboard-response","32","109434","0.0-2.0-2.0-0.14","5e1f7b9242998a2ab95cff70","A3","batch1","spm_show_trial_num","null","<p class=block-text>Trial 15 out of 60</p>","null","","","","","","","","","","","","","","","","","","","","","","","","","",""
"","","","","","image-button-response","33","112360","0.0-2.0-2.0-1.14","5e1f7b9242998a2ab95cff70","A3","batch1","spm_respsonse","2924.5999999999767","img/question_2_3.jpeg","0","mat_15","1","1","1","2924.5999999999767","","","","","","","","","","","","","","","","","","","","",""
"","","","","","html-keyboard-response","34","113416","0.0-2.0-2.0-0.15","5e1f7b9242998a2ab95cff70","A3","batch1","spm_show_trial_num","null","<p class=block-text>Trial 16 out of 60</p>","null","","","","","","","","","","","","","","","","","","","","","","","","","",""
"","","","","","image-button-response","35","115472","0.0-2.0-2.0-1.15","5e1f7b9242998a2ab95cff70","A3","batch1","spm_respsonse","2054.5","img/question_2_4.jpeg","1","mat_16","2","1","1","2054.5","","","","","","","","","","","","","","","","","","","","",""
"","","","","","html-keyboard-response","36","116524","0.0-2.0-2.0-0.16","5e1f7b9242998a2ab95cff70","A3","batch1","spm_show_trial_num","null","<p class=block-text>Trial 17 out of 60</p>","null","","","","","","","","","","","","","","","","","","","","","","","","","",""
"","","","","","image-button-response","37","119985","0.0-2.0-2.0-1.16","5e1f7b9242998a2ab95cff70","A3","batch1","spm_respsonse","3459.8000000000466","img/question_2_5.jpeg","0","mat_17","1","1","1","3459.8000000000466","","","","","","","","","","","","","","","","","","","","",""
"","","","","","html-keyboard-response","38","121044","0.0-2.0-2.0-0.17","5e1f7b9242998a2ab95cff70","A3","batch1","spm_show_trial_num","null","<p class=block-text>Trial 18 out of 60</p>","null","","","","","","","","","","","","","","","","","","","","","","","","","",""
"","","","","","image-button-response","39","124737","0.0-2.0-2.0-1.17","5e1f7b9242998a2ab95cff70","A3","batch1","spm_respsonse","3691.4000000000233","img/question_2_6.jpeg","2","mat_18","3","1","1","3691.4000000000233","","","","","","","","","","","","","","","","","","","","",""
"","","","","","html-keyboard-response","40","125789","0.0-2.0-2.0-0.18","5e1f7b9242998a2ab95cff70","A3","batch1","spm_show_trial_num","null","<p class=block-text>Trial 19 out of 60</p>","null","","","","","","","","","","","","","","","","","","","","","","","","","",""
"","","","","","image-button-response","41","128522","0.0-2.0-2.0-1.18","5e1f7b9242998a2ab95cff70","A3","batch1","spm_respsonse","2732.20000000007","img/question_2_7.jpeg","4","mat_19","5","1","1","2732.20000000007","","","","","","","","","","","","","","","","","","","","",""
"","","","","","html-keyboard-response","42","129574","0.0-2.0-2.0-0.19","5e1f7b9242998a2ab95cff70","A3","batch1","spm_show_trial_num","null","<p class=block-text>Trial 20 out of 60</p>","null","","","","","","","","","","","","","","","","","","","","","","","","","",""
"","","","","","image-button-response","43","132848","0.0-2.0-2.0-1.19","5e1f7b9242998a2ab95cff70","A3","batch1","spm_respsonse","3272.70000000007","img/question_2_8.jpeg","4","mat_20","6","0","0","3272.70000000007","","","","","","","","","","","","","","","","","","","","",""
"","","","","","html-keyboard-response","44","133909","0.0-2.0-2.0-0.20","5e1f7b9242998a2ab95cff70","A3","batch1","spm_show_trial_num","null","<p class=block-text>Trial 21 out of 60</p>","null","","","","","","","","","","","","","","","","","","","","","","","","","",""
"","","","","","image-button-response","45","136713","0.0-2.0-2.0-1.20","5e1f7b9242998a2ab95cff70","A3","batch1","spm_respsonse","2802.5","img/question_2_9.jpeg","3","mat_21","4","1","1","2802.5","","","","","","","","","","","","","","","","","","","","",""
"","","","","","html-keyboard-response","46","137780","0.0-2.0-2.0-0.21","5e1f7b9242998a2ab95cff70","A3","batch1","spm_show_trial_num","null","<p class=block-text>Trial 22 out of 60</p>","null","","","","","","","","","","","","","","","","","","","","","","","","","",""
"","","","","","image-button-response","47","139792","0.0-2.0-2.0-1.21","5e1f7b9242998a2ab95cff70","A3","batch1","spm_respsonse","2010.9000000000233","img/question_2_10.jpeg","1","mat_22","3","0","0","2010.9000000000233","","","","","","","","","","","","","","","","","","","","",""
"","","","","","html-keyboard-response","48","140856","0.0-2.0-2.0-0.22","5e1f7b9242998a2ab95cff70","A3","batch1","spm_show_trial_num","null","<p class=block-text>Trial 23 out of 60</p>","null","","","","","","","","","","","","","","","","","","","","","","","","","",""
"","","","","","image-button-response","49","145840","0.0-2.0-2.0-1.22","5e1f7b9242998a2ab95cff70","A3","batch1","spm_respsonse","4983.100000000093","img/question_2_11.jpeg","1","mat_23","4","0","0","4983.100000000093","","","","","","","","","","","","","","","","","","","","",""
"","","","","","html-keyboard-response","50","146901","0.0-2.0-2.0-0.23","5e1f7b9242998a2ab95cff70","A3","batch1","spm_show_trial_num","null","<p class=block-text>Trial 24 out of 60</p>","null","","","","","","","","","","","","","","","","","","","","","","","","","",""
"","","","","","image-button-response","51","159793","0.0-2.0-2.0-1.23","5e1f7b9242998a2ab95cff70","A3","batch1","spm_respsonse","12890.5","img/question_2_12.jpeg","4","mat_24","5","1","1","12890.5","","","","","","","","","","","","","","","","","","","","",""
"","","","","","html-button-response","52","161616","0.0-2.0-3.0","5e1f7b9242998a2ab95cff70","A3","batch1","attention_check","1570.5999999999767","<p class = block-text>Attention check: Please choose 1<br></p>","0","","","true","","","","","","","","","","","","","","","","","","","","","","",""
"","","","","","html-keyboard-response","53","162418","0.0-2.0-4.0-0.0","5e1f7b9242998a2ab95cff70","A3","batch1","spm_show_trial_num","null","<p class=block-text>Trial 25 out of 60</p>","null","","","","","","","","","","","","","","","","","","","","","","","","","",""
"","","","","","image-button-response","54","169249","0.0-2.0-4.0-1.0","5e1f7b9242998a2ab95cff70","A3","batch1","spm_respsonse","6829.20000000007","img/question_3_1.jpeg","7","mat_25","8","1","1","6829.20000000007","","","","","","","","","","","","","","","","","","","","",""
"","","","","","html-keyboard-response","55","170300","0.0-2.0-4.0-0.1","5e1f7b9242998a2ab95cff70","A3","batch1","spm_show_trial_num","null","<p class=block-text>Trial 26 out of 60</p>","null","","","","","","","","","","","","","","","","","","","","","","","","","",""
"","","","","","image-button-response","56","175113","0.0-2.0-4.0-1.1","5e1f7b9242998a2ab95cff70","A3","batch1","spm_respsonse","4811.099999999977","img/question_3_2.jpeg","1","mat_26","2","1","1","4811.099999999977","","","","","","","","","","","","","","","","","","","","",""
"","","","","","html-keyboard-response","57","176169","0.0-2.0-4.0-0.2","5e1f7b9242998a2ab95cff70","A3","batch1","spm_show_trial_num","null","<p class=block-text>Trial 27 out of 60</p>","null","","","","","","","","","","","","","","","","","","","","","","","","","",""
"","","","","","image-button-response","58","182657","0.0-2.0-4.0-1.2","5e1f7b9242998a2ab95cff70","A3","batch1","spm_respsonse","6486.79999999993","img/question_3_3.jpeg","2","mat_27","3","1","1","6486.79999999993","","","","","","","","","","","","","","","","","","","","",""
"","","","","","html-keyboard-response","59","183718","0.0-2.0-4.0-0.3","5e1f7b9242998a2ab95cff70","A3","batch1","spm_show_trial_num","null","<p class=block-text>Trial 28 out of 60</p>","null","","","","","","","","","","","","","","","","","","","","","","","","","",""
"","","","","","image-button-response","60","191514","0.0-2.0-4.0-1.3","5e1f7b9242998a2ab95cff70","A3","batch1","spm_respsonse","7794.400000000023","img/question_3_4.jpeg","7","mat_28","8","1","1","7794.400000000023","","","","","","","","","","","","","","","","","","","","",""
"","","","","","html-keyboard-response","61","192566","0.0-2.0-4.0-0.4","5e1f7b9242998a2ab95cff70","A3","batch1","spm_show_trial_num","null","<p class=block-text>Trial 29 out of 60</p>","null","","","","","","","","","","","","","","","","","","","","","","","","","",""
"","","","","","image-button-response","62","204497","0.0-2.0-4.0-1.4","5e1f7b9242998a2ab95cff70","A3","batch1","spm_respsonse","11928.900000000023","img/question_3_5.jpeg","3","mat_29","7","0","0","11928.900000000023","","","","","","","","","","","","","","","","","","","","",""
"","","","","","html-keyboard-response","63","205549","0.0-2.0-4.0-0.5","5e1f7b9242998a2ab95cff70","A3","batch1","spm_show_trial_num","null","<p class=block-text>Trial 30 out of 60</p>","null","","","","","","","","","","","","","","","","","","","","","","","","","",""
"","","","","","image-button-response","64","212938","0.0-2.0-4.0-1.5","5e1f7b9242998a2ab95cff70","A3","batch1","spm_respsonse","7387.400000000023","img/question_3_6.jpeg","3","mat_30","4","1","1","7387.400000000023","","","","","","","","","","","","","","","","","","","","",""
"","","","","","html-keyboard-response","65","213998","0.0-2.0-4.0-0.6","5e1f7b9242998a2ab95cff70","A3","batch1","spm_show_trial_num","null","<p class=block-text>Trial 31 out of 60</p>","null","","","","","","","","","","","","","","","","","","","","","","","","","",""
"","","","","","image-button-response","66","221467","0.0-2.0-4.0-1.6","5e1f7b9242998a2ab95cff70","A3","batch1","spm_respsonse","7467.099999999977","img/question_3_7.jpeg","4","mat_31","5","1","1","7467.099999999977","","","","","","","","","","","","","","","","","","","","",""
"","","","","","html-keyboard-response","67","222524","0.0-2.0-4.0-0.7","5e1f7b9242998a2ab95cff70","A3","batch1","spm_show_trial_num","null","<p class=block-text>Trial 32 out of 60</p>","null","","","","","","","","","","","","","","","","","","","","","","","","","",""
"","","","","","image-button-response","68","230025","0.0-2.0-4.0-1.7","5e1f7b9242998a2ab95cff70","A3","batch1","spm_respsonse","7499.79999999993","img/question_3_8.jpeg","0","mat_32","1","1","1","7499.79999999993","","","","","","","","","","","","","","","","","","","","",""
"","","","","","html-keyboard-response","69","231078","0.0-2.0-4.0-0.8","5e1f7b9242998a2ab95cff70","A3","batch1","spm_show_trial_num","null","<p class=block-text>Trial 33 out of 60</p>","null","","","","","","","","","","","","","","","","","","","","","","","","","",""
"","","","","","image-button-response","70","239730","0.0-2.0-4.0-1.8","5e1f7b9242998a2ab95cff70","A3","batch1","spm_respsonse","8650.199999999953","img/question_3_9.jpeg","6","mat_33","7","1","1","8650.199999999953","","","","","","","","","","","","","","","","","","","","",""
"","","","","","html-keyboard-response","71","240790","0.0-2.0-4.0-0.9","5e1f7b9242998a2ab95cff70","A3","batch1","spm_show_trial_num","null","<p class=block-text>Trial 34 out of 60</p>","null","","","","","","","","","","","","","","","","","","","","","","","","","",""
"","","","","","image-button-response","72","254321","0.0-2.0-4.0-1.9","5e1f7b9242998a2ab95cff70","A3","batch1","spm_respsonse","13529.099999999977","img/question_3_10.jpeg","7","mat_34","6","0","0","13529.099999999977","","","","","","","","","","","","","","","","","","","","",""
"","","","","","html-keyboard-response","73","255376","0.0-2.0-4.0-0.10","5e1f7b9242998a2ab95cff70","A3","batch1","spm_show_trial_num","null","<p class=block-text>Trial 35 out of 60</p>","null","","","","","","","","","","","","","","","","","","","","","","","","","",""
"","","","","","image-button-response","74","270681","0.0-2.0-4.0-1.10","5e1f7b9242998a2ab95cff70","A3","batch1","spm_respsonse","15303.29999999993","img/question_3_11.jpeg","7","mat_35","1","0","0","15303.29999999993","","","","","","","","","","","","","","","","","","","","",""
"","","","","","html-keyboard-response","75","271743","0.0-2.0-4.0-0.11","5e1f7b9242998a2ab95cff70","A3","batch1","spm_show_trial_num","null","<p class=block-text>Trial 36 out of 60</p>","null","","","","","","","","","","","","","","","","","","","","","","","","","",""
"","","","","","image-button-response","76","282321","0.0-2.0-4.0-1.11","5e1f7b9242998a2ab95cff70","A3","batch1","spm_respsonse","10576.699999999953","img/question_3_12.jpeg","1","mat_36","2","1","1","10576.699999999953","","","","","","","","","","","","","","","","","","","","",""
"","","","","","html-keyboard-response","77","283383","0.0-2.0-4.0-0.12","5e1f7b9242998a2ab95cff70","A3","batch1","spm_show_trial_num","null","<p class=block-text>Trial 37 out of 60</p>","null","","","","","","","","","","","","","","","","","","","","","","","","","",""
"","","","","","image-button-response","78","285953","0.0-2.0-4.0-1.12","5e1f7b9242998a2ab95cff70","A3","batch1","spm_respsonse","2567.8000000000466","img/question_4_1.jpeg","2","mat_37","3","1","1","2567.8000000000466","","","","","","","","","","","","","","","","","","","","",""
"","","","","","html-keyboard-response","79","287004","0.0-2.0-4.0-0.13","5e1f7b9242998a2ab95cff70","A3","batch1","spm_show_trial_num","null","<p class=block-text>Trial 38 out of 60</p>","null","","","","","","","","","","","","","","","","","","","","","","","","","",""
"","","","","","image-button-response","80","293057","0.0-2.0-4.0-1.13","5e1f7b9242998a2ab95cff70","A3","batch1","spm_respsonse","6051.100000000093","img/question_4_2.jpeg","3","mat_38","4","1","1","6051.100000000093","","","","","","","","","","","","","","","","","","","","",""
"","","","","","html-keyboard-response","81","294109","0.0-2.0-4.0-0.14","5e1f7b9242998a2ab95cff70","A3","batch1","spm_show_trial_num","null","<p class=block-text>Trial 39 out of 60</p>","null","","","","","","","","","","","","","","","","","","","","","","","","","",""
"","","","","","image-button-response","82","307329","0.0-2.0-4.0-1.14","5e1f7b9242998a2ab95cff70","A3","batch1","spm_respsonse","13218.29999999993","img/question_4_3.jpeg","2","mat_39","3","1","1","13218.29999999993","","","","","","","","","","","","","","","","","","","","",""
"","","","","","html-keyboard-response","83","308381","0.0-2.0-4.0-0.15","5e1f7b9242998a2ab95cff70","A3","batch1","spm_show_trial_num","null","<p class=block-text>Trial 40 out of 60</p>","null","","","","","","","","","","","","","","","","","","","","","","","","","",""
"","","","","","image-button-response","84","314761","0.0-2.0-4.0-1.15","5e1f7b9242998a2ab95cff70","A3","batch1","spm_respsonse","6378","img/question_4_4.jpeg","6","mat_40","7","1","1","6378","","","","","","","","","","","","","","","","","","","","",""
"","","","","","html-keyboard-response","85","315822","0.0-2.0-4.0-0.16","5e1f7b9242998a2ab95cff70","A3","batch1","spm_show_trial_num","null","<p class=block-text>Trial 41 out of 60</p>","null","","","","","","","","","","","","","","","","","","","","","","","","","",""
"","","","","","image-button-response","86","321761","0.0-2.0-4.0-1.16","5e1f7b9242998a2ab95cff70","A3","batch1","spm_respsonse","5937","img/question_4_5.jpeg","7","mat_41","8","1","1","5937","","","","","","","","","","","","","","","","","","","","",""
"","","","","","html-keyboard-response","87","322813","0.0-2.0-4.0-0.17","5e1f7b9242998a2ab95cff70","A3","batch1","spm_show_trial_num","null","<p class=block-text>Trial 42 out of 60</p>","null","","","","","","","","","","","","","","","","","","","","","","","","","",""
"","","","","","image-button-response","88","332131","0.0-2.0-4.0-1.17","5e1f7b9242998a2ab95cff70","A3","batch1","spm_respsonse","9316.300000000047","img/question_4_6.jpeg","5","mat_42","6","1","1","9316.300000000047","","","","","","","","","","","","","","","","","","","","",""
"","","","","","html-keyboard-response","89","333186","0.0-2.0-4.0-0.18","5e1f7b9242998a2ab95cff70","A3","batch1","spm_show_trial_num","null","<p class=block-text>Trial 43 out of 60</p>","null","","","","","","","","","","","","","","","","","","","","","","","","","",""
"","","","","","image-button-response","90","358777","0.0-2.0-4.0-1.18","5e1f7b9242998a2ab95cff70","A3","batch1","spm_respsonse","25590.099999999977","img/question_4_7.jpeg","7","mat_43","5","0","0","25590.099999999977","","","","","","","","","","","","","","","","","","","","",""
"","","","","","html-keyboard-response","91","359833","0.0-2.0-4.0-0.19","5e1f7b9242998a2ab95cff70","A3","batch1","spm_show_trial_num","null","<p class=block-text>Trial 44 out of 60</p>","null","","","","","","","","","","","","","","","","","","","","","","","","","",""
"","","","","","image-button-response","92","381705","0.0-2.0-4.0-1.19","5e1f7b9242998a2ab95cff70","A3","batch1","spm_respsonse","21870.099999999977","img/question_4_8.jpeg","1","mat_44","4","0","0","21870.099999999977","","","","","","","","","","","","","","","","","","","","",""
"","","","","","html-keyboard-response","93","382760","0.0-2.0-4.0-0.20","5e1f7b9242998a2ab95cff70","A3","batch1","spm_show_trial_num","null","<p class=block-text>Trial 45 out of 60</p>","null","","","","","","","","","","","","","","","","","","","","","","","","","",""
"","","","","","image-button-response","94","390825","0.0-2.0-4.0-1.20","5e1f7b9242998a2ab95cff70","A3","batch1","spm_respsonse","8063","img/question_4_9.jpeg","5","mat_45","1","0","0","8063","","","","","","","","","","","","","","","","","","","","",""
"","","","","","html-keyboard-response","95","391903","0.0-2.0-4.0-0.21","5e1f7b9242998a2ab95cff70","A3","batch1","spm_show_trial_num","null","<p class=block-text>Trial 46 out of 60</p>","null","","","","","","","","","","","","","","","","","","","","","","","","","",""
"","","","","","image-button-response","96","404139","0.0-2.0-4.0-1.21","5e1f7b9242998a2ab95cff70","A3","batch1","spm_respsonse","12233.5","img/question_4_10.jpeg","1","mat_46","2","1","1","12233.5","","","","","","","","","","","","","","","","","","","","",""
"","","","","","html-keyboard-response","97","405192","0.0-2.0-4.0-0.22","5e1f7b9242998a2ab95cff70","A3","batch1","spm_show_trial_num","null","<p class=block-text>Trial 47 out of 60</p>","null","","","","","","","","","","","","","","","","","","","","","","","","","",""
"","","","","","image-button-response","98","414403","0.0-2.0-4.0-1.22","5e1f7b9242998a2ab95cff70","A3","batch1","spm_respsonse","9208.599999999977","img/question_4_11.jpeg","5","mat_47","5","0","0","9208.599999999977","","","","","","","","","","","","","","","","","","","","",""
"","","","","","html-keyboard-response","99","415460","0.0-2.0-4.0-0.23","5e1f7b9242998a2ab95cff70","A3","batch1","spm_show_trial_num","null","<p class=block-text>Trial 48 out of 60</p>","null","","","","","","","","","","","","","","","","","","","","","","","","","",""
"","","","","","image-button-response","100","424178","0.0-2.0-4.0-1.23","5e1f7b9242998a2ab95cff70","A3","batch1","spm_respsonse","8716.20000000007","img/question_4_12.jpeg","7","mat_48","6","0","0","8716.20000000007","","","","","","","","","","","","","","","","","","","","",""
"","","","","","html-keyboard-response","101","425243","0.0-2.0-4.0-0.24","5e1f7b9242998a2ab95cff70","A3","batch1","spm_show_trial_num","null","<p class=block-text>Trial 49 out of 60</p>","null","","","","","","","","","","","","","","","","","","","","","","","","","",""
"","","","","","image-button-response","102","433299","0.0-2.0-4.0-1.24","5e1f7b9242998a2ab95cff70","A3","batch1","spm_respsonse","8054.29999999993","img/question_5_1.jpeg","6","mat_49","7","1","1","8054.29999999993","","","","","","","","","","","","","","","","","","","","",""
"","","","","","html-keyboard-response","103","434361","0.0-2.0-4.0-0.25","5e1f7b9242998a2ab95cff70","A3","batch1","spm_show_trial_num","null","<p class=block-text>Trial 50 out of 60</p>","null","","","","","","","","","","","","","","","","","","","","","","","","","",""
"","","","","","image-button-response","104","440883","0.0-2.0-4.0-1.25","5e1f7b9242998a2ab95cff70","A3","batch1","spm_respsonse","6520.199999999953","img/question_5_2.jpeg","5","mat_50","6","1","1","6520.199999999953","","","","","","","","","","","","","","","","","","","","",""
"","","","","","html-keyboard-response","105","441958","0.0-2.0-4.0-0.26","5e1f7b9242998a2ab95cff70","A3","batch1","spm_show_trial_num","null","<p class=block-text>Trial 51 out of 60</p>","null","","","","","","","","","","","","","","","","","","","","","","","","","",""
"","","","","","image-button-response","106","449697","0.0-2.0-4.0-1.26","5e1f7b9242998a2ab95cff70","A3","batch1","spm_respsonse","7737.800000000047","img/question_5_3.jpeg","0","mat_51","8","0","0","7737.800000000047","","","","","","","","","","","","","","","","","","","","",""
"","","","","","html-keyboard-response","107","450750","0.0-2.0-4.0-0.27","5e1f7b9242998a2ab95cff70","A3","batch1","spm_show_trial_num","null","<p class=block-text>Trial 52 out of 60</p>","null","","","","","","","","","","","","","","","","","","","","","","","","","",""
"","","","","","image-button-response","108","458721","0.0-2.0-4.0-1.27","5e1f7b9242998a2ab95cff70","A3","batch1","spm_respsonse","7968.400000000023","img/question_5_4.jpeg","1","mat_52","2","1","1","7968.400000000023","","","","","","","","","","","","","","","","","","","","",""
"","","","","","html-keyboard-response","109","459773","0.0-2.0-4.0-0.28","5e1f7b9242998a2ab95cff70","A3","batch1","spm_show_trial_num","null","<p class=block-text>Trial 53 out of 60</p>","null","","","","","","","","","","","","","","","","","","","","","","","","","",""
"","","","","","image-button-response","110","473355","0.0-2.0-4.0-1.28","5e1f7b9242998a2ab95cff70","A3","batch1","spm_respsonse","13580.199999999953","img/question_5_5.jpeg","0","mat_53","1","1","1","13580.199999999953","","","","","","","","","","","","","","","","","","","","",""
"","","","","","html-keyboard-response","111","474406","0.0-2.0-4.0-0.29","5e1f7b9242998a2ab95cff70","A3","batch1","spm_show_trial_num","null","<p class=block-text>Trial 54 out of 60</p>","null","","","","","","","","","","","","","","","","","","","","","","","","","",""
"","","","","","image-button-response","112","483362","0.0-2.0-4.0-1.29","5e1f7b9242998a2ab95cff70","A3","batch1","spm_respsonse","8953.79999999993","img/question_5_6.jpeg","1","mat_54","5","0","0","8953.79999999993","","","","","","","","","","","","","","","","","","","","",""
"","","","","","html-keyboard-response","113","484413","0.0-2.0-4.0-0.30","5e1f7b9242998a2ab95cff70","A3","batch1","spm_show_trial_num","null","<p class=block-text>Trial 55 out of 60</p>","null","","","","","","","","","","","","","","","","","","","","","","","","","",""
"","","","","","image-button-response","114","492658","0.0-2.0-4.0-1.30","5e1f7b9242998a2ab95cff70","A3","batch1","spm_respsonse","8242.600000000093","img/question_5_7.jpeg","3","mat_55","1","0","0","8242.600000000093","","","","","","","","","","","","","","","","","","","","",""
"","","","","","html-keyboard-response","115","493713","0.0-2.0-4.0-0.31","5e1f7b9242998a2ab95cff70","A3","batch1","spm_show_trial_num","null","<p class=block-text>Trial 56 out of 60</p>","null","","","","","","","","","","","","","","","","","","","","","","","","","",""
"","","","","","image-button-response","116","499481","0.0-2.0-4.0-1.31","5e1f7b9242998a2ab95cff70","A3","batch1","spm_respsonse","5766.699999999953","img/question_5_8.jpeg","0","mat_56","6","0","0","5766.699999999953","","","","","","","","","","","","","","","","","","","","",""
"","","","","","html-keyboard-response","117","500533","0.0-2.0-4.0-0.32","5e1f7b9242998a2ab95cff70","A3","batch1","spm_show_trial_num","null","<p class=block-text>Trial 57 out of 60</p>","null","","","","","","","","","","","","","","","","","","","","","","","","","",""
"","","","","","image-button-response","118","504690","0.0-2.0-4.0-1.32","5e1f7b9242998a2ab95cff70","A3","batch1","spm_respsonse","4155","img/question_5_9.jpeg","6","mat_57","3","0","0","4155","","","","","","","","","","","","","","","","","","","","",""
"","","","","","html-keyboard-response","119","505751","0.0-2.0-4.0-0.33","5e1f7b9242998a2ab95cff70","A3","batch1","spm_show_trial_num","null","<p class=block-text>Trial 58 out of 60</p>","null","","","","","","","","","","","","","","","","","","","","","","","","","",""
"","","","","","image-button-response","120","511337","0.0-2.0-4.0-1.33","5e1f7b9242998a2ab95cff70","A3","batch1","spm_respsonse","5585.20000000007","img/question_5_10.jpeg","5","mat_58","2","0","0","5585.20000000007","","","","","","","","","","","","","","","","","","","","",""
"","","","","","html-keyboard-response","121","512393","0.0-2.0-4.0-0.34","5e1f7b9242998a2ab95cff70","A3","batch1","spm_show_trial_num","null","<p class=block-text>Trial 59 out of 60</p>","null","","","","","","","","","","","","","","","","","","","","","","","","","",""
"","","","","","image-button-response","122","519130","0.0-2.0-4.0-1.34","5e1f7b9242998a2ab95cff70","A3","batch1","spm_respsonse","6735.400000000023","img/question_5_11.jpeg","2","mat_59","4","0","0","6735.400000000023","","","","","","","","","","","","","","","","","","","","",""
"","","","","","html-keyboard-response","123","520197","0.0-2.0-4.0-0.35","5e1f7b9242998a2ab95cff70","A3","batch1","spm_show_trial_num","null","<p class=block-text>Trial 60 out of 60</p>","null","","","","","","","","","","","","","","","","","","","","","","","","","",""
"","","","","","image-button-response","124","528891","0.0-2.0-4.0-1.35","5e1f7b9242998a2ab95cff70","A3","batch1","spm_respsonse","8691.29999999993","img/question_5_12.jpeg","6","mat_60","5","0","0","8691.29999999993","","","","","","","","","","","","","","","","","","","","",""
"","","","","","html-button-response","125","530641","0.0-2.0-5.0","5e1f7b9242998a2ab95cff70","A3","batch1","spm_goodbye","1496.0999999998603","<p class= block-text>This concludes the Standard Progressive Matrix game. Thank you for your responses!<br> When you are ready, click the button continue</p>","0","","","","","","","","","","","","","","","","","","","","","","","","","",""
"true","","","","","fullscreen","126","535137","0.0-3.0-0.0","5e1f7b9242998a2ab95cff70","A3","batch1","","","","","","","","","","","","","","","","","","","","","","","","","","","","","",""
"","","","","","instructions","127","569697","0.0-3.0-1.0-0.0","5e1f7b9242998a2ab95cff70","A3","batch1","","34559.299999999814","","","","","","","","[{""page_index"":0,""viewing_time"":31199.5},{""page_index"":1,""viewing_time"":3359.5}]","","","","","","","","","","","","","","","","","","","",""
"","","","","","html-button-response","128","570649","0.0-3.0-1.0-1.0-0.0","5e1f7b9242998a2ab95cff70","A3","batch1","pattern_enter_quiz","951.6000000000931","<p class=block-text> Let's answer a few questions <br>","0","","","","","","","","","","","","","","","","","","","","","","","","","",""
"","","","","","html-button-response","129","573241","0.0-3.0-1.0-1.0-1.0","5e1f7b9242998a2ab95cff70","A3","batch1","pattern_quiz","2590.6999999999534","<p class = block-text>True or False: You will have as much time as you want to make each choice. <br></p>","1","","","true","","","","","","","","","","","","","","","","","","","","","","",""
"","","","","","html-button-response","130","574105","0.0-3.0-1.0-1.0-2.0","5e1f7b9242998a2ab95cff70","A3","batch1","pattern_quiz_feedback","861.8999999999069","<p class = block-text>Correct! You should make your choice <strong> as fast as you can</strong>.</p>","0","","","","","","","","","","","","","","","","","","","","","","","","","",""
"","","","","","html-button-response","131","577433","0.0-3.0-1.0-1.0-3.0","5e1f7b9242998a2ab95cff70","A3","batch1","pattern_quiz","3327.5","<p class = block-text>True or False: You will look for 4 pieces in black or white color connected in a row either horizontally, vertically or diagonally. <br></p>","0","","","true","","","","","","","","","","","","","","","","","","","","","","",""
"","","","","","html-button-response","132","578073","0.0-3.0-1.0-1.0-4.0","5e1f7b9242998a2ab95cff70","A3","batch1","pattern_quiz_feedback","639","<p class = block-text>Correct! </p>","0","","","","","","","","","","","","","","","","","","","","","","","","","",""
"","","","","","html-button-response","133","579721","0.0-3.0-2.0","5e1f7b9242998a2ab95cff70","A3","batch1","pattern_enter_practice","1646.3000000000466","<p class=block-text> Now that you've understood the game, let's do a few practice trials before we start!<br> <br>","0","","","","","","","","","","","","","","","","","","","","","","","","","",""
"","","","","","image-keyboard-response","134","582040","0.0-3.0-3.0-0.0","5e1f7b9242998a2ab95cff70","A3","batch1","pattern_practice","2317.9000000001397","stim/prac_yes_18_hor_w1.png","f","","f","true","","","","","","","","","","","","","","","","","","","","","","",""
"","","","","","html-keyboard-response","135","583063","0.0-3.0-3.0-1.0","5e1f7b9242998a2ab95cff70","A3","batch1","pattern_feedback","null","<p style=""font-size:30px;color:green;"">Correct!</p>","null","","","","","","","","","","","","","","","","","","","","","","","","","",""
"","","","","","image-keyboard-response","136","585241","0.0-3.0-3.0-0.1","5e1f7b9242998a2ab95cff70","A3","batch1","pattern_practice","2176.100000000093","stim/prac_no_16_1.png","j","","j","true","","","","","","","","","","","","","","","","","","","","","","",""
"","","","","","html-keyboard-response","137","586247","0.0-3.0-3.0-1.1","5e1f7b9242998a2ab95cff70","A3","batch1","pattern_feedback","null","<p style=""font-size:30px;color:green;"">Correct!</p>","null","","","","","","","","","","","","","","","","","","","","","","","","","",""
"","","","","","image-keyboard-response","138","587935","0.0-3.0-3.0-0.2","5e1f7b9242998a2ab95cff70","A3","batch1","pattern_practice","1686.6999999999534","stim/prac_no_18_1.png","j","","j","true","","","","","","","","","","","","","","","","","","","","","","",""
"","","","","","html-keyboard-response","139","588962","0.0-3.0-3.0-1.2","5e1f7b9242998a2ab95cff70","A3","batch1","pattern_feedback","null","<p style=""font-size:30px;color:green;"">Correct!</p>","null","","","","","","","","","","","","","","","","","","","","","","","","","",""
"","","","","","image-keyboard-response","140","590174","0.0-3.0-3.0-0.3","5e1f7b9242998a2ab95cff70","A3","batch1","pattern_practice","1211.1999999999534","stim/prac_yes_20_dia_b1.png","f","","f","true","","","","","","","","","","","","","","","","","","","","","","",""
"","","","","","html-keyboard-response","141","591198","0.0-3.0-3.0-1.3","5e1f7b9242998a2ab95cff70","A3","batch1","pattern_feedback","null","<p style=""font-size:30px;color:green;"">Correct!</p>","null","","","","","","","","","","","","","","","","","","","","","","","","","",""
"","","","","","image-keyboard-response","142","592186","0.0-3.0-3.0-0.4","5e1f7b9242998a2ab95cff70","A3","batch1","pattern_practice","987.1000000000931","stim/prac_yes_16_ver_w1.png","f","","f","true","","","","","","","","","","","","","","","","","","","","","","",""
"","","","","","html-keyboard-response","143","593197","0.0-3.0-3.0-1.4","5e1f7b9242998a2ab95cff70","A3","batch1","pattern_feedback","null","<p style=""font-size:30px;color:green;"">Correct!</p>","null","","","","","","","","","","","","","","","","","","","","","","","","","",""
"","","","","","html-button-response","144","595769","0.0-3.0-4.0","5e1f7b9242998a2ab95cff70","A3","batch1","pattern_enter_official_trials","2571","<p class=block-text> Good job! You are done with practice trials!<br>
        You responded correctly on 100% of the trials.<br>
        Press the button below to start official trials. Now you won't see any feedback about your response</p>","0","","","","","","","","","","","","","","","","","","","","","","","","","",""
"","","","","","html-keyboard-response","145","596585","0.0-3.0-5.0-0.0","5e1f7b9242998a2ab95cff70","A3","batch1","pattern_show_trial_num","null","<p class=block-text>Trial 1 out of 78</p>","null","","","","","","","","","","","","","","","","","","","","","","","","","",""
"","","","","","image-keyboard-response","146","597848","0.0-3.0-5.0-1.0","5e1f7b9242998a2ab95cff70","A3","batch1","pattern_response","1262.8999999999069","stim/yes_29_hor_b1_b.png","f","pattern_52","f","true","","","","1262.8999999999069","true","1","","","","","","","","","","","","","","","","",""
"","","","","","html-keyboard-response","147","599173","0.0-3.0-5.0-0.1","5e1f7b9242998a2ab95cff70","A3","batch1","pattern_show_trial_num","null","<p class=block-text>Trial 2 out of 78</p>","null","","","","","","","","","","","","","","","","","","","","","","","","","",""
"","","","","","image-keyboard-response","148","602733","0.0-3.0-5.0-1.1","5e1f7b9242998a2ab95cff70","A3","batch1","pattern_response","3558.6999999999534","stim/no_58_1_w.png","j","pattern_35","j","true","","","","3558.6999999999534","true","2","","","","","","","","","","","","","","","","",""
"","","","","","html-keyboard-response","149","604050","0.0-3.0-5.0-0.2","5e1f7b9242998a2ab95cff70","A3","batch1","pattern_show_trial_num","null","<p class=block-text>Trial 3 out of 78</p>","null","","","","","","","","","","","","","","","","","","","","","","","","","",""
"","","","","","image-keyboard-response","150","608766","0.0-3.0-5.0-1.2","5e1f7b9242998a2ab95cff70","A3","batch1","pattern_response","4714.300000000047","stim/no_45_1_w.png","j","pattern_25","j","true","","","","4714.300000000047","true","3","","","","","","","","","","","","","","","","",""
"","","","","","html-keyboard-response","151","610080","0.0-3.0-5.0-0.3","5e1f7b9242998a2ab95cff70","A3","batch1","pattern_show_trial_num","null","<p class=block-text>Trial 4 out of 78</p>","null","","","","","","","","","","","","","","","","","","","","","","","","","",""
"","","","","","image-keyboard-response","152","612113","0.0-3.0-5.0-1.3","5e1f7b9242998a2ab95cff70","A3","batch1","pattern_response","2032","stim/yes_58_dia_w1_w.png","f","pattern_76","f","true","","","","2032","true","4","","","","","","","","","","","","","","","","",""
"","","","","","html-keyboard-response","153","613430","0.0-3.0-5.0-0.4","5e1f7b9242998a2ab95cff70","A3","batch1","pattern_show_trial_num","null","<p class=block-text>Trial 5 out of 78</p>","null","","","","","","","","","","","","","","","","","","","","","","","","","",""
"","","","","","image-keyboard-response","154","615265","0.0-3.0-5.0-1.4","5e1f7b9242998a2ab95cff70","A3","batch1","pattern_response","1832.8999999999069","stim/no_18_1_b.png","j","pattern_05","j","true","","","","1832.8999999999069","true","5","","","","","","","","","","","","","","","","",""
"","","","","","html-keyboard-response","155","616575","0.0-3.0-5.0-0.5","5e1f7b9242998a2ab95cff70","A3","batch1","pattern_show_trial_num","null","<p class=block-text>Trial 6 out of 78</p>","null","","","","","","","","","","","","","","","","","","","","","","","","","",""
"","","","","","image-keyboard-response","156","622098","0.0-3.0-5.0-1.5","5e1f7b9242998a2ab95cff70","A3","batch1","pattern_response","5522","stim/no_49_2_b.png","j","pattern_29","j","true","","","","5522","true","6","","","","","","","","","","","","","","","","",""
"","","","","","html-keyboard-response","157","623415","0.0-3.0-5.0-0.6","5e1f7b9242998a2ab95cff70","A3","batch1","pattern_show_trial_num","null","<p class=block-text>Trial 7 out of 78</p>","null","","","","","","","","","","","","","","","","","","","","","","","","","",""
"","","","","","image-keyboard-response","158","624670","0.0-3.0-5.0-1.6","5e1f7b9242998a2ab95cff70","A3","batch1","pattern_response","1253.8999999999069","stim/yes_70_ver_b1.png","f","pattern_80","f","true","","","","1253.8999999999069","true","7","","","","","","","","","","","","","","","","",""
"","","","","","html-keyboard-response","159","625974","0.0-3.0-5.0-0.7","5e1f7b9242998a2ab95cff70","A3","batch1","pattern_show_trial_num","null","<p class=block-text>Trial 8 out of 78</p>","null","","","","","","","","","","","","","","","","","","","","","","","","","",""
"","","","","","image-keyboard-response","160","626524","0.0-3.0-5.0-1.7","5e1f7b9242998a2ab95cff70","A3","batch1","pattern_response","549.3000000000466","stim/yes_12_hor_w1_w.png","f","pattern_42","f","true","","","","549.3000000000466","true","8","","","","","","","","","","","","","","","","",""
"","","","","","html-keyboard-response","161","627846","0.0-3.0-5.0-0.8","5e1f7b9242998a2ab95cff70","A3","batch1","pattern_show_trial_num","null","<p class=block-text>Trial 9 out of 78</p>","null","","","","","","","","","","","","","","","","","","","","","","","","","",""
"","","","","","image-keyboard-response","162","633709","0.0-3.0-5.0-1.8","5e1f7b9242998a2ab95cff70","A3","batch1","pattern_response","5861.300000000047","stim/no_47_1_b.png","j","pattern_27","j","true","","","","5861.300000000047","true","9","","","","","","","","","","","","","","","","",""
"","","","","","html-keyboard-response","163","635021","0.0-3.0-5.0-0.9","5e1f7b9242998a2ab95cff70","A3","batch1","pattern_show_trial_num","null","<p class=block-text>Trial 10 out of 78</p>","null","","","","","","","","","","","","","","","","","","","","","","","","","",""
"","","","","","image-keyboard-response","164","639727","0.0-3.0-5.0-1.9","5e1f7b9242998a2ab95cff70","A3","batch1","pattern_response","4704.800000000047","stim/yes_44_ver_w1_w.png","j","pattern_66","f","false","","","","4704.800000000047","false","9","","","","","","","","","","","","","","","","",""
"","","","","","html-keyboard-response","165","641050","0.0-3.0-5.0-0.10","5e1f7b9242998a2ab95cff70","A3","batch1","pattern_show_trial_num","null","<p class=block-text>Trial 11 out of 78</p>","null","","","","","","","","","","","","","","","","","","","","","","","","","",""
"","","","","","image-keyboard-response","166","642716","0.0-3.0-5.0-1.10","5e1f7b9242998a2ab95cff70","A3","batch1","pattern_response","1664.6000000000931","stim/no_25_1_b.png","j","pattern_09","j","true","","","","1664.6000000000931","true","10","","","","","","","","","","","","","","","","",""
"","","","","","html-keyboard-response","167","644028","0.0-3.0-5.0-0.11","5e1f7b9242998a2ab95cff70","A3","batch1","pattern_show_trial_num","null","<p class=block-text>Trial 12 out of 78</p>","null","","","","","","","","","","","","","","","","","","","","","","","","","",""
"","","","","","image-keyboard-response","168","648799","0.0-3.0-5.0-1.11","5e1f7b9242998a2ab95cff70","A3","batch1","pattern_response","4770.59999999986","stim/no_51_1.png","j","pattern_31","j","true","","","","4770.59999999986","true","11","","","","","","","","","","","","","","","","",""
"","","","","","html-keyboard-response","169","650114","0.0-3.0-5.0-0.12","5e1f7b9242998a2ab95cff70","A3","batch1","pattern_show_trial_num","null","<p class=block-text>Trial 13 out of 78</p>","null","","","","","","","","","","","","","","","","","","","","","","","","","",""
"","","","","","image-keyboard-response","170","651304","0.0-3.0-5.0-1.12","5e1f7b9242998a2ab95cff70","A3","batch1","pattern_response","1188.4000000001397","stim/yes_30_ver_b1_b.png","f","pattern_54","f","true","","","","1188.4000000001397","true","12","","","","","","","","","","","","","","","","",""
"","","","","","html-keyboard-response","171","652624","0.0-3.0-5.0-0.13","5e1f7b9242998a2ab95cff70","A3","batch1","pattern_show_trial_num","null","<p class=block-text>Trial 14 out of 78</p>","null","","","","","","","","","","","","","","","","","","","","","","","","","",""
"","","","","","image-keyboard-response","172","655431","0.0-3.0-5.0-1.13","5e1f7b9242998a2ab95cff70","A3","batch1","pattern_response","2806.3000000000466","stim/no_30_1_b.png","j","pattern_13","j","true","","","","2806.3000000000466","true","13","","","","","","","","","","","","","","","","",""
"","","","","","html-keyboard-response","173","656735","0.0-3.0-5.0-0.14","5e1f7b9242998a2ab95cff70","A3","batch1","pattern_show_trial_num","null","<p class=block-text>Trial 15 out of 78</p>","null","","","","","","","","","","","","","","","","","","","","","","","","","",""
"","","","","","image-keyboard-response","174","657830","0.0-3.0-5.0-1.14","5e1f7b9242998a2ab95cff70","A3","batch1","pattern_response","1093.9000000001397","stim/yes_33_dia_w1_w.png","f","pattern_56","f","true","","","","1093.9000000001397","true","14","","","","","","","","","","","","","","","","",""
"","","","","","html-keyboard-response","175","659154","0.0-3.0-5.0-0.15","5e1f7b9242998a2ab95cff70","A3","batch1","pattern_show_trial_num","null","<p class=block-text>Trial 16 out of 78</p>","null","","","","","","","","","","","","","","","","","","","","","","","","","",""
"","","","","","image-keyboard-response","176","661747","0.0-3.0-5.0-1.15","5e1f7b9242998a2ab95cff70","A3","batch1","pattern_response","2592.1999999999534","stim/no_43_2_b.png","j","pattern_23","j","true","","","","2592.1999999999534","true","15","","","","","","","","","","","","","","","","",""
"","","","","","html-keyboard-response","177","663069","0.0-3.0-5.0-0.16","5e1f7b9242998a2ab95cff70","A3","batch1","pattern_show_trial_num","null","<p class=block-text>Trial 17 out of 78</p>","null","","","","","","","","","","","","","","","","","","","","","","","","","",""
"","","","","","image-keyboard-response","178","666374","0.0-3.0-5.0-1.16","5e1f7b9242998a2ab95cff70","A3","batch1","pattern_response","3303.1999999999534","stim/no_36_1_b.png","j","pattern_17","j","true","","","","3303.1999999999534","true","16","","","","","","","","","","","","","","","","",""
"","","","","","html-keyboard-response","179","667702","0.0-3.0-5.0-0.17","5e1f7b9242998a2ab95cff70","A3","batch1","pattern_show_trial_num","null","<p class=block-text>Trial 18 out of 78</p>","null","","","","","","","","","","","","","","","","","","","","","","","","","",""
"","","","","","image-keyboard-response","180","671924","0.0-3.0-5.0-1.17","5e1f7b9242998a2ab95cff70","A3","batch1","pattern_response","4220.700000000186","stim/yes_42_dia_w1_w.png","j","pattern_64","f","false","","","","4220.700000000186","false","16","","","","","","","","","","","","","","","","",""
"","","","","","html-keyboard-response","181","673247","0.0-3.0-5.0-0.18","5e1f7b9242998a2ab95cff70","A3","batch1","pattern_show_trial_num","null","<p class=block-text>Trial 19 out of 78</p>","null","","","","","","","","","","","","","","","","","","","","","","","","","",""
"","","","","","image-keyboard-response","182","674354","0.0-3.0-5.0-1.18","5e1f7b9242998a2ab95cff70","A3","batch1","pattern_response","1105.9000000001397","stim/yes_17_ver_b1_b.png","f","pattern_46","f","true","","","","1105.9000000001397","true","17","","","","","","","","","","","","","","","","",""
"","","","","","html-keyboard-response","183","675667","0.0-3.0-5.0-0.19","5e1f7b9242998a2ab95cff70","A3","batch1","pattern_show_trial_num","null","<p class=block-text>Trial 20 out of 78</p>","null","","","","","","","","","","","","","","","","","","","","","","","","","",""
"","","","","","image-keyboard-response","184","678717","0.0-3.0-5.0-1.19","5e1f7b9242998a2ab95cff70","A3","batch1","pattern_response","3048.5","stim/no_33_1_b.png","j","pattern_15","j","true","","","","3048.5","true","18","","","","","","","","","","","","","","","","",""
"","","","","","html-keyboard-response","185","680020","0.0-3.0-5.0-0.20","5e1f7b9242998a2ab95cff70","A3","batch1","pattern_show_trial_num","null","<p class=block-text>Trial 21 out of 78</p>","null","","","","","","","","","","","","","","","","","","","","","","","","","",""
"","","","","","image-keyboard-response","186","681300","0.0-3.0-5.0-1.20","5e1f7b9242998a2ab95cff70","A3","batch1","pattern_response","1278.6999999999534","stim/yes_46_ver_b1_b.png","f","pattern_68","f","true","","","","1278.6999999999534","true","19","","","","","","","","","","","","","","","","",""
"","","","","","html-keyboard-response","187","682617","0.0-3.0-5.0-0.21","5e1f7b9242998a2ab95cff70","A3","batch1","pattern_show_trial_num","null","<p class=block-text>Trial 22 out of 78</p>","null","","","","","","","","","","","","","","","","","","","","","","","","","",""
"","","","","","image-keyboard-response","188","686025","0.0-3.0-5.0-1.21","5e1f7b9242998a2ab95cff70","A3","batch1","pattern_response","3402.8000000000466","stim/no_39_1_w.png","j","pattern_21","j","true","","","","3402.8000000000466","true","20","","","","","","","","","","","","","","","","",""
"","","","","","html-keyboard-response","189","687342","0.0-3.0-5.0-0.22","5e1f7b9242998a2ab95cff70","A3","batch1","pattern_show_trial_num","null","<p class=block-text>Trial 23 out of 78</p>","null","","","","","","","","","","","","","","","","","","","","","","","","","",""
"","","","","","image-keyboard-response","190","691615","0.0-3.0-5.0-1.22","5e1f7b9242998a2ab95cff70","A3","batch1","pattern_response","4271.199999999953","stim/yes_63_dia_b1.png","j","pattern_78","f","false","","","","4271.199999999953","false","20","","","","","","","","","","","","","","","","",""
"","","","","","html-keyboard-response","191","692936","0.0-3.0-5.0-0.23","5e1f7b9242998a2ab95cff70","A3","batch1","pattern_show_trial_num","null","<p class=block-text>Trial 24 out of 78</p>","null","","","","","","","","","","","","","","","","","","","","","","","","","",""
"","","","","","image-keyboard-response","192","694015","0.0-3.0-5.0-1.23","5e1f7b9242998a2ab95cff70","A3","batch1","pattern_response","1077.1999999999534","stim/no_12_1.png","j","pattern_01","j","true","","","","1077.1999999999534","true","21","","","","","","","","","","","","","","","","",""
"","","","","","html-keyboard-response","193","695336","0.0-3.0-5.0-0.24","5e1f7b9242998a2ab95cff70","A3","batch1","pattern_show_trial_num","null","<p class=block-text>Trial 25 out of 78</p>","null","","","","","","","","","","","","","","","","","","","","","","","","","",""
"","","","","","image-keyboard-response","194","697587","0.0-3.0-5.0-1.24","5e1f7b9242998a2ab95cff70","A3","batch1","pattern_response","2249.100000000093","stim/yes_49_hor_w1_b.png","f","pattern_70","f","true","","","","2249.100000000093","true","22","","","","","","","","","","","","","","","","",""
"","","","","","html-keyboard-response","195","698910","0.0-3.0-5.0-0.25","5e1f7b9242998a2ab95cff70","A3","batch1","pattern_show_trial_num","null","<p class=block-text>Trial 26 out of 78</p>","null","","","","","","","","","","","","","","","","","","","","","","","","","",""
"","","","","","image-keyboard-response","196","699866","0.0-3.0-5.0-1.25","5e1f7b9242998a2ab95cff70","A3","batch1","pattern_response","955.6000000000931","stim/yes_23_ver_b1.png","f","pattern_48","f","true","","","","955.6000000000931","true","23","","","","","","","","","","","","","","","","",""
"","","","","","html-keyboard-response","197","701170","0.0-3.0-5.0-0.26","5e1f7b9242998a2ab95cff70","A3","batch1","pattern_show_trial_num","null","<p class=block-text>Trial 27 out of 78</p>","null","","","","","","","","","","","","","","","","","","","","","","","","","",""
"","","","","","image-keyboard-response","198","701911","0.0-3.0-5.0-1.26","5e1f7b9242998a2ab95cff70","A3","batch1","pattern_response","739.3999999999069","stim/yes_15_dia_b1u_b.png","f","pattern_44","f","true","","","","739.3999999999069","true","24","","","","","","","","","","","","","","","","",""
"","","","","","html-keyboard-response","199","703235","0.0-3.0-5.0-0.27","5e1f7b9242998a2ab95cff70","A3","batch1","pattern_show_trial_num","null","<p class=block-text>Trial 28 out of 78</p>","null","","","","","","","","","","","","","","","","","","","","","","","","","",""
"","","","","","image-keyboard-response","200","703934","0.0-3.0-5.0-1.27","5e1f7b9242998a2ab95cff70","A3","batch1","pattern_response","697.2999999998137","stim/yes_36_ver_w1_w.png","f","pattern_58","f","true","","","","697.2999999998137","true","25","","","","","","","","","","","","","","","","",""
"","","","","","html-keyboard-response","201","705247","0.0-3.0-5.0-0.28","5e1f7b9242998a2ab95cff70","A3","batch1","pattern_show_trial_num","null","<p class=block-text>Trial 29 out of 78</p>","null","","","","","","","","","","","","","","","","","","","","","","","","","",""
"","","","","","image-keyboard-response","202","706625","0.0-3.0-5.0-1.28","5e1f7b9242998a2ab95cff70","A3","batch1","pattern_response","1376.2999999998137","stim/no_15_1_w.png","j","pattern_03","j","true","","","","1376.2999999998137","true","26","","","","","","","","","","","","","","","","",""
"","","","","","html-keyboard-response","203","707950","0.0-3.0-5.0-0.29","5e1f7b9242998a2ab95cff70","A3","batch1","pattern_show_trial_num","null","<p class=block-text>Trial 30 out of 78</p>","null","","","","","","","","","","","","","","","","","","","","","","","","","",""
"","","","","","image-keyboard-response","204","708943","0.0-3.0-5.0-1.29","5e1f7b9242998a2ab95cff70","A3","batch1","pattern_response","991.5","stim/yes_37_hor_w1_w.png","f","pattern_60","f","true","","","","991.5","true","27","","","","","","","","","","","","","","","","",""
"","","","","","html-keyboard-response","205","710262","0.0-3.0-5.0-0.30","5e1f7b9242998a2ab95cff70","A3","batch1","pattern_show_trial_num","null","<p class=block-text>Trial 31 out of 78</p>","null","","","","","","","","","","","","","","","","","","","","","","","","","",""
"","","","","","image-keyboard-response","206","715496","0.0-3.0-5.0-1.30","5e1f7b9242998a2ab95cff70","A3","batch1","pattern_response","5232.899999999907","stim/no_67_1.png","j","pattern_39","j","true","","","","5232.899999999907","true","28","","","","","","","","","","","","","","","","",""
"","","","","","html-keyboard-response","207","716800","0.0-3.0-5.0-0.31","5e1f7b9242998a2ab95cff70","A3","batch1","pattern_show_trial_num","null","<p class=block-text>Trial 32 out of 78</p>","null","","","","","","","","","","","","","","","","","","","","","","","","","",""
"","","","","","image-keyboard-response","208","717545","0.0-3.0-5.0-1.31","5e1f7b9242998a2ab95cff70","A3","batch1","pattern_response","743.2999999998137","stim/yes_39_hor_w1_w.png","f","pattern_62","f","true","","","","743.2999999998137","true","29","","","","","","","","","","","","","","","","",""
"","","","","","html-keyboard-response","209","718865","0.0-3.0-5.0-0.32","5e1f7b9242998a2ab95cff70","A3","batch1","pattern_show_trial_num","null","<p class=block-text>Trial 33 out of 78</p>","null","","","","","","","","","","","","","","","","","","","","","","","","","",""
"","","","","","image-keyboard-response","210","721162","0.0-3.0-5.0-1.32","5e1f7b9242998a2ab95cff70","A3","batch1","pattern_response","2295","stim/yes_53_ver_b1_b.png","f","pattern_74","f","true","","","","2295","true","30","","","","","","","","","","","","","","","","",""
"","","","","","html-keyboard-response","211","722487","0.0-3.0-5.0-0.33","5e1f7b9242998a2ab95cff70","A3","batch1","pattern_show_trial_num","null","<p class=block-text>Trial 34 out of 78</p>","null","","","","","","","","","","","","","","","","","","","","","","","","","",""
"","","","","","image-keyboard-response","212","724019","0.0-3.0-5.0-1.33","5e1f7b9242998a2ab95cff70","A3","batch1","pattern_response","1531.6000000000931","stim/yes_26_dia_w2_w.png","f","pattern_50","f","true","","","","1531.6000000000931","true","31","","","","","","","","","","","","","","","","",""
"","","","","","html-keyboard-response","213","725330","0.0-3.0-5.0-0.34","5e1f7b9242998a2ab95cff70","A3","batch1","pattern_show_trial_num","null","<p class=block-text>Trial 35 out of 78</p>","null","","","","","","","","","","","","","","","","","","","","","","","","","",""
"","","","","","image-keyboard-response","214","727046","0.0-3.0-5.0-1.34","5e1f7b9242998a2ab95cff70","A3","batch1","pattern_response","1714.1999999999534","stim/no_22_1_b.png","j","pattern_07","j","true","","","","1714.1999999999534","true","32","","","","","","","","","","","","","","","","",""
"","","","","","html-keyboard-response","215","728364","0.0-3.0-5.0-0.35","5e1f7b9242998a2ab95cff70","A3","batch1","pattern_show_trial_num","null","<p class=block-text>Trial 36 out of 78</p>","null","","","","","","","","","","","","","","","","","","","","","","","","","",""
"","","","","","image-keyboard-response","216","731290","0.0-3.0-5.0-1.35","5e1f7b9242998a2ab95cff70","A3","batch1","pattern_response","2925","stim/no_37_2_w.png","j","pattern_19","j","true","","","","2925","true","33","","","","","","","","","","","","","","","","",""
"","","","","","html-keyboard-response","217","732610","0.0-3.0-5.0-0.36","5e1f7b9242998a2ab95cff70","A3","batch1","pattern_show_trial_num","null","<p class=block-text>Trial 37 out of 78</p>","null","","","","","","","","","","","","","","","","","","","","","","","","","",""
"","","","","","image-keyboard-response","218","735205","0.0-3.0-5.0-1.36","5e1f7b9242998a2ab95cff70","A3","batch1","pattern_response","2593.5","stim/no_28_2.png","j","pattern_11","j","true","","","","2593.5","true","34","","","","","","","","","","","","","","","","",""
"","","","","","html-keyboard-response","219","736515","0.0-3.0-5.0-0.37","5e1f7b9242998a2ab95cff70","A3","batch1","pattern_show_trial_num","null","<p class=block-text>Trial 38 out of 78</p>","null","","","","","","","","","","","","","","","","","","","","","","","","","",""
"","","","","","image-keyboard-response","220","740088","0.0-3.0-5.0-1.37","5e1f7b9242998a2ab95cff70","A3","batch1","pattern_response","3572.100000000093","stim/no_53_1_b.png","j","pattern_33","j","true","","","","3572.100000000093","true","35","","","","","","","","","","","","","","","","",""
"","","","","","html-keyboard-response","221","741395","0.0-3.0-5.0-0.38","5e1f7b9242998a2ab95cff70","A3","batch1","pattern_show_trial_num","null","<p class=block-text>Trial 39 out of 78</p>","null","","","","","","","","","","","","","","","","","","","","","","","","","",""
"","","","","","image-keyboard-response","222","745755","0.0-3.0-5.0-1.38","5e1f7b9242998a2ab95cff70","A3","batch1","pattern_response","4359.399999999907","stim/yes_51_dia_b1.png","f","pattern_72","f","true","","","","4359.399999999907","true","36","","","","","","","","","","","","","","","","",""
"","","","","","image-keyboard-response","223","747662","0.0-3.0-6.0","5e1f7b9242998a2ab95cff70","A3","batch1","attention_check","1396.8000000000466","stim/empty_board.png","j","","j","true","","","","","","","500","[""f"",""j""]","","","","","","","","","","","","","","",""
"","","","","","html-keyboard-response","224","748479","0.0-3.0-7.0-0.0","5e1f7b9242998a2ab95cff70","A3","batch1","pattern_show_trial_num","null","<p class=block-text>Trial 40 out of 78</p>","null","","","","","","","","","","","","","","","","","","","","","","","","","",""
"","","","","","image-keyboard-response","225","752647","0.0-3.0-7.0-1.0","5e1f7b9242998a2ab95cff70","A3","batch1","pattern_response","4165.899999999907","stim/no_55_1_w.png","j","pattern_34","j","true","","","","4165.899999999907","true","37","","","","","","","","","","","","","","","","",""
"","","","","","html-keyboard-response","226","753967","0.0-3.0-7.0-0.1","5e1f7b9242998a2ab95cff70","A3","batch1","pattern_show_trial_num","null","<p class=block-text>Trial 41 out of 78</p>","null","","","","","","","","","","","","","","","","","","","","","","","","","",""
"","","","","","image-keyboard-response","227","754980","0.0-3.0-7.0-1.1","5e1f7b9242998a2ab95cff70","A3","batch1","pattern_response","1011.8000000000466","stim/yes_55_hor_w1_w.png","f","pattern_75","f","true","","","","1011.8000000000466","true","38","","","","","","","","","","","","","","","","",""
"","","","","","html-keyboard-response","228","756285","0.0-3.0-7.0-0.2","5e1f7b9242998a2ab95cff70","A3","batch1","pattern_show_trial_num","null","<p class=block-text>Trial 42 out of 78</p>","null","","","","","","","","","","","","","","","","","","","","","","","","","",""
"","","","","","image-keyboard-response","229","757445","0.0-3.0-7.0-1.2","5e1f7b9242998a2ab95cff70","A3","batch1","pattern_response","1159.3999999999069","stim/no_17_1_w.png","j","pattern_04","j","true","","","","1159.3999999999069","true","39","","","","","","","","","","","","","","","","",""
"","","","","","html-keyboard-response","230","758760","0.0-3.0-7.0-0.3","5e1f7b9242998a2ab95cff70","A3","batch1","pattern_show_trial_num","null","<p class=block-text>Trial 43 out of 78</p>","null","","","","","","","","","","","","","","","","","","","","","","","","","",""
"","","","","","image-keyboard-response","231","763703","0.0-3.0-7.0-1.3","5e1f7b9242998a2ab95cff70","A3","batch1","pattern_response","4941.300000000047","stim/no_50_1.png","j","pattern_30","j","true","","","","4941.300000000047","true","40","","","","","","","","","","","","","","","","",""
"","","","","","html-keyboard-response","232","765025","0.0-3.0-7.0-0.4","5e1f7b9242998a2ab95cff70","A3","batch1","pattern_show_trial_num","null","<p class=block-text>Trial 44 out of 78</p>","null","","","","","","","","","","","","","","","","","","","","","","","","","",""
"","","","","","image-keyboard-response","233","766739","0.0-3.0-7.0-1.4","5e1f7b9242998a2ab95cff70","A3","batch1","pattern_response","1713.1000000000931","stim/no_32_1_w.png","j","pattern_14","j","true","","","","1713.1000000000931","true","41","","","","","","","","","","","","","","","","",""
"","","","","","html-keyboard-response","234","768055","0.0-3.0-7.0-0.5","5e1f7b9242998a2ab95cff70","A3","batch1","pattern_show_trial_num","null","<p class=block-text>Trial 45 out of 78</p>","null","","","","","","","","","","","","","","","","","","","","","","","","","",""
"","","","","","image-keyboard-response","235","769952","0.0-3.0-7.0-1.5","5e1f7b9242998a2ab95cff70","A3","batch1","pattern_response","1896.5","stim/yes_29_ver_w1.png","f","pattern_53","f","true","","","","1896.5","true","42","","","","","","","","","","","","","","","","",""
"","","","","","html-keyboard-response","236","771266","0.0-3.0-7.0-0.6","5e1f7b9242998a2ab95cff70","A3","batch1","pattern_show_trial_num","null","<p class=block-text>Trial 46 out of 78</p>","null","","","","","","","","","","","","","","","","","","","","","","","","","",""
"","","","","","image-keyboard-response","237","772363","0.0-3.0-7.0-1.6","5e1f7b9242998a2ab95cff70","A3","batch1","pattern_response","1095.5","stim/yes_45_hor_b2_b.png","f","pattern_67","f","true","","","","1095.5","true","43","","","","","","","","","","","","","","","","",""
"","","","","","html-keyboard-response","238","773676","0.0-3.0-7.0-0.7","5e1f7b9242998a2ab95cff70","A3","batch1","pattern_show_trial_num","null","<p class=block-text>Trial 47 out of 78</p>","null","","","","","","","","","","","","","","","","","","","","","","","","","",""
"","","","","","image-keyboard-response","239","776237","0.0-3.0-7.0-1.7","5e1f7b9242998a2ab95cff70","A3","batch1","pattern_response","2560.3000000000466","stim/yes_40_dia_b1_b.png","f","pattern_63","f","true","","","","2560.3000000000466","true","44","","","","","","","","","","","","","","","","",""
"","","","","","html-keyboard-response","240","777549","0.0-3.0-7.0-0.8","5e1f7b9242998a2ab95cff70","A3","batch1","pattern_show_trial_num","null","<p class=block-text>Trial 48 out of 78</p>","null","","","","","","","","","","","","","","","","","","","","","","","","","",""
"","","","","","image-keyboard-response","241","781350","0.0-3.0-7.0-1.8","5e1f7b9242998a2ab95cff70","A3","batch1","pattern_response","3799.899999999907","stim/yes_50_dia_w1.png","j","pattern_71","f","false","","","","3799.899999999907","false","44","","","","","","","","","","","","","","","","",""
"","","","","","html-keyboard-response","242","782667","0.0-3.0-7.0-0.9","5e1f7b9242998a2ab95cff70","A3","batch1","pattern_show_trial_num","null","<p class=block-text>Trial 49 out of 78</p>","null","","","","","","","","","","","","","","","","","","","","","","","","","",""
"","","","","","image-keyboard-response","243","789220","0.0-3.0-7.0-1.9","5e1f7b9242998a2ab95cff70","A3","batch1","pattern_response","6551.5","stim/no_62_1_w.png","j","pattern_36","j","true","","","","6551.5","true","45","","","","","","","","","","","","","","","","",""
"","","","","","html-keyboard-response","244","790531","0.0-3.0-7.0-0.10","5e1f7b9242998a2ab95cff70","A3","batch1","pattern_show_trial_num","null","<p class=block-text>Trial 50 out of 78</p>","null","","","","","","","","","","","","","","","","","","","","","","","","","",""
"","","","","","image-keyboard-response","245","796269","0.0-3.0-7.0-1.10","5e1f7b9242998a2ab95cff70","A3","batch1","pattern_response","5737.300000000047","stim/no_48_1_w.png","j","pattern_28","j","true","","","","5737.300000000047","true","46","","","","","","","","","","","","","","","","",""
"","","","","","html-keyboard-response","246","797579","0.0-3.0-7.0-0.11","5e1f7b9242998a2ab95cff70","A3","batch1","pattern_show_trial_num","null","<p class=block-text>Trial 51 out of 78</p>","null","","","","","","","","","","","","","","","","","","","","","","","","","",""
"","","","","","image-keyboard-response","247","798652","0.0-3.0-7.0-1.11","5e1f7b9242998a2ab95cff70","A3","batch1","pattern_response","1071.4000000001397","stim/yes_25_hor_b1_b.png","f","pattern_49","f","true","","","","1071.4000000001397","true","47","","","","","","","","","","","","","","","","",""
"","","","","","html-keyboard-response","248","799966","0.0-3.0-7.0-0.12","5e1f7b9242998a2ab95cff70","A3","batch1","pattern_show_trial_num","null","<p class=block-text>Trial 52 out of 78</p>","null","","","","","","","","","","","","","","","","","","","","","","","","","",""
"","","","","","image-keyboard-response","249","803570","0.0-3.0-7.0-1.12","5e1f7b9242998a2ab95cff70","A3","batch1","pattern_response","3602.1999999999534","stim/no_29_1_b.png","j","pattern_12","j","true","","","","3602.1999999999534","true","48","","","","","","","","","","","","","","","","",""
"","","","","","html-keyboard-response","250","804883","0.0-3.0-7.0-0.13","5e1f7b9242998a2ab95cff70","A3","batch1","pattern_show_trial_num","null","<p class=block-text>Trial 53 out of 78</p>","null","","","","","","","","","","","","","","","","","","","","","","","","","",""
"","","","","","image-keyboard-response","251","810341","0.0-3.0-7.0-1.13","5e1f7b9242998a2ab95cff70","A3","batch1","pattern_response","5457.199999999953","stim/no_65_1_b.png","j","pattern_38","j","true","","","","5457.199999999953","true","49","","","","","","","","","","","","","","","","",""
"","","","","","html-keyboard-response","252","811670","0.0-3.0-7.0-0.14","5e1f7b9242998a2ab95cff70","A3","batch1","pattern_show_trial_num","null","<p class=block-text>Trial 54 out of 78</p>","null","","","","","","","","","","","","","","","","","","","","","","","","","",""
"","","","","","image-keyboard-response","253","813471","0.0-3.0-7.0-1.14","5e1f7b9242998a2ab95cff70","A3","batch1","pattern_response","1799.8000000000466","stim/yes_31_hor_b1.png","f","pattern_55","f","true","","","","1799.8000000000466","true","50","","","","","","","","","","","","","","","","",""
"","","","","","html-keyboard-response","254","814777","0.0-3.0-7.0-0.15","5e1f7b9242998a2ab95cff70","A3","batch1","pattern_show_trial_num","null","<p class=block-text>Trial 55 out of 78</p>","null","","","","","","","","","","","","","","","","","","","","","","","","","",""
"","","","","","image-keyboard-response","255","818482","0.0-3.0-7.0-1.15","5e1f7b9242998a2ab95cff70","A3","batch1","pattern_response","3703.600000000093","stim/no_46_1_b.png","j","pattern_26","j","true","","","","3703.600000000093","true","51","","","","","","","","","","","","","","","","",""
"","","","","","html-keyboard-response","256","819806","0.0-3.0-7.0-0.16","5e1f7b9242998a2ab95cff70","A3","batch1","pattern_show_trial_num","null","<p class=block-text>Trial 56 out of 78</p>","null","","","","","","","","","","","","","","","","","","","","","","","","","",""
"","","","","","image-keyboard-response","257","821703","0.0-3.0-7.0-1.16","5e1f7b9242998a2ab95cff70","A3","batch1","pattern_response","1895","stim/yes_52_ver_w1.png","f","pattern_73","f","true","","","","1895","true","52","","","","","","","","","","","","","","","","",""
"","","","","","html-keyboard-response","258","823027","0.0-3.0-7.0-0.17","5e1f7b9242998a2ab95cff70","A3","batch1","pattern_show_trial_num","null","<p class=block-text>Trial 57 out of 78</p>","null","","","","","","","","","","","","","","","","","","","","","","","","","",""
"","","","","","image-keyboard-response","259","824006","0.0-3.0-7.0-1.17","5e1f7b9242998a2ab95cff70","A3","batch1","pattern_response","978.0999999998603","stim/yes_14_hor_b1_w.png","f","pattern_43","f","true","","","","978.0999999998603","true","53","","","","","","","","","","","","","","","","",""
"","","","","","html-keyboard-response","260","825322","0.0-3.0-7.0-0.18","5e1f7b9242998a2ab95cff70","A3","batch1","pattern_show_trial_num","null","<p class=block-text>Trial 58 out of 78</p>","null","","","","","","","","","","","","","","","","","","","","","","","","","",""
"","","","","","image-keyboard-response","261","828422","0.0-3.0-7.0-1.18","5e1f7b9242998a2ab95cff70","A3","batch1","pattern_response","3098.9000000001397","stim/no_52_1.png","j","pattern_32","j","true","","","","3098.9000000001397","true","54","","","","","","","","","","","","","","","","",""
"","","","","","html-keyboard-response","262","829735","0.0-3.0-7.0-0.19","5e1f7b9242998a2ab95cff70","A3","batch1","pattern_show_trial_num","null","<p class=block-text>Trial 59 out of 78</p>","null","","","","","","","","","","","","","","","","","","","","","","","","","",""
"","","","","","image-keyboard-response","263","833909","0.0-3.0-7.0-1.19","5e1f7b9242998a2ab95cff70","A3","batch1","pattern_response","4171.59999999986","stim/no_42_1_w.png","j","pattern_22","j","true","","","","4171.59999999986","true","55","","","","","","","","","","","","","","","","",""
"","","","","","html-keyboard-response","264","835228","0.0-3.0-7.0-0.20","5e1f7b9242998a2ab95cff70","A3","batch1","pattern_show_trial_num","null","<p class=block-text>Trial 60 out of 78</p>","null","","","","","","","","","","","","","","","","","","","","","","","","","",""
"","","","","","image-keyboard-response","265","835825","0.0-3.0-7.0-1.20","5e1f7b9242998a2ab95cff70","A3","batch1","pattern_response","596.4000000001397","stim/yes_17_dia_w1.png","f","pattern_45","f","true","","","","596.4000000001397","true","56","","","","","","","","","","","","","","","","",""
"","","","","","html-keyboard-response","266","837154","0.0-3.0-7.0-0.21","5e1f7b9242998a2ab95cff70","A3","batch1","pattern_show_trial_num","null","<p class=block-text>Trial 61 out of 78</p>","null","","","","","","","","","","","","","","","","","","","","","","","","","",""
"","","","","","image-keyboard-response","267","839226","0.0-3.0-7.0-1.21","5e1f7b9242998a2ab95cff70","A3","batch1","pattern_response","2070.5","stim/no_34_1_b.png","j","pattern_16","j","true","","","","2070.5","true","57","","","","","","","","","","","","","","","","",""
"","","","","","html-keyboard-response","268","840546","0.0-3.0-7.0-0.22","5e1f7b9242998a2ab95cff70","A3","batch1","pattern_show_trial_num","null","<p class=block-text>Trial 62 out of 78</p>","null","","","","","","","","","","","","","","","","","","","","","","","","","",""
"","","","","","image-keyboard-response","269","841412","0.0-3.0-7.0-1.22","5e1f7b9242998a2ab95cff70","A3","batch1","pattern_response","864.3999999999069","stim/yes_60_ver_b1_b.png","f","pattern_77","f","true","","","","864.3999999999069","true","58","","","","","","","","","","","","","","","","",""
"","","","","","html-keyboard-response","270","842728","0.0-3.0-7.0-0.23","5e1f7b9242998a2ab95cff70","A3","batch1","pattern_show_trial_num","null","<p class=block-text>Trial 63 out of 78</p>","null","","","","","","","","","","","","","","","","","","","","","","","","","",""
"","","","","","image-keyboard-response","271","844465","0.0-3.0-7.0-1.23","5e1f7b9242998a2ab95cff70","A3","batch1","pattern_response","1735","stim/yes_48_dia_w1_w.png","f","pattern_69","f","true","","","","1735","true","59","","","","","","","","","","","","","","","","",""
"","","","","","html-keyboard-response","272","845772","0.0-3.0-7.0-0.24","5e1f7b9242998a2ab95cff70","A3","batch1","pattern_show_trial_num","null","<p class=block-text>Trial 64 out of 78</p>","null","","","","","","","","","","","","","","","","","","","","","","","","","",""
"","","","","","image-keyboard-response","273","846701","0.0-3.0-7.0-1.24","5e1f7b9242998a2ab95cff70","A3","batch1","pattern_response","929.1000000000931","stim/yes_43_ver_w1_w.png","f","pattern_65","f","true","","","","929.1000000000931","true","60","","","","","","","","","","","","","","","","",""
"","","","","","html-keyboard-response","274","848024","0.0-3.0-7.0-0.25","5e1f7b9242998a2ab95cff70","A3","batch1","pattern_show_trial_num","null","<p class=block-text>Trial 65 out of 78</p>","null","","","","","","","","","","","","","","","","","","","","","","","","","",""
"","","","","","image-keyboard-response","275","848651","0.0-3.0-7.0-1.25","5e1f7b9242998a2ab95cff70","A3","batch1","pattern_response","625.8999999999069","stim/yes_22_ver_w1.png","f","pattern_47","f","true","","","","625.8999999999069","true","61","","","","","","","","","","","","","","","","",""
"","","","","","html-keyboard-response","276","849977","0.0-3.0-7.0-0.26","5e1f7b9242998a2ab95cff70","A3","batch1","pattern_show_trial_num","null","<p class=block-text>Trial 66 out of 78</p>","null","","","","","","","","","","","","","","","","","","","","","","","","","",""
"","","","","","image-keyboard-response","277","851502","0.0-3.0-7.0-1.26","5e1f7b9242998a2ab95cff70","A3","batch1","pattern_response","1523.4000000001397","stim/no_23_1.png","j","pattern_08","j","true","","","","1523.4000000001397","true","62","","","","","","","","","","","","","","","","",""
"","","","","","html-keyboard-response","278","852818","0.0-3.0-7.0-0.27","5e1f7b9242998a2ab95cff70","A3","batch1","pattern_show_trial_num","null","<p class=block-text>Trial 67 out of 78</p>","null","","","","","","","","","","","","","","","","","","","","","","","","","",""
"","","","","","image-keyboard-response","279","853997","0.0-3.0-7.0-1.27","5e1f7b9242998a2ab95cff70","A3","batch1","pattern_response","1177.5999999998603","stim/no_26_1_w.png","j","pattern_10","j","true","","","","1177.5999999998603","true","63","","","","","","","","","","","","","","","","",""
"","","","","","html-keyboard-response","280","855323","0.0-3.0-7.0-0.28","5e1f7b9242998a2ab95cff70","A3","batch1","pattern_show_trial_num","null","<p class=block-text>Trial 68 out of 78</p>","null","","","","","","","","","","","","","","","","","","","","","","","","","",""
"","","","","","image-keyboard-response","281","859012","0.0-3.0-7.0-1.28","5e1f7b9242998a2ab95cff70","A3","batch1","pattern_response","3687.6999999999534","stim/no_38_1_b.png","j","pattern_20","j","true","","","","3687.6999999999534","true","64","","","","","","","","","","","","","","","","",""
"","","","","","html-keyboard-response","282","860332","0.0-3.0-7.0-0.29","5e1f7b9242998a2ab95cff70","A3","batch1","pattern_show_trial_num","null","<p class=block-text>Trial 69 out of 78</p>","null","","","","","","","","","","","","","","","","","","","","","","","","","",""
"","","","","","image-keyboard-response","283","861403","0.0-3.0-7.0-1.29","5e1f7b9242998a2ab95cff70","A3","batch1","pattern_response","1069.5999999998603","stim/no_20_1_w.png","j","pattern_06","j","true","","","","1069.5999999998603","true","65","","","","","","","","","","","","","","","","",""
"","","","","","html-keyboard-response","284","862720","0.0-3.0-7.0-0.30","5e1f7b9242998a2ab95cff70","A3","batch1","pattern_show_trial_num","null","<p class=block-text>Trial 70 out of 78</p>","null","","","","","","","","","","","","","","","","","","","","","","","","","",""
"","","","","","image-keyboard-response","285","863897","0.0-3.0-7.0-1.30","5e1f7b9242998a2ab95cff70","A3","batch1","pattern_response","1176.1999999999534","stim/yes_67_hor_b1.png","f","pattern_79","f","true","","","","1176.1999999999534","true","66","","","","","","","","","","","","","","","","",""
"","","","","","html-keyboard-response","286","865216","0.0-3.0-7.0-0.31","5e1f7b9242998a2ab95cff70","A3","batch1","pattern_show_trial_num","null","<p class=block-text>Trial 71 out of 78</p>","null","","","","","","","","","","","","","","","","","","","","","","","","","",""
"","","","","","image-keyboard-response","287","866707","0.0-3.0-7.0-1.31","5e1f7b9242998a2ab95cff70","A3","batch1","pattern_response","1490.3999999999069","stim/yes_35_dia_b1.png","j","pattern_57","f","false","","","","1490.3999999999069","false","66","","","","","","","","","","","","","","","","",""
"","","","","","html-keyboard-response","288","868025","0.0-3.0-7.0-0.32","5e1f7b9242998a2ab95cff70","A3","batch1","pattern_show_trial_num","null","<p class=block-text>Trial 72 out of 78</p>","null","","","","","","","","","","","","","","","","","","","","","","","","","",""
"","","","","","image-keyboard-response","289","869143","0.0-3.0-7.0-1.32","5e1f7b9242998a2ab95cff70","A3","batch1","pattern_response","1112.6000000000931","stim/yes_38_hor_b1_b.png","f","pattern_61","f","true","","","","1112.6000000000931","true","67","","","","","","","","","","","","","","","","",""
"","","","","","html-keyboard-response","290","870466","0.0-3.0-7.0-0.33","5e1f7b9242998a2ab95cff70","A3","batch1","pattern_show_trial_num","null","<p class=block-text>Trial 73 out of 78</p>","null","","","","","","","","","","","","","","","","","","","","","","","","","",""
"","","","","","image-keyboard-response","291","871618","0.0-3.0-7.0-1.33","5e1f7b9242998a2ab95cff70","A3","batch1","pattern_response","1151.0999999998603","stim/no_36_2_w.png","f","pattern_18","j","false","","","","1151.0999999998603","false","67","","","","","","","","","","","","","","","","",""
"","","","","","html-keyboard-response","292","872934","0.0-3.0-7.0-0.34","5e1f7b9242998a2ab95cff70","A3","batch1","pattern_show_trial_num","null","<p class=block-text>Trial 74 out of 78</p>","null","","","","","","","","","","","","","","","","","","","","","","","","","",""
"","","","","","image-keyboard-response","293","875533","0.0-3.0-7.0-1.34","5e1f7b9242998a2ab95cff70","A3","batch1","pattern_response","2597.3000000000466","stim/yes_37_dia_w1.png","j","pattern_59","f","false","","","","2597.3000000000466","false","67","","","","","","","","","","","","","","","","",""
"","","","","","html-keyboard-response","294","876836","0.0-3.0-7.0-0.35","5e1f7b9242998a2ab95cff70","A3","batch1","pattern_show_trial_num","null","<p class=block-text>Trial 75 out of 78</p>","null","","","","","","","","","","","","","","","","","","","","","","","","","",""
"","","","","","image-keyboard-response","295","877468","0.0-3.0-7.0-1.35","5e1f7b9242998a2ab95cff70","A3","batch1","pattern_response","630.6000000000931","stim/yes_28_ver_b1.png","f","pattern_51","f","true","","","","630.6000000000931","true","68","","","","","","","","","","","","","","","","",""
"","","","","","html-keyboard-response","296","878782","0.0-3.0-7.0-0.36","5e1f7b9242998a2ab95cff70","A3","batch1","pattern_show_trial_num","null","<p class=block-text>Trial 76 out of 78</p>","null","","","","","","","","","","","","","","","","","","","","","","","","","",""
"","","","","","image-keyboard-response","297","884882","0.0-3.0-7.0-1.36","5e1f7b9242998a2ab95cff70","A3","batch1","pattern_response","6098.09999999986","stim/no_70_2.png","j","pattern_40","j","true","","","","6098.09999999986","true","69","","","","","","","","","","","","","","","","",""
"","","","","","html-keyboard-response","298","886203","0.0-3.0-7.0-0.37","5e1f7b9242998a2ab95cff70","A3","batch1","pattern_show_trial_num","null","<p class=block-text>Trial 77 out of 78</p>","null","","","","","","","","","","","","","","","","","","","","","","","","","",""
"","","","","","image-keyboard-response","299","890705","0.0-3.0-7.0-1.37","5e1f7b9242998a2ab95cff70","A3","batch1","pattern_response","4500.699999999953","stim/no_44_1.png","j","pattern_24","j","true","","","","4500.699999999953","true","70","","","","","","","","","","","","","","","","",""
"","","","","","html-keyboard-response","300","892010","0.0-3.0-7.0-0.38","5e1f7b9242998a2ab95cff70","A3","batch1","pattern_show_trial_num","null","<p class=block-text>Trial 78 out of 78</p>","null","","","","","","","","","","","","","","","","","","","","","","","","","",""
"","","","","","image-keyboard-response","301","892834","0.0-3.0-7.0-1.38","5e1f7b9242998a2ab95cff70","A3","batch1","pattern_response","822.1999999999534","stim/no_13_2_b.png","j","pattern_02","j","true","","","","822.1999999999534","true","71","","","","","","","","","","","","","","","","",""
"","","","","","html-button-response","302","895426","0.0-3.0-8.0","5e1f7b9242998a2ab95cff70","A3","batch1","","2085.100000000093","<p class = block-text>This concludes the 4-in-a-row detection game.Thank you for your responses!<br>
            You responded correctly on 91% of the trials.<br>
            When you are ready, press ""Continue"" button to continue </p>","0","","","","","","","","","","","","","","","","","","","","","","","","","",""
"true","","","","","fullscreen","303","897954","0.0-4.0-0.0","5e1f7b9242998a2ab95cff70","A3","batch1","","","","","","","","","","","","","","","","","","","","","","","","","","","","","",""
"","","","","","instructions","304","955810","0.0-4.0-1.0-0.0-0.0","5e1f7b9242998a2ab95cff70","A3","batch1","tol-instructions","57855.30000000005","","","","","","","","[{""page_index"":0,""viewing_time"":17599.199999999953},{""page_index"":1,""viewing_time"":10127.699999999953},{""page_index"":2,""viewing_time"":3416.5},{""page_index"":3,""viewing_time"":9529.300000000047},{""page_index"":4,""viewing_time"":4150.40000000014},{""page_index"":5,""viewing_time"":9641.09999999986},{""page_index"":6,""viewing_time"":3390.9000000001397}]","","","","","","","","","","","","","","","","","","","",""
"","","","","","html-button-response","305","956698","0.0-4.0-1.0-1.0-0.0","5e1f7b9242998a2ab95cff70","A3","batch1","tol_enter_quiz","887.1000000000931","<p class=block-text> Let's answer a few questions <br>","0","","","","","","","","","","","","","","","","","","","","","","","","","",""
"","","","","","html-button-response","306","960226","0.0-4.0-1.0-1.0-1.0","5e1f7b9242998a2ab95cff70","A3","batch1","tol_quiz","3527.1999999999534","<p class = block-text>True or False: You can only move the ball on top of a peg. <br></p>","1","","","false","","","","","","","","","","","","","","","","","","","","","","",""
"","","","","","html-button-response","307","961562","0.0-4.0-1.0-1.0-2.0","5e1f7b9242998a2ab95cff70","A3","batch1","tol_quiz_feedback","1335.1000000000931","<p class = block-text>Incorrect. Remember, you can only move the ball on top of a peg.</p>","0","","","","","","","","","","","","","","","","","","","","","","","","","",""
"","","","","","html-button-response","308","964082","0.0-4.0-1.0-1.0-3.0","5e1f7b9242998a2ab95cff70","A3","batch1","tol_quiz","2519.4000000001397","<p class = block-text>True or False: You should try to match your board with the target board with fewest moves possible. <br></p>","0","","","true","","","","","","","","","","","","","","","","","","","","","","",""
"","","","","","html-button-response","309","964730","0.0-4.0-1.0-1.0-4.0","5e1f7b9242998a2ab95cff70","A3","batch1","tol_quiz_feedback","647","<p class = block-text>Correct! </p>","0","","","","","","","","","","","","","","","","","","","","","","","","","",""
"","","","","","html-button-response","310","966498","0.0-4.0-1.0-2.0-0.0","5e1f7b9242998a2ab95cff70","A3","batch1","","1767.1000000000931","<p class = block-text>You made too many incorrect choices.</p><p class = block-text>You will now repeat the instructions and quiz</p>","0","","","","","","","","","","","","","","","","","","","","","","","","","",""
"","","","","","instructions","311","971530","0.0-4.0-1.1-0.1-0.1","5e1f7b9242998a2ab95cff70","A3","batch1","tol-instructions","5031.199999999953","","","","","","","","[{""page_index"":0,""viewing_time"":983.1999999999534},{""page_index"":1,""viewing_time"":399.69999999995343},{""page_index"":2,""viewing_time"":384.10000000009313},{""page_index"":3,""viewing_time"":432.0999999998603},{""page_index"":4,""viewing_time"":448.10000000009313},{""page_index"":5,""viewing_time"":441.30000000004657},{""page_index"":6,""viewing_time"":1942.5999999998603}]","","","","","","","","","","","","","","","","","","","",""
"","","","","","html-button-response","312","972282","0.0-4.0-1.1-1.1-0.1","5e1f7b9242998a2ab95cff70","A3","batch1","tol_enter_quiz","751.8000000000466","<p class=block-text> Let's answer a few questions <br>","0","","","","","","","","","","","","","","","","","","","","","","","","","",""
"","","","","","html-button-response","313","974010","0.0-4.0-1.1-1.1-1.1","5e1f7b9242998a2ab95cff70","A3","batch1","tol_quiz","1726.5999999998603","<p class = block-text>True or False: You can only move the ball on top of a peg. <br></p>","1","","","false","","","","","","","","","","","","","","","","","","","","","","",""
"","","","","","html-button-response","314","975186","0.0-4.0-1.1-1.1-2.1","5e1f7b9242998a2ab95cff70","A3","batch1","tol_quiz_feedback","1175","<p class = block-text>Incorrect. Remember, you can only move the ball on top of a peg.</p>","0","","","","","","","","","","","","","","","","","","","","","","","","","",""
"","","","","","html-button-response","315","977098","0.0-4.0-1.1-1.1-3.1","5e1f7b9242998a2ab95cff70","A3","batch1","tol_quiz","1911.1999999999534","<p class = block-text>True or False: You should try to match your board with the target board with fewest moves possible. <br></p>","0","","","true","","","","","","","","","","","","","","","","","","","","","","",""
"","","","","","html-button-response","316","977571","0.0-4.0-1.1-1.1-4.1","5e1f7b9242998a2ab95cff70","A3","batch1","tol_quiz_feedback","472.19999999995343","<p class = block-text>Correct! </p>","0","","","","","","","","","","","","","","","","","","","","","","","","","",""
"","","","","","html-button-response","317","978026","0.0-4.0-1.1-2.1-0.1","5e1f7b9242998a2ab95cff70","A3","batch1","","453.9000000001397","<p class = block-text>You made too many incorrect choices.</p><p class = block-text>You will now repeat the instructions and quiz</p>","0","","","","","","","","","","","","","","","","","","","","","","","","","",""
"","","","","","instructions","318","997452","0.0-4.0-1.2-0.2-0.2","5e1f7b9242998a2ab95cff70","A3","batch1","tol-instructions","19424.899999999907","","","","","","","","[{""page_index"":0,""viewing_time"":2983.1999999999534},{""page_index"":1,""viewing_time"":1184},{""page_index"":2,""viewing_time"":1711.8000000000466},{""page_index"":3,""viewing_time"":3696.399999999907},{""page_index"":4,""viewing_time"":1968},{""page_index"":5,""viewing_time"":6263.600000000093},{""page_index"":6,""viewing_time"":1617.6999999999534}]","","","","","","","","","","","","","","","","","","","",""
"","","","","","html-button-response","319","998066","0.0-4.0-1.2-1.2-0.2","5e1f7b9242998a2ab95cff70","A3","batch1","tol_enter_quiz","613.8000000000466","<p class=block-text> Let's answer a few questions <br>","0","","","","","","","","","","","","","","","","","","","","","","","","","",""
"","","","","","html-button-response","320","999035","0.0-4.0-1.2-1.2-1.2","5e1f7b9242998a2ab95cff70","A3","batch1","tol_quiz","967.4000000001397","<p class = block-text>True or False: You can only move the ball on top of a peg. <br></p>","0","","","true","","","","","","","","","","","","","","","","","","","","","","",""
"","","","","","html-button-response","321","999667","0.0-4.0-1.2-1.2-2.2","5e1f7b9242998a2ab95cff70","A3","batch1","tol_quiz_feedback","632","<p class = block-text>Correct! You can only move the ball on top of a peg.</p>","0","","","","","","","","","","","","","","","","","","","","","","","","","",""
"","","","","","html-button-response","322","1001283","0.0-4.0-1.2-1.2-3.2","5e1f7b9242998a2ab95cff70","A3","batch1","tol_quiz","1614.6000000000931","<p class = block-text>True or False: You should try to match your board with the target board with fewest moves possible. <br></p>","0","","","true","","","","","","","","","","","","","","","","","","","","","","",""
"","","","","","html-button-response","323","1001756","0.0-4.0-1.2-1.2-4.2","5e1f7b9242998a2ab95cff70","A3","batch1","tol_quiz_feedback","472.69999999995343","<p class = block-text>Correct! </p>","0","","","","","","","","","","","","","","","","","","","","","","","","","",""
"","","","","","html-button-response","324","1002522","0.0-4.0-2.0","5e1f7b9242998a2ab95cff70","A3","batch1","","765.5","<p class=block-text> Now that you've understood the game, let's practice a few easier examples before we start!<br> <br>","0","","","","","","","","","","","","","","","","","","","","","","","","","",""
"","","","","","single-stim-button","325","1006956","0.0-4.0-3.0-0.0","5e1f7b9242998a2ab95cff70","A3","batch1","tol_practice","4432","","","","","","","","","","","","","","tol_peg_2","4432","4432","0","[[1,2,0],[0,0],[0]]","1","[[1,2,0],[0,0],[3]]","practice","4432","","","","","",""
"","","","","","single-stim-button","326","1007805","0.0-4.0-3.0-1.0","5e1f7b9242998a2ab95cff70","A3","batch1","tol_practice","847","","","","","","","","","","","","","","tol_peg_3","847","847","0","[[1,2,0],[0,0],[3]]","1","[[1,2,0],[0,0],[3]]","practice","847","","","","","",""
"","","","","","poldrack-single-stim","327","1008813","0.0-4.0-4.0","5e1f7b9242998a2ab95cff70","A3","batch1","tol_feedback","-1","","","","","true","","","","","","","","","","1000","1000","500","","","","","","-1","none","true","","0",""
"","","","","","single-stim-button","328","1014475","0.0-4.0-5.0-0.0","5e1f7b9242998a2ab95cff70","A3","batch1","tol_practice","5661","","","","","","","","","","","","","","tol_peg_1","5661","5661","0","[[1,0,0],[3,0],[0]]","2","[[0,0,0],[3,1],[2]]","practice","5661","","","","","",""
"","","","","","single-stim-button","329","1015211","0.0-4.0-5.0-1.0","5e1f7b9242998a2ab95cff70","A3","batch1","tol_practice","735","","","","","","","","","","","","","","tol_peg_3","735","735","0","[[1,0,0],[3,0],[2]]","2","[[0,0,0],[3,1],[2]]","practice","735","","","","","",""
"","","","","","single-stim-button","330","1015668","0.0-4.0-5.1-0.1","5e1f7b9242998a2ab95cff70","A3","batch1","tol_practice","457","","","","","","","","","","","","","","tol_peg_1","457","457","0","[[0,0,0],[3,0],[2]]","3","[[0,0,0],[3,1],[2]]","practice","457","","","","","",""
"","","","","","single-stim-button","331","1016219","0.0-4.0-5.1-1.1","5e1f7b9242998a2ab95cff70","A3","batch1","tol_practice","551","","","","","","","","","","","","","","tol_peg_2","551","551","0","[[0,0,0],[3,1],[2]]","3","[[0,0,0],[3,1],[2]]","practice","551","","","","","",""
"","","","","","poldrack-single-stim","332","1017232","0.0-4.0-6.0","5e1f7b9242998a2ab95cff70","A3","batch1","tol_feedback","-1","","","","","true","","","","","","","","","","1000","1000","500","","","","","","-1","none","true","","0",""
"","","","","","single-stim-button","333","1020171","0.0-4.0-7.0-0.0","5e1f7b9242998a2ab95cff70","A3","batch1","tol_practice","2939","","","","","","","","","","","","","","tol_peg_2","2939","2939","0","[[1,2,0],[0,0],[0]]","4","[[1,0,0],[2,0],[3]]","practice","2939","","","","","",""
"","","","","","single-stim-button","334","1021251","0.0-4.0-7.0-1.0","5e1f7b9242998a2ab95cff70","A3","batch1","tol_practice","1079","","","","","","","","","","","","","","tol_peg_3","1079","1079","0","[[1,2,0],[0,0],[3]]","4","[[1,0,0],[2,0],[3]]","practice","1079","","","","","",""
"","","","","","single-stim-button","335","1021861","0.0-4.0-7.1-0.1","5e1f7b9242998a2ab95cff70","A3","batch1","tol_practice","609","","","","","","","","","","","","","","tol_peg_1","609","609","0","[[1,0,0],[0,0],[3]]","5","[[1,0,0],[2,0],[3]]","practice","609","","","","","",""
"","","","","","single-stim-button","336","1022188","0.0-4.0-7.1-1.1","5e1f7b9242998a2ab95cff70","A3","batch1","tol_practice","327","","","","","","","","","","","","","","tol_peg_2","327","327","0","[[1,0,0],[2,0],[3]]","5","[[1,0,0],[2,0],[3]]","practice","327","","","","","",""
"","","","","","poldrack-single-stim","337","1023203","0.0-4.0-8.0","5e1f7b9242998a2ab95cff70","A3","batch1","tol_feedback","-1","","","","","true","","","","","","","","","","1000","1000","500","","","","","","-1","none","true","","0",""
"","","","","","html-button-response","338","1024818","0.0-4.0-9.0","5e1f7b9242998a2ab95cff70","A3","batch1","tol_instruction","1614.6000000000931","<div class = centerbox><p class = center-block-text>Great job! You are done with practice trials<br>You are about to start official trials.<br> <br> Problem <strong>1</strong> out of 25 problems</p></div>","0","","","","","","","","","","","","","","","","","","","","","","","","","",""
"","","","","","single-stim-button","339","1030717","0.0-4.0-10.0-0.0","5e1f7b9242998a2ab95cff70","A3","batch1","tol_tohand","4897","","","","","","","","","","","","","","tol_peg_1","4897","4897","0","[[1,0,0],[3,0],[0]]","1","[[1,3,0],[2,0],[0]]","0","0","","","","","","3"
"","","","","","single-stim-button","340","1031220","0.0-4.0-10.0-1.0","5e1f7b9242998a2ab95cff70","A3","batch1","tol_toboard","503","","","","","","","","","","","","","","tol_peg_3","503","503","0","[[1,0,0],[3,0],[2]]","1","[[1,3,0],[2,0],[0]]","0","0","","","","","","3"
"","","","","","single-stim-button","341","1031677","0.0-4.0-10.1-0.1","5e1f7b9242998a2ab95cff70","A3","batch1","tol_tohand","457","","","","","","","","","","","","","","tol_peg_2","457","457","0","[[1,0,0],[0,0],[2]]","2","[[1,3,0],[2,0],[0]]","0","0","","","","","","3"
"","","","","","single-stim-button","342","1032235","0.0-4.0-10.1-1.1","5e1f7b9242998a2ab95cff70","A3","batch1","tol_toboard","557","","","","","","","","","","","","","","tol_peg_1","557","557","0","[[1,3,0],[0,0],[2]]","2","[[1,3,0],[2,0],[0]]","0","0","","","","","","3"
"","","","","","single-stim-button","343","1032755","0.0-4.0-10.2-0.2","5e1f7b9242998a2ab95cff70","A3","batch1","tol_tohand","520","","","","","","","","","","","","","","tol_peg_3","520","520","0","[[1,3,0],[0,0],[0]]","3","[[1,3,0],[2,0],[0]]","0","0","","","","","","3"
