"success","timeout","failed_images","failed_audio","failed_video","trial_type","trial_index","time_elapsed","internal_node_id","subject_id","study_id","session_id","task","rt","stimulus","response","item","answer","correct","spm_correct","spm_rt","view_history","mouse_click","stim_duration","block_duration","timing_post_trial","current_position","tol_num_moves_made","tol_target","tol_problem_id","tol_rt","key_press","possible_responses","tol_correct","preplanning","tol_rt_per_trial","tol_min_moves","fiar_detect_rt","fiar_detect_correct","total_correct_fiar_detect","post_trial_gap","choices"
"true","false","[]","[]","[]","preload","0","3149","0.0-0.0","5e2534721c55ad7943337a48","C3","batch3","","","","","","","","","","","","","","","","","","","","","","","","","","","","","",""
"true","","","","","fullscreen","1","13910","0.0-1.0-0.0","5e2534721c55ad7943337a48","C3","batch3","","","","","","","","","","","","","","","","","","","","","","","","","","","","","",""
"true","","","","","fullscreen","2","18254","0.0-2.0-0.0","5e2534721c55ad7943337a48","C3","batch3","spm_fullscreen","","","","","","","","","","","","","","","","","","","","","","","","","","","","",""
"","","","","","html-button-response","3","32576","0.0-2.0-1.0","5e2534721c55ad7943337a48","C3","batch3","","14318.299999952316","<p class = block-text><b>Instructions</b> <br>This is a widely used intelligence test in research. <br>In this test, a figure with a missing piece will be presented.<br>Below the figure are alternative pieces to complete the figure, only one of which is correct.<br> Different figures might involve different principles for obtaining the missing piece<br>Your job is to select the most logical piece to complete the figure.</p>","0","","","","","","","","","","","","","","","","","","","","","","","","","",""
"","","","","","html-keyboard-response","4","33381","0.0-2.0-2.0-0.0","5e2534721c55ad7943337a48","C3","batch3","spm_show_trial_num","null","<p class=block-text>Trial 1 out of 60</p>","null","","","","","","","","","","","","","","","","","","","","","","","","","",""
"","","","","","image-button-response","5","36423","0.0-2.0-2.0-1.0","5e2534721c55ad7943337a48","C3","batch3","spm_respsonse","2984.7000000476837","img/question_1_1.jpeg","1","mat_01","4","0","0","2984.7000000476837","","","","","","","","","","","","","","","","","","","","",""
"","","","","","html-keyboard-response","6","37489","0.0-2.0-2.0-0.1","5e2534721c55ad7943337a48","C3","batch3","spm_show_trial_num","null","<p class=block-text>Trial 2 out of 60</p>","null","","","","","","","","","","","","","","","","","","","","","","","","","",""
"","","","","","image-button-response","7","43008","0.0-2.0-2.0-1.1","5e2534721c55ad7943337a48","C3","batch3","spm_respsonse","5516.700000047684","img/question_1_2.jpeg","1","mat_02","5","0","0","5516.700000047684","","","","","","","","","","","","","","","","","","","","",""
"","","","","","html-keyboard-response","8","44069","0.0-2.0-2.0-0.2","5e2534721c55ad7943337a48","C3","batch3","spm_show_trial_num","null","<p class=block-text>Trial 3 out of 60</p>","null","","","","","","","","","","","","","","","","","","","","","","","","","",""
"","","","","","image-button-response","9","47431","0.0-2.0-2.0-1.2","5e2534721c55ad7943337a48","C3","batch3","spm_respsonse","3359.5999999046326","img/question_1_3.jpeg","0","mat_03","1","1","1","3359.5999999046326","","","","","","","","","","","","","","","","","","","","",""
"","","","","","html-keyboard-response","10","48492","0.0-2.0-2.0-0.3","5e2534721c55ad7943337a48","C3","batch3","spm_show_trial_num","null","<p class=block-text>Trial 4 out of 60</p>","null","","","","","","","","","","","","","","","","","","","","","","","","","",""
"","","","","","image-button-response","11","51950","0.0-2.0-2.0-1.3","5e2534721c55ad7943337a48","C3","batch3","spm_respsonse","3454.9000000953674","img/question_1_4.jpeg","1","mat_04","2","1","1","3454.9000000953674","","","","","","","","","","","","","","","","","","","","",""
"","","","","","html-keyboard-response","12","53017","0.0-2.0-2.0-0.4","5e2534721c55ad7943337a48","C3","batch3","spm_show_trial_num","null","<p class=block-text>Trial 5 out of 60</p>","null","","","","","","","","","","","","","","","","","","","","","","","","","",""
"","","","","","image-button-response","13","56068","0.0-2.0-2.0-1.4","5e2534721c55ad7943337a48","C3","batch3","spm_respsonse","3048.2000000476837","img/question_1_5.jpeg","4","mat_05","6","0","0","3048.2000000476837","","","","","","","","","","","","","","","","","","","","",""
"","","","","","html-keyboard-response","14","57136","0.0-2.0-2.0-0.5","5e2534721c55ad7943337a48","C3","batch3","spm_show_trial_num","null","<p class=block-text>Trial 6 out of 60</p>","null","","","","","","","","","","","","","","","","","","","","","","","","","",""
"","","","","","image-button-response","15","60856","0.0-2.0-2.0-1.5","5e2534721c55ad7943337a48","C3","batch3","spm_respsonse","3718.100000023842","img/question_1_6.jpeg","2","mat_06","3","1","1","3718.100000023842","","","","","","","","","","","","","","","","","","","","",""
"","","","","","html-keyboard-response","16","61922","0.0-2.0-2.0-0.6","5e2534721c55ad7943337a48","C3","batch3","spm_show_trial_num","null","<p class=block-text>Trial 7 out of 60</p>","null","","","","","","","","","","","","","","","","","","","","","","","","","",""
"","","","","","image-button-response","17","69378","0.0-2.0-2.0-1.6","5e2534721c55ad7943337a48","C3","batch3","spm_respsonse","7453.200000047684","img/question_1_7.jpeg","5","mat_07","6","1","1","7453.200000047684","","","","","","","","","","","","","","","","","","","","",""
"","","","","","html-keyboard-response","18","70438","0.0-2.0-2.0-0.7","5e2534721c55ad7943337a48","C3","batch3","spm_show_trial_num","null","<p class=block-text>Trial 8 out of 60</p>","null","","","","","","","","","","","","","","","","","","","","","","","","","",""
"","","","","","image-button-response","19","76149","0.0-2.0-2.0-1.7","5e2534721c55ad7943337a48","C3","batch3","spm_respsonse","5708.699999928474","img/question_1_8.jpeg","0","mat_08","2","0","0","5708.699999928474","","","","","","","","","","","","","","","","","","","","",""
"","","","","","html-keyboard-response","20","77218","0.0-2.0-2.0-0.8","5e2534721c55ad7943337a48","C3","batch3","spm_show_trial_num","null","<p class=block-text>Trial 9 out of 60</p>","null","","","","","","","","","","","","","","","","","","","","","","","","","",""
"","","","","","image-button-response","21","79864","0.0-2.0-2.0-1.8","5e2534721c55ad7943337a48","C3","batch3","spm_respsonse","2642.399999976158","img/question_1_9.jpeg","0","mat_09","1","1","1","2642.399999976158","","","","","","","","","","","","","","","","","","","","",""
"","","","","","html-keyboard-response","22","80930","0.0-2.0-2.0-0.9","5e2534721c55ad7943337a48","C3","batch3","spm_show_trial_num","null","<p class=block-text>Trial 10 out of 60</p>","null","","","","","","","","","","","","","","","","","","","","","","","","","",""
"","","","","","image-button-response","23","85357","0.0-2.0-2.0-1.9","5e2534721c55ad7943337a48","C3","batch3","spm_respsonse","4424.399999976158","img/question_1_10.jpeg","2","mat_10","3","1","1","4424.399999976158","","","","","","","","","","","","","","","","","","","","",""
"","","","","","html-keyboard-response","24","86422","0.0-2.0-2.0-0.10","5e2534721c55ad7943337a48","C3","batch3","spm_show_trial_num","null","<p class=block-text>Trial 11 out of 60</p>","null","","","","","","","","","","","","","","","","","","","","","","","","","",""
"","","","","","image-button-response","25","90819","0.0-2.0-2.0-1.10","5e2534721c55ad7943337a48","C3","batch3","spm_respsonse","4394.100000023842","img/question_1_11.jpeg","2","mat_11","4","0","0","4394.100000023842","","","","","","","","","","","","","","","","","","","","",""
"","","","","","html-keyboard-response","26","91888","0.0-2.0-2.0-0.11","5e2534721c55ad7943337a48","C3","batch3","spm_show_trial_num","null","<p class=block-text>Trial 12 out of 60</p>","null","","","","","","","","","","","","","","","","","","","","","","","","","",""
"","","","","","image-button-response","27","105243","0.0-2.0-2.0-1.11","5e2534721c55ad7943337a48","C3","batch3","spm_respsonse","13352.100000023842","img/question_1_12.jpeg","5","mat_12","5","0","0","13352.100000023842","","","","","","","","","","","","","","","","","","","","",""
"","","","","","html-keyboard-response","28","106304","0.0-2.0-2.0-0.12","5e2534721c55ad7943337a48","C3","batch3","spm_show_trial_num","null","<p class=block-text>Trial 13 out of 60</p>","null","","","","","","","","","","","","","","","","","","","","","","","","","",""
"","","","","","image-button-response","29","109705","0.0-2.0-2.0-1.12","5e2534721c55ad7943337a48","C3","batch3","spm_respsonse","3396.7000000476837","img/question_2_1.jpeg","1","mat_13","2","1","1","3396.7000000476837","","","","","","","","","","","","","","","","","","","","",""
"","","","","","html-keyboard-response","30","110768","0.0-2.0-2.0-0.13","5e2534721c55ad7943337a48","C3","batch3","spm_show_trial_num","null","<p class=block-text>Trial 14 out of 60</p>","null","","","","","","","","","","","","","","","","","","","","","","","","","",""
"","","","","","image-button-response","31","117037","0.0-2.0-2.0-1.13","5e2534721c55ad7943337a48","C3","batch3","spm_respsonse","6266.400000095367","img/question_2_2.jpeg","5","mat_14","6","1","1","6266.400000095367","","","","","","","","","","","","","","","","","","","","",""
"","","","","","html-keyboard-response","32","118106","0.0-2.0-2.0-0.14","5e2534721c55ad7943337a48","C3","batch3","spm_show_trial_num","null","<p class=block-text>Trial 15 out of 60</p>","null","","","","","","","","","","","","","","","","","","","","","","","","","",""
"","","","","","image-button-response","33","122420","0.0-2.0-2.0-1.14","5e2534721c55ad7943337a48","C3","batch3","spm_respsonse","4309.100000023842","img/question_2_3.jpeg","0","mat_15","1","1","1","4309.100000023842","","","","","","","","","","","","","","","","","","","","",""
"","","","","","html-keyboard-response","34","123481","0.0-2.0-2.0-0.15","5e2534721c55ad7943337a48","C3","batch3","spm_show_trial_num","null","<p class=block-text>Trial 16 out of 60</p>","null","","","","","","","","","","","","","","","","","","","","","","","","","",""
"","","","","","image-button-response","35","127739","0.0-2.0-2.0-1.15","5e2534721c55ad7943337a48","C3","batch3","spm_respsonse","4255.900000095367","img/question_2_4.jpeg","1","mat_16","2","1","1","4255.900000095367","","","","","","","","","","","","","","","","","","","","",""
"","","","","","html-keyboard-response","36","128801","0.0-2.0-2.0-0.16","5e2534721c55ad7943337a48","C3","batch3","spm_show_trial_num","null","<p class=block-text>Trial 17 out of 60</p>","null","","","","","","","","","","","","","","","","","","","","","","","","","",""
"","","","","","image-button-response","37","135242","0.0-2.0-2.0-1.16","5e2534721c55ad7943337a48","C3","batch3","spm_respsonse","6438.899999976158","img/question_2_5.jpeg","0","mat_17","1","1","1","6438.899999976158","","","","","","","","","","","","","","","","","","","","",""
"","","","","","html-keyboard-response","38","136304","0.0-2.0-2.0-0.17","5e2534721c55ad7943337a48","C3","batch3","spm_show_trial_num","null","<p class=block-text>Trial 18 out of 60</p>","null","","","","","","","","","","","","","","","","","","","","","","","","","",""
"","","","","","image-button-response","39","141670","0.0-2.0-2.0-1.17","5e2534721c55ad7943337a48","C3","batch3","spm_respsonse","5361.200000047684","img/question_2_6.jpeg","2","mat_18","3","1","1","5361.200000047684","","","","","","","","","","","","","","","","","","","","",""
"","","","","","html-keyboard-response","40","142740","0.0-2.0-2.0-0.18","5e2534721c55ad7943337a48","C3","batch3","spm_show_trial_num","null","<p class=block-text>Trial 19 out of 60</p>","null","","","","","","","","","","","","","","","","","","","","","","","","","",""
"","","","","","image-button-response","41","148825","0.0-2.0-2.0-1.18","5e2534721c55ad7943337a48","C3","batch3","spm_respsonse","6081.800000071526","img/question_2_7.jpeg","4","mat_19","5","1","1","6081.800000071526","","","","","","","","","","","","","","","","","","","","",""
"","","","","","html-keyboard-response","42","149881","0.0-2.0-2.0-0.19","5e2534721c55ad7943337a48","C3","batch3","spm_show_trial_num","null","<p class=block-text>Trial 20 out of 60</p>","null","","","","","","","","","","","","","","","","","","","","","","","","","",""
"","","","","","image-button-response","43","154631","0.0-2.0-2.0-1.19","5e2534721c55ad7943337a48","C3","batch3","spm_respsonse","4745.599999904633","img/question_2_8.jpeg","5","mat_20","6","1","1","4745.599999904633","","","","","","","","","","","","","","","","","","","","",""
"","","","","","html-keyboard-response","44","155698","0.0-2.0-2.0-0.20","5e2534721c55ad7943337a48","C3","batch3","spm_show_trial_num","null","<p class=block-text>Trial 21 out of 60</p>","null","","","","","","","","","","","","","","","","","","","","","","","","","",""
"","","","","","image-button-response","45","158999","0.0-2.0-2.0-1.20","5e2534721c55ad7943337a48","C3","batch3","spm_respsonse","3297.899999976158","img/question_2_9.jpeg","3","mat_21","4","1","1","3297.899999976158","","","","","","","","","","","","","","","","","","","","",""
"","","","","","html-keyboard-response","46","160068","0.0-2.0-2.0-0.21","5e2534721c55ad7943337a48","C3","batch3","spm_show_trial_num","null","<p class=block-text>Trial 22 out of 60</p>","null","","","","","","","","","","","","","","","","","","","","","","","","","",""
"","","","","","image-button-response","47","165958","0.0-2.0-2.0-1.21","5e2534721c55ad7943337a48","C3","batch3","spm_respsonse","5887.399999976158","img/question_2_10.jpeg","2","mat_22","3","1","1","5887.399999976158","","","","","","","","","","","","","","","","","","","","",""
"","","","","","html-keyboard-response","48","167026","0.0-2.0-2.0-0.22","5e2534721c55ad7943337a48","C3","batch3","spm_show_trial_num","null","<p class=block-text>Trial 23 out of 60</p>","null","","","","","","","","","","","","","","","","","","","","","","","","","",""
"","","","","","image-button-response","49","171542","0.0-2.0-2.0-1.22","5e2534721c55ad7943337a48","C3","batch3","spm_respsonse","4512.100000023842","img/question_2_11.jpeg","3","mat_23","4","1","1","4512.100000023842","","","","","","","","","","","","","","","","","","","","",""
"","","","","","html-keyboard-response","50","172602","0.0-2.0-2.0-0.23","5e2534721c55ad7943337a48","C3","batch3","spm_show_trial_num","null","<p class=block-text>Trial 24 out of 60</p>","null","","","","","","","","","","","","","","","","","","","","","","","","","",""
"","","","","","image-button-response","51","194063","0.0-2.0-2.0-1.23","5e2534721c55ad7943337a48","C3","batch3","spm_respsonse","21457.899999976158","img/question_2_12.jpeg","5","mat_24","5","0","0","21457.899999976158","","","","","","","","","","","","","","","","","","","","",""
"","","","","","html-button-response","52","196760","0.0-2.0-3.0","5e2534721c55ad7943337a48","C3","batch3","attention_check","2438.100000023842","<p class = block-text>Attention check: Please choose 1<br></p>","0","","","true","","","","","","","","","","","","","","","","","","","","","","",""
"","","","","","html-keyboard-response","53","197572","0.0-2.0-4.0-0.0","5e2534721c55ad7943337a48","C3","batch3","spm_show_trial_num","null","<p class=block-text>Trial 25 out of 60</p>","null","","","","","","","","","","","","","","","","","","","","","","","","","",""
"","","","","","image-button-response","54","200248","0.0-2.0-4.0-1.0","5e2534721c55ad7943337a48","C3","batch3","spm_respsonse","2669.1999999284744","img/question_3_1.jpeg","7","mat_25","8","1","1","2669.1999999284744","","","","","","","","","","","","","","","","","","","","",""
"","","","","","html-keyboard-response","55","201308","0.0-2.0-4.0-0.1","5e2534721c55ad7943337a48","C3","batch3","spm_show_trial_num","null","<p class=block-text>Trial 26 out of 60</p>","null","","","","","","","","","","","","","","","","","","","","","","","","","",""
"","","","","","image-button-response","56","204263","0.0-2.0-4.0-1.1","5e2534721c55ad7943337a48","C3","batch3","spm_respsonse","2952.5","img/question_3_2.jpeg","1","mat_26","2","1","1","2952.5","","","","","","","","","","","","","","","","","","","","",""
"","","","","","html-keyboard-response","57","205332","0.0-2.0-4.0-0.2","5e2534721c55ad7943337a48","C3","batch3","spm_show_trial_num","null","<p class=block-text>Trial 27 out of 60</p>","null","","","","","","","","","","","","","","","","","","","","","","","","","",""
"","","","","","image-button-response","58","222765","0.0-2.0-4.0-1.2","5e2534721c55ad7943337a48","C3","batch3","spm_respsonse","17429","img/question_3_3.jpeg","2","mat_27","3","1","1","17429","","","","","","","","","","","","","","","","","","","","",""
"","","","","","html-keyboard-response","59","223831","0.0-2.0-4.0-0.3","5e2534721c55ad7943337a48","C3","batch3","spm_show_trial_num","null","<p class=block-text>Trial 28 out of 60</p>","null","","","","","","","","","","","","","","","","","","","","","","","","","",""
"","","","","","image-button-response","60","237674","0.0-2.0-4.0-1.3","5e2534721c55ad7943337a48","C3","batch3","spm_respsonse","13837.599999904633","img/question_3_4.jpeg","7","mat_28","8","1","1","13837.599999904633","","","","","","","","","","","","","","","","","","","","",""
"","","","","","html-keyboard-response","61","238742","0.0-2.0-4.0-0.4","5e2534721c55ad7943337a48","C3","batch3","spm_show_trial_num","null","<p class=block-text>Trial 29 out of 60</p>","null","","","","","","","","","","","","","","","","","","","","","","","","","",""
"","","","","","image-button-response","62","247886","0.0-2.0-4.0-1.4","5e2534721c55ad7943337a48","C3","batch3","spm_respsonse","9138.300000071526","img/question_3_5.jpeg","3","mat_29","7","0","0","9138.300000071526","","","","","","","","","","","","","","","","","","","","",""
"","","","","","html-keyboard-response","63","248947","0.0-2.0-4.0-0.5","5e2534721c55ad7943337a48","C3","batch3","spm_show_trial_num","null","<p class=block-text>Trial 30 out of 60</p>","null","","","","","","","","","","","","","","","","","","","","","","","","","",""
"","","","","","image-button-response","64","260102","0.0-2.0-4.0-1.5","5e2534721c55ad7943337a48","C3","batch3","spm_respsonse","11151.699999928474","img/question_3_6.jpeg","3","mat_30","4","1","1","11151.699999928474","","","","","","","","","","","","","","","","","","","","",""
"","","","","","html-keyboard-response","65","261163","0.0-2.0-4.0-0.6","5e2534721c55ad7943337a48","C3","batch3","spm_show_trial_num","null","<p class=block-text>Trial 31 out of 60</p>","null","","","","","","","","","","","","","","","","","","","","","","","","","",""
"","","","","","image-button-response","66","269299","0.0-2.0-4.0-1.6","5e2534721c55ad7943337a48","C3","batch3","spm_respsonse","8132.699999928474","img/question_3_7.jpeg","4","mat_31","5","1","1","8132.699999928474","","","","","","","","","","","","","","","","","","","","",""
"","","","","","html-keyboard-response","67","270368","0.0-2.0-4.0-0.7","5e2534721c55ad7943337a48","C3","batch3","spm_show_trial_num","null","<p class=block-text>Trial 32 out of 60</p>","null","","","","","","","","","","","","","","","","","","","","","","","","","",""
"","","","","","image-button-response","68","288982","0.0-2.0-4.0-1.7","5e2534721c55ad7943337a48","C3","batch3","spm_respsonse","18610.5","img/question_3_8.jpeg","0","mat_32","1","1","1","18610.5","","","","","","","","","","","","","","","","","","","","",""
"","","","","","html-keyboard-response","69","290044","0.0-2.0-4.0-0.8","5e2534721c55ad7943337a48","C3","batch3","spm_show_trial_num","null","<p class=block-text>Trial 33 out of 60</p>","null","","","","","","","","","","","","","","","","","","","","","","","","","",""
"","","","","","image-button-response","70","305635","0.0-2.0-4.0-1.8","5e2534721c55ad7943337a48","C3","batch3","spm_respsonse","15588","img/question_3_9.jpeg","6","mat_33","7","1","1","15588","","","","","","","","","","","","","","","","","","","","",""
"","","","","","html-keyboard-response","71","306705","0.0-2.0-4.0-0.9","5e2534721c55ad7943337a48","C3","batch3","spm_show_trial_num","null","<p class=block-text>Trial 34 out of 60</p>","null","","","","","","","","","","","","","","","","","","","","","","","","","",""
"","","","","","image-button-response","72","318665","0.0-2.0-4.0-1.9","5e2534721c55ad7943337a48","C3","batch3","spm_respsonse","11957.200000047684","img/question_3_10.jpeg","5","mat_34","6","1","1","11957.200000047684","","","","","","","","","","","","","","","","","","","","",""
"","","","","","html-keyboard-response","73","319725","0.0-2.0-4.0-0.10","5e2534721c55ad7943337a48","C3","batch3","spm_show_trial_num","null","<p class=block-text>Trial 35 out of 60</p>","null","","","","","","","","","","","","","","","","","","","","","","","","","",""
"","","","","","image-button-response","74","337553","0.0-2.0-4.0-1.10","5e2534721c55ad7943337a48","C3","batch3","spm_respsonse","17823.900000095367","img/question_3_11.jpeg","2","mat_35","1","0","0","17823.900000095367","","","","","","","","","","","","","","","","","","","","",""
"","","","","","html-keyboard-response","75","338614","0.0-2.0-4.0-0.11","5e2534721c55ad7943337a48","C3","batch3","spm_show_trial_num","null","<p class=block-text>Trial 36 out of 60</p>","null","","","","","","","","","","","","","","","","","","","","","","","","","",""
"","","","","","image-button-response","76","346877","0.0-2.0-4.0-1.11","5e2534721c55ad7943337a48","C3","batch3","spm_respsonse","8260.400000095367","img/question_3_12.jpeg","3","mat_36","2","0","0","8260.400000095367","","","","","","","","","","","","","","","","","","","","",""
"","","","","","html-keyboard-response","77","347946","0.0-2.0-4.0-0.12","5e2534721c55ad7943337a48","C3","batch3","spm_show_trial_num","null","<p class=block-text>Trial 37 out of 60</p>","null","","","","","","","","","","","","","","","","","","","","","","","","","",""
"","","","","","image-button-response","78","351108","0.0-2.0-4.0-1.12","5e2534721c55ad7943337a48","C3","batch3","spm_respsonse","3159.2000000476837","img/question_4_1.jpeg","2","mat_37","3","1","1","3159.2000000476837","","","","","","","","","","","","","","","","","","","","",""
"","","","","","html-keyboard-response","79","352174","0.0-2.0-4.0-0.13","5e2534721c55ad7943337a48","C3","batch3","spm_show_trial_num","null","<p class=block-text>Trial 38 out of 60</p>","null","","","","","","","","","","","","","","","","","","","","","","","","","",""
"","","","","","image-button-response","80","355516","0.0-2.0-4.0-1.13","5e2534721c55ad7943337a48","C3","batch3","spm_respsonse","3340.2000000476837","img/question_4_2.jpeg","3","mat_38","4","1","1","3340.2000000476837","","","","","","","","","","","","","","","","","","","","",""
"","","","","","html-keyboard-response","81","356582","0.0-2.0-4.0-0.14","5e2534721c55ad7943337a48","C3","batch3","spm_show_trial_num","null","<p class=block-text>Trial 39 out of 60</p>","null","","","","","","","","","","","","","","","","","","","","","","","","","",""
"","","","","","image-button-response","82","360909","0.0-2.0-4.0-1.14","5e2534721c55ad7943337a48","C3","batch3","spm_respsonse","4324.200000047684","img/question_4_3.jpeg","2","mat_39","3","1","1","4324.200000047684","","","","","","","","","","","","","","","","","","","","",""
"","","","","","html-keyboard-response","83","361978","0.0-2.0-4.0-0.15","5e2534721c55ad7943337a48","C3","batch3","spm_show_trial_num","null","<p class=block-text>Trial 40 out of 60</p>","null","","","","","","","","","","","","","","","","","","","","","","","","","",""
"","","","","","image-button-response","84","369534","0.0-2.0-4.0-1.15","5e2534721c55ad7943337a48","C3","batch3","spm_respsonse","7553","img/question_4_4.jpeg","6","mat_40","7","1","1","7553","","","","","","","","","","","","","","","","","","","","",""
"","","","","","html-keyboard-response","85","370602","0.0-2.0-4.0-0.16","5e2534721c55ad7943337a48","C3","batch3","spm_show_trial_num","null","<p class=block-text>Trial 41 out of 60</p>","null","","","","","","","","","","","","","","","","","","","","","","","","","",""
"","","","","","image-button-response","86","376257","0.0-2.0-4.0-1.16","5e2534721c55ad7943337a48","C3","batch3","spm_respsonse","5652.300000071526","img/question_4_5.jpeg","7","mat_41","8","1","1","5652.300000071526","","","","","","","","","","","","","","","","","","","","",""
"","","","","","html-keyboard-response","87","377318","0.0-2.0-4.0-0.17","5e2534721c55ad7943337a48","C3","batch3","spm_show_trial_num","null","<p class=block-text>Trial 42 out of 60</p>","null","","","","","","","","","","","","","","","","","","","","","","","","","",""
"","","","","","image-button-response","88","387850","0.0-2.0-4.0-1.17","5e2534721c55ad7943337a48","C3","batch3","spm_respsonse","10529.399999976158","img/question_4_6.jpeg","4","mat_42","6","0","0","10529.399999976158","","","","","","","","","","","","","","","","","","","","",""
"","","","","","html-keyboard-response","89","388912","0.0-2.0-4.0-0.18","5e2534721c55ad7943337a48","C3","batch3","spm_show_trial_num","null","<p class=block-text>Trial 43 out of 60</p>","null","","","","","","","","","","","","","","","","","","","","","","","","","",""
"","","","","","image-button-response","90","405700","0.0-2.0-4.0-1.18","5e2534721c55ad7943337a48","C3","batch3","spm_respsonse","16784.600000023842","img/question_4_7.jpeg","1","mat_43","5","0","0","16784.600000023842","","","","","","","","","","","","","","","","","","","","",""
"","","","","","html-keyboard-response","91","406763","0.0-2.0-4.0-0.19","5e2534721c55ad7943337a48","C3","batch3","spm_show_trial_num","null","<p class=block-text>Trial 44 out of 60</p>","null","","","","","","","","","","","","","","","","","","","","","","","","","",""
"","","","","","image-button-response","92","415995","0.0-2.0-4.0-1.19","5e2534721c55ad7943337a48","C3","batch3","spm_respsonse","9228.799999952316","img/question_4_8.jpeg","3","mat_44","4","1","1","9228.799999952316","","","","","","","","","","","","","","","","","","","","",""
"","","","","","html-keyboard-response","93","417056","0.0-2.0-4.0-0.20","5e2534721c55ad7943337a48","C3","batch3","spm_show_trial_num","null","<p class=block-text>Trial 45 out of 60</p>","null","","","","","","","","","","","","","","","","","","","","","","","","","",""
"","","","","","image-button-response","94","429447","0.0-2.0-4.0-1.20","5e2534721c55ad7943337a48","C3","batch3","spm_respsonse","12387.5","img/question_4_9.jpeg","0","mat_45","1","1","1","12387.5","","","","","","","","","","","","","","","","","","","","",""
"","","","","","html-keyboard-response","95","430513","0.0-2.0-4.0-0.21","5e2534721c55ad7943337a48","C3","batch3","spm_show_trial_num","null","<p class=block-text>Trial 46 out of 60</p>","null","","","","","","","","","","","","","","","","","","","","","","","","","",""
"","","","","","image-button-response","96","442767","0.0-2.0-4.0-1.21","5e2534721c55ad7943337a48","C3","batch3","spm_respsonse","12251.600000023842","img/question_4_10.jpeg","4","mat_46","2","0","0","12251.600000023842","","","","","","","","","","","","","","","","","","","","",""
"","","","","","html-keyboard-response","97","443833","0.0-2.0-4.0-0.22","5e2534721c55ad7943337a48","C3","batch3","spm_show_trial_num","null","<p class=block-text>Trial 47 out of 60</p>","null","","","","","","","","","","","","","","","","","","","","","","","","","",""
"","","","","","image-button-response","98","449625","0.0-2.0-4.0-1.22","5e2534721c55ad7943337a48","C3","batch3","spm_respsonse","5789.199999928474","img/question_4_11.jpeg","2","mat_47","5","0","0","5789.199999928474","","","","","","","","","","","","","","","","","","","","",""
"","","","","","html-keyboard-response","99","450684","0.0-2.0-4.0-0.23","5e2534721c55ad7943337a48","C3","batch3","spm_show_trial_num","null","<p class=block-text>Trial 48 out of 60</p>","null","","","","","","","","","","","","","","","","","","","","","","","","","",""
"","","","","","image-button-response","100","475661","0.0-2.0-4.0-1.23","5e2534721c55ad7943337a48","C3","batch3","spm_respsonse","24973","img/question_4_12.jpeg","4","mat_48","6","0","0","24973","","","","","","","","","","","","","","","","","","","","",""
"","","","","","html-keyboard-response","101","476721","0.0-2.0-4.0-0.24","5e2534721c55ad7943337a48","C3","batch3","spm_show_trial_num","null","<p class=block-text>Trial 49 out of 60</p>","null","","","","","","","","","","","","","","","","","","","","","","","","","",""
"","","","","","image-button-response","102","485125","0.0-2.0-4.0-1.24","5e2534721c55ad7943337a48","C3","batch3","spm_respsonse","8400","img/question_5_1.jpeg","6","mat_49","7","1","1","8400","","","","","","","","","","","","","","","","","","","","",""
"","","","","","html-keyboard-response","103","486186","0.0-2.0-4.0-0.25","5e2534721c55ad7943337a48","C3","batch3","spm_show_trial_num","null","<p class=block-text>Trial 50 out of 60</p>","null","","","","","","","","","","","","","","","","","","","","","","","","","",""
"","","","","","image-button-response","104","501260","0.0-2.0-4.0-1.25","5e2534721c55ad7943337a48","C3","batch3","spm_respsonse","15070.800000071526","img/question_5_2.jpeg","5","mat_50","6","1","1","15070.800000071526","","","","","","","","","","","","","","","","","","","","",""
"","","","","","html-keyboard-response","105","502319","0.0-2.0-4.0-0.26","5e2534721c55ad7943337a48","C3","batch3","spm_show_trial_num","null","<p class=block-text>Trial 51 out of 60</p>","null","","","","","","","","","","","","","","","","","","","","","","","","","",""
"","","","","","image-button-response","106","514349","0.0-2.0-4.0-1.26","5e2534721c55ad7943337a48","C3","batch3","spm_respsonse","12026.200000047684","img/question_5_3.jpeg","0","mat_51","8","0","0","12026.200000047684","","","","","","","","","","","","","","","","","","","","",""
"","","","","","html-keyboard-response","107","515415","0.0-2.0-4.0-0.27","5e2534721c55ad7943337a48","C3","batch3","spm_show_trial_num","null","<p class=block-text>Trial 52 out of 60</p>","null","","","","","","","","","","","","","","","","","","","","","","","","","",""
"","","","","","image-button-response","108","523521","0.0-2.0-4.0-1.27","5e2534721c55ad7943337a48","C3","batch3","spm_respsonse","8102.700000047684","img/question_5_4.jpeg","2","mat_52","2","0","0","8102.700000047684","","","","","","","","","","","","","","","","","","","","",""
"","","","","","html-keyboard-response","109","524590","0.0-2.0-4.0-0.28","5e2534721c55ad7943337a48","C3","batch3","spm_show_trial_num","null","<p class=block-text>Trial 53 out of 60</p>","null","","","","","","","","","","","","","","","","","","","","","","","","","",""
"","","","","","image-button-response","110","537419","0.0-2.0-4.0-1.28","5e2534721c55ad7943337a48","C3","batch3","spm_respsonse","12824.5","img/question_5_5.jpeg","2","mat_53","1","0","0","12824.5","","","","","","","","","","","","","","","","","","","","",""
"","","","","","html-keyboard-response","111","538484","0.0-2.0-4.0-0.29","5e2534721c55ad7943337a48","C3","batch3","spm_show_trial_num","null","<p class=block-text>Trial 54 out of 60</p>","null","","","","","","","","","","","","","","","","","","","","","","","","","",""
"","","","","","image-button-response","112","557161","0.0-2.0-4.0-1.29","5e2534721c55ad7943337a48","C3","batch3","spm_respsonse","18673.299999952316","img/question_5_6.jpeg","4","mat_54","5","1","1","18673.299999952316","","","","","","","","","","","","","","","","","","","","",""
"","","","","","html-keyboard-response","113","558222","0.0-2.0-4.0-0.30","5e2534721c55ad7943337a48","C3","batch3","spm_show_trial_num","null","<p class=block-text>Trial 55 out of 60</p>","null","","","","","","","","","","","","","","","","","","","","","","","","","",""
"","","","","","image-button-response","114","580380","0.0-2.0-4.0-1.30","5e2534721c55ad7943337a48","C3","batch3","spm_respsonse","22154.299999952316","img/question_5_7.jpeg","2","mat_55","1","0","0","22154.299999952316","","","","","","","","","","","","","","","","","","","","",""
"","","","","","html-keyboard-response","115","581449","0.0-2.0-4.0-0.31","5e2534721c55ad7943337a48","C3","batch3","spm_show_trial_num","null","<p class=block-text>Trial 56 out of 60</p>","null","","","","","","","","","","","","","","","","","","","","","","","","","",""
"","","","","","image-button-response","116","594965","0.0-2.0-4.0-1.31","5e2534721c55ad7943337a48","C3","batch3","spm_respsonse","13513.5","img/question_5_8.jpeg","7","mat_56","6","0","0","13513.5","","","","","","","","","","","","","","","","","","","","",""
"","","","","","html-keyboard-response","117","596034","0.0-2.0-4.0-0.32","5e2534721c55ad7943337a48","C3","batch3","spm_show_trial_num","null","<p class=block-text>Trial 57 out of 60</p>","null","","","","","","","","","","","","","","","","","","","","","","","","","",""
"","","","","","image-button-response","118","616656","0.0-2.0-4.0-1.32","5e2534721c55ad7943337a48","C3","batch3","spm_respsonse","20618.600000023842","img/question_5_9.jpeg","1","mat_57","3","0","0","20618.600000023842","","","","","","","","","","","","","","","","","","","","",""
"","","","","","html-keyboard-response","119","617718","0.0-2.0-4.0-0.33","5e2534721c55ad7943337a48","C3","batch3","spm_show_trial_num","null","<p class=block-text>Trial 58 out of 60</p>","null","","","","","","","","","","","","","","","","","","","","","","","","","",""
"","","","","","image-button-response","120","620839","0.0-2.0-4.0-1.33","5e2534721c55ad7943337a48","C3","batch3","spm_respsonse","3117.899999976158","img/question_5_10.jpeg","2","mat_58","2","0","0","3117.899999976158","","","","","","","","","","","","","","","","","","","","",""
"","","","","","html-keyboard-response","121","621907","0.0-2.0-4.0-0.34","5e2534721c55ad7943337a48","C3","batch3","spm_show_trial_num","null","<p class=block-text>Trial 59 out of 60</p>","null","","","","","","","","","","","","","","","","","","","","","","","","","",""
"","","","","","image-button-response","122","627567","0.0-2.0-4.0-1.34","5e2534721c55ad7943337a48","C3","batch3","spm_respsonse","5657.200000047684","img/question_5_11.jpeg","2","mat_59","4","0","0","5657.200000047684","","","","","","","","","","","","","","","","","","","","",""
"","","","","","html-keyboard-response","123","628630","0.0-2.0-4.0-0.35","5e2534721c55ad7943337a48","C3","batch3","spm_show_trial_num","null","<p class=block-text>Trial 60 out of 60</p>","null","","","","","","","","","","","","","","","","","","","","","","","","","",""
"","","","","","image-button-response","124","633916","0.0-2.0-4.0-1.35","5e2534721c55ad7943337a48","C3","batch3","spm_respsonse","5282.700000047684","img/question_5_12.jpeg","3","mat_60","5","0","0","5282.700000047684","","","","","","","","","","","","","","","","","","","","",""
"","","","","","html-button-response","125","637032","0.0-2.0-5.0","5e2534721c55ad7943337a48","C3","batch3","spm_goodbye","2851.399999976158","<p class= block-text>This concludes the Standard Progressive Matrix game. Thank you for your responses!<br> When you are ready, click the button continue</p>","0","","","","","","","","","","","","","","","","","","","","","","","","","",""
"true","","","","","fullscreen","126","639723","0.0-3.0-0.0","5e2534721c55ad7943337a48","C3","batch3","","","","","","","","","","","","","","","","","","","","","","","","","","","","","",""
"","","","","","instructions","127","697063","0.0-3.0-1.0-0.0-0.0","5e2534721c55ad7943337a48","C3","batch3","tol-instructions","57337.40000009537","","","","","","","","[{""page_index"":0,""viewing_time"":18613.300000071526},{""page_index"":1,""viewing_time"":8508.600000023842},{""page_index"":2,""viewing_time"":5958.299999952316},{""page_index"":3,""viewing_time"":10498.700000047684},{""page_index"":4,""viewing_time"":1709.2999999523163},{""page_index"":5,""viewing_time"":8637.200000047684},{""page_index"":6,""viewing_time"":3411.5}]","","","","","","","","","","","","","","","","","","","",""
"","","","","","html-button-response","128","698647","0.0-3.0-1.0-1.0-0.0","5e2534721c55ad7943337a48","C3","batch3","tol_enter_quiz","1582.5","<p class=block-text> Let's answer a few questions <br>","0","","","","","","","","","","","","","","","","","","","","","","","","","",""
"","","","","","html-button-response","129","705608","0.0-3.0-1.0-1.0-1.0","5e2534721c55ad7943337a48","C3","batch3","tol_quiz","6955.899999976158","<p class = block-text>True or False: You can only move the ball on top of a peg. <br></p>","0","","","true","","","","","","","","","","","","","","","","","","","","","","",""
"","","","","","html-button-response","130","707503","0.0-3.0-1.0-1.0-2.0","5e2534721c55ad7943337a48","C3","batch3","tol_quiz_feedback","1892.8000000715256","<p class = block-text>Correct! You can only move the ball on top of a peg.</p>","0","","","","","","","","","","","","","","","","","","","","","","","","","",""
"","","","","","html-button-response","131","711944","0.0-3.0-1.0-1.0-3.0","5e2534721c55ad7943337a48","C3","batch3","tol_quiz","4439.200000047684","<p class = block-text>True or False: You should try to match your board with the target board with fewest moves possible. <br></p>","0","","","true","","","","","","","","","","","","","","","","","","","","","","",""
"","","","","","html-button-response","132","712832","0.0-3.0-1.0-1.0-4.0","5e2534721c55ad7943337a48","C3","batch3","tol_quiz_feedback","885.9000000953674","<p class = block-text>Correct! </p>","0","","","","","","","","","","","","","","","","","","","","","","","","","",""
"","","","","","html-button-response","133","715008","0.0-3.0-2.0","5e2534721c55ad7943337a48","C3","batch3","","2172.899999976158","<p class=block-text> Now that you've understood the game, let's practice a few easier examples before we start!<br> <br>","0","","","","","","","","","","","","","","","","","","","","","","","","","",""
"","","","","","single-stim-button","134","719120","0.0-3.0-3.0-0.0","5e2534721c55ad7943337a48","C3","batch3","tol_practice","4109","","","","","","","","","tol_peg_2","4109","4109","0","[[1,2,0],[0,0],[0]]","1","[[1,2,0],[0,0],[3]]","practice","4109","","","","","","","","","","",""
"","","","","","single-stim-button","135","720874","0.0-3.0-3.0-1.0","5e2534721c55ad7943337a48","C3","batch3","tol_practice","1751","","","","","","","","","tol_peg_3","1751","1751","0","[[1,2,0],[0,0],[3]]","1","[[1,2,0],[0,0],[3]]","practice","1751","","","","","","","","","","",""
"","","","","","poldrack-single-stim","136","721886","0.0-3.0-4.0","5e2534721c55ad7943337a48","C3","batch3","tol_feedback","-1","","","","","true","","","","","1000","1000","500","","","","","","-1","none","true","","0","","","","","",""
"","","","","","single-stim-button","137","725313","0.0-3.0-5.0-0.0","5e2534721c55ad7943337a48","C3","batch3","tol_practice","3425","","","","","","","","","tol_peg_1","3425","3425","0","[[1,0,0],[3,0],[0]]","2","[[0,0,0],[3,1],[2]]","practice","3425","","","","","","","","","","",""
"","","","","","single-stim-button","138","726329","0.0-3.0-5.0-1.0","5e2534721c55ad7943337a48","C3","batch3","tol_practice","1015","","","","","","","","","tol_peg_3","1015","1015","0","[[1,0,0],[3,0],[2]]","2","[[0,0,0],[3,1],[2]]","practice","1015","","","","","","","","","","",""
"","","","","","single-stim-button","139","727353","0.0-3.0-5.1-0.1","5e2534721c55ad7943337a48","C3","batch3","tol_practice","1022","","","","","","","","","tol_peg_1","1022","1022","0","[[0,0,0],[3,0],[2]]","3","[[0,0,0],[3,1],[2]]","practice","1022","","","","","","","","","","",""
"","","","","","single-stim-button","140","728221","0.0-3.0-5.1-1.1","5e2534721c55ad7943337a48","C3","batch3","tol_practice","866","","","","","","","","","tol_peg_2","866","866","0","[[0,0,0],[3,1],[2]]","3","[[0,0,0],[3,1],[2]]","practice","866","","","","","","","","","","",""
"","","","","","poldrack-single-stim","141","729226","0.0-3.0-6.0","5e2534721c55ad7943337a48","C3","batch3","tol_feedback","-1","","","","","true","","","","","1000","1000","500","","","","","","-1","none","true","","0","","","","","",""
"","","","","","single-stim-button","142","731780","0.0-3.0-7.0-0.0","5e2534721c55ad7943337a48","C3","batch3","tol_practice","2553","","","","","","","","","tol_peg_2","2553","2553","0","[[1,2,0],[0,0],[0]]","4","[[1,0,0],[2,0],[3]]","practice","2553","","","","","","","","","","",""
"","","","","","single-stim-button","143","732492","0.0-3.0-7.0-1.0","5e2534721c55ad7943337a48","C3","batch3","tol_practice","711","","","","","","","","","tol_peg_3","711","711","0","[[1,2,0],[0,0],[3]]","4","[[1,0,0],[2,0],[3]]","practice","711","","","","","","","","","","",""
"","","","","","single-stim-button","144","733414","0.0-3.0-7.1-0.1","5e2534721c55ad7943337a48","C3","batch3","tol_practice","920","","","","","","","","","tol_peg_1","920","920","0","[[1,0,0],[0,0],[3]]","5","[[1,0,0],[2,0],[3]]","practice","920","","","","","","","","","","",""
"","","","","","single-stim-button","145","733981","0.0-3.0-7.1-1.1","5e2534721c55ad7943337a48","C3","batch3","tol_practice","566","","","","","","","","","tol_peg_2","566","566","0","[[1,0,0],[2,0],[3]]","5","[[1,0,0],[2,0],[3]]","practice","566","","","","","","","","","","",""
"","","","","","poldrack-single-stim","146","734987","0.0-3.0-8.0","5e2534721c55ad7943337a48","C3","batch3","tol_feedback","-1","","","","","true","","","","","1000","1000","500","","","","","","-1","none","true","","0","","","","","",""
"","","","","","html-button-response","147","736992","0.0-3.0-9.0","5e2534721c55ad7943337a48","C3","batch3","tol_instruction","2002.3999999761581","<div class = centerbox><p class = center-block-text>Great job! You are done with practice trials<br>You are about to start official trials.<br> <br> Problem <strong>1</strong> out of 25 problems</p></div>","0","","","","","","","","","","","","","","","","","","","","","","","","","",""
"","","","","","single-stim-button","148","741239","0.0-3.0-10.0-0.0","5e2534721c55ad7943337a48","C3","batch3","tol_tohand","3241","","","","","","","","","tol_peg_1","3241","3241","0","[[1,0,0],[3,0],[0]]","1","[[1,3,0],[2,0],[0]]","0","0","","","","","","3","","","","",""
"","","","","","single-stim-button","149","741974","0.0-3.0-10.0-1.0","5e2534721c55ad7943337a48","C3","batch3","tol_toboard","734","","","","","","","","","tol_peg_3","734","734","0","[[1,0,0],[3,0],[2]]","1","[[1,3,0],[2,0],[0]]","0","0","","","","","","3","","","","",""
"","","","","","single-stim-button","150","742958","0.0-3.0-10.1-0.1","5e2534721c55ad7943337a48","C3","batch3","tol_tohand","982","","","","","","","","","tol_peg_2","982","982","0","[[1,0,0],[0,0],[2]]","2","[[1,3,0],[2,0],[0]]","0","0","","","","","","3","","","","",""
"","","","","","single-stim-button","151","743998","0.0-3.0-10.1-1.1","5e2534721c55ad7943337a48","C3","batch3","tol_toboard","1038","","","","","","","","","tol_peg_1","1038","1038","0","[[1,3,0],[0,0],[2]]","2","[[1,3,0],[2,0],[0]]","0","0","","","","","","3","","","","",""
"","","","","","single-stim-button","152","744766","0.0-3.0-10.2-0.2","5e2534721c55ad7943337a48","C3","batch3","tol_tohand","767","","","","","","","","","tol_peg_3","767","767","0","[[1,3,0],[0,0],[0]]","3","[[1,3,0],[2,0],[0]]","0","0","","","","","","3","","","","",""
"","","","","","single-stim-button","153","745406","0.0-3.0-10.2-1.2","5e2534721c55ad7943337a48","C3","batch3","tol_toboard","638","","","","","","","","","tol_peg_2","638","638","0","[[1,3,0],[2,0],[0]]","3","[[1,3,0],[2,0],[0]]","0","0","","","","","","3","","","","",""
"","","","","","poldrack-single-stim","154","746413","0.0-3.0-11.0","5e2534721c55ad7943337a48","C3","batch3","tol_feedback","-1","","","","","true","","","","","1000","1000","500","","","","","","-1","none","true","3241","4990","","","","","",""
"","","","","","html-button-response","155","747566","0.0-3.0-12.0","5e2534721c55ad7943337a48","C3","batch3","tol_trial_num","1151","<div class = centerbox><p class = center-block-text>problem <strong>2</strong> out of 25 problems</p></div>","0","","","","","","","","","","","","","","","","","","","","","","","","","",""
"","","","","","single-stim-button","156","756187","0.0-3.0-13.0-0.0","5e2534721c55ad7943337a48","C3","batch3","tol_tohand","8620","","","","","","","","","tol_peg_1","8620","8620","0","[[1,0,0],[3,0],[0]]","1","[[2,1,3],[0,0],[0]]","1","0","","","","","","5","","","","",""
"","","","","","single-stim-button","157","756867","0.0-3.0-13.0-1.0","5e2534721c55ad7943337a48","C3","batch3","tol_toboard","676","","","","","","","","","tol_peg_3","676","676","0","[[1,0,0],[3,0],[2]]","1","[[2,1,3],[0,0],[0]]","1","0","","","","","","5","","","","",""
"","","","","","single-stim-button","158","757580","0.0-3.0-13.1-0.1","5e2534721c55ad7943337a48","C3","batch3","tol_tohand","711","","","","","","","","","tol_peg_1","711","711","0","[[0,0,0],[3,0],[2]]","2","[[2,1,3],[0,0],[0]]","1","0","","","","","","5","","","","",""
"","","","","","single-stim-button","159","759147","0.0-3.0-13.1-1.1","5e2534721c55ad7943337a48","C3","batch3","tol_toboard","1567","","","","","","","","","tol_peg_2","1567","1567","0","[[0,0,0],[3,1],[2]]","2","[[2,1,3],[0,0],[0]]","1","0","","","","","","5","","","","",""
"","","","","","single-stim-button","160","760266","0.0-3.0-13.2-0.2","5e2534721c55ad7943337a48","C3","batch3","tol_tohand","1117","","","","","","","","","tol_peg_2","1117","1117","0","[[0,0,0],[3,0],[2]]","3","[[2,1,3],[0,0],[0]]","1","0","","","","","","5","","","","",""
"","","","","","single-stim-button","161","763867","0.0-3.0-13.2-1.2","5e2534721c55ad7943337a48","C3","batch3","tol_toboard","3599","","","","","","","","","tol_peg_1","3599","3599","0","[[1,0,0],[3,0],[2]]","3","[[2,1,3],[0,0],[0]]","1","0","","","","","","5","","","","",""
"","","","","","single-stim-button","162","764754","0.0-3.0-13.3-0.3","5e2534721c55ad7943337a48","C3","batch3","tol_tohand","887","","","","","","","","","tol_peg_3","887","887","0","[[1,0,0],[3,0],[0]]","4","[[2,1,3],[0,0],[0]]","1","0","","","","","","5","","","","",""
"","","","","","single-stim-button","163","765465","0.0-3.0-13.3-1.3","5e2534721c55ad7943337a48","C3","batch3","tol_toboard","710","","","","","","","","","tol_peg_2","710","710","0","[[1,0,0],[3,2],[0]]","4","[[2,1,3],[0,0],[0]]","1","0","","","","","","5","","","","",""
"","","","","","single-stim-button","164","766417","0.0-3.0-13.4-0.4","5e2534721c55ad7943337a48","C3","batch3","tol_tohand","951","","","","","","","","","tol_peg_1","951","951","0","[[0,0,0],[3,2],[0]]","5","[[2,1,3],[0,0],[0]]","1","0","","","","","","5","","","","",""
"","","","","","single-stim-button","165","767489","0.0-3.0-13.4-1.4","5e2534721c55ad7943337a48","C3","batch3","tol_toboard","1071","","","","","","","","","tol_peg_3","1071","1071","0","[[0,0,0],[3,2],[1]]","5","[[2,1,3],[0,0],[0]]","1","0","","","","","","5","","","","",""
"","","","","","single-stim-button","166","768081","0.0-3.0-13.5-0.5","5e2534721c55ad7943337a48","C3","batch3","tol_tohand","590","","","","","","","","","tol_peg_2","590","590","0","[[0,0,0],[3,0],[1]]","6","[[2,1,3],[0,0],[0]]","1","0","","","","","","5","","","","",""
"","","","","","single-stim-button","167","768804","0.0-3.0-13.5-1.5","5e2534721c55ad7943337a48","C3","batch3","tol_toboard","723","","","","","","","","","tol_peg_1","723","723","0","[[2,0,0],[3,0],[1]]","6","[[2,1,3],[0,0],[0]]","1","0","","","","","","5","","","","",""
"","","","","","single-stim-button","168","769572","0.0-3.0-13.6-0.6","5e2534721c55ad7943337a48","C3","batch3","tol_tohand","767","","","","","","","","","tol_peg_3","767","767","0","[[2,0,0],[3,0],[0]]","7","[[2,1,3],[0,0],[0]]","1","0","","","","","","5","","","","",""
"","","","","","single-stim-button","169","770380","0.0-3.0-13.6-1.6","5e2534721c55ad7943337a48","C3","batch3","tol_toboard","806","","","","","","","","","tol_peg_1","806","806","0","[[2,1,0],[3,0],[0]]","7","[[2,1,3],[0,0],[0]]","1","0","","","","","","5","","","","",""
"","","","","","single-stim-button","170","771052","0.0-3.0-13.7-0.7","5e2534721c55ad7943337a48","C3","batch3","tol_tohand","672","","","","","","","","","tol_peg_2","672","672","0","[[2,1,0],[0,0],[0]]","8","[[2,1,3],[0,0],[0]]","1","0","","","","","","5","","","","",""
"","","","","","single-stim-button","171","771652","0.0-3.0-13.7-1.7","5e2534721c55ad7943337a48","C3","batch3","tol_toboard","598","","","","","","","","","tol_peg_1","598","598","0","[[2,1,3],[0,0],[0]]","8","[[2,1,3],[0,0],[0]]","1","0","","","","","","5","","","","",""
"","","","","","poldrack-single-stim","172","772663","0.0-3.0-14.0","5e2534721c55ad7943337a48","C3","batch3","tol_feedback","-1","","","","","true","","","","","1000","1000","500","","","","","","-1","none","true","8620","14315","","","","","",""
"","","","","","html-button-response","173","773599","0.0-3.0-15.0","5e2534721c55ad7943337a48","C3","batch3","tol_trial_num","934.3999999761581","<div class = centerbox><p class = center-block-text>problem <strong>3</strong> out of 25 problems</p></div>","0","","","","","","","","","","","","","","","","","","","","","","","","","",""
"","","","","","single-stim-button","174","777399","0.0-3.0-16.0-0.0","5e2534721c55ad7943337a48","C3","batch3","tol_tohand","3799","","","","","","","","","tol_peg_1","3799","3799","0","[[2,0,0],[0,0],[1]]","1","[[1,2,0],[3,0],[0]]","2","0","","","","","","4","","","","",""
"","","","","","single-stim-button","175","779015","0.0-3.0-16.0-1.0","5e2534721c55ad7943337a48","C3","batch3","tol_toboard","1614","","","","","","","","","tol_peg_2","1614","1614","0","[[2,0,0],[3,0],[1]]","1","[[1,2,0],[3,0],[0]]","2","0","","","","","","4","","","","",""
"","","","","","single-stim-button","176","780207","0.0-3.0-16.1-0.1","5e2534721c55ad7943337a48","C3","batch3","tol_tohand","1191","","","","","","","","","tol_peg_1","1191","1191","0","[[0,0,0],[3,0],[1]]","2","[[1,2,0],[3,0],[0]]","2","0","","","","","","4","","","","",""
"","","","","","single-stim-button","177","781046","0.0-3.0-16.1-1.1","5e2534721c55ad7943337a48","C3","batch3","tol_toboard","838","","","","","","","","","tol_peg_2","838","838","0","[[0,0,0],[3,2],[1]]","2","[[1,2,0],[3,0],[0]]","2","0","","","","","","4","","","","",""
"","","","","","single-stim-button","178","781702","0.0-3.0-16.2-0.2","5e2534721c55ad7943337a48","C3","batch3","tol_tohand","655","","","","","","","","","tol_peg_3","655","655","0","[[0,0,0],[3,2],[0]]","3","[[1,2,0],[3,0],[0]]","2","0","","","","","","4","","","","",""
"","","","","","single-stim-button","179","782558","0.0-3.0-16.2-1.2","5e2534721c55ad7943337a48","C3","batch3","tol_toboard","855","","","","","","","","","tol_peg_1","855","855","0","[[1,0,0],[3,2],[0]]","3","[[1,2,0],[3,0],[0]]","2","0","","","","","","4","","","","",""
"","","","","","single-stim-button","180","783253","0.0-3.0-16.3-0.3","5e2534721c55ad7943337a48","C3","batch3","tol_tohand","694","","","","","","","","","tol_peg_2","694","694","0","[[1,0,0],[3,0],[0]]","4","[[1,2,0],[3,0],[0]]","2","0","","","","","","4","","","","",""
"","","","","","single-stim-button","181","784229","0.0-3.0-16.3-1.3","5e2534721c55ad7943337a48","C3","batch3","tol_toboard","975","","","","","","","","","tol_peg_1","975","975","0","[[1,2,0],[3,0],[0]]","4","[[1,2,0],[3,0],[0]]","2","0","","","","","","4","","","","",""
"","","","","","poldrack-single-stim","182","785232","0.0-3.0-17.0","5e2534721c55ad7943337a48","C3","batch3","tol_feedback","-1","","","","","true","","","","","1000","1000","500","","","","","","-1","none","true","3799","6339","","","","","",""
"","","","","","html-button-response","183","786300","0.0-3.0-18.0","5e2534721c55ad7943337a48","C3","batch3","tol_trial_num","1066.3999999761581","<div class = centerbox><p class = center-block-text>problem <strong>4</strong> out of 25 problems</p></div>","0","","","","","","","","","","","","","","","","","","","","","","","","","",""
"","","","","","single-stim-button","184","789960","0.0-3.0-19.0-0.0","5e2534721c55ad7943337a48","C3","batch3","tol_tohand","3658","","","","","","","","","tol_peg_2","3658","3658","0","[[3,0,0],[2,0],[0]]","1","[[3,0,0],[1,0],[2]]","3","0","","","","","","3","","","","",""
"","","","","","single-stim-button","185","791463","0.0-3.0-19.0-1.0","5e2534721c55ad7943337a48","C3","batch3","tol_toboard","1503","","","","","","","","","tol_peg_3","1503","1503","0","[[3,0,0],[2,0],[1]]","1","[[3,0,0],[1,0],[2]]","3","0","","","","","","3","","","","",""
"","","","","","single-stim-button","186","794222","0.0-3.0-19.1-0.1","5e2534721c55ad7943337a48","C3","batch3","tol_tohand","2757","","","","","","","","","tol_peg_2","2757","2757","0","[[3,0,0],[0,0],[1]]","2","[[3,0,0],[1,0],[2]]","3","0","","","","","","3","","","","",""
"","","","","","single-stim-button","187","795599","0.0-3.0-19.1-1.1","5e2534721c55ad7943337a48","C3","batch3","tol_toboard","1376","","","","","","","","","tol_peg_1","1376","1376","0","[[3,2,0],[0,0],[1]]","2","[[3,0,0],[1,0],[2]]","3","0","","","","","","3","","","","",""
"","","","","","single-stim-button","188","796431","0.0-3.0-19.2-0.2","5e2534721c55ad7943337a48","C3","batch3","tol_tohand","830","","","","","","","","","tol_peg_3","830","830","0","[[3,2,0],[0,0],[0]]","3","[[3,0,0],[1,0],[2]]","3","0","","","","","","3","","","","",""
"","","","","","single-stim-button","189","797006","0.0-3.0-19.2-1.2","5e2534721c55ad7943337a48","C3","batch3","tol_toboard","574","","","","","","","","","tol_peg_2","574","574","0","[[3,2,0],[1,0],[0]]","3","[[3,0,0],[1,0],[2]]","3","0","","","","","","3","","","","",""
"","","","","","single-stim-button","190","797710","0.0-3.0-19.3-0.3","5e2534721c55ad7943337a48","C3","batch3","tol_tohand","703","","","","","","","","","tol_peg_1","703","703","0","[[3,0,0],[1,0],[0]]","4","[[3,0,0],[1,0],[2]]","3","0","","","","","","3","","","","",""
"","","","","","single-stim-button","191","798422","0.0-3.0-19.3-1.3","5e2534721c55ad7943337a48","C3","batch3","tol_toboard","711","","","","","","","","","tol_peg_3","711","711","0","[[3,0,0],[1,0],[2]]","4","[[3,0,0],[1,0],[2]]","3","0","","","","","","3","","","","",""
"","","","","","poldrack-single-stim","192","799428","0.0-3.0-20.0","5e2534721c55ad7943337a48","C3","batch3","tol_feedback","-1","","","","","true","","","","","1000","1000","500","","","","","","-1","none","true","3658","7948","","","","","",""
"","","","","","html-button-response","193","800405","0.0-3.0-21.0","5e2534721c55ad7943337a48","C3","batch3","tol_trial_num","976.3999999761581","<div class = centerbox><p class = center-block-text>problem <strong>5</strong> out of 25 problems</p></div>","0","","","","","","","","","","","","","","","","","","","","","","","","","",""
"","","","","","single-stim-button","194","809515","0.0-3.0-22.0-0.0","5e2534721c55ad7943337a48","C3","batch3","tol_tohand","9109","","","","","","","","","tol_peg_3","9109","9109","0","[[1,0,0],[2,0],[0]]","1","[[0,0,0],[1,2],[3]]","4","0","","","","","","7","","","","",""
"","","","","","single-stim-button","195","811291","0.0-3.0-22.0-1.0","5e2534721c55ad7943337a48","C3","batch3","tol_toboard","1773","","","","","","","","","tol_peg_1","1773","1773","0","[[1,3,0],[2,0],[0]]","1","[[0,0,0],[1,2],[3]]","4","0","","","","","","7","","","","",""
"","","","","","single-stim-button","196","811866","0.0-3.0-22.1-0.1","5e2534721c55ad7943337a48","C3","batch3","tol_tohand","573","","","","","","","","","tol_peg_2","573","573","0","[[1,3,0],[0,0],[0]]","2","[[0,0,0],[1,2],[3]]","4","0","","","","","","7","","","","",""
"","","","","","single-stim-button","197","812449","0.0-3.0-22.1-1.1","5e2534721c55ad7943337a48","C3","batch3","tol_toboard","583","","","","","","","","","tol_peg_3","583","583","0","[[1,3,0],[0,0],[2]]","2","[[0,0,0],[1,2],[3]]","4","0","","","","","","7","","","","",""
"","","","","","single-stim-button","198","813902","0.0-3.0-22.2-0.2","5e2534721c55ad7943337a48","C3","batch3","tol_tohand","1452","","","","","","","","","tol_peg_1","1452","1452","0","[[1,0,0],[0,0],[2]]","3","[[0,0,0],[1,2],[3]]","4","0","","","","","","7","","","","",""
"","","","","","single-stim-button","199","815565","0.0-3.0-22.2-1.2","5e2534721c55ad7943337a48","C3","batch3","tol_toboard","1662","","","","","","","","","tol_peg_2","1662","1662","0","[[1,0,0],[3,0],[2]]","3","[[0,0,0],[1,2],[3]]","4","0","","","","","","7","","","","",""
"","","","","","single-stim-button","200","817509","0.0-3.0-22.3-0.3","5e2534721c55ad7943337a48","C3","batch3","tol_tohand","1942","","","","","","","","","tol_peg_3","1942","1942","0","[[1,0,0],[3,0],[0]]","4","[[0,0,0],[1,2],[3]]","4","0","","","","","","7","","","","",""
"","","","","","single-stim-button","201","818132","0.0-3.0-22.3-1.3","5e2534721c55ad7943337a48","C3","batch3","tol_toboard","623","","","","","","","","","tol_peg_2","623","623","0","[[1,0,0],[3,2],[0]]","4","[[0,0,0],[1,2],[3]]","4","0","","","","","","7","","","","",""
"","","","","","single-stim-button","202","818733","0.0-3.0-22.4-0.4","5e2534721c55ad7943337a48","C3","batch3","tol_tohand","599","","","","","","","","","tol_peg_1","599","599","0","[[0,0,0],[3,2],[0]]","5","[[0,0,0],[1,2],[3]]","4","0","","","","","","7","","","","",""
"","","","","","single-stim-button","203","819332","0.0-3.0-22.4-1.4","5e2534721c55ad7943337a48","C3","batch3","tol_toboard","599","","","","","","","","","tol_peg_3","599","599","0","[[0,0,0],[3,2],[1]]","5","[[0,0,0],[1,2],[3]]","4","0","","","","","","7","","","","",""
"","","","","","single-stim-button","204","820579","0.0-3.0-22.5-0.5","5e2534721c55ad7943337a48","C3","batch3","tol_tohand","1246","","","","","","","","","tol_peg_2","1246","1246","0","[[0,0,0],[3,0],[1]]","6","[[0,0,0],[1,2],[3]]","4","0","","","","","","7","","","","",""
"","","","","","single-stim-button","205","822083","0.0-3.0-22.5-1.5","5e2534721c55ad7943337a48","C3","batch3","tol_toboard","1503","","","","","","","","","tol_peg_1","1503","1503","0","[[2,0,0],[3,0],[1]]","6","[[0,0,0],[1,2],[3]]","4","0","","","","","","7","","","","",""
"","","","","","single-stim-button","206","822747","0.0-3.0-22.6-0.6","5e2534721c55ad7943337a48","C3","batch3","tol_tohand","662","","","","","","","","","tol_peg_3","662","662","0","[[2,0,0],[3,0],[0]]","7","[[0,0,0],[1,2],[3]]","4","0","","","","","","7","","","","",""
"","","","","","single-stim-button","207","823488","0.0-3.0-22.6-1.6","5e2534721c55ad7943337a48","C3","batch3","tol_toboard","741","","","","","","","","","tol_peg_1","741","741","0","[[2,1,0],[3,0],[0]]","7","[[0,0,0],[1,2],[3]]","4","0","","","","","","7","","","","",""
"","","","","","single-stim-button","208","824191","0.0-3.0-22.7-0.7","5e2534721c55ad7943337a48","C3","batch3","tol_tohand","701","","","","","","","","","tol_peg_2","701","701","0","[[2,1,0],[0,0],[0]]","8","[[0,0,0],[1,2],[3]]","4","0","","","","","","7","","","","",""
"","","","","","single-stim-button","209","824911","0.0-3.0-22.7-1.7","5e2534721c55ad7943337a48","C3","batch3","tol_toboard","719","","","","","","","","","tol_peg_3","719","719","0","[[2,1,0],[0,0],[3]]","8","[[0,0,0],[1,2],[3]]","4","0","","","","","","7","","","","",""
"","","","","","single-stim-button","210","825615","0.0-3.0-22.8-0.8","5e2534721c55ad7943337a48","C3","batch3","tol_tohand","704","","","","","","","","","tol_peg_1","704","704","0","[[2,0,0],[0,0],[3]]","9","[[0,0,0],[1,2],[3]]","4","0","","","","","","7","","","","",""
"","","","","","single-stim-button","211","826238","0.0-3.0-22.8-1.8","5e2534721c55ad7943337a48","C3","batch3","tol_toboard","621","","","","","","","","","tol_peg_2","621","621","0","[[2,0,0],[1,0],[3]]","9","[[0,0,0],[1,2],[3]]","4","0","","","","","","7","","","","",""
"","","","","","single-stim-button","212","826806","0.0-3.0-22.9-0.9","5e2534721c55ad7943337a48","C3","batch3","tol_tohand","567","","","","","","","","","tol_peg_1","567","567","0","[[0,0,0],[1,0],[3]]","10","[[0,0,0],[1,2],[3]]","4","0","","","","","","7","","","","",""
"","","","","","single-stim-button","213","827293","0.0-3.0-22.9-1.9","5e2534721c55ad7943337a48","C3","batch3","tol_toboard","486","","","","","","","","","tol_peg_2","486","486","0","[[0,0,0],[1,2],[3]]","10","[[0,0,0],[1,2],[3]]","4","0","","","","","","7","","","","",""
"","","","","","poldrack-single-stim","214","828300","0.0-3.0-23.0","5e2534721c55ad7943337a48","C3","batch3","tol_feedback","-1","","","","","true","","","","","1000","1000","500","","","","","","-1","none","true","9109","17555","","","","","",""
"","","","","","html-button-response","215","829180","0.0-3.0-24.0","5e2534721c55ad7943337a48","C3","batch3","tol_trial_num","878.7999999523163","<div class = centerbox><p class = center-block-text>problem <strong>6</strong> out of 25 problems</p></div>","0","","","","","","","","","","","","","","","","","","","","","","","","","",""
"","","","","","single-stim-button","216","834880","0.0-3.0-25.0-0.0","5e2534721c55ad7943337a48","C3","batch3","tol_tohand","5698","","","","","","","","","tol_peg_3","5698","5698","0","[[0,0,0],[1,2],[0]]","1","[[1,0,0],[2,3],[0]]","5","0","","","","","","6","","","","",""
"","","","","","single-stim-button","217","838079","0.0-3.0-25.0-1.0","5e2534721c55ad7943337a48","C3","batch3","tol_toboard","3198","","","","","","","","","tol_peg_1","3198","3198","0","[[3,0,0],[1,2],[0]]","1","[[1,0,0],[2,3],[0]]","5","0","","","","","","6","","","","",""
"","","","","","single-stim-button","218","838855","0.0-3.0-25.1-0.1","5e2534721c55ad7943337a48","C3","batch3","tol_tohand","774","","","","","","","","","tol_peg_2","774","774","0","[[3,0,0],[1,0],[0]]","2","[[1,0,0],[2,3],[0]]","5","0","","","","","","6","","","","",""
"","","","","","single-stim-button","219","839687","0.0-3.0-25.1-1.1","5e2534721c55ad7943337a48","C3","batch3","tol_toboard","831","","","","","","","","","tol_peg_3","831","831","0","[[3,0,0],[1,0],[2]]","2","[[1,0,0],[2,3],[0]]","5","0","","","","","","6","","","","",""
"","","","","","single-stim-button","220","844173","0.0-3.0-25.2-0.2","5e2534721c55ad7943337a48","C3","batch3","tol_tohand","4485","","","","","","","","","tol_peg_2","4485","4485","0","[[3,0,0],[0,0],[2]]","3","[[1,0,0],[2,3],[0]]","5","0","","","","","","6","","","","",""
"","","","","","single-stim-button","221","844765","0.0-3.0-25.2-1.2","5e2534721c55ad7943337a48","C3","batch3","tol_toboard","590","","","","","","","","","tol_peg_1","590","590","0","[[3,1,0],[0,0],[2]]","3","[[1,0,0],[2,3],[0]]","5","0","","","","","","6","","","","",""
"","","","","","single-stim-button","222","845717","0.0-3.0-25.3-0.3","5e2534721c55ad7943337a48","C3","batch3","tol_tohand","951","","","","","","","","","tol_peg_3","951","951","0","[[3,1,0],[0,0],[0]]","4","[[1,0,0],[2,3],[0]]","5","0","","","","","","6","","","","",""
"","","","","","single-stim-button","223","846420","0.0-3.0-25.3-1.3","5e2534721c55ad7943337a48","C3","batch3","tol_toboard","702","","","","","","","","","tol_peg_2","702","702","0","[[3,1,0],[2,0],[0]]","4","[[1,0,0],[2,3],[0]]","5","0","","","","","","6","","","","",""
"","","","","","single-stim-button","224","847460","0.0-3.0-25.4-0.4","5e2534721c55ad7943337a48","C3","batch3","tol_tohand","1038","","","","","","","","","tol_peg_1","1038","1038","0","[[3,0,0],[2,0],[0]]","5","[[1,0,0],[2,3],[0]]","5","0","","","","","","6","","","","",""
"","","","","","single-stim-button","225","848619","0.0-3.0-25.4-1.4","5e2534721c55ad7943337a48","C3","batch3","tol_toboard","1159","","","","","","","","","tol_peg_3","1159","1159","0","[[3,0,0],[2,0],[1]]","5","[[1,0,0],[2,3],[0]]","5","0","","","","","","6","","","","",""
"","","","","","single-stim-button","226","849384","0.0-3.0-25.5-0.5","5e2534721c55ad7943337a48","C3","batch3","tol_tohand","763","","","","","","","","","tol_peg_1","763","763","0","[[0,0,0],[2,0],[1]]","6","[[1,0,0],[2,3],[0]]","5","0","","","","","","6","","","","",""
"","","","","","single-stim-button","227","850087","0.0-3.0-25.5-1.5","5e2534721c55ad7943337a48","C3","batch3","tol_toboard","703","","","","","","","","","tol_peg_2","703","703","0","[[0,0,0],[2,3],[1]]","6","[[1,0,0],[2,3],[0]]","5","0","","","","","","6","","","","",""
"","","","","","single-stim-button","228","850680","0.0-3.0-25.6-0.6","5e2534721c55ad7943337a48","C3","batch3","tol_tohand","592","","","","","","","","","tol_peg_3","592","592","0","[[0,0,0],[2,3],[0]]","7","[[1,0,0],[2,3],[0]]","5","0","","","","","","6","","","","",""
"","","","","","single-stim-button","229","851302","0.0-3.0-25.6-1.6","5e2534721c55ad7943337a48","C3","batch3","tol_toboard","621","","","","","","","","","tol_peg_1","621","621","0","[[1,0,0],[2,3],[0]]","7","[[1,0,0],[2,3],[0]]","5","0","","","","","","6","","","","",""
"","","","","","poldrack-single-stim","230","852310","0.0-3.0-26.0","5e2534721c55ad7943337a48","C3","batch3","tol_feedback","-1","","","","","true","","","","","1000","1000","500","","","","","","-1","none","true","5698","14301","","","","","",""
"","","","","","html-button-response","231","853449","0.0-3.0-27.0","5e2534721c55ad7943337a48","C3","batch3","tol_trial_num","1138.1999999284744","<div class = centerbox><p class = center-block-text>problem <strong>7</strong> out of 25 problems</p></div>","0","","","","","","","","","","","","","","","","","","","","","","","","","",""
"","","","","","single-stim-button","232","858009","0.0-3.0-28.0-0.0","5e2534721c55ad7943337a48","C3","batch3","tol_tohand","4559","","","","","","","","","tol_peg_1","4559","4559","0","[[2,0,0],[0,0],[3]]","1","[[1,2,0],[3,0],[0]]","6","0","","","","","","5","","","","",""
"","","","","","single-stim-button","233","858713","0.0-3.0-28.0-1.0","5e2534721c55ad7943337a48","C3","batch3","tol_toboard","702","","","","","","","","","tol_peg_2","702","702","0","[[2,0,0],[1,0],[3]]","1","[[1,2,0],[3,0],[0]]","6","0","","","","","","5","","","","",""
"","","","","","single-stim-button","234","865503","0.0-3.0-28.1-0.1","5e2534721c55ad7943337a48","C3","batch3","tol_tohand","6790","","","","","","","","","tol_peg_3","6790","6790","0","[[2,0,0],[1,0],[0]]","2","[[1,2,0],[3,0],[0]]","6","0","","","","","","5","","","","",""
"","","","","","single-stim-button","235","866070","0.0-3.0-28.1-1.1","5e2534721c55ad7943337a48","C3","batch3","tol_toboard","566","","","","","","","","","tol_peg_2","566","566","0","[[2,0,0],[1,3],[0]]","2","[[1,2,0],[3,0],[0]]","6","0","","","","","","5","","","","",""
"","","","","","single-stim-button","236","866791","0.0-3.0-28.2-0.2","5e2534721c55ad7943337a48","C3","batch3","tol_tohand","719","","","","","","","","","tol_peg_1","719","719","0","[[0,0,0],[1,3],[0]]","3","[[1,2,0],[3,0],[0]]","6","0","","","","","","5","","","","",""
"","","","","","single-stim-button","237","867446","0.0-3.0-28.2-1.2","5e2534721c55ad7943337a48","C3","batch3","tol_toboard","655","","","","","","","","","tol_peg_3","655","655","0","[[0,0,0],[1,3],[2]]","3","[[1,2,0],[3,0],[0]]","6","0","","","","","","5","","","","",""
"","","","","","single-stim-button","238","868038","0.0-3.0-28.3-0.3","5e2534721c55ad7943337a48","C3","batch3","tol_tohand","590","","","","","","","","","tol_peg_2","590","590","0","[[0,0,0],[1,0],[2]]","4","[[1,2,0],[3,0],[0]]","6","0","","","","","","5","","","","",""
"","","","","","single-stim-button","239","868677","0.0-3.0-28.3-1.3","5e2534721c55ad7943337a48","C3","batch3","tol_toboard","638","","","","","","","","","tol_peg_1","638","638","0","[[3,0,0],[1,0],[2]]","4","[[1,2,0],[3,0],[0]]","6","0","","","","","","5","","","","",""
"","","","","","single-stim-button","240","869997","0.0-3.0-28.4-0.4","5e2534721c55ad7943337a48","C3","batch3","tol_tohand","1319","","","","","","","","","tol_peg_2","1319","1319","0","[[3,0,0],[0,0],[2]]","5","[[1,2,0],[3,0],[0]]","6","0","","","","","","5","","","","",""
"","","","","","single-stim-button","241","871124","0.0-3.0-28.4-1.4","5e2534721c55ad7943337a48","C3","batch3","tol_toboard","1126","","","","","","","","","tol_peg_1","1126","1126","0","[[3,1,0],[0,0],[2]]","5","[[1,2,0],[3,0],[0]]","6","0","","","","","","5","","","","",""
"","","","","","single-stim-button","242","871854","0.0-3.0-28.5-0.5","5e2534721c55ad7943337a48","C3","batch3","tol_tohand","728","","","","","","","","","tol_peg_3","728","728","0","[[3,1,0],[0,0],[0]]","6","[[1,2,0],[3,0],[0]]","6","0","","","","","","5","","","","",""
"","","","","","single-stim-button","243","872572","0.0-3.0-28.5-1.5","5e2534721c55ad7943337a48","C3","batch3","tol_toboard","717","","","","","","","","","tol_peg_2","717","717","0","[[3,1,0],[2,0],[0]]","6","[[1,2,0],[3,0],[0]]","6","0","","","","","","5","","","","",""
"","","","","","single-stim-button","244","876132","0.0-3.0-28.6-0.6","5e2534721c55ad7943337a48","C3","batch3","tol_tohand","3558","","","","","","","","","tol_peg_1","3558","3558","0","[[3,0,0],[2,0],[0]]","7","[[1,2,0],[3,0],[0]]","6","0","","","","","","5","","","","",""
"","","","","","single-stim-button","245","876789","0.0-3.0-28.6-1.6","5e2534721c55ad7943337a48","C3","batch3","tol_toboard","656","","","","","","","","","tol_peg_2","656","656","0","[[3,0,0],[2,1],[0]]","7","[[1,2,0],[3,0],[0]]","6","0","","","","","","5","","","","",""
"","","","","","single-stim-button","246","877388","0.0-3.0-28.7-0.7","5e2534721c55ad7943337a48","C3","batch3","tol_tohand","598","","","","","","","","","tol_peg_1","598","598","0","[[0,0,0],[2,1],[0]]","8","[[1,2,0],[3,0],[0]]","6","0","","","","","","5","","","","",""
"","","","","","single-stim-button","247","878179","0.0-3.0-28.7-1.7","5e2534721c55ad7943337a48","C3","batch3","tol_toboard","791","","","","","","","","","tol_peg_3","791","791","0","[[0,0,0],[2,1],[3]]","8","[[1,2,0],[3,0],[0]]","6","0","","","","","","5","","","","",""
"","","","","","single-stim-button","248","878786","0.0-3.0-28.8-0.8","5e2534721c55ad7943337a48","C3","batch3","tol_tohand","606","","","","","","","","","tol_peg_2","606","606","0","[[0,0,0],[2,0],[3]]","9","[[1,2,0],[3,0],[0]]","6","0","","","","","","5","","","","",""
"","","","","","single-stim-button","249","879555","0.0-3.0-28.8-1.8","5e2534721c55ad7943337a48","C3","batch3","tol_toboard","767","","","","","","","","","tol_peg_1","767","767","0","[[1,0,0],[2,0],[3]]","9","[[1,2,0],[3,0],[0]]","6","0","","","","","","5","","","","",""
"","","","","","single-stim-button","250","880146","0.0-3.0-28.9-0.9","5e2534721c55ad7943337a48","C3","batch3","tol_tohand","591","","","","","","","","","tol_peg_2","591","591","0","[[1,0,0],[0,0],[3]]","10","[[1,2,0],[3,0],[0]]","6","0","","","","","","5","","","","",""
"","","","","","single-stim-button","251","880762","0.0-3.0-28.9-1.9","5e2534721c55ad7943337a48","C3","batch3","tol_toboard","614","","","","","","","","","tol_peg_1","614","614","0","[[1,2,0],[0,0],[3]]","10","[[1,2,0],[3,0],[0]]","6","0","","","","","","5","","","","",""
"","","","","","single-stim-button","252","881451","0.0-3.0-28.10-0.10","5e2534721c55ad7943337a48","C3","batch3","tol_tohand","688","","","","","","","","","tol_peg_3","688","688","0","[[1,2,0],[0,0],[0]]","11","[[1,2,0],[3,0],[0]]","6","0","","","","","","5","","","","",""
"","","","","","single-stim-button","253","882137","0.0-3.0-28.10-1.10","5e2534721c55ad7943337a48","C3","batch3","tol_toboard","685","","","","","","","","","tol_peg_2","685","685","0","[[1,2,0],[3,0],[0]]","11","[[1,2,0],[3,0],[0]]","6","0","","","","","","5","","","","",""
"","","","","","poldrack-single-stim","254","883142","0.0-3.0-29.0","5e2534721c55ad7943337a48","C3","batch3","tol_feedback","-1","","","","","true","","","","","1000","1000","500","","","","","","-1","none","true","4559","20746","","","","","",""
"","","","","","html-button-response","255","884200","0.0-3.0-30.0","5e2534721c55ad7943337a48","C3","batch3","tol_trial_num","1057.2000000476837","<div class = centerbox><p class = center-block-text>problem <strong>8</strong> out of 25 problems</p></div>","0","","","","","","","","","","","","","","","","","","","","","","","","","",""
"","","","","","single-stim-button","256","887500","0.0-3.0-31.0-0.0","5e2534721c55ad7943337a48","C3","batch3","tol_tohand","3298","","","","","","","","","tol_peg_2","3298","3298","0","[[0,0,0],[2,0],[1]]","1","[[1,2,0],[3,0],[0]]","7","0","","","","","","4","","","","",""
"","","","","","single-stim-button","257","888428","0.0-3.0-31.0-1.0","5e2534721c55ad7943337a48","C3","batch3","tol_toboard","926","","","","","","","","","tol_peg_1","926","926","0","[[3,0,0],[2,0],[1]]","1","[[1,2,0],[3,0],[0]]","7","0","","","","","","4","","","","",""
"","","","","","single-stim-button","258","889595","0.0-3.0-31.1-0.1","5e2534721c55ad7943337a48","C3","batch3","tol_tohand","1166","","","","","","","","","tol_peg_2","1166","1166","0","[[3,0,0],[0,0],[1]]","2","[[1,2,0],[3,0],[0]]","7","0","","","","","","4","","","","",""
"","","","","","single-stim-button","259","890300","0.0-3.0-31.1-1.1","5e2534721c55ad7943337a48","C3","batch3","tol_toboard","703","","","","","","","","","tol_peg_1","703","703","0","[[3,2,0],[0,0],[1]]","2","[[1,2,0],[3,0],[0]]","7","0","","","","","","4","","","","",""
"","","","","","single-stim-button","260","892955","0.0-3.0-31.2-0.2","5e2534721c55ad7943337a48","C3","batch3","tol_tohand","2655","","","","","","","","","tol_peg_3","2655","2655","0","[[3,2,0],[0,0],[0]]","3","[[1,2,0],[3,0],[0]]","7","0","","","","","","4","","","","",""
"","","","","","single-stim-button","261","893578","0.0-3.0-31.2-1.2","5e2534721c55ad7943337a48","C3","batch3","tol_toboard","622","","","","","","","","","tol_peg_2","622","622","0","[[3,2,0],[1,0],[0]]","3","[[1,2,0],[3,0],[0]]","7","0","","","","","","4","","","","",""
"","","","","","single-stim-button","262","894180","0.0-3.0-31.3-0.3","5e2534721c55ad7943337a48","C3","batch3","tol_tohand","599","","","","","","","","","tol_peg_1","599","599","0","[[3,0,0],[1,0],[0]]","4","[[1,2,0],[3,0],[0]]","7","0","","","","","","4","","","","",""
"","","","","","single-stim-button","263","894786","0.0-3.0-31.3-1.3","5e2534721c55ad7943337a48","C3","batch3","tol_toboard","606","","","","","","","","","tol_peg_2","606","606","0","[[3,0,0],[1,2],[0]]","4","[[1,2,0],[3,0],[0]]","7","0","","","","","","4","","","","",""
"","","","","","single-stim-button","264","895906","0.0-3.0-31.4-0.4","5e2534721c55ad7943337a48","C3","batch3","tol_tohand","1119","","","","","","","","","tol_peg_1","1119","1119","0","[[0,0,0],[1,2],[0]]","5","[[1,2,0],[3,0],[0]]","7","0","","","","","","4","","","","",""
"","","","","","single-stim-button","265","896546","0.0-3.0-31.4-1.4","5e2534721c55ad7943337a48","C3","batch3","tol_toboard","638","","","","","","","","","tol_peg_3","638","638","0","[[0,0,0],[1,2],[3]]","5","[[1,2,0],[3,0],[0]]","7","0","","","","","","4","","","","",""
"","","","","","single-stim-button","266","897785","0.0-3.0-31.5-0.5","5e2534721c55ad7943337a48","C3","batch3","tol_tohand","1237","","","","","","","","","tol_peg_2","1237","1237","0","[[0,0,0],[1,0],[3]]","6","[[1,2,0],[3,0],[0]]","7","0","","","","","","4","","","","",""
"","","","","","single-stim-button","267","898433","0.0-3.0-31.5-1.5","5e2534721c55ad7943337a48","C3","batch3","tol_toboard","648","","","","","","","","","tol_peg_1","648","648","0","[[2,0,0],[1,0],[3]]","6","[[1,2,0],[3,0],[0]]","7","0","","","","","","4","","","","",""
"","","","","","single-stim-button","268","899417","0.0-3.0-31.6-0.6","5e2534721c55ad7943337a48","C3","batch3","tol_tohand","983","","","","","","","","","tol_peg_2","983","983","0","[[2,0,0],[0,0],[3]]","7","[[1,2,0],[3,0],[0]]","7","0","","","","","","4","","","","",""
"","","","","","single-stim-button","269","900185","0.0-3.0-31.6-1.6","5e2534721c55ad7943337a48","C3","batch3","tol_toboard","766","","","","","","","","","tol_peg_1","766","766","0","[[2,1,0],[0,0],[3]]","7","[[1,2,0],[3,0],[0]]","7","0","","","","","","4","","","","",""
"","","","","","single-stim-button","270","901146","0.0-3.0-31.7-0.7","5e2534721c55ad7943337a48","C3","batch3","tol_tohand","959","","","","","","","","","tol_peg_3","959","959","0","[[2,1,0],[0,0],[0]]","8","[[1,2,0],[3,0],[0]]","7","0","","","","","","4","","","","",""
"","","","","","single-stim-button","271","901736","0.0-3.0-31.7-1.7","5e2534721c55ad7943337a48","C3","batch3","tol_toboard","589","","","","","","","","","tol_peg_2","589","589","0","[[2,1,0],[3,0],[0]]","8","[[1,2,0],[3,0],[0]]","7","0","","","","","","4","","","","",""
"","","","","","single-stim-button","272","902433","0.0-3.0-31.8-0.8","5e2534721c55ad7943337a48","C3","batch3","tol_tohand","695","","","","","","","","","tol_peg_1","695","695","0","[[2,0,0],[3,0],[0]]","9","[[1,2,0],[3,0],[0]]","7","0","","","","","","4","","","","",""
"","","","","","single-stim-button","273","902952","0.0-3.0-31.8-1.8","5e2534721c55ad7943337a48","C3","batch3","tol_toboard","518","","","","","","","","","tol_peg_2","518","518","0","[[2,0,0],[3,1],[0]]","9","[[1,2,0],[3,0],[0]]","7","0","","","","","","4","","","","",""
"","","","","","single-stim-button","274","903960","0.0-3.0-31.9-0.9","5e2534721c55ad7943337a48","C3","batch3","tol_tohand","1007","","","","","","","","","tol_peg_1","1007","1007","0","[[0,0,0],[3,1],[0]]","10","[[1,2,0],[3,0],[0]]","7","0","","","","","","4","","","","",""
"","","","","","single-stim-button","275","904648","0.0-3.0-31.9-1.9","5e2534721c55ad7943337a48","C3","batch3","tol_toboard","686","","","","","","","","","tol_peg_3","686","686","0","[[0,0,0],[3,1],[2]]","10","[[1,2,0],[3,0],[0]]","7","0","","","","","","4","","","","",""
"","","","","","single-stim-button","276","905159","0.0-3.0-31.10-0.10","5e2534721c55ad7943337a48","C3","batch3","tol_tohand","511","","","","","","","","","tol_peg_2","511","511","0","[[0,0,0],[3,0],[2]]","11","[[1,2,0],[3,0],[0]]","7","0","","","","","","4","","","","",""
"","","","","","single-stim-button","277","905752","0.0-3.0-31.10-1.10","5e2534721c55ad7943337a48","C3","batch3","tol_toboard","591","","","","","","","","","tol_peg_1","591","591","0","[[1,0,0],[3,0],[2]]","11","[[1,2,0],[3,0],[0]]","7","0","","","","","","4","","","","",""
"","","","","","single-stim-button","278","906273","0.0-3.0-31.11-0.11","5e2534721c55ad7943337a48","C3","batch3","tol_tohand","520","","","","","","","","","tol_peg_3","520","520","0","[[1,0,0],[3,0],[0]]","12","[[1,2,0],[3,0],[0]]","7","0","","","","","","4","","","","",""
"","","","","","single-stim-button","279","906806","0.0-3.0-31.11-1.11","5e2534721c55ad7943337a48","C3","batch3","tol_toboard","533","","","","","","","","","tol_peg_1","533","533","0","[[1,2,0],[3,0],[0]]","12","[[1,2,0],[3,0],[0]]","7","0","","","","","","4","","","","",""
"","","","","","poldrack-single-stim","280","907818","0.0-3.0-32.0","5e2534721c55ad7943337a48","C3","batch3","tol_feedback","-1","","","","","true","","","","","1000","1000","500","","","","","","-1","none","true","3298","14749","","","","","",""
"","","","","","html-button-response","281","908677","0.0-3.0-33.0","5e2534721c55ad7943337a48","C3","batch3","tol_trial_num","857.1000000238419","<div class = centerbox><p class = center-block-text>problem <strong>9</strong> out of 25 problems</p></div>","0","","","","","","","","","","","","","","","","","","","","","","","","","",""
"","","","","","single-stim-button","282","911838","0.0-3.0-34.0-0.0","5e2534721c55ad7943337a48","C3","batch3","tol_tohand","3159","","","","","","","","","tol_peg_1","3159","3159","0","[[3,0,0],[0,0],[1]]","1","[[2,1,0],[3,0],[0]]","8","0","","","","","","6","","","","",""
"","","","","","single-stim-button","283","914781","0.0-3.0-34.0-1.0","5e2534721c55ad7943337a48","C3","batch3","tol_toboard","2942","","","","","","","","","tol_peg_2","2942","2942","0","[[3,0,0],[2,0],[1]]","1","[[2,1,0],[3,0],[0]]","8","0","","","","","","6","","","","",""
"","","","","","single-stim-button","284","915349","0.0-3.0-34.1-0.1","5e2534721c55ad7943337a48","C3","batch3","tol_tohand","566","","","","","","","","","tol_peg_1","566","566","0","[[0,0,0],[2,0],[1]]","2","[[2,1,0],[3,0],[0]]","8","0","","","","","","6","","","","",""
"","","","","","single-stim-button","285","918519","0.0-3.0-34.1-1.1","5e2534721c55ad7943337a48","C3","batch3","tol_toboard","3170","","","","","","","","","tol_peg_1","3170","3170","0","[[3,0,0],[2,0],[1]]","2","[[2,1,0],[3,0],[0]]","8","0","","","","","","6","","","","",""
"","","","","","single-stim-button","286","919359","0.0-3.0-34.2-0.2","5e2534721c55ad7943337a48","C3","batch3","tol_tohand","838","","","","","","","","","tol_peg_3","838","838","0","[[3,0,0],[2,0],[0]]","3","[[2,1,0],[3,0],[0]]","8","0","","","","","","6","","","","",""
"","","","","","single-stim-button","287","920038","0.0-3.0-34.2-1.2","5e2534721c55ad7943337a48","C3","batch3","tol_toboard","679","","","","","","","","","tol_peg_2","679","679","0","[[3,0,0],[2,1],[0]]","3","[[2,1,0],[3,0],[0]]","8","0","","","","","","6","","","","",""
"","","","","","single-stim-button","288","920710","0.0-3.0-34.3-0.3","5e2534721c55ad7943337a48","C3","batch3","tol_tohand","671","","","","","","","","","tol_peg_1","671","671","0","[[0,0,0],[2,1],[0]]","4","[[2,1,0],[3,0],[0]]","8","0","","","","","","6","","","","",""
"","","","","","single-stim-button","289","921406","0.0-3.0-34.3-1.3","5e2534721c55ad7943337a48","C3","batch3","tol_toboard","694","","","","","","","","","tol_peg_3","694","694","0","[[0,0,0],[2,1],[3]]","4","[[2,1,0],[3,0],[0]]","8","0","","","","","","6","","","","",""
"","","","","","single-stim-button","290","922517","0.0-3.0-34.4-0.4","5e2534721c55ad7943337a48","C3","batch3","tol_tohand","1110","","","","","","","","","tol_peg_2","1110","1110","0","[[0,0,0],[2,0],[3]]","5","[[2,1,0],[3,0],[0]]","8","0","","","","","","6","","","","",""
"","","","","","single-stim-button","291","923261","0.0-3.0-34.4-1.4","5e2534721c55ad7943337a48","C3","batch3","tol_toboard","744","","","","","","","","","tol_peg_1","744","744","0","[[1,0,0],[2,0],[3]]","5","[[2,1,0],[3,0],[0]]","8","0","","","","","","6","","","","",""
"","","","","","single-stim-button","292","924173","0.0-3.0-34.5-0.5","5e2534721c55ad7943337a48","C3","batch3","tol_tohand","911","","","","","","","","","tol_peg_2","911","911","0","[[1,0,0],[0,0],[3]]","6","[[2,1,0],[3,0],[0]]","8","0","","","","","","6","","","","",""
"","","","","","single-stim-button","293","924733","0.0-3.0-34.5-1.5","5e2534721c55ad7943337a48","C3","batch3","tol_toboard","558","","","","","","","","","tol_peg_1","558","558","0","[[1,2,0],[0,0],[3]]","6","[[2,1,0],[3,0],[0]]","8","0","","","","","","6","","","","",""
"","","","","","single-stim-button","294","925302","0.0-3.0-34.6-0.6","5e2534721c55ad7943337a48","C3","batch3","tol_tohand","566","","","","","","","","","tol_peg_3","566","566","0","[[1,2,0],[0,0],[0]]","7","[[2,1,0],[3,0],[0]]","8","0","","","","","","6","","","","",""
"","","","","","single-stim-button","295","925940","0.0-3.0-34.6-1.6","5e2534721c55ad7943337a48","C3","batch3","tol_toboard","638","","","","","","","","","tol_peg_2","638","638","0","[[1,2,0],[3,0],[0]]","7","[[2,1,0],[3,0],[0]]","8","0","","","","","","6","","","","",""
"","","","","","single-stim-button","296","926612","0.0-3.0-34.7-0.7","5e2534721c55ad7943337a48","C3","batch3","tol_tohand","671","","","","","","","","","tol_peg_1","671","671","0","[[1,0,0],[3,0],[0]]","8","[[2,1,0],[3,0],[0]]","8","0","","","","","","6","","","","",""
"","","","","","single-stim-button","297","927444","0.0-3.0-34.7-1.7","5e2534721c55ad7943337a48","C3","batch3","tol_toboard","830","","","","","","","","","tol_peg_2","830","830","0","[[1,0,0],[3,2],[0]]","8","[[2,1,0],[3,0],[0]]","8","0","","","","","","6","","","","",""
"","","","","","single-stim-button","298","928029","0.0-3.0-34.8-0.8","5e2534721c55ad7943337a48","C3","batch3","tol_tohand","583","","","","","","","","","tol_peg_1","583","583","0","[[0,0,0],[3,2],[0]]","9","[[2,1,0],[3,0],[0]]","8","0","","","","","","6","","","","",""
"","","","","","single-stim-button","299","928667","0.0-3.0-34.8-1.8","5e2534721c55ad7943337a48","C3","batch3","tol_toboard","637","","","","","","","","","tol_peg_3","637","637","0","[[0,0,0],[3,2],[1]]","9","[[2,1,0],[3,0],[0]]","8","0","","","","","","6","","","","",""
"","","","","","single-stim-button","300","929259","0.0-3.0-34.9-0.9","5e2534721c55ad7943337a48","C3","batch3","tol_tohand","590","","","","","","","","","tol_peg_2","590","590","0","[[0,0,0],[3,0],[1]]","10","[[2,1,0],[3,0],[0]]","8","0","","","","","","6","","","","",""
"","","","","","single-stim-button","301","929843","0.0-3.0-34.9-1.9","5e2534721c55ad7943337a48","C3","batch3","tol_toboard","584","","","","","","","","","tol_peg_1","584","584","0","[[2,0,0],[3,0],[1]]","10","[[2,1,0],[3,0],[0]]","8","0","","","","","","6","","","","",""
"","","","","","single-stim-button","302","930379","0.0-3.0-34.10-0.10","5e2534721c55ad7943337a48","C3","batch3","tol_tohand","534","","","","","","","","","tol_peg_3","534","534","0","[[2,0,0],[3,0],[0]]","11","[[2,1,0],[3,0],[0]]","8","0","","","","","","6","","","","",""
"","","","","","single-stim-button","303","930971","0.0-3.0-34.10-1.10","5e2534721c55ad7943337a48","C3","batch3","tol_toboard","590","","","","","","","","","tol_peg_1","590","590","0","[[2,1,0],[3,0],[0]]","11","[[2,1,0],[3,0],[0]]","8","0","","","","","","6","","","","",""
"","","","","","poldrack-single-stim","304","931980","0.0-3.0-35.0","5e2534721c55ad7943337a48","C3","batch3","tol_feedback","-1","","","","","true","","","","","1000","1000","500","","","","","","-1","none","true","3159","10199","","","","","",""
"","","","","","html-button-response","305","933174","0.0-3.0-36.0","5e2534721c55ad7943337a48","C3","batch3","tol_trial_num","1192","<div class = centerbox><p class = center-block-text>problem <strong>10</strong> out of 25 problems</p></div>","0","","","","","","","","","","","","","","","","","","","","","","","","","",""
"","","","","","single-stim-button","306","937284","0.0-3.0-37.0-0.0","5e2534721c55ad7943337a48","C3","batch3","tol_tohand","4109","","","","","","","","","tol_peg_2","4109","4109","0","[[3,0,0],[0,0],[2]]","1","[[3,0,0],[2,1],[0]]","9","0","","","","","","3","","","","",""
"","","","","","single-stim-button","307","937901","0.0-3.0-37.0-1.0","5e2534721c55ad7943337a48","C3","batch3","tol_toboard","615","","","","","","","","","tol_peg_1","615","615","0","[[3,1,0],[0,0],[2]]","1","[[3,0,0],[2,1],[0]]","9","0","","","","","","3","","","","",""
"","","","","","single-stim-button","308","938485","0.0-3.0-37.1-0.1","5e2534721c55ad7943337a48","C3","batch3","tol_tohand","582","","","","","","","","","tol_peg_3","582","582","0","[[3,1,0],[0,0],[0]]","2","[[3,0,0],[2,1],[0]]","9","0","","","","","","3","","","","",""
"","","","","","single-stim-button","309","939004","0.0-3.0-37.1-1.1","5e2534721c55ad7943337a48","C3","batch3","tol_toboard","518","","","","","","","","","tol_peg_2","518","518","0","[[3,1,0],[2,0],[0]]","2","[[3,0,0],[2,1],[0]]","9","0","","","","","","3","","","","",""
"","","","","","single-stim-button","310","939621","0.0-3.0-37.2-0.2","5e2534721c55ad7943337a48","C3","batch3","tol_tohand","616","","","","","","","","","tol_peg_1","616","616","0","[[3,0,0],[2,0],[0]]","3","[[3,0,0],[2,1],[0]]","9","0","","","","","","3","","","","",""
"","","","","","single-stim-button","311","940068","0.0-3.0-37.2-1.2","5e2534721c55ad7943337a48","C3","batch3","tol_toboard","446","","","","","","","","","tol_peg_2","446","446","0","[[3,0,0],[2,1],[0]]","3","[[3,0,0],[2,1],[0]]","9","0","","","","","","3","","","","",""
"","","","","","poldrack-single-stim","312","941073","0.0-3.0-38.0","5e2534721c55ad7943337a48","C3","batch3","tol_feedback","-1","","","","","true","","","","","1000","1000","500","","","","","","-1","none","true","4109","5307","","","","","",""
"","","","","","html-button-response","313","942067","0.0-3.0-39.0","5e2534721c55ad7943337a48","C3","batch3","tol_trial_num","992.5999999046326","<div class = centerbox><p class = center-block-text>problem <strong>11</strong> out of 25 problems</p></div>","0","","","","","","","","","","","","","","","","","","","","","","","","","",""
"","","","","","single-stim-button","314","946994","0.0-3.0-40.0-0.0","5e2534721c55ad7943337a48","C3","batch3","tol_tohand","4926","","","","","","","","","tol_peg_1","4926","4926","0","[[1,0,0],[3,0],[0]]","1","[[2,0,0],[1,3],[0]]","10","0","","","","","","6","","","","",""
"","","","","","single-stim-button","315","949544","0.0-3.0-40.0-1.0","5e2534721c55ad7943337a48","C3","batch3","tol_toboard","2548","","","","","","","","","tol_peg_2","2548","2548","0","[[1,0,0],[3,2],[0]]","1","[[2,0,0],[1,3],[0]]","10","0","","","","","","6","","","","",""
"","","","","","single-stim-button","316","950209","0.0-3.0-40.1-0.1","5e2534721c55ad7943337a48","C3","batch3","tol_tohand","664","","","","","","","","","tol_peg_1","664","664","0","[[0,0,0],[3,2],[0]]","2","[[2,0,0],[1,3],[0]]","10","0","","","","","","6","","","","",""
"","","","","","single-stim-button","317","951088","0.0-3.0-40.1-1.1","5e2534721c55ad7943337a48","C3","batch3","tol_toboard","878","","","","","","","","","tol_peg_3","878","878","0","[[0,0,0],[3,2],[1]]","2","[[2,0,0],[1,3],[0]]","10","0","","","","","","6","","","","",""
"","","","","","single-stim-button","318","951639","0.0-3.0-40.2-0.2","5e2534721c55ad7943337a48","C3","batch3","tol_tohand","550","","","","","","","","","tol_peg_2","550","550","0","[[0,0,0],[3,0],[1]]","3","[[2,0,0],[1,3],[0]]","10","0","","","","","","6","","","","",""
"","","","","","single-stim-button","319","952631","0.0-3.0-40.2-1.2","5e2534721c55ad7943337a48","C3","batch3","tol_toboard","991","","","","","","","","","tol_peg_1","991","991","0","[[2,0,0],[3,0],[1]]","3","[[2,0,0],[1,3],[0]]","10","0","","","","","","6","","","","",""
"","","","","","single-stim-button","320","953584","0.0-3.0-40.3-0.3","5e2534721c55ad7943337a48","C3","batch3","tol_tohand","953","","","","","","","","","tol_peg_2","953","953","0","[[2,0,0],[0,0],[1]]","4","[[2,0,0],[1,3],[0]]","10","0","","","","","","6","","","","",""
"","","","","","single-stim-button","321","954008","0.0-3.0-40.3-1.3","5e2534721c55ad7943337a48","C3","batch3","tol_toboard","423","","","","","","","","","tol_peg_1","423","423","0","[[2,3,0],[0,0],[1]]","4","[[2,0,0],[1,3],[0]]","10","0","","","","","","6","","","","",""
"","","","","","single-stim-button","322","954456","0.0-3.0-40.4-0.4","5e2534721c55ad7943337a48","C3","batch3","tol_tohand","446","","","","","","","","","tol_peg_3","446","446","0","[[2,3,0],[0,0],[0]]","5","[[2,0,0],[1,3],[0]]","10","0","","","","","","6","","","","",""
"","","","","","single-stim-button","323","954910","0.0-3.0-40.4-1.4","5e2534721c55ad7943337a48","C3","batch3","tol_toboard","453","","","","","","","","","tol_peg_2","453","453","0","[[2,3,0],[1,0],[0]]","5","[[2,0,0],[1,3],[0]]","10","0","","","","","","6","","","","",""
"","","","","","single-stim-button","324","955463","0.0-3.0-40.5-0.5","5e2534721c55ad7943337a48","C3","batch3","tol_tohand","552","","","","","","","","","tol_peg_1","552","552","0","[[2,0,0],[1,0],[0]]","6","[[2,0,0],[1,3],[0]]","10","0","","","","","","6","","","","",""
"","","","","","single-stim-button","325","955950","0.0-3.0-40.5-1.5","5e2534721c55ad7943337a48","C3","batch3","tol_toboard","486","","","","","","","","","tol_peg_2","486","486","0","[[2,0,0],[1,3],[0]]","6","[[2,0,0],[1,3],[0]]","10","0","","","","","","6","","","","",""
"","","","","","poldrack-single-stim","326","956962","0.0-3.0-41.0","5e2534721c55ad7943337a48","C3","batch3","tol_feedback","-1","","","","","true","","","","","1000","1000","500","","","","","","-1","none","true","4926","8091","","","","","",""
"","","","","","html-button-response","327","957893","0.0-3.0-42.0","5e2534721c55ad7943337a48","C3","batch3","tol_trial_num","930","<div class = centerbox><p class = center-block-text>problem <strong>12</strong> out of 25 problems</p></div>","0","","","","","","","","","","","","","","","","","","","","","","","","","",""
"","","","","","single-stim-button","328","966822","0.0-3.0-43.0-0.0","5e2534721c55ad7943337a48","C3","batch3","tol_tohand","8928","","","","","","","","","tol_peg_1","8928","8928","0","[[1,0,0],[3,0],[0]]","1","[[2,3,0],[0,0],[1]]","11","0","","","","","","4","","","","",""
"","","","","","single-stim-button","329","967462","0.0-3.0-43.0-1.0","5e2534721c55ad7943337a48","C3","batch3","tol_toboard","637","","","","","","","","","tol_peg_2","637","637","0","[[1,0,0],[3,2],[0]]","1","[[2,3,0],[0,0],[1]]","11","0","","","","","","4","","","","",""
"","","","","","single-stim-button","330","968055","0.0-3.0-43.1-0.1","5e2534721c55ad7943337a48","C3","batch3","tol_tohand","591","","","","","","","","","tol_peg_1","591","591","0","[[0,0,0],[3,2],[0]]","2","[[2,3,0],[0,0],[1]]","11","0","","","","","","4","","","","",""
"","","","","","single-stim-button","331","968909","0.0-3.0-43.1-1.1","5e2534721c55ad7943337a48","C3","batch3","tol_toboard","853","","","","","","","","","tol_peg_3","853","853","0","[[0,0,0],[3,2],[1]]","2","[[2,3,0],[0,0],[1]]","11","0","","","","","","4","","","","",""
"","","","","","single-stim-button","332","969773","0.0-3.0-43.2-0.2","5e2534721c55ad7943337a48","C3","batch3","tol_tohand","862","","","","","","","","","tol_peg_2","862","862","0","[[0,0,0],[3,0],[1]]","3","[[2,3,0],[0,0],[1]]","11","0","","","","","","4","","","","",""
"","","","","","single-stim-button","333","970581","0.0-3.0-43.2-1.2","5e2534721c55ad7943337a48","C3","batch3","tol_toboard","808","","","","","","","","","tol_peg_1","808","808","0","[[2,0,0],[3,0],[1]]","3","[[2,3,0],[0,0],[1]]","11","0","","","","","","4","","","","",""
"","","","","","single-stim-button","334","971525","0.0-3.0-43.3-0.3","5e2534721c55ad7943337a48","C3","batch3","tol_tohand","942","","","","","","","","","tol_peg_2","942","942","0","[[2,0,0],[0,0],[1]]","4","[[2,3,0],[0,0],[1]]","11","0","","","","","","4","","","","",""
"","","","","","single-stim-button","335","972364","0.0-3.0-43.3-1.3","5e2534721c55ad7943337a48","C3","batch3","tol_toboard","839","","","","","","","","","tol_peg_1","839","839","0","[[2,3,0],[0,0],[1]]","4","[[2,3,0],[0,0],[1]]","11","0","","","","","","4","","","","",""
"","","","","","poldrack-single-stim","336","973372","0.0-3.0-44.0","5e2534721c55ad7943337a48","C3","batch3","tol_feedback","-1","","","","","true","","","","","1000","1000","500","","","","","","-1","none","true","8928","11323","","","","","",""
"","","","","","html-button-response","337","974310","0.0-3.0-45.0","5e2534721c55ad7943337a48","C3","batch3","tol_trial_num","936.7000000476837","<div class = centerbox><p class = center-block-text>problem <strong>13</strong> out of 25 problems</p></div>","0","","","","","","","","","","","","","","","","","","","","","","","","","",""
"","","","","","single-stim-button","338","979183","0.0-3.0-46.0-0.0","5e2534721c55ad7943337a48","C3","batch3","tol_tohand","4871","","","","","","","","","tol_peg_1","4871","4871","0","[[1,0,0],[3,0],[0]]","1","[[0,0,0],[2,3],[1]]","12","0","","","","","","4","","","","",""
"","","","","","single-stim-button","339","980430","0.0-3.0-46.0-1.0","5e2534721c55ad7943337a48","C3","batch3","tol_toboard","1245","","","","","","","","","tol_peg_2","1245","1245","0","[[1,0,0],[3,2],[0]]","1","[[0,0,0],[2,3],[1]]","12","0","","","","","","4","","","","",""
"","","","","","single-stim-button","340","981062","0.0-3.0-46.1-0.1","5e2534721c55ad7943337a48","C3","batch3","tol_tohand","631","","","","","","","","","tol_peg_1","631","631","0","[[0,0,0],[3,2],[0]]","2","[[0,0,0],[2,3],[1]]","12","0","","","","","","4","","","","",""
"","","","","","single-stim-button","341","982269","0.0-3.0-46.1-1.1","5e2534721c55ad7943337a48","C3","batch3","tol_toboard","1206","","","","","","","","","tol_peg_3","1206","1206","0","[[0,0,0],[3,2],[1]]","2","[[0,0,0],[2,3],[1]]","12","0","","","","","","4","","","","",""
"","","","","","single-stim-button","342","983045","0.0-3.0-46.2-0.2","5e2534721c55ad7943337a48","C3","batch3","tol_tohand","774","","","","","","","","","tol_peg_2","774","774","0","[[0,0,0],[3,0],[1]]","3","[[0,0,0],[2,3],[1]]","12","0","","","","","","4","","","","",""
"","","","","","single-stim-button","343","983677","0.0-3.0-46.2-1.2","5e2534721c55ad7943337a48","C3","batch3","tol_toboard","632","","","","","","","","","tol_peg_1","632","632","0","[[2,0,0],[3,0],[1]]","3","[[0,0,0],[2,3],[1]]","12","0","","","","","","4","","","","",""
"","","","","","single-stim-button","344","988635","0.0-3.0-46.3-0.3","5e2534721c55ad7943337a48","C3","batch3","tol_tohand","4957","","","","","","","","","tol_peg_2","4957","4957","0","[[2,0,0],[0,0],[1]]","4","[[0,0,0],[2,3],[1]]","12","0","","","","","","4","","","","",""
"","","","","","single-stim-button","345","989203","0.0-3.0-46.3-1.3","5e2534721c55ad7943337a48","C3","batch3","tol_toboard","566","","","","","","","","","tol_peg_1","566","566","0","[[2,3,0],[0,0],[1]]","4","[[0,0,0],[2,3],[1]]","12","0","","","","","","4","","","","",""
"","","","","","single-stim-button","346","990312","0.0-3.0-46.4-0.4","5e2534721c55ad7943337a48","C3","batch3","tol_tohand","1107","","","","","","","","","tol_peg_3","1107","1107","0","[[2,3,0],[0,0],[0]]","5","[[0,0,0],[2,3],[1]]","12","0","","","","","","4","","","","",""
"","","","","","single-stim-button","347","990942","0.0-3.0-46.4-1.4","5e2534721c55ad7943337a48","C3","batch3","tol_toboard","629","","","","","","","","","tol_peg_2","629","629","0","[[2,3,0],[1,0],[0]]","5","[[0,0,0],[2,3],[1]]","12","0","","","","","","4","","","","",""
"","","","","","single-stim-button","348","991584","0.0-3.0-46.5-0.5","5e2534721c55ad7943337a48","C3","batch3","tol_tohand","641","","","","","","","","","tol_peg_1","641","641","0","[[2,0,0],[1,0],[0]]","6","[[0,0,0],[2,3],[1]]","12","0","","","","","","4","","","","",""
"","","","","","single-stim-button","349","992302","0.0-3.0-46.5-1.5","5e2534721c55ad7943337a48","C3","batch3","tol_toboard","717","","","","","","","","","tol_peg_3","717","717","0","[[2,0,0],[1,0],[3]]","6","[[0,0,0],[2,3],[1]]","12","0","","","","","","4","","","","",""
"","","","","","single-stim-button","350","992827","0.0-3.0-46.6-0.6","5e2534721c55ad7943337a48","C3","batch3","tol_tohand","523","","","","","","","","","tol_peg_2","523","523","0","[[2,0,0],[0,0],[3]]","7","[[0,0,0],[2,3],[1]]","12","0","","","","","","4","","","","",""
"","","","","","single-stim-button","351","993557","0.0-3.0-46.6-1.6","5e2534721c55ad7943337a48","C3","batch3","tol_toboard","730","","","","","","","","","tol_peg_1","730","730","0","[[2,1,0],[0,0],[3]]","7","[[0,0,0],[2,3],[1]]","12","0","","","","","","4","","","","",""
"","","","","","single-stim-button","352","997596","0.0-3.0-46.7-0.7","5e2534721c55ad7943337a48","C3","batch3","tol_tohand","4038","","","","","","","","","tol_peg_1","4038","4038","0","[[2,0,0],[0,0],[3]]","8","[[0,0,0],[2,3],[1]]","12","0","","","","","","4","","","","",""
"","","","","","single-stim-button","353","999860","0.0-3.0-46.7-1.7","5e2534721c55ad7943337a48","C3","batch3","tol_toboard","2262","","","","","","","","","tol_peg_1","2262","2262","0","[[2,1,0],[0,0],[3]]","8","[[0,0,0],[2,3],[1]]","12","0","","","","","","4","","","","",""
"","","","","","single-stim-button","354","1000620","0.0-3.0-46.8-0.8","5e2534721c55ad7943337a48","C3","batch3","tol_tohand","759","","","","","","","","","tol_peg_3","759","759","0","[[2,1,0],[0,0],[0]]","9","[[0,0,0],[2,3],[1]]","12","0","","","","","","4","","","","",""
"","","","","","single-stim-button","355","1002339","0.0-3.0-46.8-1.8","5e2534721c55ad7943337a48","C3","batch3","tol_toboard","1718","","","","","","","","","tol_peg_2","1718","1718","0","[[2,1,0],[3,0],[0]]","9","[[0,0,0],[2,3],[1]]","12","0","","","","","","4","","","","",""
