"success","timeout","failed_images","failed_audio","failed_video","trial_type","trial_index","time_elapsed","internal_node_id","subject_id","study_id","session_id","task","rt","stimulus","response","item","answer","correct","spm_correct","spm_rt","view_history","mouse_click","stim_duration","block_duration","timing_post_trial","current_position","tol_num_moves_made","tol_target","tol_problem_id","tol_rt","key_press","possible_responses","tol_correct","preplanning","tol_rt_per_trial","tol_min_moves","fiar_detect_rt","fiar_detect_correct","total_correct_fiar_detect","post_trial_gap","choices"
"true","false","[]","[]","[]","preload","0","9398","0.0-0.0","5e287f8ebdfcaf050e34fd94","E1","batch5","","","","","","","","","","","","","","","","","","","","","","","","","","","","","",""
"true","","","","","fullscreen","1","93976","0.0-1.0-0.0","5e287f8ebdfcaf050e34fd94","E1","batch5","","","","","","","","","","","","","","","","","","","","","","","","","","","","","",""
"true","","","","","fullscreen","2","97683","0.0-2.0-0.0","5e287f8ebdfcaf050e34fd94","E1","batch5","spm_fullscreen","","","","","","","","","","","","","","","","","","","","","","","","","","","","",""
"","","","","","html-button-response","3","114845","0.0-2.0-1.0","5e287f8ebdfcaf050e34fd94","E1","batch5","","17159.40000000596","<p class = block-text><b>Instructions</b> <br>This is a widely used intelligence test in research. <br>In this test, a figure with a missing piece will be presented.<br>Below the figure are alternative pieces to complete the figure, only one of which is correct.<br> Different figures might involve different principles for obtaining the missing piece<br>Your job is to select the most logical piece to complete the figure.</p>","0","","","","","","","","","","","","","","","","","","","","","","","","","",""
"","","","","","html-keyboard-response","4","115648","0.0-2.0-2.0-0.0","5e287f8ebdfcaf050e34fd94","E1","batch5","spm_show_trial_num","null","<p class=block-text>Trial 1 out of 60</p>","null","","","","","","","","","","","","","","","","","","","","","","","","","",""
"","","","","","image-button-response","5","122414","0.0-2.0-2.0-1.0","5e287f8ebdfcaf050e34fd94","E1","batch5","spm_respsonse","6756","img/question_1_1.jpeg","3","mat_01","4","1","1","6756","","","","","","","","","","","","","","","","","","","","",""
"","","","","","html-keyboard-response","6","123466","0.0-2.0-2.0-0.1","5e287f8ebdfcaf050e34fd94","E1","batch5","spm_show_trial_num","null","<p class=block-text>Trial 2 out of 60</p>","null","","","","","","","","","","","","","","","","","","","","","","","","","",""
"","","","","","image-button-response","7","126688","0.0-2.0-2.0-1.1","5e287f8ebdfcaf050e34fd94","E1","batch5","spm_respsonse","3220","img/question_1_2.jpeg","4","mat_02","5","1","1","3220","","","","","","","","","","","","","","","","","","","","",""
"","","","","","html-keyboard-response","8","127746","0.0-2.0-2.0-0.2","5e287f8ebdfcaf050e34fd94","E1","batch5","spm_show_trial_num","null","<p class=block-text>Trial 3 out of 60</p>","null","","","","","","","","","","","","","","","","","","","","","","","","","",""
"","","","","","image-button-response","9","130066","0.0-2.0-2.0-1.2","5e287f8ebdfcaf050e34fd94","E1","batch5","spm_respsonse","2315.5999999940395","img/question_1_3.jpeg","0","mat_03","1","1","1","2315.5999999940395","","","","","","","","","","","","","","","","","","","","",""
"","","","","","html-keyboard-response","10","131117","0.0-2.0-2.0-0.3","5e287f8ebdfcaf050e34fd94","E1","batch5","spm_show_trial_num","null","<p class=block-text>Trial 4 out of 60</p>","null","","","","","","","","","","","","","","","","","","","","","","","","","",""
"","","","","","image-button-response","11","135178","0.0-2.0-2.0-1.3","5e287f8ebdfcaf050e34fd94","E1","batch5","spm_respsonse","4057.100000023842","img/question_1_4.jpeg","1","mat_04","2","1","1","4057.100000023842","","","","","","","","","","","","","","","","","","","","",""
"","","","","","html-keyboard-response","12","136230","0.0-2.0-2.0-0.4","5e287f8ebdfcaf050e34fd94","E1","batch5","spm_show_trial_num","null","<p class=block-text>Trial 5 out of 60</p>","null","","","","","","","","","","","","","","","","","","","","","","","","","",""
"","","","","","image-button-response","13","139907","0.0-2.0-2.0-1.4","5e287f8ebdfcaf050e34fd94","E1","batch5","spm_respsonse","3672.2999999821186","img/question_1_5.jpeg","5","mat_05","6","1","1","3672.2999999821186","","","","","","","","","","","","","","","","","","","","",""
"","","","","","html-keyboard-response","14","140960","0.0-2.0-2.0-0.5","5e287f8ebdfcaf050e34fd94","E1","batch5","spm_show_trial_num","null","<p class=block-text>Trial 6 out of 60</p>","null","","","","","","","","","","","","","","","","","","","","","","","","","",""
"","","","","","image-button-response","15","144571","0.0-2.0-2.0-1.5","5e287f8ebdfcaf050e34fd94","E1","batch5","spm_respsonse","3607.4000000059605","img/question_1_6.jpeg","2","mat_06","3","1","1","3607.4000000059605","","","","","","","","","","","","","","","","","","","","",""
"","","","","","html-keyboard-response","16","145623","0.0-2.0-2.0-0.6","5e287f8ebdfcaf050e34fd94","E1","batch5","spm_show_trial_num","null","<p class=block-text>Trial 7 out of 60</p>","null","","","","","","","","","","","","","","","","","","","","","","","","","",""
"","","","","","image-button-response","17","149072","0.0-2.0-2.0-1.6","5e287f8ebdfcaf050e34fd94","E1","batch5","spm_respsonse","3446.600000023842","img/question_1_7.jpeg","5","mat_07","6","1","1","3446.600000023842","","","","","","","","","","","","","","","","","","","","",""
"","","","","","html-keyboard-response","18","150124","0.0-2.0-2.0-0.7","5e287f8ebdfcaf050e34fd94","E1","batch5","spm_show_trial_num","null","<p class=block-text>Trial 8 out of 60</p>","null","","","","","","","","","","","","","","","","","","","","","","","","","",""
"","","","","","image-button-response","19","154576","0.0-2.0-2.0-1.7","5e287f8ebdfcaf050e34fd94","E1","batch5","spm_respsonse","4447.799999982119","img/question_1_8.jpeg","1","mat_08","2","1","1","4447.799999982119","","","","","","","","","","","","","","","","","","","","",""
"","","","","","html-keyboard-response","20","155628","0.0-2.0-2.0-0.8","5e287f8ebdfcaf050e34fd94","E1","batch5","spm_show_trial_num","null","<p class=block-text>Trial 9 out of 60</p>","null","","","","","","","","","","","","","","","","","","","","","","","","","",""
"","","","","","image-button-response","21","159595","0.0-2.0-2.0-1.8","5e287f8ebdfcaf050e34fd94","E1","batch5","spm_respsonse","3966.0999999940395","img/question_1_9.jpeg","0","mat_09","1","1","1","3966.0999999940395","","","","","","","","","","","","","","","","","","","","",""
"","","","","","html-keyboard-response","22","160647","0.0-2.0-2.0-0.9","5e287f8ebdfcaf050e34fd94","E1","batch5","spm_show_trial_num","null","<p class=block-text>Trial 10 out of 60</p>","null","","","","","","","","","","","","","","","","","","","","","","","","","",""
"","","","","","image-button-response","23","164850","0.0-2.0-2.0-1.9","5e287f8ebdfcaf050e34fd94","E1","batch5","spm_respsonse","4199.300000011921","img/question_1_10.jpeg","2","mat_10","3","1","1","4199.300000011921","","","","","","","","","","","","","","","","","","","","",""
"","","","","","html-keyboard-response","24","165903","0.0-2.0-2.0-0.10","5e287f8ebdfcaf050e34fd94","E1","batch5","spm_show_trial_num","null","<p class=block-text>Trial 11 out of 60</p>","null","","","","","","","","","","","","","","","","","","","","","","","","","",""
"","","","","","image-button-response","25","174864","0.0-2.0-2.0-1.10","5e287f8ebdfcaf050e34fd94","E1","batch5","spm_respsonse","8958.300000011921","img/question_1_11.jpeg","3","mat_11","4","1","1","8958.300000011921","","","","","","","","","","","","","","","","","","","","",""
"","","","","","html-keyboard-response","26","175916","0.0-2.0-2.0-0.11","5e287f8ebdfcaf050e34fd94","E1","batch5","spm_show_trial_num","null","<p class=block-text>Trial 12 out of 60</p>","null","","","","","","","","","","","","","","","","","","","","","","","","","",""
"","","","","","image-button-response","27","185310","0.0-2.0-2.0-1.11","5e287f8ebdfcaf050e34fd94","E1","batch5","spm_respsonse","9389.399999976158","img/question_1_12.jpeg","4","mat_12","5","1","1","9389.399999976158","","","","","","","","","","","","","","","","","","","","",""
"","","","","","html-keyboard-response","28","186362","0.0-2.0-2.0-0.12","5e287f8ebdfcaf050e34fd94","E1","batch5","spm_show_trial_num","null","<p class=block-text>Trial 13 out of 60</p>","null","","","","","","","","","","","","","","","","","","","","","","","","","",""
"","","","","","image-button-response","29","189298","0.0-2.0-2.0-1.12","5e287f8ebdfcaf050e34fd94","E1","batch5","spm_respsonse","2934.5999999940395","img/question_2_1.jpeg","1","mat_13","2","1","1","2934.5999999940395","","","","","","","","","","","","","","","","","","","","",""
"","","","","","html-keyboard-response","30","190351","0.0-2.0-2.0-0.13","5e287f8ebdfcaf050e34fd94","E1","batch5","spm_show_trial_num","null","<p class=block-text>Trial 14 out of 60</p>","null","","","","","","","","","","","","","","","","","","","","","","","","","",""
"","","","","","image-button-response","31","199469","0.0-2.0-2.0-1.13","5e287f8ebdfcaf050e34fd94","E1","batch5","spm_respsonse","9116.5","img/question_2_2.jpeg","5","mat_14","6","1","1","9116.5","","","","","","","","","","","","","","","","","","","","",""
"","","","","","html-keyboard-response","32","200549","0.0-2.0-2.0-0.14","5e287f8ebdfcaf050e34fd94","E1","batch5","spm_show_trial_num","null","<p class=block-text>Trial 15 out of 60</p>","null","","","","","","","","","","","","","","","","","","","","","","","","","",""
"","","","","","image-button-response","33","205320","0.0-2.0-2.0-1.14","5e287f8ebdfcaf050e34fd94","E1","batch5","spm_respsonse","4766.699999988079","img/question_2_3.jpeg","0","mat_15","1","1","1","4766.699999988079","","","","","","","","","","","","","","","","","","","","",""
"","","","","","html-keyboard-response","34","206374","0.0-2.0-2.0-0.15","5e287f8ebdfcaf050e34fd94","E1","batch5","spm_show_trial_num","null","<p class=block-text>Trial 16 out of 60</p>","null","","","","","","","","","","","","","","","","","","","","","","","","","",""
"","","","","","image-button-response","35","208910","0.0-2.0-2.0-1.15","5e287f8ebdfcaf050e34fd94","E1","batch5","spm_respsonse","2532.7000000178814","img/question_2_4.jpeg","1","mat_16","2","1","1","2532.7000000178814","","","","","","","","","","","","","","","","","","","","",""
"","","","","","html-keyboard-response","36","209963","0.0-2.0-2.0-0.16","5e287f8ebdfcaf050e34fd94","E1","batch5","spm_show_trial_num","null","<p class=block-text>Trial 17 out of 60</p>","null","","","","","","","","","","","","","","","","","","","","","","","","","",""
"","","","","","image-button-response","37","216906","0.0-2.0-2.0-1.16","5e287f8ebdfcaf050e34fd94","E1","batch5","spm_respsonse","6941.300000011921","img/question_2_5.jpeg","0","mat_17","1","1","1","6941.300000011921","","","","","","","","","","","","","","","","","","","","",""
"","","","","","html-keyboard-response","38","217965","0.0-2.0-2.0-0.17","5e287f8ebdfcaf050e34fd94","E1","batch5","spm_show_trial_num","null","<p class=block-text>Trial 18 out of 60</p>","null","","","","","","","","","","","","","","","","","","","","","","","","","",""
"","","","","","image-button-response","39","224162","0.0-2.0-2.0-1.17","5e287f8ebdfcaf050e34fd94","E1","batch5","spm_respsonse","6193.200000017881","img/question_2_6.jpeg","2","mat_18","3","1","1","6193.200000017881","","","","","","","","","","","","","","","","","","","","",""
"","","","","","html-keyboard-response","40","225219","0.0-2.0-2.0-0.18","5e287f8ebdfcaf050e34fd94","E1","batch5","spm_show_trial_num","null","<p class=block-text>Trial 19 out of 60</p>","null","","","","","","","","","","","","","","","","","","","","","","","","","",""
"","","","","","image-button-response","41","235088","0.0-2.0-2.0-1.18","5e287f8ebdfcaf050e34fd94","E1","batch5","spm_respsonse","9865","img/question_2_7.jpeg","4","mat_19","5","1","1","9865","","","","","","","","","","","","","","","","","","","","",""
"","","","","","html-keyboard-response","42","236147","0.0-2.0-2.0-0.19","5e287f8ebdfcaf050e34fd94","E1","batch5","spm_show_trial_num","null","<p class=block-text>Trial 20 out of 60</p>","null","","","","","","","","","","","","","","","","","","","","","","","","","",""
"","","","","","image-button-response","43","248620","0.0-2.0-2.0-1.19","5e287f8ebdfcaf050e34fd94","E1","batch5","spm_respsonse","12469.299999982119","img/question_2_8.jpeg","5","mat_20","6","1","1","12469.299999982119","","","","","","","","","","","","","","","","","","","","",""
"","","","","","html-keyboard-response","44","249695","0.0-2.0-2.0-0.20","5e287f8ebdfcaf050e34fd94","E1","batch5","spm_show_trial_num","null","<p class=block-text>Trial 21 out of 60</p>","null","","","","","","","","","","","","","","","","","","","","","","","","","",""
"","","","","","image-button-response","45","253254","0.0-2.0-2.0-1.20","5e287f8ebdfcaf050e34fd94","E1","batch5","spm_respsonse","3554.7999999821186","img/question_2_9.jpeg","3","mat_21","4","1","1","3554.7999999821186","","","","","","","","","","","","","","","","","","","","",""
"","","","","","html-keyboard-response","46","254316","0.0-2.0-2.0-0.21","5e287f8ebdfcaf050e34fd94","E1","batch5","spm_show_trial_num","null","<p class=block-text>Trial 22 out of 60</p>","null","","","","","","","","","","","","","","","","","","","","","","","","","",""
"","","","","","image-button-response","47","258719","0.0-2.0-2.0-1.21","5e287f8ebdfcaf050e34fd94","E1","batch5","spm_respsonse","4399.699999988079","img/question_2_10.jpeg","2","mat_22","3","1","1","4399.699999988079","","","","","","","","","","","","","","","","","","","","",""
"","","","","","html-keyboard-response","48","259777","0.0-2.0-2.0-0.22","5e287f8ebdfcaf050e34fd94","E1","batch5","spm_show_trial_num","null","<p class=block-text>Trial 23 out of 60</p>","null","","","","","","","","","","","","","","","","","","","","","","","","","",""
"","","","","","image-button-response","49","268176","0.0-2.0-2.0-1.22","5e287f8ebdfcaf050e34fd94","E1","batch5","spm_respsonse","8395","img/question_2_11.jpeg","5","mat_23","4","0","0","8395","","","","","","","","","","","","","","","","","","","","",""
"","","","","","html-keyboard-response","50","269231","0.0-2.0-2.0-0.23","5e287f8ebdfcaf050e34fd94","E1","batch5","spm_show_trial_num","null","<p class=block-text>Trial 24 out of 60</p>","null","","","","","","","","","","","","","","","","","","","","","","","","","",""
"","","","","","image-button-response","51","277332","0.0-2.0-2.0-1.23","5e287f8ebdfcaf050e34fd94","E1","batch5","spm_respsonse","8096.700000017881","img/question_2_12.jpeg","4","mat_24","5","1","1","8096.700000017881","","","","","","","","","","","","","","","","","","","","",""
"","","","","","html-button-response","52","279852","0.0-2.0-3.0","5e287f8ebdfcaf050e34fd94","E1","batch5","attention_check","2250.5999999940395","<p class = block-text>Attention check: Please choose 1<br></p>","0","","","true","","","","","","","","","","","","","","","","","","","","","","",""
"","","","","","html-keyboard-response","53","280654","0.0-2.0-4.0-0.0","5e287f8ebdfcaf050e34fd94","E1","batch5","spm_show_trial_num","null","<p class=block-text>Trial 25 out of 60</p>","null","","","","","","","","","","","","","","","","","","","","","","","","","",""
"","","","","","image-button-response","54","287691","0.0-2.0-4.0-1.0","5e287f8ebdfcaf050e34fd94","E1","batch5","spm_respsonse","7033.0999999940395","img/question_3_1.jpeg","7","mat_25","8","1","1","7033.0999999940395","","","","","","","","","","","","","","","","","","","","",""
"","","","","","html-keyboard-response","55","288743","0.0-2.0-4.0-0.1","5e287f8ebdfcaf050e34fd94","E1","batch5","spm_show_trial_num","null","<p class=block-text>Trial 26 out of 60</p>","null","","","","","","","","","","","","","","","","","","","","","","","","","",""
"","","","","","image-button-response","56","298348","0.0-2.0-4.0-1.1","5e287f8ebdfcaf050e34fd94","E1","batch5","spm_respsonse","9600.800000011921","img/question_3_2.jpeg","1","mat_26","2","1","1","9600.800000011921","","","","","","","","","","","","","","","","","","","","",""
"","","","","","html-keyboard-response","57","299434","0.0-2.0-4.0-0.2","5e287f8ebdfcaf050e34fd94","E1","batch5","spm_show_trial_num","null","<p class=block-text>Trial 27 out of 60</p>","null","","","","","","","","","","","","","","","","","","","","","","","","","",""
"","","","","","image-button-response","58","314321","0.0-2.0-4.0-1.2","5e287f8ebdfcaf050e34fd94","E1","batch5","spm_respsonse","14882.799999982119","img/question_3_3.jpeg","2","mat_27","3","1","1","14882.799999982119","","","","","","","","","","","","","","","","","","","","",""
"","","","","","html-keyboard-response","59","315379","0.0-2.0-4.0-0.3","5e287f8ebdfcaf050e34fd94","E1","batch5","spm_show_trial_num","null","<p class=block-text>Trial 28 out of 60</p>","null","","","","","","","","","","","","","","","","","","","","","","","","","",""
"","","","","","image-button-response","60","328926","0.0-2.0-4.0-1.3","5e287f8ebdfcaf050e34fd94","E1","batch5","spm_respsonse","13543.199999988079","img/question_3_4.jpeg","7","mat_28","8","1","1","13543.199999988079","","","","","","","","","","","","","","","","","","","","",""
"","","","","","html-keyboard-response","61","329978","0.0-2.0-4.0-0.4","5e287f8ebdfcaf050e34fd94","E1","batch5","spm_show_trial_num","null","<p class=block-text>Trial 29 out of 60</p>","null","","","","","","","","","","","","","","","","","","","","","","","","","",""
"","","","","","image-button-response","62","336556","0.0-2.0-4.0-1.4","5e287f8ebdfcaf050e34fd94","E1","batch5","spm_respsonse","6575.200000017881","img/question_3_5.jpeg","6","mat_29","7","1","1","6575.200000017881","","","","","","","","","","","","","","","","","","","","",""
"","","","","","html-keyboard-response","63","337608","0.0-2.0-4.0-0.5","5e287f8ebdfcaf050e34fd94","E1","batch5","spm_show_trial_num","null","<p class=block-text>Trial 30 out of 60</p>","null","","","","","","","","","","","","","","","","","","","","","","","","","",""
"","","","","","image-button-response","64","350332","0.0-2.0-4.0-1.5","5e287f8ebdfcaf050e34fd94","E1","batch5","spm_respsonse","12721.899999976158","img/question_3_6.jpeg","3","mat_30","4","1","1","12721.899999976158","","","","","","","","","","","","","","","","","","","","",""
"","","","","","html-keyboard-response","65","351405","0.0-2.0-4.0-0.6","5e287f8ebdfcaf050e34fd94","E1","batch5","spm_show_trial_num","null","<p class=block-text>Trial 31 out of 60</p>","null","","","","","","","","","","","","","","","","","","","","","","","","","",""
"","","","","","image-button-response","66","370627","0.0-2.0-4.0-1.6","5e287f8ebdfcaf050e34fd94","E1","batch5","spm_respsonse","19218.30000001192","img/question_3_7.jpeg","4","mat_31","5","1","1","19218.30000001192","","","","","","","","","","","","","","","","","","","","",""
"","","","","","html-keyboard-response","67","371686","0.0-2.0-4.0-0.7","5e287f8ebdfcaf050e34fd94","E1","batch5","spm_show_trial_num","null","<p class=block-text>Trial 32 out of 60</p>","null","","","","","","","","","","","","","","","","","","","","","","","","","",""
"","","","","","image-button-response","68","375777","0.0-2.0-4.0-1.7","5e287f8ebdfcaf050e34fd94","E1","batch5","spm_respsonse","4087.9000000059605","img/question_3_8.jpeg","0","mat_32","1","1","1","4087.9000000059605","","","","","","","","","","","","","","","","","","","","",""
"","","","","","html-keyboard-response","69","376842","0.0-2.0-4.0-0.8","5e287f8ebdfcaf050e34fd94","E1","batch5","spm_show_trial_num","null","<p class=block-text>Trial 33 out of 60</p>","null","","","","","","","","","","","","","","","","","","","","","","","","","",""
"","","","","","image-button-response","70","396433","0.0-2.0-4.0-1.8","5e287f8ebdfcaf050e34fd94","E1","batch5","spm_respsonse","19586.09999999404","img/question_3_9.jpeg","6","mat_33","7","1","1","19586.09999999404","","","","","","","","","","","","","","","","","","","","",""
"","","","","","html-keyboard-response","71","397499","0.0-2.0-4.0-0.9","5e287f8ebdfcaf050e34fd94","E1","batch5","spm_show_trial_num","null","<p class=block-text>Trial 34 out of 60</p>","null","","","","","","","","","","","","","","","","","","","","","","","","","",""
"","","","","","image-button-response","72","408864","0.0-2.0-4.0-1.9","5e287f8ebdfcaf050e34fd94","E1","batch5","spm_respsonse","11361.799999982119","img/question_3_10.jpeg","7","mat_34","6","0","0","11361.799999982119","","","","","","","","","","","","","","","","","","","","",""
"","","","","","html-keyboard-response","73","409918","0.0-2.0-4.0-0.10","5e287f8ebdfcaf050e34fd94","E1","batch5","spm_show_trial_num","null","<p class=block-text>Trial 35 out of 60</p>","null","","","","","","","","","","","","","","","","","","","","","","","","","",""
"","","","","","image-button-response","74","438916","0.0-2.0-4.0-1.10","5e287f8ebdfcaf050e34fd94","E1","batch5","spm_respsonse","28994","img/question_3_11.jpeg","0","mat_35","1","1","1","28994","","","","","","","","","","","","","","","","","","","","",""
"","","","","","html-keyboard-response","75","439975","0.0-2.0-4.0-0.11","5e287f8ebdfcaf050e34fd94","E1","batch5","spm_show_trial_num","null","<p class=block-text>Trial 36 out of 60</p>","null","","","","","","","","","","","","","","","","","","","","","","","","","",""
"","","","","","image-button-response","76","463978","0.0-2.0-4.0-1.11","5e287f8ebdfcaf050e34fd94","E1","batch5","spm_respsonse","23999.79999998212","img/question_3_12.jpeg","1","mat_36","2","1","1","23999.79999998212","","","","","","","","","","","","","","","","","","","","",""
"","","","","","html-keyboard-response","77","465031","0.0-2.0-4.0-0.12","5e287f8ebdfcaf050e34fd94","E1","batch5","spm_show_trial_num","null","<p class=block-text>Trial 37 out of 60</p>","null","","","","","","","","","","","","","","","","","","","","","","","","","",""
"","","","","","image-button-response","78","468996","0.0-2.0-4.0-1.12","5e287f8ebdfcaf050e34fd94","E1","batch5","spm_respsonse","3961.4000000059605","img/question_4_1.jpeg","2","mat_37","3","1","1","3961.4000000059605","","","","","","","","","","","","","","","","","","","","",""
"","","","","","html-keyboard-response","79","470072","0.0-2.0-4.0-0.13","5e287f8ebdfcaf050e34fd94","E1","batch5","spm_show_trial_num","null","<p class=block-text>Trial 38 out of 60</p>","null","","","","","","","","","","","","","","","","","","","","","","","","","",""
"","","","","","image-button-response","80","480006","0.0-2.0-4.0-1.13","5e287f8ebdfcaf050e34fd94","E1","batch5","spm_respsonse","9929.700000017881","img/question_4_2.jpeg","4","mat_38","4","0","0","9929.700000017881","","","","","","","","","","","","","","","","","","","","",""
"","","","","","html-keyboard-response","81","481074","0.0-2.0-4.0-0.14","5e287f8ebdfcaf050e34fd94","E1","batch5","spm_show_trial_num","null","<p class=block-text>Trial 39 out of 60</p>","null","","","","","","","","","","","","","","","","","","","","","","","","","",""
"","","","","","image-button-response","82","487513","0.0-2.0-4.0-1.14","5e287f8ebdfcaf050e34fd94","E1","batch5","spm_respsonse","6434.799999982119","img/question_4_3.jpeg","2","mat_39","3","1","1","6434.799999982119","","","","","","","","","","","","","","","","","","","","",""
"","","","","","html-keyboard-response","83","488566","0.0-2.0-4.0-0.15","5e287f8ebdfcaf050e34fd94","E1","batch5","spm_show_trial_num","null","<p class=block-text>Trial 40 out of 60</p>","null","","","","","","","","","","","","","","","","","","","","","","","","","",""
"","","","","","image-button-response","84","509198","0.0-2.0-4.0-1.15","5e287f8ebdfcaf050e34fd94","E1","batch5","spm_respsonse","20629","img/question_4_4.jpeg","6","mat_40","7","1","1","20629","","","","","","","","","","","","","","","","","","","","",""
"","","","","","html-keyboard-response","85","510258","0.0-2.0-4.0-0.16","5e287f8ebdfcaf050e34fd94","E1","batch5","spm_show_trial_num","null","<p class=block-text>Trial 41 out of 60</p>","null","","","","","","","","","","","","","","","","","","","","","","","","","",""
"","","","","","image-button-response","86","521700","0.0-2.0-4.0-1.16","5e287f8ebdfcaf050e34fd94","E1","batch5","spm_respsonse","11438.800000011921","img/question_4_5.jpeg","7","mat_41","8","1","1","11438.800000011921","","","","","","","","","","","","","","","","","","","","",""
"","","","","","html-keyboard-response","87","522751","0.0-2.0-4.0-0.17","5e287f8ebdfcaf050e34fd94","E1","batch5","spm_show_trial_num","null","<p class=block-text>Trial 42 out of 60</p>","null","","","","","","","","","","","","","","","","","","","","","","","","","",""
"","","","","","image-button-response","88","539768","0.0-2.0-4.0-1.17","5e287f8ebdfcaf050e34fd94","E1","batch5","spm_respsonse","17012.19999998808","img/question_4_6.jpeg","5","mat_42","6","1","1","17012.19999998808","","","","","","","","","","","","","","","","","","","","",""
"","","","","","html-keyboard-response","89","540839","0.0-2.0-4.0-0.18","5e287f8ebdfcaf050e34fd94","E1","batch5","spm_show_trial_num","null","<p class=block-text>Trial 43 out of 60</p>","null","","","","","","","","","","","","","","","","","","","","","","","","","",""
"","","","","","image-button-response","90","560294","0.0-2.0-4.0-1.18","5e287f8ebdfcaf050e34fd94","E1","batch5","spm_respsonse","19450.29999998212","img/question_4_7.jpeg","4","mat_43","5","1","1","19450.29999998212","","","","","","","","","","","","","","","","","","","","",""
"","","","","","html-keyboard-response","91","561361","0.0-2.0-4.0-0.19","5e287f8ebdfcaf050e34fd94","E1","batch5","spm_show_trial_num","null","<p class=block-text>Trial 44 out of 60</p>","null","","","","","","","","","","","","","","","","","","","","","","","","","",""
"","","","","","image-button-response","92","592341","0.0-2.0-4.0-1.19","5e287f8ebdfcaf050e34fd94","E1","batch5","spm_respsonse","30976.40000000596","img/question_4_8.jpeg","3","mat_44","4","1","1","30976.40000000596","","","","","","","","","","","","","","","","","","","","",""
"","","","","","html-keyboard-response","93","593423","0.0-2.0-4.0-0.20","5e287f8ebdfcaf050e34fd94","E1","batch5","spm_show_trial_num","null","<p class=block-text>Trial 45 out of 60</p>","null","","","","","","","","","","","","","","","","","","","","","","","","","",""
"","","","","","image-button-response","94","623085","0.0-2.0-4.0-1.20","5e287f8ebdfcaf050e34fd94","E1","batch5","spm_respsonse","29659.20000001788","img/question_4_9.jpeg","0","mat_45","1","1","1","29659.20000001788","","","","","","","","","","","","","","","","","","","","",""
"","","","","","html-keyboard-response","95","624161","0.0-2.0-4.0-0.21","5e287f8ebdfcaf050e34fd94","E1","batch5","spm_show_trial_num","null","<p class=block-text>Trial 46 out of 60</p>","null","","","","","","","","","","","","","","","","","","","","","","","","","",""
"","","","","","image-button-response","96","689124","0.0-2.0-4.0-1.21","5e287f8ebdfcaf050e34fd94","E1","batch5","spm_respsonse","64960","img/question_4_10.jpeg","1","mat_46","2","1","1","64960","","","","","","","","","","","","","","","","","","","","",""
"","","","","","html-keyboard-response","97","690189","0.0-2.0-4.0-0.22","5e287f8ebdfcaf050e34fd94","E1","batch5","spm_show_trial_num","null","<p class=block-text>Trial 47 out of 60</p>","null","","","","","","","","","","","","","","","","","","","","","","","","","",""
"","","","","","image-button-response","98","741114","0.0-2.0-4.0-1.22","5e287f8ebdfcaf050e34fd94","E1","batch5","spm_respsonse","50921.59999999404","img/question_4_11.jpeg","4","mat_47","5","1","1","50921.59999999404","","","","","","","","","","","","","","","","","","","","",""
"","","","","","html-keyboard-response","99","742170","0.0-2.0-4.0-0.23","5e287f8ebdfcaf050e34fd94","E1","batch5","spm_show_trial_num","null","<p class=block-text>Trial 48 out of 60</p>","null","","","","","","","","","","","","","","","","","","","","","","","","","",""
"","","","","","image-button-response","100","834425","0.0-2.0-4.0-1.23","5e287f8ebdfcaf050e34fd94","E1","batch5","spm_respsonse","92250.59999999404","img/question_4_12.jpeg","6","mat_48","6","0","0","92250.59999999404","","","","","","","","","","","","","","","","","","","","",""
"","","","","","html-keyboard-response","101","835491","0.0-2.0-4.0-0.24","5e287f8ebdfcaf050e34fd94","E1","batch5","spm_show_trial_num","null","<p class=block-text>Trial 49 out of 60</p>","null","","","","","","","","","","","","","","","","","","","","","","","","","",""
"","","","","","image-button-response","102","843208","0.0-2.0-4.0-1.24","5e287f8ebdfcaf050e34fd94","E1","batch5","spm_respsonse","7712.800000011921","img/question_5_1.jpeg","6","mat_49","7","1","1","7712.800000011921","","","","","","","","","","","","","","","","","","","","",""
"","","","","","html-keyboard-response","103","844260","0.0-2.0-4.0-0.25","5e287f8ebdfcaf050e34fd94","E1","batch5","spm_show_trial_num","null","<p class=block-text>Trial 50 out of 60</p>","null","","","","","","","","","","","","","","","","","","","","","","","","","",""
"","","","","","image-button-response","104","865849","0.0-2.0-4.0-1.25","5e287f8ebdfcaf050e34fd94","E1","batch5","spm_respsonse","21587.20000001788","img/question_5_2.jpeg","5","mat_50","6","1","1","21587.20000001788","","","","","","","","","","","","","","","","","","","","",""
"","","","","","html-keyboard-response","105","866922","0.0-2.0-4.0-0.26","5e287f8ebdfcaf050e34fd94","E1","batch5","spm_show_trial_num","null","<p class=block-text>Trial 51 out of 60</p>","null","","","","","","","","","","","","","","","","","","","","","","","","","",""
"","","","","","image-button-response","106","881956","0.0-2.0-4.0-1.26","5e287f8ebdfcaf050e34fd94","E1","batch5","spm_respsonse","15029.90000000596","img/question_5_3.jpeg","7","mat_51","8","1","1","15029.90000000596","","","","","","","","","","","","","","","","","","","","",""
"","","","","","html-keyboard-response","107","883017","0.0-2.0-4.0-0.27","5e287f8ebdfcaf050e34fd94","E1","batch5","spm_show_trial_num","null","<p class=block-text>Trial 52 out of 60</p>","null","","","","","","","","","","","","","","","","","","","","","","","","","",""
"","","","","","image-button-response","108","931343","0.0-2.0-4.0-1.27","5e287f8ebdfcaf050e34fd94","E1","batch5","spm_respsonse","48324.10000002384","img/question_5_4.jpeg","1","mat_52","2","1","1","48324.10000002384","","","","","","","","","","","","","","","","","","","","",""
"","","","","","html-keyboard-response","109","932396","0.0-2.0-4.0-0.28","5e287f8ebdfcaf050e34fd94","E1","batch5","spm_show_trial_num","null","<p class=block-text>Trial 53 out of 60</p>","null","","","","","","","","","","","","","","","","","","","","","","","","","",""
"","","","","","image-button-response","110","986775","0.0-2.0-4.0-1.28","5e287f8ebdfcaf050e34fd94","E1","batch5","spm_respsonse","54374.70000001788","img/question_5_5.jpeg","6","mat_53","1","0","0","54374.70000001788","","","","","","","","","","","","","","","","","","","","",""
"","","","","","html-keyboard-response","111","987829","0.0-2.0-4.0-0.29","5e287f8ebdfcaf050e34fd94","E1","batch5","spm_show_trial_num","null","<p class=block-text>Trial 54 out of 60</p>","null","","","","","","","","","","","","","","","","","","","","","","","","","",""
"","","","","","image-button-response","112","1041189","0.0-2.0-4.0-1.29","5e287f8ebdfcaf050e34fd94","E1","batch5","spm_respsonse","53356.19999998808","img/question_5_6.jpeg","6","mat_54","5","0","0","53356.19999998808","","","","","","","","","","","","","","","","","","","","",""
"","","","","","html-keyboard-response","113","1042242","0.0-2.0-4.0-0.30","5e287f8ebdfcaf050e34fd94","E1","batch5","spm_show_trial_num","null","<p class=block-text>Trial 55 out of 60</p>","null","","","","","","","","","","","","","","","","","","","","","","","","","",""
"","","","","","image-button-response","114","1098851","0.0-2.0-4.0-1.30","5e287f8ebdfcaf050e34fd94","E1","batch5","spm_respsonse","56605.60000002384","img/question_5_7.jpeg","0","mat_55","1","1","1","56605.60000002384","","","","","","","","","","","","","","","","","","","","",""
"","","","","","html-keyboard-response","115","1099904","0.0-2.0-4.0-0.31","5e287f8ebdfcaf050e34fd94","E1","batch5","spm_show_trial_num","null","<p class=block-text>Trial 56 out of 60</p>","null","","","","","","","","","","","","","","","","","","","","","","","","","",""
"","","","","","image-button-response","116","1113935","0.0-2.0-4.0-1.31","5e287f8ebdfcaf050e34fd94","E1","batch5","spm_respsonse","14029.40000000596","img/question_5_8.jpeg","3","mat_56","6","0","0","14029.40000000596","","","","","","","","","","","","","","","","","","","","",""
"","","","","","html-keyboard-response","117","1114987","0.0-2.0-4.0-0.32","5e287f8ebdfcaf050e34fd94","E1","batch5","spm_show_trial_num","null","<p class=block-text>Trial 57 out of 60</p>","null","","","","","","","","","","","","","","","","","","","","","","","","","",""
"","","","","","image-button-response","118","1166265","0.0-2.0-4.0-1.32","5e287f8ebdfcaf050e34fd94","E1","batch5","spm_respsonse","51274.80000001192","img/question_5_9.jpeg","2","mat_57","3","1","1","51274.80000001192","","","","","","","","","","","","","","","","","","","","",""
"","","","","","html-keyboard-response","119","1167332","0.0-2.0-4.0-0.33","5e287f8ebdfcaf050e34fd94","E1","batch5","spm_show_trial_num","null","<p class=block-text>Trial 58 out of 60</p>","null","","","","","","","","","","","","","","","","","","","","","","","","","",""
"","","","","","image-button-response","120","1190501","0.0-2.0-4.0-1.33","5e287f8ebdfcaf050e34fd94","E1","batch5","spm_respsonse","23165.59999999404","img/question_5_10.jpeg","1","mat_58","2","1","1","23165.59999999404","","","","","","","","","","","","","","","","","","","","",""
"","","","","","html-keyboard-response","121","1191555","0.0-2.0-4.0-0.34","5e287f8ebdfcaf050e34fd94","E1","batch5","spm_show_trial_num","null","<p class=block-text>Trial 59 out of 60</p>","null","","","","","","","","","","","","","","","","","","","","","","","","","",""
"","","","","","image-button-response","122","1207051","0.0-2.0-4.0-1.34","5e287f8ebdfcaf050e34fd94","E1","batch5","spm_respsonse","15493.5","img/question_5_11.jpeg","0","mat_59","4","0","0","15493.5","","","","","","","","","","","","","","","","","","","","",""
"","","","","","html-keyboard-response","123","1208111","0.0-2.0-4.0-0.35","5e287f8ebdfcaf050e34fd94","E1","batch5","spm_show_trial_num","null","<p class=block-text>Trial 60 out of 60</p>","null","","","","","","","","","","","","","","","","","","","","","","","","","",""
"","","","","","image-button-response","124","1222141","0.0-2.0-4.0-1.35","5e287f8ebdfcaf050e34fd94","E1","batch5","spm_respsonse","14026.09999999404","img/question_5_12.jpeg","1","mat_60","5","0","0","14026.09999999404","","","","","","","","","","","","","","","","","","","","",""
"","","","","","html-button-response","125","1225209","0.0-2.0-5.0","5e287f8ebdfcaf050e34fd94","E1","batch5","spm_goodbye","2800.5999999940395","<p class= block-text>This concludes the Standard Progressive Matrix game. Thank you for your responses!<br> When you are ready, click the button continue</p>","0","","","","","","","","","","","","","","","","","","","","","","","","","",""
"true","","","","","fullscreen","126","1227727","0.0-3.0-0.0","5e287f8ebdfcaf050e34fd94","E1","batch5","","","","","","","","","","","","","","","","","","","","","","","","","","","","","",""
"","","","","","instructions","127","1259488","0.0-3.0-1.0-0.0-0.0","5e287f8ebdfcaf050e34fd94","E1","batch5","tol-instructions","31760.5","","","","","","","","[{""page_index"":0,""viewing_time"":5266.5999999940395},{""page_index"":1,""viewing_time"":3617.800000011921},{""page_index"":2,""viewing_time"":2981.699999988079},{""page_index"":3,""viewing_time"":9802.40000000596},{""page_index"":4,""viewing_time"":3868},{""page_index"":5,""viewing_time"":3854.199999988079},{""page_index"":6,""viewing_time"":2369.300000011921}]","","","","","","","","","","","","","","","","","","","",""
"","","","","","html-button-response","128","1260256","0.0-3.0-1.0-1.0-0.0","5e287f8ebdfcaf050e34fd94","E1","batch5","tol_enter_quiz","766.5","<p class=block-text> Let's answer a few questions <br>","0","","","","","","","","","","","","","","","","","","","","","","","","","",""
"","","","","","html-button-response","129","1263214","0.0-3.0-1.0-1.0-1.0","5e287f8ebdfcaf050e34fd94","E1","batch5","tol_quiz","2956.2000000178814","<p class = block-text>True or False: You can only move the ball on top of a peg. <br></p>","0","","","true","","","","","","","","","","","","","","","","","","","","","","",""
"","","","","","html-button-response","130","1264322","0.0-3.0-1.0-1.0-2.0","5e287f8ebdfcaf050e34fd94","E1","batch5","tol_quiz_feedback","1104.5999999940395","<p class = block-text>Correct! You can only move the ball on top of a peg.</p>","0","","","","","","","","","","","","","","","","","","","","","","","","","",""
"","","","","","html-button-response","131","1266354","0.0-3.0-1.0-1.0-3.0","5e287f8ebdfcaf050e34fd94","E1","batch5","tol_quiz","2030.4000000059605","<p class = block-text>True or False: You should try to match your board with the target board with fewest moves possible. <br></p>","0","","","true","","","","","","","","","","","","","","","","","","","","","","",""
"","","","","","html-button-response","132","1266999","0.0-3.0-1.0-1.0-4.0","5e287f8ebdfcaf050e34fd94","E1","batch5","tol_quiz_feedback","642.5999999940395","<p class = block-text>Correct! </p>","0","","","","","","","","","","","","","","","","","","","","","","","","","",""
"","","","","","html-button-response","133","1268606","0.0-3.0-2.0","5e287f8ebdfcaf050e34fd94","E1","batch5","","1603.3999999761581","<p class=block-text> Now that you've understood the game, let's practice a few easier examples before we start!<br> <br>","0","","","","","","","","","","","","","","","","","","","","","","","","","",""
"","","","","","single-stim-button","134","1270446","0.0-3.0-3.0-0.0","5e287f8ebdfcaf050e34fd94","E1","batch5","tol_practice","1835","","","","","","","","","tol_peg_2","1835","1835","0","[[1,2,0],[0,0],[0]]","1","[[1,2,0],[0,0],[3]]","practice","1835","","","","","","","","","","",""
"","","","","","single-stim-button","135","1271903","0.0-3.0-3.0-1.0","5e287f8ebdfcaf050e34fd94","E1","batch5","tol_practice","1455","","","","","","","","","tol_peg_3","1455","1455","0","[[1,2,0],[0,0],[3]]","1","[[1,2,0],[0,0],[3]]","practice","1455","","","","","","","","","","",""
"","","","","","poldrack-single-stim","136","1272907","0.0-3.0-4.0","5e287f8ebdfcaf050e34fd94","E1","batch5","tol_feedback","-1","","","","","true","","","","","1000","1000","500","","","","","","-1","none","true","","0","","","","","",""
"","","","","","single-stim-button","137","1276516","0.0-3.0-5.0-0.0","5e287f8ebdfcaf050e34fd94","E1","batch5","tol_practice","3607","","","","","","","","","tol_peg_1","3607","3607","0","[[1,0,0],[3,0],[0]]","2","[[0,0,0],[3,1],[2]]","practice","3607","","","","","","","","","","",""
"","","","","","single-stim-button","138","1277277","0.0-3.0-5.0-1.0","5e287f8ebdfcaf050e34fd94","E1","batch5","tol_practice","760","","","","","","","","","tol_peg_3","760","760","0","[[1,0,0],[3,0],[2]]","2","[[0,0,0],[3,1],[2]]","practice","760","","","","","","","","","","",""
"","","","","","single-stim-button","139","1277930","0.0-3.0-5.1-0.1","5e287f8ebdfcaf050e34fd94","E1","batch5","tol_practice","651","","","","","","","","","tol_peg_1","651","651","0","[[0,0,0],[3,0],[2]]","3","[[0,0,0],[3,1],[2]]","practice","651","","","","","","","","","","",""
"","","","","","single-stim-button","140","1278540","0.0-3.0-5.1-1.1","5e287f8ebdfcaf050e34fd94","E1","batch5","tol_practice","608","","","","","","","","","tol_peg_2","608","608","0","[[0,0,0],[3,1],[2]]","3","[[0,0,0],[3,1],[2]]","practice","608","","","","","","","","","","",""
"","","","","","poldrack-single-stim","141","1279551","0.0-3.0-6.0","5e287f8ebdfcaf050e34fd94","E1","batch5","tol_feedback","-1","","","","","true","","","","","1000","1000","500","","","","","","-1","none","true","","0","","","","","",""
"","","","","","single-stim-button","142","1281303","0.0-3.0-7.0-0.0","5e287f8ebdfcaf050e34fd94","E1","batch5","tol_practice","1752","","","","","","","","","tol_peg_2","1752","1752","0","[[1,2,0],[0,0],[0]]","4","[[1,0,0],[2,0],[3]]","practice","1752","","","","","","","","","","",""
"","","","","","single-stim-button","143","1282181","0.0-3.0-7.0-1.0","5e287f8ebdfcaf050e34fd94","E1","batch5","tol_practice","877","","","","","","","","","tol_peg_3","877","877","0","[[1,2,0],[0,0],[3]]","4","[[1,0,0],[2,0],[3]]","practice","877","","","","","","","","","","",""
"","","","","","single-stim-button","144","1282809","0.0-3.0-7.1-0.1","5e287f8ebdfcaf050e34fd94","E1","batch5","tol_practice","625","","","","","","","","","tol_peg_1","625","625","0","[[1,0,0],[0,0],[3]]","5","[[1,0,0],[2,0],[3]]","practice","625","","","","","","","","","","",""
"","","","","","single-stim-button","145","1283634","0.0-3.0-7.1-1.1","5e287f8ebdfcaf050e34fd94","E1","batch5","tol_practice","823","","","","","","","","","tol_peg_2","823","823","0","[[1,0,0],[2,0],[3]]","5","[[1,0,0],[2,0],[3]]","practice","823","","","","","","","","","","",""
"","","","","","poldrack-single-stim","146","1284636","0.0-3.0-8.0","5e287f8ebdfcaf050e34fd94","E1","batch5","tol_feedback","-1","","","","","true","","","","","1000","1000","500","","","","","","-1","none","true","","0","","","","","",""
"","","","","","html-button-response","147","1286340","0.0-3.0-9.0","5e287f8ebdfcaf050e34fd94","E1","batch5","tol_instruction","1702.7000000178814","<div class = centerbox><p class = center-block-text>Great job! You are done with practice trials<br>You are about to start official trials.<br> <br> Problem <strong>1</strong> out of 25 problems</p></div>","0","","","","","","","","","","","","","","","","","","","","","","","","","",""
"","","","","","single-stim-button","148","1289181","0.0-3.0-10.0-0.0","5e287f8ebdfcaf050e34fd94","E1","batch5","tol_tohand","1837","","","","","","","","","tol_peg_1","1837","1837","0","[[1,0,0],[3,0],[0]]","1","[[1,3,0],[2,0],[0]]","0","0","","","","","","3","","","","",""
"","","","","","single-stim-button","149","1290318","0.0-3.0-10.0-1.0","5e287f8ebdfcaf050e34fd94","E1","batch5","tol_toboard","1136","","","","","","","","","tol_peg_3","1136","1136","0","[[1,0,0],[3,0],[2]]","1","[[1,3,0],[2,0],[0]]","0","0","","","","","","3","","","","",""
"","","","","","single-stim-button","150","1290768","0.0-3.0-10.1-0.1","5e287f8ebdfcaf050e34fd94","E1","batch5","tol_tohand","449","","","","","","","","","tol_peg_2","449","449","0","[[1,0,0],[0,0],[2]]","2","[[1,3,0],[2,0],[0]]","0","0","","","","","","3","","","","",""
"","","","","","single-stim-button","151","1291510","0.0-3.0-10.1-1.1","5e287f8ebdfcaf050e34fd94","E1","batch5","tol_toboard","741","","","","","","","","","tol_peg_1","741","741","0","[[1,3,0],[0,0],[2]]","2","[[1,3,0],[2,0],[0]]","0","0","","","","","","3","","","","",""
"","","","","","single-stim-button","152","1292305","0.0-3.0-10.2-0.2","5e287f8ebdfcaf050e34fd94","E1","batch5","tol_tohand","793","","","","","","","","","tol_peg_3","793","793","0","[[1,3,0],[0,0],[0]]","3","[[1,3,0],[2,0],[0]]","0","0","","","","","","3","","","","",""
"","","","","","single-stim-button","153","1293024","0.0-3.0-10.2-1.2","5e287f8ebdfcaf050e34fd94","E1","batch5","tol_toboard","719","","","","","","","","","tol_peg_2","719","719","0","[[1,3,0],[2,0],[0]]","3","[[1,3,0],[2,0],[0]]","0","0","","","","","","3","","","","",""
"","","","","","poldrack-single-stim","154","1294026","0.0-3.0-11.0","5e287f8ebdfcaf050e34fd94","E1","batch5","tol_feedback","-1","","","","","true","","","","","1000","1000","500","","","","","","-1","none","true","1837","3079","","","","","",""
"","","","","","html-button-response","155","1294766","0.0-3.0-12.0","5e287f8ebdfcaf050e34fd94","E1","batch5","tol_trial_num","737.6999999880791","<div class = centerbox><p class = center-block-text>problem <strong>2</strong> out of 25 problems</p></div>","0","","","","","","","","","","","","","","","","","","","","","","","","","",""
"","","","","","single-stim-button","156","1297035","0.0-3.0-13.0-0.0","5e287f8ebdfcaf050e34fd94","E1","batch5","tol_tohand","2268","","","","","","","","","tol_peg_1","2268","2268","0","[[1,0,0],[3,0],[0]]","1","[[2,1,3],[0,0],[0]]","1","0","","","","","","5","","","","",""
"","","","","","single-stim-button","157","1297670","0.0-3.0-13.0-1.0","5e287f8ebdfcaf050e34fd94","E1","batch5","tol_toboard","635","","","","","","","","","tol_peg_3","635","635","0","[[1,0,0],[3,0],[2]]","1","[[2,1,3],[0,0],[0]]","1","0","","","","","","5","","","","",""
"","","","","","single-stim-button","158","1299852","0.0-3.0-13.1-0.1","5e287f8ebdfcaf050e34fd94","E1","batch5","tol_tohand","2180","","","","","","","","","tol_peg_1","2180","2180","0","[[0,0,0],[3,0],[2]]","2","[[2,1,3],[0,0],[0]]","1","0","","","","","","5","","","","",""
"","","","","","single-stim-button","159","1300340","0.0-3.0-13.1-1.1","5e287f8ebdfcaf050e34fd94","E1","batch5","tol_toboard","487","","","","","","","","","tol_peg_2","487","487","0","[[0,0,0],[3,1],[2]]","2","[[2,1,3],[0,0],[0]]","1","0","","","","","","5","","","","",""
"","","","","","single-stim-button","160","1300926","0.0-3.0-13.2-0.2","5e287f8ebdfcaf050e34fd94","E1","batch5","tol_tohand","585","","","","","","","","","tol_peg_3","585","585","0","[[0,0,0],[3,1],[0]]","3","[[2,1,3],[0,0],[0]]","1","0","","","","","","5","","","","",""
"","","","","","single-stim-button","161","1301831","0.0-3.0-13.2-1.2","5e287f8ebdfcaf050e34fd94","E1","batch5","tol_toboard","903","","","","","","","","","tol_peg_1","903","903","0","[[2,0,0],[3,1],[0]]","3","[[2,1,3],[0,0],[0]]","1","0","","","","","","5","","","","",""
"","","","","","single-stim-button","162","1302465","0.0-3.0-13.3-0.3","5e287f8ebdfcaf050e34fd94","E1","batch5","tol_tohand","632","","","","","","","","","tol_peg_2","632","632","0","[[2,0,0],[3,0],[0]]","4","[[2,1,3],[0,0],[0]]","1","0","","","","","","5","","","","",""
"","","","","","single-stim-button","163","1303768","0.0-3.0-13.3-1.3","5e287f8ebdfcaf050e34fd94","E1","batch5","tol_toboard","1302","","","","","","","","","tol_peg_1","1302","1302","0","[[2,1,0],[3,0],[0]]","4","[[2,1,3],[0,0],[0]]","1","0","","","","","","5","","","","",""
"","","","","","single-stim-button","164","1304286","0.0-3.0-13.4-0.4","5e287f8ebdfcaf050e34fd94","E1","batch5","tol_tohand","517","","","","","","","","","tol_peg_2","517","517","0","[[2,1,0],[0,0],[0]]","5","[[2,1,3],[0,0],[0]]","1","0","","","","","","5","","","","",""
"","","","","","single-stim-button","165","1304756","0.0-3.0-13.4-1.4","5e287f8ebdfcaf050e34fd94","E1","batch5","tol_toboard","468","","","","","","","","","tol_peg_1","468","468","0","[[2,1,3],[0,0],[0]]","5","[[2,1,3],[0,0],[0]]","1","0","","","","","","5","","","","",""
"","","","","","poldrack-single-stim","166","1305764","0.0-3.0-14.0","5e287f8ebdfcaf050e34fd94","E1","batch5","tol_feedback","-1","","","","","true","","","","","1000","1000","500","","","","","","-1","none","true","2268","6182","","","","","",""
"","","","","","html-button-response","167","1306356","0.0-3.0-15.0","5e287f8ebdfcaf050e34fd94","E1","batch5","tol_trial_num","589.8000000119209","<div class = centerbox><p class = center-block-text>problem <strong>3</strong> out of 25 problems</p></div>","0","","","","","","","","","","","","","","","","","","","","","","","","","",""
"","","","","","single-stim-button","168","1308531","0.0-3.0-16.0-0.0","5e287f8ebdfcaf050e34fd94","E1","batch5","tol_tohand","2173","","","","","","","","","tol_peg_1","2173","2173","0","[[2,0,0],[0,0],[1]]","1","[[1,2,0],[3,0],[0]]","2","0","","","","","","4","","","","",""
"","","","","","single-stim-button","169","1309228","0.0-3.0-16.0-1.0","5e287f8ebdfcaf050e34fd94","E1","batch5","tol_toboard","696","","","","","","","","","tol_peg_2","696","696","0","[[2,0,0],[3,0],[1]]","1","[[1,2,0],[3,0],[0]]","2","0","","","","","","4","","","","",""
"","","","","","single-stim-button","170","1310444","0.0-3.0-16.1-0.1","5e287f8ebdfcaf050e34fd94","E1","batch5","tol_tohand","1215","","","","","","","","","tol_peg_1","1215","1215","0","[[0,0,0],[3,0],[1]]","2","[[1,2,0],[3,0],[0]]","2","0","","","","","","4","","","","",""
"","","","","","single-stim-button","171","1310831","0.0-3.0-16.1-1.1","5e287f8ebdfcaf050e34fd94","E1","batch5","tol_toboard","385","","","","","","","","","tol_peg_2","385","385","0","[[0,0,0],[3,2],[1]]","2","[[1,2,0],[3,0],[0]]","2","0","","","","","","4","","","","",""
"","","","","","single-stim-button","172","1311237","0.0-3.0-16.2-0.2","5e287f8ebdfcaf050e34fd94","E1","batch5","tol_tohand","406","","","","","","","","","tol_peg_3","406","406","0","[[0,0,0],[3,2],[0]]","3","[[1,2,0],[3,0],[0]]","2","0","","","","","","4","","","","",""
"","","","","","single-stim-button","173","1311922","0.0-3.0-16.2-1.2","5e287f8ebdfcaf050e34fd94","E1","batch5","tol_toboard","684","","","","","","","","","tol_peg_1","684","684","0","[[1,0,0],[3,2],[0]]","3","[[1,2,0],[3,0],[0]]","2","0","","","","","","4","","","","",""
"","","","","","single-stim-button","174","1312382","0.0-3.0-16.3-0.3","5e287f8ebdfcaf050e34fd94","E1","batch5","tol_tohand","459","","","","","","","","","tol_peg_2","459","459","0","[[1,0,0],[3,0],[0]]","4","[[1,2,0],[3,0],[0]]","2","0","","","","","","4","","","","",""
"","","","","","single-stim-button","175","1312815","0.0-3.0-16.3-1.3","5e287f8ebdfcaf050e34fd94","E1","batch5","tol_toboard","431","","","","","","","","","tol_peg_1","431","431","0","[[1,2,0],[3,0],[0]]","4","[[1,2,0],[3,0],[0]]","2","0","","","","","","4","","","","",""
"","","","","","poldrack-single-stim","176","1313818","0.0-3.0-17.0","5e287f8ebdfcaf050e34fd94","E1","batch5","tol_feedback","-1","","","","","true","","","","","1000","1000","500","","","","","","-1","none","true","2173","4253","","","","","",""
"","","","","","html-button-response","177","1314516","0.0-3.0-18.0","5e287f8ebdfcaf050e34fd94","E1","batch5","tol_trial_num","696.7999999821186","<div class = centerbox><p class = center-block-text>problem <strong>4</strong> out of 25 problems</p></div>","0","","","","","","","","","","","","","","","","","","","","","","","","","",""
"","","","","","single-stim-button","178","1317907","0.0-3.0-19.0-0.0","5e287f8ebdfcaf050e34fd94","E1","batch5","tol_tohand","3389","","","","","","","","","tol_peg_2","3389","3389","0","[[3,0,0],[2,0],[0]]","1","[[3,0,0],[1,0],[2]]","3","0","","","","","","3","","","","",""
"","","","","","single-stim-button","179","1319256","0.0-3.0-19.0-1.0","5e287f8ebdfcaf050e34fd94","E1","batch5","tol_toboard","1349","","","","","","","","","tol_peg_1","1349","1349","0","[[3,1,0],[2,0],[0]]","1","[[3,0,0],[1,0],[2]]","3","0","","","","","","3","","","","",""
"","","","","","single-stim-button","180","1319647","0.0-3.0-19.1-0.1","5e287f8ebdfcaf050e34fd94","E1","batch5","tol_tohand","389","","","","","","","","","tol_peg_2","389","389","0","[[3,1,0],[0,0],[0]]","2","[[3,0,0],[1,0],[2]]","3","0","","","","","","3","","","","",""
"","","","","","single-stim-button","181","1320230","0.0-3.0-19.1-1.1","5e287f8ebdfcaf050e34fd94","E1","batch5","tol_toboard","583","","","","","","","","","tol_peg_3","583","583","0","[[3,1,0],[0,0],[2]]","2","[[3,0,0],[1,0],[2]]","3","0","","","","","","3","","","","",""
"","","","","","single-stim-button","182","1320788","0.0-3.0-19.2-0.2","5e287f8ebdfcaf050e34fd94","E1","batch5","tol_tohand","556","","","","","","","","","tol_peg_1","556","556","0","[[3,0,0],[0,0],[2]]","3","[[3,0,0],[1,0],[2]]","3","0","","","","","","3","","","","",""
"","","","","","single-stim-button","183","1321470","0.0-3.0-19.2-1.2","5e287f8ebdfcaf050e34fd94","E1","batch5","tol_toboard","682","","","","","","","","","tol_peg_2","682","682","0","[[3,0,0],[1,0],[2]]","3","[[3,0,0],[1,0],[2]]","3","0","","","","","","3","","","","",""
"","","","","","poldrack-single-stim","184","1322477","0.0-3.0-20.0","5e287f8ebdfcaf050e34fd94","E1","batch5","tol_feedback","-1","","","","","true","","","","","1000","1000","500","","","","","","-1","none","true","3389","4334","","","","","",""
"","","","","","html-button-response","185","1323044","0.0-3.0-21.0","5e287f8ebdfcaf050e34fd94","E1","batch5","tol_trial_num","566.9000000059605","<div class = centerbox><p class = center-block-text>problem <strong>5</strong> out of 25 problems</p></div>","0","","","","","","","","","","","","","","","","","","","","","","","","","",""
"","","","","","single-stim-button","186","1327157","0.0-3.0-22.0-0.0","5e287f8ebdfcaf050e34fd94","E1","batch5","tol_tohand","4112","","","","","","","","","tol_peg_2","4112","4112","0","[[1,0,0],[0,0],[3]]","1","[[0,0,0],[1,2],[3]]","4","0","","","","","","7","","","","",""
"","","","","","single-stim-button","187","1341825","0.0-3.0-22.0-1.0","5e287f8ebdfcaf050e34fd94","E1","batch5","tol_toboard","14667","","","","","","","","","tol_peg_2","14667","14667","0","[[1,0,0],[2,0],[3]]","1","[[0,0,0],[1,2],[3]]","4","0","","","","","","7","","","","",""
"","","","","","single-stim-button","188","1343494","0.0-3.0-22.1-0.1","5e287f8ebdfcaf050e34fd94","E1","batch5","tol_tohand","1667","","","","","","","","","tol_peg_1","1667","1667","0","[[0,0,0],[2,0],[3]]","2","[[0,0,0],[1,2],[3]]","4","0","","","","","","7","","","","",""
"","","","","","single-stim-button","189","1346798","0.0-3.0-22.1-1.1","5e287f8ebdfcaf050e34fd94","E1","batch5","tol_toboard","3304","","","","","","","","","tol_peg_2","3304","3304","0","[[0,0,0],[2,1],[3]]","2","[[0,0,0],[1,2],[3]]","4","0","","","","","","7","","","","",""
"","","","","","single-stim-button","190","1347136","0.0-3.0-22.2-0.2","5e287f8ebdfcaf050e34fd94","E1","batch5","tol_tohand","337","","","","","","","","","tol_peg_3","337","337","0","[[0,0,0],[2,1],[0]]","3","[[0,0,0],[1,2],[3]]","4","0","","","","","","7","","","","",""
"","","","","","single-stim-button","191","1347762","0.0-3.0-22.2-1.2","5e287f8ebdfcaf050e34fd94","E1","batch5","tol_toboard","625","","","","","","","","","tol_peg_1","625","625","0","[[3,0,0],[2,1],[0]]","3","[[0,0,0],[1,2],[3]]","4","0","","","","","","7","","","","",""
"","","","","","single-stim-button","192","1348382","0.0-3.0-22.3-0.3","5e287f8ebdfcaf050e34fd94","E1","batch5","tol_tohand","619","","","","","","","","","tol_peg_2","619","619","0","[[3,0,0],[2,0],[0]]","4","[[0,0,0],[1,2],[3]]","4","0","","","","","","7","","","","",""
"","","","","","single-stim-button","193","1350462","0.0-3.0-22.3-1.3","5e287f8ebdfcaf050e34fd94","E1","batch5","tol_toboard","2079","","","","","","","","","tol_peg_1","2079","2079","0","[[3,1,0],[2,0],[0]]","4","[[0,0,0],[1,2],[3]]","4","0","","","","","","7","","","","",""
"","","","","","single-stim-button","194","1350839","0.0-3.0-22.4-0.4","5e287f8ebdfcaf050e34fd94","E1","batch5","tol_tohand","375","","","","","","","","","tol_peg_2","375","375","0","[[3,1,0],[0,0],[0]]","5","[[0,0,0],[1,2],[3]]","4","0","","","","","","7","","","","",""
"","","","","","single-stim-button","195","1351310","0.0-3.0-22.4-1.4","5e287f8ebdfcaf050e34fd94","E1","batch5","tol_toboard","471","","","","","","","","","tol_peg_3","471","471","0","[[3,1,0],[0,0],[2]]","5","[[0,0,0],[1,2],[3]]","4","0","","","","","","7","","","","",""
"","","","","","single-stim-button","196","1351803","0.0-3.0-22.5-0.5","5e287f8ebdfcaf050e34fd94","E1","batch5","tol_tohand","492","","","","","","","","","tol_peg_1","492","492","0","[[3,0,0],[0,0],[2]]","6","[[0,0,0],[1,2],[3]]","4","0","","","","","","7","","","","",""
"","","","","","single-stim-button","197","1352360","0.0-3.0-22.5-1.5","5e287f8ebdfcaf050e34fd94","E1","batch5","tol_toboard","556","","","","","","","","","tol_peg_2","556","556","0","[[3,0,0],[1,0],[2]]","6","[[0,0,0],[1,2],[3]]","4","0","","","","","","7","","","","",""
"","","","","","single-stim-button","198","1352979","0.0-3.0-22.6-0.6","5e287f8ebdfcaf050e34fd94","E1","batch5","tol_tohand","617","","","","","","","","","tol_peg_3","617","617","0","[[3,0,0],[1,0],[0]]","7","[[0,0,0],[1,2],[3]]","4","0","","","","","","7","","","","",""
"","","","","","single-stim-button","199","1353308","0.0-3.0-22.6-1.6","5e287f8ebdfcaf050e34fd94","E1","batch5","tol_toboard","329","","","","","","","","","tol_peg_2","329","329","0","[[3,0,0],[1,2],[0]]","7","[[0,0,0],[1,2],[3]]","4","0","","","","","","7","","","","",""
"","","","","","single-stim-button","200","1353632","0.0-3.0-22.7-0.7","5e287f8ebdfcaf050e34fd94","E1","batch5","tol_tohand","323","","","","","","","","","tol_peg_1","323","323","0","[[0,0,0],[1,2],[0]]","8","[[0,0,0],[1,2],[3]]","4","0","","","","","","7","","","","",""
"","","","","","single-stim-button","201","1354330","0.0-3.0-22.7-1.7","5e287f8ebdfcaf050e34fd94","E1","batch5","tol_toboard","697","","","","","","","","","tol_peg_3","697","697","0","[[0,0,0],[1,2],[3]]","8","[[0,0,0],[1,2],[3]]","4","0","","","","","","7","","","","",""
"","","","","","poldrack-single-stim","202","1355341","0.0-3.0-23.0","5e287f8ebdfcaf050e34fd94","E1","batch5","tol_feedback","-1","","","","","true","","","","","1000","1000","500","","","","","","-1","none","true","4112","8542","","","","","",""
"","","","","","html-button-response","203","1355977","0.0-3.0-24.0","5e287f8ebdfcaf050e34fd94","E1","batch5","tol_trial_num","634.5","<div class = centerbox><p class = center-block-text>problem <strong>6</strong> out of 25 problems</p></div>","0","","","","","","","","","","","","","","","","","","","","","","","","","",""
"","","","","","single-stim-button","204","1359298","0.0-3.0-25.0-0.0","5e287f8ebdfcaf050e34fd94","E1","batch5","tol_tohand","3321","","","","","","","","","tol_peg_2","3321","3321","0","[[0,0,0],[1,0],[3]]","1","[[1,0,0],[2,3],[0]]","5","0","","","","","","6","","","","",""
"","","","","","single-stim-button","205","1363181","0.0-3.0-25.0-1.0","5e287f8ebdfcaf050e34fd94","E1","batch5","tol_toboard","3882","","","","","","","","","tol_peg_1","3882","3882","0","[[2,0,0],[1,0],[3]]","1","[[1,0,0],[2,3],[0]]","5","0","","","","","","6","","","","",""
"","","","","","single-stim-button","206","1363753","0.0-3.0-25.1-0.1","5e287f8ebdfcaf050e34fd94","E1","batch5","tol_tohand","572","","","","","","","","","tol_peg_2","572","572","0","[[2,0,0],[0,0],[3]]","2","[[1,0,0],[2,3],[0]]","5","0","","","","","","6","","","","",""
"","","","","","single-stim-button","207","1367577","0.0-3.0-25.1-1.1","5e287f8ebdfcaf050e34fd94","E1","batch5","tol_toboard","3823","","","","","","","","","tol_peg_1","3823","3823","0","[[2,1,0],[0,0],[3]]","2","[[1,0,0],[2,3],[0]]","5","0","","","","","","6","","","","",""
"","","","","","single-stim-button","208","1368040","0.0-3.0-25.2-0.2","5e287f8ebdfcaf050e34fd94","E1","batch5","tol_tohand","462","","","","","","","","","tol_peg_3","462","462","0","[[2,1,0],[0,0],[0]]","3","[[1,0,0],[2,3],[0]]","5","0","","","","","","6","","","","",""
"","","","","","single-stim-button","209","1368723","0.0-3.0-25.2-1.2","5e287f8ebdfcaf050e34fd94","E1","batch5","tol_toboard","681","","","","","","","","","tol_peg_2","681","681","0","[[2,1,0],[3,0],[0]]","3","[[1,0,0],[2,3],[0]]","5","0","","","","","","6","","","","",""
"","","","","","single-stim-button","210","1369217","0.0-3.0-25.3-0.3","5e287f8ebdfcaf050e34fd94","E1","batch5","tol_tohand","492","","","","","","","","","tol_peg_1","492","492","0","[[2,0,0],[3,0],[0]]","4","[[1,0,0],[2,3],[0]]","5","0","","","","","","6","","","","",""
"","","","","","single-stim-button","211","1369860","0.0-3.0-25.3-1.3","5e287f8ebdfcaf050e34fd94","E1","batch5","tol_toboard","643","","","","","","","","","tol_peg_3","643","643","0","[[2,0,0],[3,0],[1]]","4","[[1,0,0],[2,3],[0]]","5","0","","","","","","6","","","","",""
"","","","","","single-stim-button","212","1373885","0.0-3.0-25.4-0.4","5e287f8ebdfcaf050e34fd94","E1","batch5","tol_tohand","4024","","","","","","","","","tol_peg_2","4024","4024","0","[[2,0,0],[0,0],[1]]","5","[[1,0,0],[2,3],[0]]","5","0","","","","","","6","","","","",""
"","","","","","single-stim-button","213","1374356","0.0-3.0-25.4-1.4","5e287f8ebdfcaf050e34fd94","E1","batch5","tol_toboard","470","","","","","","","","","tol_peg_1","470","470","0","[[2,3,0],[0,0],[1]]","5","[[1,0,0],[2,3],[0]]","5","0","","","","","","6","","","","",""
"","","","","","single-stim-button","214","1374984","0.0-3.0-25.5-0.5","5e287f8ebdfcaf050e34fd94","E1","batch5","tol_tohand","627","","","","","","","","","tol_peg_3","627","627","0","[[2,3,0],[0,0],[0]]","6","[[1,0,0],[2,3],[0]]","5","0","","","","","","6","","","","",""
"","","","","","single-stim-button","215","1375267","0.0-3.0-25.5-1.5","5e287f8ebdfcaf050e34fd94","E1","batch5","tol_toboard","281","","","","","","","","","tol_peg_2","281","281","0","[[2,3,0],[1,0],[0]]","6","[[1,0,0],[2,3],[0]]","5","0","","","","","","6","","","","",""
"","","","","","single-stim-button","216","1375730","0.0-3.0-25.6-0.6","5e287f8ebdfcaf050e34fd94","E1","batch5","tol_tohand","463","","","","","","","","","tol_peg_1","463","463","0","[[2,0,0],[1,0],[0]]","7","[[1,0,0],[2,3],[0]]","5","0","","","","","","6","","","","",""
"","","","","","single-stim-button","217","1376326","0.0-3.0-25.6-1.6","5e287f8ebdfcaf050e34fd94","E1","batch5","tol_toboard","595","","","","","","","","","tol_peg_3","595","595","0","[[2,0,0],[1,0],[3]]","7","[[1,0,0],[2,3],[0]]","5","0","","","","","","6","","","","",""
"","","","","","single-stim-button","218","1377174","0.0-3.0-25.7-0.7","5e287f8ebdfcaf050e34fd94","E1","batch5","tol_tohand","848","","","","","","","","","tol_peg_2","848","848","0","[[2,0,0],[0,0],[3]]","8","[[1,0,0],[2,3],[0]]","5","0","","","","","","6","","","","",""
"","","","","","single-stim-button","219","1377723","0.0-3.0-25.7-1.7","5e287f8ebdfcaf050e34fd94","E1","batch5","tol_toboard","547","","","","","","","","","tol_peg_1","547","547","0","[[2,1,0],[0,0],[3]]","8","[[1,0,0],[2,3],[0]]","5","0","","","","","","6","","","","",""
"","","","","","single-stim-button","220","1378342","0.0-3.0-25.8-0.8","5e287f8ebdfcaf050e34fd94","E1","batch5","tol_tohand","619","","","","","","","","","tol_peg_1","619","619","0","[[2,0,0],[0,0],[3]]","9","[[1,0,0],[2,3],[0]]","5","0","","","","","","6","","","","",""
"","","","","","single-stim-button","221","1379418","0.0-3.0-25.8-1.8","5e287f8ebdfcaf050e34fd94","E1","batch5","tol_toboard","1074","","","","","","","","","tol_peg_1","1074","1074","0","[[2,1,0],[0,0],[3]]","9","[[1,0,0],[2,3],[0]]","5","0","","","","","","6","","","","",""
"","","","","","single-stim-button","222","1379855","0.0-3.0-25.9-0.9","5e287f8ebdfcaf050e34fd94","E1","batch5","tol_tohand","436","","","","","","","","","tol_peg_3","436","436","0","[[2,1,0],[0,0],[0]]","10","[[1,0,0],[2,3],[0]]","5","0","","","","","","6","","","","",""
"","","","","","single-stim-button","223","1380217","0.0-3.0-25.9-1.9","5e287f8ebdfcaf050e34fd94","E1","batch5","tol_toboard","361","","","","","","","","","tol_peg_2","361","361","0","[[2,1,0],[3,0],[0]]","10","[[1,0,0],[2,3],[0]]","5","0","","","","","","6","","","","",""
"","","","","","single-stim-button","224","1381961","0.0-3.0-25.10-0.10","5e287f8ebdfcaf050e34fd94","E1","batch5","tol_tohand","1743","","","","","","","","","tol_peg_1","1743","1743","0","[[2,0,0],[3,0],[0]]","11","[[1,0,0],[2,3],[0]]","5","0","","","","","","6","","","","",""
"","","","","","single-stim-button","225","1382415","0.0-3.0-25.10-1.10","5e287f8ebdfcaf050e34fd94","E1","batch5","tol_toboard","454","","","","","","","","","tol_peg_2","454","454","0","[[2,0,0],[3,1],[0]]","11","[[1,0,0],[2,3],[0]]","5","0","","","","","","6","","","","",""
"","","","","","single-stim-button","226","1383379","0.0-3.0-25.11-0.11","5e287f8ebdfcaf050e34fd94","E1","batch5","tol_tohand","963","","","","","","","","","tol_peg_1","963","963","0","[[0,0,0],[3,1],[0]]","12","[[1,0,0],[2,3],[0]]","5","0","","","","","","6","","","","",""
"","","","","","single-stim-button","227","1384360","0.0-3.0-25.11-1.11","5e287f8ebdfcaf050e34fd94","E1","batch5","tol_toboard","980","","","","","","","","","tol_peg_3","980","980","0","[[0,0,0],[3,1],[2]]","12","[[1,0,0],[2,3],[0]]","5","0","","","","","","6","","","","",""
"","","","","","single-stim-button","228","1384979","0.0-3.0-25.12-0.12","5e287f8ebdfcaf050e34fd94","E1","batch5","tol_tohand","618","","","","","","","","","tol_peg_2","618","618","0","[[0,0,0],[3,0],[2]]","13","[[1,0,0],[2,3],[0]]","5","0","","","","","","6","","","","",""
"","","","","","single-stim-button","229","1385474","0.0-3.0-25.12-1.12","5e287f8ebdfcaf050e34fd94","E1","batch5","tol_toboard","494","","","","","","","","","tol_peg_1","494","494","0","[[1,0,0],[3,0],[2]]","13","[[1,0,0],[2,3],[0]]","5","0","","","","","","6","","","","",""
"","","","","","single-stim-button","230","1386228","0.0-3.0-25.13-0.13","5e287f8ebdfcaf050e34fd94","E1","batch5","tol_tohand","752","","","","","","","","","tol_peg_2","752","752","0","[[1,0,0],[0,0],[2]]","14","[[1,0,0],[2,3],[0]]","5","0","","","","","","6","","","","",""
"","","","","","single-stim-button","231","1386713","0.0-3.0-25.13-1.13","5e287f8ebdfcaf050e34fd94","E1","batch5","tol_toboard","485","","","","","","","","","tol_peg_1","485","485","0","[[1,3,0],[0,0],[2]]","14","[[1,0,0],[2,3],[0]]","5","0","","","","","","6","","","","",""
"","","","","","single-stim-button","232","1387167","0.0-3.0-25.14-0.14","5e287f8ebdfcaf050e34fd94","E1","batch5","tol_tohand","452","","","","","","","","","tol_peg_3","452","452","0","[[1,3,0],[0,0],[0]]","15","[[1,0,0],[2,3],[0]]","5","0","","","","","","6","","","","",""
"","","","","","single-stim-button","233","1387648","0.0-3.0-25.14-1.14","5e287f8ebdfcaf050e34fd94","E1","batch5","tol_toboard","481","","","","","","","","","tol_peg_2","481","481","0","[[1,3,0],[2,0],[0]]","15","[[1,0,0],[2,3],[0]]","5","0","","","","","","6","","","","",""
"","","","","","single-stim-button","234","1388015","0.0-3.0-25.15-0.15","5e287f8ebdfcaf050e34fd94","E1","batch5","tol_tohand","366","","","","","","","","","tol_peg_1","366","366","0","[[1,0,0],[2,0],[0]]","16","[[1,0,0],[2,3],[0]]","5","0","","","","","","6","","","","",""
"","","","","","single-stim-button","235","1388367","0.0-3.0-25.15-1.15","5e287f8ebdfcaf050e34fd94","E1","batch5","tol_toboard","351","","","","","","","","","tol_peg_2","351","351","0","[[1,0,0],[2,3],[0]]","16","[[1,0,0],[2,3],[0]]","5","0","","","","","","6","","","","",""
"","","","","","poldrack-single-stim","236","1389369","0.0-3.0-26.0","5e287f8ebdfcaf050e34fd94","E1","batch5","tol_feedback","-1","","","","","true","","","","","1000","1000","500","","","","","","-1","none","true","3321","16758","","","","","",""
"","","","","","html-button-response","237","1390300","0.0-3.0-27.0","5e287f8ebdfcaf050e34fd94","E1","batch5","tol_trial_num","929.2999999821186","<div class = centerbox><p class = center-block-text>problem <strong>7</strong> out of 25 problems</p></div>","0","","","","","","","","","","","","","","","","","","","","","","","","","",""
"","","","","","single-stim-button","238","1392662","0.0-3.0-28.0-0.0","5e287f8ebdfcaf050e34fd94","E1","batch5","tol_tohand","2359","","","","","","","","","tol_peg_3","2359","2359","0","[[2,1,0],[0,0],[0]]","1","[[1,2,0],[3,0],[0]]","6","0","","","","","","5","","","","",""
"","","","","","single-stim-button","239","1393083","0.0-3.0-28.0-1.0","5e287f8ebdfcaf050e34fd94","E1","batch5","tol_toboard","420","","","","","","","","","tol_peg_2","420","420","0","[[2,1,0],[3,0],[0]]","1","[[1,2,0],[3,0],[0]]","6","0","","","","","","5","","","","",""
"","","","","","single-stim-button","240","1393585","0.0-3.0-28.1-0.1","5e287f8ebdfcaf050e34fd94","E1","batch5","tol_tohand","502","","","","","","","","","tol_peg_1","502","502","0","[[2,0,0],[3,0],[0]]","2","[[1,2,0],[3,0],[0]]","6","0","","","","","","5","","","","",""
"","","","","","single-stim-button","241","1394205","0.0-3.0-28.1-1.1","5e287f8ebdfcaf050e34fd94","E1","batch5","tol_toboard","620","","","","","","","","","tol_peg_3","620","620","0","[[2,0,0],[3,0],[1]]","2","[[1,2,0],[3,0],[0]]","6","0","","","","","","5","","","","",""
"","","","","","single-stim-button","242","1394873","0.0-3.0-28.2-0.2","5e287f8ebdfcaf050e34fd94","E1","batch5","tol_tohand","668","","","","","","","","","tol_peg_1","668","668","0","[[0,0,0],[3,0],[1]]","3","[[1,2,0],[3,0],[0]]","6","0","","","","","","5","","","","",""
"","","","","","single-stim-button","243","1395180","0.0-3.0-28.2-1.2","5e287f8ebdfcaf050e34fd94","E1","batch5","tol_toboard","307","","","","","","","","","tol_peg_2","307","307","0","[[0,0,0],[3,2],[1]]","3","[[1,2,0],[3,0],[0]]","6","0","","","","","","5","","","","",""
"","","","","","single-stim-button","244","1395518","0.0-3.0-28.3-0.3","5e287f8ebdfcaf050e34fd94","E1","batch5","tol_tohand","337","","","","","","","","","tol_peg_3","337","337","0","[[0,0,0],[3,2],[0]]","4","[[1,2,0],[3,0],[0]]","6","0","","","","","","5","","","","",""
"","","","","","single-stim-button","245","1396176","0.0-3.0-28.3-1.3","5e287f8ebdfcaf050e34fd94","E1","batch5","tol_toboard","657","","","","","","","","","tol_peg_1","657","657","0","[[1,0,0],[3,2],[0]]","4","[[1,2,0],[3,0],[0]]","6","0","","","","","","5","","","","",""
"","","","","","single-stim-button","246","1396523","0.0-3.0-28.4-0.4","5e287f8ebdfcaf050e34fd94","E1","batch5","tol_tohand","345","","","","","","","","","tol_peg_2","345","345","0","[[1,0,0],[3,0],[0]]","5","[[1,2,0],[3,0],[0]]","6","0","","","","","","5","","","","",""
"","","","","","single-stim-button","247","1396947","0.0-3.0-28.4-1.4","5e287f8ebdfcaf050e34fd94","E1","batch5","tol_toboard","422","","","","","","","","","tol_peg_1","422","422","0","[[1,2,0],[3,0],[0]]","5","[[1,2,0],[3,0],[0]]","6","0","","","","","","5","","","","",""
"","","","","","poldrack-single-stim","248","1397949","0.0-3.0-29.0","5e287f8ebdfcaf050e34fd94","E1","batch5","tol_feedback","-1","","","","","true","","","","","1000","1000","500","","","","","","-1","none","true","2359","4211","","","","","",""
"","","","","","html-button-response","249","1398726","0.0-3.0-30.0","5e287f8ebdfcaf050e34fd94","E1","batch5","tol_trial_num","775.6999999880791","<div class = centerbox><p class = center-block-text>problem <strong>8</strong> out of 25 problems</p></div>","0","","","","","","","","","","","","","","","","","","","","","","","","","",""
"","","","","","single-stim-button","250","1400579","0.0-3.0-31.0-0.0","5e287f8ebdfcaf050e34fd94","E1","batch5","tol_tohand","1852","","","","","","","","","tol_peg_3","1852","1852","0","[[0,0,0],[2,3],[0]]","1","[[1,2,0],[3,0],[0]]","7","0","","","","","","4","","","","",""
"","","","","","single-stim-button","251","1401276","0.0-3.0-31.0-1.0","5e287f8ebdfcaf050e34fd94","E1","batch5","tol_toboard","696","","","","","","","","","tol_peg_1","696","696","0","[[1,0,0],[2,3],[0]]","1","[[1,2,0],[3,0],[0]]","7","0","","","","","","4","","","","",""
"","","","","","single-stim-button","252","1403702","0.0-3.0-31.1-0.1","5e287f8ebdfcaf050e34fd94","E1","batch5","tol_tohand","2425","","","","","","","","","tol_peg_2","2425","2425","0","[[1,0,0],[2,0],[0]]","2","[[1,2,0],[3,0],[0]]","7","0","","","","","","4","","","","",""
"","","","","","single-stim-button","253","1404408","0.0-3.0-31.1-1.1","5e287f8ebdfcaf050e34fd94","E1","batch5","tol_toboard","705","","","","","","","","","tol_peg_3","705","705","0","[[1,0,0],[2,0],[3]]","2","[[1,2,0],[3,0],[0]]","7","0","","","","","","4","","","","",""
"","","","","","single-stim-button","254","1404752","0.0-3.0-31.2-0.2","5e287f8ebdfcaf050e34fd94","E1","batch5","tol_tohand","343","","","","","","","","","tol_peg_2","343","343","0","[[1,0,0],[0,0],[3]]","3","[[1,2,0],[3,0],[0]]","7","0","","","","","","4","","","","",""
"","","","","","single-stim-button","255","1405051","0.0-3.0-31.2-1.2","5e287f8ebdfcaf050e34fd94","E1","batch5","tol_toboard","297","","","","","","","","","tol_peg_1","297","297","0","[[1,2,0],[0,0],[3]]","3","[[1,2,0],[3,0],[0]]","7","0","","","","","","4","","","","",""
"","","","","","single-stim-button","256","1405459","0.0-3.0-31.3-0.3","5e287f8ebdfcaf050e34fd94","E1","batch5","tol_tohand","407","","","","","","","","","tol_peg_3","407","407","0","[[1,2,0],[0,0],[0]]","4","[[1,2,0],[3,0],[0]]","7","0","","","","","","4","","","","",""
"","","","","","single-stim-button","257","1405773","0.0-3.0-31.3-1.3","5e287f8ebdfcaf050e34fd94","E1","batch5","tol_toboard","314","","","","","","","","","tol_peg_2","314","314","0","[[1,2,0],[3,0],[0]]","4","[[1,2,0],[3,0],[0]]","7","0","","","","","","4","","","","",""
"","","","","","poldrack-single-stim","258","1406784","0.0-3.0-32.0","5e287f8ebdfcaf050e34fd94","E1","batch5","tol_feedback","-1","","","","","true","","","","","1000","1000","500","","","","","","-1","none","true","1852","5027","","","","","",""
"","","","","","html-button-response","259","1407257","0.0-3.0-33.0","5e287f8ebdfcaf050e34fd94","E1","batch5","tol_trial_num","471.7000000178814","<div class = centerbox><p class = center-block-text>problem <strong>9</strong> out of 25 problems</p></div>","0","","","","","","","","","","","","","","","","","","","","","","","","","",""
"","","","","","single-stim-button","260","1411265","0.0-3.0-34.0-0.0","5e287f8ebdfcaf050e34fd94","E1","batch5","tol_tohand","4006","","","","","","","","","tol_peg_3","4006","4006","0","[[3,2,0],[0,0],[0]]","1","[[2,1,0],[3,0],[0]]","8","0","","","","","","6","","","","",""
"","","","","","single-stim-button","261","1411790","0.0-3.0-34.0-1.0","5e287f8ebdfcaf050e34fd94","E1","batch5","tol_toboard","524","","","","","","","","","tol_peg_2","524","524","0","[[3,2,0],[1,0],[0]]","1","[[2,1,0],[3,0],[0]]","8","0","","","","","","6","","","","",""
"","","","","","single-stim-button","262","1412167","0.0-3.0-34.1-0.1","5e287f8ebdfcaf050e34fd94","E1","batch5","tol_tohand","375","","","","","","","","","tol_peg_1","375","375","0","[[3,0,0],[1,0],[0]]","2","[[2,1,0],[3,0],[0]]","8","0","","","","","","6","","","","",""
"","","","","","single-stim-button","263","1412999","0.0-3.0-34.1-1.1","5e287f8ebdfcaf050e34fd94","E1","batch5","tol_toboard","831","","","","","","","","","tol_peg_3","831","831","0","[[3,0,0],[1,0],[2]]","2","[[2,1,0],[3,0],[0]]","8","0","","","","","","6","","","","",""
"","","","","","single-stim-button","264","1414050","0.0-3.0-34.2-0.2","5e287f8ebdfcaf050e34fd94","E1","batch5","tol_tohand","1050","","","","","","","","","tol_peg_1","1050","1050","0","[[0,0,0],[1,0],[2]]","3","[[2,1,0],[3,0],[0]]","8","0","","","","","","6","","","","",""
"","","","","","single-stim-button","265","1414373","0.0-3.0-34.2-1.2","5e287f8ebdfcaf050e34fd94","E1","batch5","tol_toboard","322","","","","","","","","","tol_peg_2","322","322","0","[[0,0,0],[1,3],[2]]","3","[[2,1,0],[3,0],[0]]","8","0","","","","","","6","","","","",""
"","","","","","single-stim-button","266","1414724","0.0-3.0-34.3-0.3","5e287f8ebdfcaf050e34fd94","E1","batch5","tol_tohand","350","","","","","","","","","tol_peg_3","350","350","0","[[0,0,0],[1,3],[0]]","4","[[2,1,0],[3,0],[0]]","8","0","","","","","","6","","","","",""
"","","","","","single-stim-button","267","1415462","0.0-3.0-34.3-1.3","5e287f8ebdfcaf050e34fd94","E1","batch5","tol_toboard","737","","","","","","","","","tol_peg_1","737","737","0","[[2,0,0],[1,3],[0]]","4","[[2,1,0],[3,0],[0]]","8","0","","","","","","6","","","","",""
"","","","","","single-stim-button","268","1416209","0.0-3.0-34.4-0.4","5e287f8ebdfcaf050e34fd94","E1","batch5","tol_tohand","745","","","","","","","","","tol_peg_2","745","745","0","[[2,0,0],[1,0],[0]]","5","[[2,1,0],[3,0],[0]]","8","0","","","","","","6","","","","",""
"","","","","","single-stim-button","269","1416836","0.0-3.0-34.4-1.4","5e287f8ebdfcaf050e34fd94","E1","batch5","tol_toboard","627","","","","","","","","","tol_peg_3","627","627","0","[[2,0,0],[1,0],[3]]","5","[[2,1,0],[3,0],[0]]","8","0","","","","","","6","","","","",""
"","","","","","single-stim-button","270","1417204","0.0-3.0-34.5-0.5","5e287f8ebdfcaf050e34fd94","E1","batch5","tol_tohand","367","","","","","","","","","tol_peg_2","367","367","0","[[2,0,0],[0,0],[3]]","6","[[2,1,0],[3,0],[0]]","8","0","","","","","","6","","","","",""
"","","","","","single-stim-button","271","1418130","0.0-3.0-34.5-1.5","5e287f8ebdfcaf050e34fd94","E1","batch5","tol_toboard","925","","","","","","","","","tol_peg_1","925","925","0","[[2,1,0],[0,0],[3]]","6","[[2,1,0],[3,0],[0]]","8","0","","","","","","6","","","","",""
"","","","","","single-stim-button","272","1418633","0.0-3.0-34.6-0.6","5e287f8ebdfcaf050e34fd94","E1","batch5","tol_tohand","500","","","","","","","","","tol_peg_3","500","500","0","[[2,1,0],[0,0],[0]]","7","[[2,1,0],[3,0],[0]]","8","0","","","","","","6","","","","",""
"","","","","","single-stim-button","273","1418954","0.0-3.0-34.6-1.6","5e287f8ebdfcaf050e34fd94","E1","batch5","tol_toboard","321","","","","","","","","","tol_peg_2","321","321","0","[[2,1,0],[3,0],[0]]","7","[[2,1,0],[3,0],[0]]","8","0","","","","","","6","","","","",""
"","","","","","poldrack-single-stim","274","1419956","0.0-3.0-35.0","5e287f8ebdfcaf050e34fd94","E1","batch5","tol_feedback","-1","","","","","true","","","","","1000","1000","500","","","","","","-1","none","true","4006","7393","","","","","",""
"","","","","","html-button-response","275","1420728","0.0-3.0-36.0","5e287f8ebdfcaf050e34fd94","E1","batch5","tol_trial_num","770.5","<div class = centerbox><p class = center-block-text>problem <strong>10</strong> out of 25 problems</p></div>","0","","","","","","","","","","","","","","","","","","","","","","","","","",""
"","","","","","single-stim-button","276","1423960","0.0-3.0-37.0-0.0","5e287f8ebdfcaf050e34fd94","E1","batch5","tol_tohand","3230","","","","","","","","","tol_peg_2","3230","3230","0","[[3,0,0],[0,0],[2]]","1","[[3,0,0],[2,1],[0]]","9","0","","","","","","3","","","","",""
"","","","","","single-stim-button","277","1424383","0.0-3.0-37.0-1.0","5e287f8ebdfcaf050e34fd94","E1","batch5","tol_toboard","423","","","","","","","","","tol_peg_1","423","423","0","[[3,1,0],[0,0],[2]]","1","[[3,0,0],[2,1],[0]]","9","0","","","","","","3","","","","",""
"","","","","","single-stim-button","278","1424768","0.0-3.0-37.1-0.1","5e287f8ebdfcaf050e34fd94","E1","batch5","tol_tohand","384","","","","","","","","","tol_peg_3","384","384","0","[[3,1,0],[0,0],[0]]","2","[[3,0,0],[2,1],[0]]","9","0","","","","","","3","","","","",""
"","","","","","single-stim-button","279","1425365","0.0-3.0-37.1-1.1","5e287f8ebdfcaf050e34fd94","E1","batch5","tol_toboard","595","","","","","","","","","tol_peg_2","595","595","0","[[3,1,0],[2,0],[0]]","2","[[3,0,0],[2,1],[0]]","9","0","","","","","","3","","","","",""
"","","","","","single-stim-button","280","1425694","0.0-3.0-37.2-0.2","5e287f8ebdfcaf050e34fd94","E1","batch5","tol_tohand","328","","","","","","","","","tol_peg_1","328","328","0","[[3,0,0],[2,0],[0]]","3","[[3,0,0],[2,1],[0]]","9","0","","","","","","3","","","","",""
"","","","","","single-stim-button","281","1425984","0.0-3.0-37.2-1.2","5e287f8ebdfcaf050e34fd94","E1","batch5","tol_toboard","289","","","","","","","","","tol_peg_2","289","289","0","[[3,0,0],[2,1],[0]]","3","[[3,0,0],[2,1],[0]]","9","0","","","","","","3","","","","",""
"","","","","","poldrack-single-stim","282","1426986","0.0-3.0-38.0","5e287f8ebdfcaf050e34fd94","E1","batch5","tol_feedback","-1","","","","","true","","","","","1000","1000","500","","","","","","-1","none","true","3230","3942","","","","","",""
"","","","","","html-button-response","283","1427555","0.0-3.0-39.0","5e287f8ebdfcaf050e34fd94","E1","batch5","tol_trial_num","566.8999999761581","<div class = centerbox><p class = center-block-text>problem <strong>11</strong> out of 25 problems</p></div>","0","","","","","","","","","","","","","","","","","","","","","","","","","",""
"","","","","","single-stim-button","284","1432426","0.0-3.0-40.0-0.0","5e287f8ebdfcaf050e34fd94","E1","batch5","tol_tohand","4870","","","","","","","","","tol_peg_1","4870","4870","0","[[1,0,0],[3,0],[0]]","1","[[2,0,0],[1,3],[0]]","10","0","","","","","","6","","","","",""
"","","","","","single-stim-button","285","1434804","0.0-3.0-40.0-1.0","5e287f8ebdfcaf050e34fd94","E1","batch5","tol_toboard","2377","","","","","","","","","tol_peg_2","2377","2377","0","[[1,0,0],[3,2],[0]]","1","[[2,0,0],[1,3],[0]]","10","0","","","","","","6","","","","",""
"","","","","","single-stim-button","286","1435187","0.0-3.0-40.1-0.1","5e287f8ebdfcaf050e34fd94","E1","batch5","tol_tohand","382","","","","","","","","","tol_peg_1","382","382","0","[[0,0,0],[3,2],[0]]","2","[[2,0,0],[1,3],[0]]","10","0","","","","","","6","","","","",""
"","","","","","single-stim-button","287","1435888","0.0-3.0-40.1-1.1","5e287f8ebdfcaf050e34fd94","E1","batch5","tol_toboard","699","","","","","","","","","tol_peg_3","699","699","0","[[0,0,0],[3,2],[1]]","2","[[2,0,0],[1,3],[0]]","10","0","","","","","","6","","","","",""
"","","","","","single-stim-button","288","1436578","0.0-3.0-40.2-0.2","5e287f8ebdfcaf050e34fd94","E1","batch5","tol_tohand","690","","","","","","","","","tol_peg_2","690","690","0","[[0,0,0],[3,0],[1]]","3","[[2,0,0],[1,3],[0]]","10","0","","","","","","6","","","","",""
"","","","","","single-stim-button","289","1437222","0.0-3.0-40.2-1.2","5e287f8ebdfcaf050e34fd94","E1","batch5","tol_toboard","643","","","","","","","","","tol_peg_1","643","643","0","[[2,0,0],[3,0],[1]]","3","[[2,0,0],[1,3],[0]]","10","0","","","","","","6","","","","",""
"","","","","","single-stim-button","290","1439104","0.0-3.0-40.3-0.3","5e287f8ebdfcaf050e34fd94","E1","batch5","tol_tohand","1881","","","","","","","","","tol_peg_2","1881","1881","0","[[2,0,0],[0,0],[1]]","4","[[2,0,0],[1,3],[0]]","10","0","","","","","","6","","","","",""
"","","","","","single-stim-button","291","1439531","0.0-3.0-40.3-1.3","5e287f8ebdfcaf050e34fd94","E1","batch5","tol_toboard","425","","","","","","","","","tol_peg_1","425","425","0","[[2,3,0],[0,0],[1]]","4","[[2,0,0],[1,3],[0]]","10","0","","","","","","6","","","","",""
"","","","","","single-stim-button","292","1439919","0.0-3.0-40.4-0.4","5e287f8ebdfcaf050e34fd94","E1","batch5","tol_tohand","387","","","","","","","","","tol_peg_3","387","387","0","[[2,3,0],[0,0],[0]]","5","[[2,0,0],[1,3],[0]]","10","0","","","","","","6","","","","",""
"","","","","","single-stim-button","293","1440311","0.0-3.0-40.4-1.4","5e287f8ebdfcaf050e34fd94","E1","batch5","tol_toboard","391","","","","","","","","","tol_peg_2","391","391","0","[[2,3,0],[1,0],[0]]","5","[[2,0,0],[1,3],[0]]","10","0","","","","","","6","","","","",""
"","","","","","single-stim-button","294","1440970","0.0-3.0-40.5-0.5","5e287f8ebdfcaf050e34fd94","E1","batch5","tol_tohand","659","","","","","","","","","tol_peg_1","659","659","0","[[2,0,0],[1,0],[0]]","6","[[2,0,0],[1,3],[0]]","10","0","","","","","","6","","","","",""
"","","","","","single-stim-button","295","1441592","0.0-3.0-40.5-1.5","5e287f8ebdfcaf050e34fd94","E1","batch5","tol_toboard","621","","","","","","","","","tol_peg_2","621","621","0","[[2,0,0],[1,3],[0]]","6","[[2,0,0],[1,3],[0]]","10","0","","","","","","6","","","","",""
"","","","","","poldrack-single-stim","296","1442596","0.0-3.0-41.0","5e287f8ebdfcaf050e34fd94","E1","batch5","tol_feedback","-1","","","","","true","","","","","1000","1000","500","","","","","","-1","none","true","4870","8869","","","","","",""
"","","","","","html-button-response","297","1443318","0.0-3.0-42.0","5e287f8ebdfcaf050e34fd94","E1","batch5","tol_trial_num","720.8999999761581","<div class = centerbox><p class = center-block-text>problem <strong>12</strong> out of 25 problems</p></div>","0","","","","","","","","","","","","","","","","","","","","","","","","","",""
"","","","","","single-stim-button","298","1447744","0.0-3.0-43.0-0.0","5e287f8ebdfcaf050e34fd94","E1","batch5","tol_tohand","4425","","","","","","","","","tol_peg_1","4425","4425","0","[[1,0,0],[3,0],[0]]","1","[[2,3,0],[0,0],[1]]","11","0","","","","","","4","","","","",""
"","","","","","single-stim-button","299","1448740","0.0-3.0-43.0-1.0","5e287f8ebdfcaf050e34fd94","E1","batch5","tol_toboard","995","","","","","","","","","tol_peg_3","995","995","0","[[1,0,0],[3,0],[2]]","1","[[2,3,0],[0,0],[1]]","11","0","","","","","","4","","","","",""
"","","","","","single-stim-button","300","1449392","0.0-3.0-43.1-0.1","5e287f8ebdfcaf050e34fd94","E1","batch5","tol_tohand","650","","","","","","","","","tol_peg_1","650","650","0","[[0,0,0],[3,0],[2]]","2","[[2,3,0],[0,0],[1]]","11","0","","","","","","4","","","","",""
"","","","","","single-stim-button","301","1449759","0.0-3.0-43.1-1.1","5e287f8ebdfcaf050e34fd94","E1","batch5","tol_toboard","365","","","","","","","","","tol_peg_2","365","365","0","[[0,0,0],[3,1],[2]]","2","[[2,3,0],[0,0],[1]]","11","0","","","","","","4","","","","",""
"","","","","","single-stim-button","302","1450182","0.0-3.0-43.2-0.2","5e287f8ebdfcaf050e34fd94","E1","batch5","tol_tohand","423","","","","","","","","","tol_peg_3","423","423","0","[[0,0,0],[3,1],[0]]","3","[[2,3,0],[0,0],[1]]","11","0","","","","","","4","","","","",""
"","","","","","single-stim-button","303","1450976","0.0-3.0-43.2-1.2","5e287f8ebdfcaf050e34fd94","E1","batch5","tol_toboard","793","","","","","","","","","tol_peg_1","793","793","0","[[2,0,0],[3,1],[0]]","3","[[2,3,0],[0,0],[1]]","11","0","","","","","","4","","","","",""
"","","","","","single-stim-button","304","1451455","0.0-3.0-43.3-0.3","5e287f8ebdfcaf050e34fd94","E1","batch5","tol_tohand","478","","","","","","","","","tol_peg_2","478","478","0","[[2,0,0],[3,0],[0]]","4","[[2,3,0],[0,0],[1]]","11","0","","","","","","4","","","","",""
"","","","","","single-stim-button","305","1451989","0.0-3.0-43.3-1.3","5e287f8ebdfcaf050e34fd94","E1","batch5","tol_toboard","533","","","","","","","","","tol_peg_3","533","533","0","[[2,0,0],[3,0],[1]]","4","[[2,3,0],[0,0],[1]]","11","0","","","","","","4","","","","",""
"","","","","","single-stim-button","306","1452303","0.0-3.0-43.4-0.4","5e287f8ebdfcaf050e34fd94","E1","batch5","tol_tohand","314","","","","","","","","","tol_peg_2","314","314","0","[[2,0,0],[0,0],[1]]","5","[[2,3,0],[0,0],[1]]","11","0","","","","","","4","","","","",""
"","","","","","single-stim-button","307","1452827","0.0-3.0-43.4-1.4","5e287f8ebdfcaf050e34fd94","E1","batch5","tol_toboard","522","","","","","","","","","tol_peg_1","522","522","0","[[2,3,0],[0,0],[1]]","5","[[2,3,0],[0,0],[1]]","11","0","","","","","","4","","","","",""
"","","","","","poldrack-single-stim","308","1453829","0.0-3.0-44.0","5e287f8ebdfcaf050e34fd94","E1","batch5","tol_feedback","-1","","","","","true","","","","","1000","1000","500","","","","","","-1","none","true","4425","6290","","","","","",""
"","","","","","html-button-response","309","1454592","0.0-3.0-45.0","5e287f8ebdfcaf050e34fd94","E1","batch5","tol_trial_num","763","<div class = centerbox><p class = center-block-text>problem <strong>13</strong> out of 25 problems</p></div>","0","","","","","","","","","","","","","","","","","","","","","","","","","",""
"","","","","","single-stim-button","310","1457742","0.0-3.0-46.0-0.0","5e287f8ebdfcaf050e34fd94","E1","batch5","tol_tohand","3149","","","","","","","","","tol_peg_1","3149","3149","0","[[1,0,0],[3,0],[0]]","1","[[0,0,0],[2,3],[1]]","12","0","","","","","","4","","","","",""
"","","","","","single-stim-button","311","1458187","0.0-3.0-46.0-1.0","5e287f8ebdfcaf050e34fd94","E1","batch5","tol_toboard","444","","","","","","","","","tol_peg_2","444","444","0","[[1,0,0],[3,2],[0]]","1","[[0,0,0],[2,3],[1]]","12","0","","","","","","4","","","","",""
"","","","","","single-stim-button","312","1458462","0.0-3.0-46.1-0.1","5e287f8ebdfcaf050e34fd94","E1","batch5","tol_tohand","274","","","","","","","","","tol_peg_1","274","274","0","[[0,0,0],[3,2],[0]]","2","[[0,0,0],[2,3],[1]]","12","0","","","","","","4","","","","",""
"","","","","","single-stim-button","313","1460794","0.0-3.0-46.1-1.1","5e287f8ebdfcaf050e34fd94","E1","batch5","tol_toboard","2331","","","","","","","","","tol_peg_1","2331","2331","0","[[1,0,0],[3,2],[0]]","2","[[0,0,0],[2,3],[1]]","12","0","","","","","","4","","","","",""
"","","","","","single-stim-button","314","1461232","0.0-3.0-46.2-0.2","5e287f8ebdfcaf050e34fd94","E1","batch5","tol_tohand","437","","","","","","","","","tol_peg_2","437","437","0","[[1,0,0],[3,0],[0]]","3","[[0,0,0],[2,3],[1]]","12","0","","","","","","4","","","","",""
"","","","","","single-stim-button","315","1462230","0.0-3.0-46.2-1.2","5e287f8ebdfcaf050e34fd94","E1","batch5","tol_toboard","997","","","","","","","","","tol_peg_3","997","997","0","[[1,0,0],[3,0],[2]]","3","[[0,0,0],[2,3],[1]]","12","0","","","","","","4","","","","",""
"","","","","","single-stim-button","316","1462779","0.0-3.0-46.3-0.3","5e287f8ebdfcaf050e34fd94","E1","batch5","tol_tohand","547","","","","","","","","","tol_peg_1","547","547","0","[[0,0,0],[3,0],[2]]","4","[[0,0,0],[2,3],[1]]","12","0","","","","","","4","","","","",""
"","","","","","single-stim-button","317","1463329","0.0-3.0-46.3-1.3","5e287f8ebdfcaf050e34fd94","E1","batch5","tol_toboard","549","","","","","","","","","tol_peg_2","549","549","0","[[0,0,0],[3,1],[2]]","4","[[0,0,0],[2,3],[1]]","12","0","","","","","","4","","","","",""
"","","","","","single-stim-button","318","1463940","0.0-3.0-46.4-0.4","5e287f8ebdfcaf050e34fd94","E1","batch5","tol_tohand","609","","","","","","","","","tol_peg_3","609","609","0","[[0,0,0],[3,1],[0]]","5","[[0,0,0],[2,3],[1]]","12","0","","","","","","4","","","","",""
"","","","","","single-stim-button","319","1464577","0.0-3.0-46.4-1.4","5e287f8ebdfcaf050e34fd94","E1","batch5","tol_toboard","635","","","","","","","","","tol_peg_1","635","635","0","[[2,0,0],[3,1],[0]]","5","[[0,0,0],[2,3],[1]]","12","0","","","","","","4","","","","",""
"","","","","","single-stim-button","320","1464963","0.0-3.0-46.5-0.5","5e287f8ebdfcaf050e34fd94","E1","batch5","tol_tohand","384","","","","","","","","","tol_peg_2","384","384","0","[[2,0,0],[3,0],[0]]","6","[[0,0,0],[2,3],[1]]","12","0","","","","","","4","","","","",""
"","","","","","single-stim-button","321","1465430","0.0-3.0-46.5-1.5","5e287f8ebdfcaf050e34fd94","E1","batch5","tol_toboard","467","","","","","","","","","tol_peg_3","467","467","0","[[2,0,0],[3,0],[1]]","6","[[0,0,0],[2,3],[1]]","12","0","","","","","","4","","","","",""
"","","","","","single-stim-button","322","1466112","0.0-3.0-46.6-0.6","5e287f8ebdfcaf050e34fd94","E1","batch5","tol_tohand","680","","","","","","","","","tol_peg_2","680","680","0","[[2,0,0],[0,0],[1]]","7","[[0,0,0],[2,3],[1]]","12","0","","","","","","4","","","","",""
"","","","","","single-stim-button","323","1467596","0.0-3.0-46.6-1.6","5e287f8ebdfcaf050e34fd94","E1","batch5","tol_toboard","1483","","","","","","","","","tol_peg_1","1483","1483","0","[[2,3,0],[0,0],[1]]","7","[[0,0,0],[2,3],[1]]","12","0","","","","","","4","","","","",""
"","","","","","single-stim-button","324","1468153","0.0-3.0-46.7-0.7","5e287f8ebdfcaf050e34fd94","E1","batch5","tol_tohand","556","","","","","","","","","tol_peg_1","556","556","0","[[2,0,0],[0,0],[1]]","8","[[0,0,0],[2,3],[1]]","12","0","","","","","","4","","","","",""
"","","","","","single-stim-button","325","1468780","0.0-3.0-46.7-1.7","5e287f8ebdfcaf050e34fd94","E1","batch5","tol_toboard","626","","","","","","","","","tol_peg_2","626","626","0","[[2,0,0],[3,0],[1]]","8","[[0,0,0],[2,3],[1]]","12","0","","","","","","4","","","","",""
"","","","","","single-stim-button","326","1470664","0.0-3.0-46.8-0.8","5e287f8ebdfcaf050e34fd94","E1","batch5","tol_tohand","1883","","","","","","","","","tol_peg_3","1883","1883","0","[[2,0,0],[3,0],[0]]","9","[[0,0,0],[2,3],[1]]","12","0","","","","","","4","","","","",""
"","","","","","single-stim-button","327","1472280","0.0-3.0-46.8-1.8","5e287f8ebdfcaf050e34fd94","E1","batch5","tol_toboard","1615","","","","","","","","","tol_peg_1","1615","1615","0","[[2,1,0],[3,0],[0]]","9","[[0,0,0],[2,3],[1]]","12","0","","","","","","4","","","","",""
"","","","","","single-stim-button","328","1472704","0.0-3.0-46.9-0.9","5e287f8ebdfcaf050e34fd94","E1","batch5","tol_tohand","423","","","","","","","","","tol_peg_2","423","423","0","[[2,1,0],[0,0],[0]]","10","[[0,0,0],[2,3],[1]]","12","0","","","","","","4","","","","",""
"","","","","","single-stim-button","329","1473182","0.0-3.0-46.9-1.9","5e287f8ebdfcaf050e34fd94","E1","batch5","tol_toboard","477","","","","","","","","","tol_peg_3","477","477","0","[[2,1,0],[0,0],[3]]","10","[[0,0,0],[2,3],[1]]","12","0","","","","","","4","","","","",""
"","","","","","single-stim-button","330","1473754","0.0-3.0-46.10-0.10","5e287f8ebdfcaf050e34fd94","E1","batch5","tol_tohand","571","","","","","","","","","tol_peg_1","571","571","0","[[2,0,0],[0,0],[3]]","11","[[0,0,0],[2,3],[1]]","12","0","","","","","","4","","","","",""
"","","","","","single-stim-button","331","1474296","0.0-3.0-46.10-1.10","5e287f8ebdfcaf050e34fd94","E1","batch5","tol_toboard","541","","","","","","","","","tol_peg_2","541","541","0","[[2,0,0],[1,0],[3]]","11","[[0,0,0],[2,3],[1]]","12","0","","","","","","4","","","","",""
"","","","","","single-stim-button","332","1474712","0.0-3.0-46.11-0.11","5e287f8ebdfcaf050e34fd94","E1","batch5","tol_tohand","415","","","","","","","","","tol_peg_1","415","415","0","[[0,0,0],[1,0],[3]]","12","[[0,0,0],[2,3],[1]]","12","0","","","","","","4","","","","",""
"","","","","","single-stim-button","333","1475152","0.0-3.0-46.11-1.11","5e287f8ebdfcaf050e34fd94","E1","batch5","tol_toboard","439","","","","","","","","","tol_peg_2","439","439","0","[[0,0,0],[1,2],[3]]","12","[[0,0,0],[2,3],[1]]","12","0","","","","","","4","","","","",""
"","","","","","single-stim-button","334","1476510","0.0-3.0-46.12-0.12","5e287f8ebdfcaf050e34fd94","E1","batch5","tol_tohand","1357","","","","","","","","","tol_peg_3","1357","1357","0","[[0,0,0],[1,2],[0]]","13","[[0,0,0],[2,3],[1]]","12","0","","","","","","4","","","","",""
"","","","","","single-stim-button","335","1476886","0.0-3.0-46.12-1.12","5e287f8ebdfcaf050e34fd94","E1","batch5","tol_toboard","375","","","","","","","","","tol_peg_1","375","375","0","[[3,0,0],[1,2],[0]]","13","[[0,0,0],[2,3],[1]]","12","0","","","","","","4","","","","",""
"","","","","","single-stim-button","336","1477325","0.0-3.0-46.13-0.13","5e287f8ebdfcaf050e34fd94","E1","batch5","tol_tohand","438","","","","","","","","","tol_peg_2","438","438","0","[[3,0,0],[1,0],[0]]","14","[[0,0,0],[2,3],[1]]","12","0","","","","","","4","","","","",""
"","","","","","single-stim-button","337","1477624","0.0-3.0-46.13-1.13","5e287f8ebdfcaf050e34fd94","E1","batch5","tol_toboard","298","","","","","","","","","tol_peg_3","298","298","0","[[3,0,0],[1,0],[2]]","14","[[0,0,0],[2,3],[1]]","12","0","","","","","","4","","","","",""
"","","","","","single-stim-button","338","1478367","0.0-3.0-46.14-0.14","5e287f8ebdfcaf050e34fd94","E1","batch5","tol_tohand","742","","","","","","","","","tol_peg_1","742","742","0","[[0,0,0],[1,0],[2]]","15","[[0,0,0],[2,3],[1]]","12","0","","","","","","4","","","","",""
"","","","","","single-stim-button","339","1479231","0.0-3.0-46.14-1.14","5e287f8ebdfcaf050e34fd94","E1","batch5","tol_toboard","863","","","","","","","","","tol_peg_1","863","863","0","[[3,0,0],[1,0],[2]]","15","[[0,0,0],[2,3],[1]]","12","0","","","","","","4","","","","",""
"","","","","","single-stim-button","340","1479576","0.0-3.0-46.15-0.15","5e287f8ebdfcaf050e34fd94","E1","batch5","tol_tohand","344","","","","","","","","","tol_peg_2","344","344","0","[[3,0,0],[0,0],[2]]","16","[[0,0,0],[2,3],[1]]","12","0","","","","","","4","","","","",""
"","","","","","single-stim-button","341","1481452","0.0-3.0-46.15-1.15","5e287f8ebdfcaf050e34fd94","E1","batch5","tol_toboard","1875","","","","","","","","","tol_peg_1","1875","1875","0","[[3,1,0],[0,0],[2]]","16","[[0,0,0],[2,3],[1]]","12","0","","","","","","4","","","","",""
"","","","","","single-stim-button","342","1483132","0.0-3.0-46.16-0.16","5e287f8ebdfcaf050e34fd94","E1","batch5","tol_tohand","1679","","","","","","","","","tol_peg_3","1679","1679","0","[[3,1,0],[0,0],[0]]","17","[[0,0,0],[2,3],[1]]","12","0","","","","","","4","","","","",""
"","","","","","single-stim-button","343","1485318","0.0-3.0-46.16-1.16","5e287f8ebdfcaf050e34fd94","E1","batch5","tol_toboard","2185","","","","","","","","","tol_peg_2","2185","2185","0","[[3,1,0],[2,0],[0]]","17","[[0,0,0],[2,3],[1]]","12","0","","","","","","4","","","","",""
"","","","","","single-stim-button","344","1485812","0.0-3.0-46.17-0.17","5e287f8ebdfcaf050e34fd94","E1","batch5","tol_tohand","493","","","","","","","","","tol_peg_1","493","493","0","[[3,0,0],[2,0],[0]]","18","[[0,0,0],[2,3],[1]]","12","0","","","","","","4","","","","",""
"","","","","","single-stim-button","345","1486354","0.0-3.0-46.17-1.17","5e287f8ebdfcaf050e34fd94","E1","batch5","tol_toboard","541","","","","","","","","","tol_peg_3","541","541","0","[[3,0,0],[2,0],[1]]","18","[[0,0,0],[2,3],[1]]","12","0","","","","","","4","","","","",""
"","","","","","single-stim-button","346","1486840","0.0-3.0-46.18-0.18","5e287f8ebdfcaf050e34fd94","E1","batch5","tol_tohand","485","","","","","","","","","tol_peg_1","485","485","0","[[0,0,0],[2,0],[1]]","19","[[0,0,0],[2,3],[1]]","12","0","","","","","","4","","","","",""
"","","","","","single-stim-button","347","1487297","0.0-3.0-46.18-1.18","5e287f8ebdfcaf050e34fd94","E1","batch5","tol_toboard","456","","","","","","","","","tol_peg_2","456","456","0","[[0,0,0],[2,3],[1]]","19","[[0,0,0],[2,3],[1]]","12","0","","","","","","4","","","","",""
"","","","","","poldrack-single-stim","348","1488298","0.0-3.0-47.0","5e287f8ebdfcaf050e34fd94","E1","batch5","tol_feedback","-1","","","","","true","","","","","1000","1000","500","","","","","","-1","none","true","3149","15466","","","","","",""
"","","","","","html-button-response","349","1490483","0.0-3.0-48.0","5e287f8ebdfcaf050e34fd94","E1","batch5","attention_check","2183.600000023842","<p class = block-text>How many balls are in your board<br></p>","1","","","true","","","","","","","","","","","","","","","","","","","","","","",""
"","","","","","html-button-response","350","1491299","0.0-3.0-49.0","5e287f8ebdfcaf050e34fd94","E1","batch5","tol_trial_num","815.1000000238419","<div class = centerbox><p class = center-block-text>problem <strong>14</strong> out of 25 problems</p></div>","0","","","","","","","","","","","","","","","","","","","","","","","","","",""
"","","","","","single-stim-button","351","1494972","0.0-3.0-50.0-0.0","5e287f8ebdfcaf050e34fd94","E1","batch5","tol_tohand","3672","","","","","","","","","tol_peg_1","3672","3672","0","[[2,0,0],[3,0],[0]]","1","[[1,2,0],[3,0],[0]]","13","0","","","","","","4","","","","",""
"","","","","","single-stim-button","352","1496652","0.0-3.0-50.0-1.0","5e287f8ebdfcaf050e34fd94","E1","batch5","tol_toboard","1678","","","","","","","","","tol_peg_3","1678","1678","0","[[2,0,0],[3,0],[1]]","1","[[1,2,0],[3,0],[0]]","13","0","","","","","","4","","","","",""
"","","","","","single-stim-button","353","1497343","0.0-3.0-50.1-0.1","5e287f8ebdfcaf050e34fd94","E1","batch5","tol_tohand","689","","","","","","","","","tol_peg_1","689","689","0","[[0,0,0],[3,0],[1]]","2","[[1,2,0],[3,0],[0]]","13","0","","","","","","4","","","","",""
"","","","","","single-stim-button","354","1497633","0.0-3.0-50.1-1.1","5e287f8ebdfcaf050e34fd94","E1","batch5","tol_toboard","289","","","","","","","","","tol_peg_2","289","289","0","[[0,0,0],[3,2],[1]]","2","[[1,2,0],[3,0],[0]]","13","0","","","","","","4","","","","",""
