"success","timeout","failed_images","failed_audio","failed_video","trial_type","trial_index","time_elapsed","internal_node_id","subject_id","study_id","session_id","task","rt","stimulus","response","item","answer","correct","spm_correct","spm_rt","view_history","fiar_detect_rt","fiar_detect_correct","total_correct_fiar_detect","post_trial_gap","choices","mouse_click","stim_duration","block_duration","timing_post_trial","current_position","tol_num_moves_made","tol_target","tol_problem_id","tol_rt","key_press","possible_responses","tol_correct","preplanning","tol_rt_per_trial","tol_min_moves"
"true","false","[]","[]","[]","preload","0","959","0.0-0.0","5e2b4e61a7f804000a55eee7","A3","batch1","","","","","","","","","","","","","","","","","","","","","","","","","","","","","",""
"true","","","","","fullscreen","1","9965","0.0-1.0-0.0","5e2b4e61a7f804000a55eee7","A3","batch1","","","","","","","","","","","","","","","","","","","","","","","","","","","","","",""
"true","","","","","fullscreen","2","13207","0.0-2.0-0.0","5e2b4e61a7f804000a55eee7","A3","batch1","spm_fullscreen","","","","","","","","","","","","","","","","","","","","","","","","","","","","",""
"","","","","","html-button-response","3","18249","0.0-2.0-1.0","5e2b4e61a7f804000a55eee7","A3","batch1","","5037.5","<p class = block-text><b>Instructions</b> <br>This is a widely used intelligence test in research. <br>In this test, a figure with a missing piece will be presented.<br>Below the figure are alternative pieces to complete the figure, only one of which is correct.<br> Different figures might involve different principles for obtaining the missing piece<br>Your job is to select the most logical piece to complete the figure.</p>","0","","","","","","","","","","","","","","","","","","","","","","","","","",""
"","","","","","html-keyboard-response","4","19060","0.0-2.0-2.0-0.0","5e2b4e61a7f804000a55eee7","A3","batch1","spm_show_trial_num","null","<p class=block-text>Trial 1 out of 60</p>","null","","","","","","","","","","","","","","","","","","","","","","","","","",""
"","","","","","image-button-response","5","26378","0.0-2.0-2.0-1.0","5e2b4e61a7f804000a55eee7","A3","batch1","spm_respsonse","7312.300000011921","img/question_1_1.jpeg","3","mat_01","4","1","1","7312.300000011921","","","","","","","","","","","","","","","","","","","","",""
"","","","","","html-keyboard-response","6","27448","0.0-2.0-2.0-0.1","5e2b4e61a7f804000a55eee7","A3","batch1","spm_show_trial_num","null","<p class=block-text>Trial 2 out of 60</p>","null","","","","","","","","","","","","","","","","","","","","","","","","","",""
"","","","","","image-button-response","7","30149","0.0-2.0-2.0-1.1","5e2b4e61a7f804000a55eee7","A3","batch1","spm_respsonse","2697.300000011921","img/question_1_2.jpeg","4","mat_02","5","1","1","2697.300000011921","","","","","","","","","","","","","","","","","","","","",""
"","","","","","html-keyboard-response","8","31216","0.0-2.0-2.0-0.2","5e2b4e61a7f804000a55eee7","A3","batch1","spm_show_trial_num","null","<p class=block-text>Trial 3 out of 60</p>","null","","","","","","","","","","","","","","","","","","","","","","","","","",""
"","","","","","image-button-response","9","33496","0.0-2.0-2.0-1.2","5e2b4e61a7f804000a55eee7","A3","batch1","spm_respsonse","2277.300000011921","img/question_1_3.jpeg","0","mat_03","1","1","1","2277.300000011921","","","","","","","","","","","","","","","","","","","","",""
"","","","","","html-keyboard-response","10","34568","0.0-2.0-2.0-0.3","5e2b4e61a7f804000a55eee7","A3","batch1","spm_show_trial_num","null","<p class=block-text>Trial 4 out of 60</p>","null","","","","","","","","","","","","","","","","","","","","","","","","","",""
"","","","","","image-button-response","11","37691","0.0-2.0-2.0-1.3","5e2b4e61a7f804000a55eee7","A3","batch1","spm_respsonse","3118.899999976158","img/question_1_4.jpeg","1","mat_04","2","1","1","3118.899999976158","","","","","","","","","","","","","","","","","","","","",""
"","","","","","html-keyboard-response","12","38760","0.0-2.0-2.0-0.4","5e2b4e61a7f804000a55eee7","A3","batch1","spm_show_trial_num","null","<p class=block-text>Trial 5 out of 60</p>","null","","","","","","","","","","","","","","","","","","","","","","","","","",""
"","","","","","image-button-response","13","42432","0.0-2.0-2.0-1.4","5e2b4e61a7f804000a55eee7","A3","batch1","spm_respsonse","3668.900000035763","img/question_1_5.jpeg","5","mat_05","6","1","1","3668.900000035763","","","","","","","","","","","","","","","","","","","","",""
"","","","","","html-keyboard-response","14","43528","0.0-2.0-2.0-0.5","5e2b4e61a7f804000a55eee7","A3","batch1","spm_show_trial_num","null","<p class=block-text>Trial 6 out of 60</p>","null","","","","","","","","","","","","","","","","","","","","","","","","","",""
"","","","","","image-button-response","15","47202","0.0-2.0-2.0-1.5","5e2b4e61a7f804000a55eee7","A3","batch1","spm_respsonse","3670.699999988079","img/question_1_6.jpeg","2","mat_06","3","1","1","3670.699999988079","","","","","","","","","","","","","","","","","","","","",""
"","","","","","html-keyboard-response","16","48272","0.0-2.0-2.0-0.6","5e2b4e61a7f804000a55eee7","A3","batch1","spm_show_trial_num","null","<p class=block-text>Trial 7 out of 60</p>","null","","","","","","","","","","","","","","","","","","","","","","","","","",""
"","","","","","image-button-response","17","52054","0.0-2.0-2.0-1.6","5e2b4e61a7f804000a55eee7","A3","batch1","spm_respsonse","3778.600000023842","img/question_1_7.jpeg","5","mat_07","6","1","1","3778.600000023842","","","","","","","","","","","","","","","","","","","","",""
"","","","","","html-keyboard-response","18","53125","0.0-2.0-2.0-0.7","5e2b4e61a7f804000a55eee7","A3","batch1","spm_show_trial_num","null","<p class=block-text>Trial 8 out of 60</p>","null","","","","","","","","","","","","","","","","","","","","","","","","","",""
"","","","","","image-button-response","19","59750","0.0-2.0-2.0-1.7","5e2b4e61a7f804000a55eee7","A3","batch1","spm_respsonse","6622.899999976158","img/question_1_8.jpeg","1","mat_08","2","1","1","6622.899999976158","","","","","","","","","","","","","","","","","","","","",""
"","","","","","html-keyboard-response","20","60816","0.0-2.0-2.0-0.8","5e2b4e61a7f804000a55eee7","A3","batch1","spm_show_trial_num","null","<p class=block-text>Trial 9 out of 60</p>","null","","","","","","","","","","","","","","","","","","","","","","","","","",""
"","","","","","image-button-response","21","70008","0.0-2.0-2.0-1.8","5e2b4e61a7f804000a55eee7","A3","batch1","spm_respsonse","9188.899999976158","img/question_1_9.jpeg","0","mat_09","1","1","1","9188.899999976158","","","","","","","","","","","","","","","","","","","","",""
"","","","","","html-keyboard-response","22","71072","0.0-2.0-2.0-0.9","5e2b4e61a7f804000a55eee7","A3","batch1","spm_show_trial_num","null","<p class=block-text>Trial 10 out of 60</p>","null","","","","","","","","","","","","","","","","","","","","","","","","","",""
"","","","","","image-button-response","23","75254","0.0-2.0-2.0-1.9","5e2b4e61a7f804000a55eee7","A3","batch1","spm_respsonse","4177.900000035763","img/question_1_10.jpeg","1","mat_10","3","0","0","4177.900000035763","","","","","","","","","","","","","","","","","","","","",""
"","","","","","html-keyboard-response","24","76317","0.0-2.0-2.0-0.10","5e2b4e61a7f804000a55eee7","A3","batch1","spm_show_trial_num","null","<p class=block-text>Trial 11 out of 60</p>","null","","","","","","","","","","","","","","","","","","","","","","","","","",""
"","","","","","image-button-response","25","79857","0.0-2.0-2.0-1.10","5e2b4e61a7f804000a55eee7","A3","batch1","spm_respsonse","3536.600000023842","img/question_1_11.jpeg","4","mat_11","4","0","0","3536.600000023842","","","","","","","","","","","","","","","","","","","","",""
"","","","","","html-keyboard-response","26","80939","0.0-2.0-2.0-0.11","5e2b4e61a7f804000a55eee7","A3","batch1","spm_show_trial_num","null","<p class=block-text>Trial 12 out of 60</p>","null","","","","","","","","","","","","","","","","","","","","","","","","","",""
"","","","","","image-button-response","27","98283","0.0-2.0-2.0-1.11","5e2b4e61a7f804000a55eee7","A3","batch1","spm_respsonse","17340.30000001192","img/question_1_12.jpeg","4","mat_12","5","1","1","17340.30000001192","","","","","","","","","","","","","","","","","","","","",""
"","","","","","html-keyboard-response","28","99350","0.0-2.0-2.0-0.12","5e2b4e61a7f804000a55eee7","A3","batch1","spm_show_trial_num","null","<p class=block-text>Trial 13 out of 60</p>","null","","","","","","","","","","","","","","","","","","","","","","","","","",""
"","","","","","image-button-response","29","101698","0.0-2.0-2.0-1.12","5e2b4e61a7f804000a55eee7","A3","batch1","spm_respsonse","2343.699999988079","img/question_2_1.jpeg","1","mat_13","2","1","1","2343.699999988079","","","","","","","","","","","","","","","","","","","","",""
"","","","","","html-keyboard-response","30","102765","0.0-2.0-2.0-0.13","5e2b4e61a7f804000a55eee7","A3","batch1","spm_show_trial_num","null","<p class=block-text>Trial 14 out of 60</p>","null","","","","","","","","","","","","","","","","","","","","","","","","","",""
"","","","","","image-button-response","31","112808","0.0-2.0-2.0-1.13","5e2b4e61a7f804000a55eee7","A3","batch1","spm_respsonse","10040.199999988079","img/question_2_2.jpeg","5","mat_14","6","1","1","10040.199999988079","","","","","","","","","","","","","","","","","","","","",""
"","","","","","html-keyboard-response","32","113880","0.0-2.0-2.0-0.14","5e2b4e61a7f804000a55eee7","A3","batch1","spm_show_trial_num","null","<p class=block-text>Trial 15 out of 60</p>","null","","","","","","","","","","","","","","","","","","","","","","","","","",""
"","","","","","image-button-response","33","116743","0.0-2.0-2.0-1.14","5e2b4e61a7f804000a55eee7","A3","batch1","spm_respsonse","2859.599999964237","img/question_2_3.jpeg","0","mat_15","1","1","1","2859.599999964237","","","","","","","","","","","","","","","","","","","","",""
"","","","","","html-keyboard-response","34","117803","0.0-2.0-2.0-0.15","5e2b4e61a7f804000a55eee7","A3","batch1","spm_show_trial_num","null","<p class=block-text>Trial 16 out of 60</p>","null","","","","","","","","","","","","","","","","","","","","","","","","","",""
"","","","","","image-button-response","35","120760","0.0-2.0-2.0-1.15","5e2b4e61a7f804000a55eee7","A3","batch1","spm_respsonse","2953.199999988079","img/question_2_4.jpeg","1","mat_16","2","1","1","2953.199999988079","","","","","","","","","","","","","","","","","","","","",""
"","","","","","html-keyboard-response","36","121821","0.0-2.0-2.0-0.16","5e2b4e61a7f804000a55eee7","A3","batch1","spm_show_trial_num","null","<p class=block-text>Trial 17 out of 60</p>","null","","","","","","","","","","","","","","","","","","","","","","","","","",""
"","","","","","image-button-response","37","125174","0.0-2.0-2.0-1.16","5e2b4e61a7f804000a55eee7","A3","batch1","spm_respsonse","3348.699999988079","img/question_2_5.jpeg","0","mat_17","1","1","1","3348.699999988079","","","","","","","","","","","","","","","","","","","","",""
"","","","","","html-keyboard-response","38","126238","0.0-2.0-2.0-0.17","5e2b4e61a7f804000a55eee7","A3","batch1","spm_show_trial_num","null","<p class=block-text>Trial 18 out of 60</p>","null","","","","","","","","","","","","","","","","","","","","","","","","","",""
"","","","","","image-button-response","39","131894","0.0-2.0-2.0-1.17","5e2b4e61a7f804000a55eee7","A3","batch1","spm_respsonse","5651.599999964237","img/question_2_6.jpeg","2","mat_18","3","1","1","5651.599999964237","","","","","","","","","","","","","","","","","","","","",""
"","","","","","html-keyboard-response","40","132957","0.0-2.0-2.0-0.18","5e2b4e61a7f804000a55eee7","A3","batch1","spm_show_trial_num","null","<p class=block-text>Trial 19 out of 60</p>","null","","","","","","","","","","","","","","","","","","","","","","","","","",""
"","","","","","image-button-response","41","136964","0.0-2.0-2.0-1.18","5e2b4e61a7f804000a55eee7","A3","batch1","spm_respsonse","4003.899999976158","img/question_2_7.jpeg","4","mat_19","5","1","1","4003.899999976158","","","","","","","","","","","","","","","","","","","","",""
"","","","","","html-keyboard-response","42","138032","0.0-2.0-2.0-0.19","5e2b4e61a7f804000a55eee7","A3","batch1","spm_show_trial_num","null","<p class=block-text>Trial 20 out of 60</p>","null","","","","","","","","","","","","","","","","","","","","","","","","","",""
"","","","","","image-button-response","43","143156","0.0-2.0-2.0-1.19","5e2b4e61a7f804000a55eee7","A3","batch1","spm_respsonse","5120.199999988079","img/question_2_8.jpeg","5","mat_20","6","1","1","5120.199999988079","","","","","","","","","","","","","","","","","","","","",""
"","","","","","html-keyboard-response","44","144224","0.0-2.0-2.0-0.20","5e2b4e61a7f804000a55eee7","A3","batch1","spm_show_trial_num","null","<p class=block-text>Trial 21 out of 60</p>","null","","","","","","","","","","","","","","","","","","","","","","","","","",""
"","","","","","image-button-response","45","149723","0.0-2.0-2.0-1.20","5e2b4e61a7f804000a55eee7","A3","batch1","spm_respsonse","5495.199999988079","img/question_2_9.jpeg","3","mat_21","4","1","1","5495.199999988079","","","","","","","","","","","","","","","","","","","","",""
"","","","","","html-keyboard-response","46","150791","0.0-2.0-2.0-0.21","5e2b4e61a7f804000a55eee7","A3","batch1","spm_show_trial_num","null","<p class=block-text>Trial 22 out of 60</p>","null","","","","","","","","","","","","","","","","","","","","","","","","","",""
"","","","","","image-button-response","47","157330","0.0-2.0-2.0-1.21","5e2b4e61a7f804000a55eee7","A3","batch1","spm_respsonse","6535.699999988079","img/question_2_10.jpeg","2","mat_22","3","1","1","6535.699999988079","","","","","","","","","","","","","","","","","","","","",""
"","","","","","html-keyboard-response","48","158399","0.0-2.0-2.0-0.22","5e2b4e61a7f804000a55eee7","A3","batch1","spm_show_trial_num","null","<p class=block-text>Trial 23 out of 60</p>","null","","","","","","","","","","","","","","","","","","","","","","","","","",""
"","","","","","image-button-response","49","162498","0.0-2.0-2.0-1.22","5e2b4e61a7f804000a55eee7","A3","batch1","spm_respsonse","4094.899999976158","img/question_2_11.jpeg","3","mat_23","4","1","1","4094.899999976158","","","","","","","","","","","","","","","","","","","","",""
"","","","","","html-keyboard-response","50","163566","0.0-2.0-2.0-0.23","5e2b4e61a7f804000a55eee7","A3","batch1","spm_show_trial_num","null","<p class=block-text>Trial 24 out of 60</p>","null","","","","","","","","","","","","","","","","","","","","","","","","","",""
"","","","","","image-button-response","51","174711","0.0-2.0-2.0-1.23","5e2b4e61a7f804000a55eee7","A3","batch1","spm_respsonse","11140.5","img/question_2_12.jpeg","4","mat_24","5","1","1","11140.5","","","","","","","","","","","","","","","","","","","","",""
"","","","","","html-button-response","52","177190","0.0-2.0-3.0","5e2b4e61a7f804000a55eee7","A3","batch1","attention_check","2221.699999988079","<p class = block-text>Attention check: Please choose 1<br></p>","0","","","true","","","","","","","","","","","","","","","","","","","","","","",""
"","","","","","html-keyboard-response","53","177999","0.0-2.0-4.0-0.0","5e2b4e61a7f804000a55eee7","A3","batch1","spm_show_trial_num","null","<p class=block-text>Trial 25 out of 60</p>","null","","","","","","","","","","","","","","","","","","","","","","","","","",""
"","","","","","image-button-response","54","184460","0.0-2.0-4.0-1.0","5e2b4e61a7f804000a55eee7","A3","batch1","spm_respsonse","6457.699999988079","img/question_3_1.jpeg","7","mat_25","8","1","1","6457.699999988079","","","","","","","","","","","","","","","","","","","","",""
"","","","","","html-keyboard-response","55","185527","0.0-2.0-4.0-0.1","5e2b4e61a7f804000a55eee7","A3","batch1","spm_show_trial_num","null","<p class=block-text>Trial 26 out of 60</p>","null","","","","","","","","","","","","","","","","","","","","","","","","","",""
"","","","","","image-button-response","56","194928","0.0-2.0-4.0-1.1","5e2b4e61a7f804000a55eee7","A3","batch1","spm_respsonse","9396.399999976158","img/question_3_2.jpeg","1","mat_26","2","1","1","9396.399999976158","","","","","","","","","","","","","","","","","","","","",""
"","","","","","html-keyboard-response","57","195987","0.0-2.0-4.0-0.2","5e2b4e61a7f804000a55eee7","A3","batch1","spm_show_trial_num","null","<p class=block-text>Trial 27 out of 60</p>","null","","","","","","","","","","","","","","","","","","","","","","","","","",""
"","","","","","image-button-response","58","202611","0.0-2.0-4.0-1.2","5e2b4e61a7f804000a55eee7","A3","batch1","spm_respsonse","6619.5","img/question_3_3.jpeg","2","mat_27","3","1","1","6619.5","","","","","","","","","","","","","","","","","","","","",""
"","","","","","html-keyboard-response","59","203680","0.0-2.0-4.0-0.3","5e2b4e61a7f804000a55eee7","A3","batch1","spm_show_trial_num","null","<p class=block-text>Trial 28 out of 60</p>","null","","","","","","","","","","","","","","","","","","","","","","","","","",""
"","","","","","image-button-response","60","222568","0.0-2.0-4.0-1.3","5e2b4e61a7f804000a55eee7","A3","batch1","spm_respsonse","18883.900000035763","img/question_3_4.jpeg","7","mat_28","8","1","1","18883.900000035763","","","","","","","","","","","","","","","","","","","","",""
"","","","","","html-keyboard-response","61","223631","0.0-2.0-4.0-0.4","5e2b4e61a7f804000a55eee7","A3","batch1","spm_show_trial_num","null","<p class=block-text>Trial 29 out of 60</p>","null","","","","","","","","","","","","","","","","","","","","","","","","","",""
"","","","","","image-button-response","62","241173","0.0-2.0-4.0-1.4","5e2b4e61a7f804000a55eee7","A3","batch1","spm_respsonse","17537.30000001192","img/question_3_5.jpeg","6","mat_29","7","1","1","17537.30000001192","","","","","","","","","","","","","","","","","","","","",""
"","","","","","html-keyboard-response","63","242236","0.0-2.0-4.0-0.5","5e2b4e61a7f804000a55eee7","A3","batch1","spm_show_trial_num","null","<p class=block-text>Trial 30 out of 60</p>","null","","","","","","","","","","","","","","","","","","","","","","","","","",""
"","","","","","image-button-response","64","250780","0.0-2.0-4.0-1.5","5e2b4e61a7f804000a55eee7","A3","batch1","spm_respsonse","8540.600000023842","img/question_3_6.jpeg","3","mat_30","4","1","1","8540.600000023842","","","","","","","","","","","","","","","","","","","","",""
"","","","","","html-keyboard-response","65","251846","0.0-2.0-4.0-0.6","5e2b4e61a7f804000a55eee7","A3","batch1","spm_show_trial_num","null","<p class=block-text>Trial 31 out of 60</p>","null","","","","","","","","","","","","","","","","","","","","","","","","","",""
"","","","","","image-button-response","66","261306","0.0-2.0-4.0-1.6","5e2b4e61a7f804000a55eee7","A3","batch1","spm_respsonse","9456","img/question_3_7.jpeg","4","mat_31","5","1","1","9456","","","","","","","","","","","","","","","","","","","","",""
"","","","","","html-keyboard-response","67","262373","0.0-2.0-4.0-0.7","5e2b4e61a7f804000a55eee7","A3","batch1","spm_show_trial_num","null","<p class=block-text>Trial 32 out of 60</p>","null","","","","","","","","","","","","","","","","","","","","","","","","","",""
"","","","","","image-button-response","68","280772","0.0-2.0-4.0-1.7","5e2b4e61a7f804000a55eee7","A3","batch1","spm_respsonse","18395.5","img/question_3_8.jpeg","0","mat_32","1","1","1","18395.5","","","","","","","","","","","","","","","","","","","","",""
"","","","","","html-keyboard-response","69","281836","0.0-2.0-4.0-0.8","5e2b4e61a7f804000a55eee7","A3","batch1","spm_show_trial_num","null","<p class=block-text>Trial 33 out of 60</p>","null","","","","","","","","","","","","","","","","","","","","","","","","","",""
"","","","","","image-button-response","70","291369","0.0-2.0-4.0-1.8","5e2b4e61a7f804000a55eee7","A3","batch1","spm_respsonse","9529.699999988079","img/question_3_9.jpeg","6","mat_33","7","1","1","9529.699999988079","","","","","","","","","","","","","","","","","","","","",""
"","","","","","html-keyboard-response","71","292435","0.0-2.0-4.0-0.9","5e2b4e61a7f804000a55eee7","A3","batch1","spm_show_trial_num","null","<p class=block-text>Trial 34 out of 60</p>","null","","","","","","","","","","","","","","","","","","","","","","","","","",""
"","","","","","image-button-response","72","323929","0.0-2.0-4.0-1.9","5e2b4e61a7f804000a55eee7","A3","batch1","spm_respsonse","31490.100000023842","img/question_3_10.jpeg","5","mat_34","6","1","1","31490.100000023842","","","","","","","","","","","","","","","","","","","","",""
"","","","","","html-keyboard-response","73","324998","0.0-2.0-4.0-0.10","5e2b4e61a7f804000a55eee7","A3","batch1","spm_show_trial_num","null","<p class=block-text>Trial 35 out of 60</p>","null","","","","","","","","","","","","","","","","","","","","","","","","","",""
"","","","","","image-button-response","74","345738","0.0-2.0-4.0-1.10","5e2b4e61a7f804000a55eee7","A3","batch1","spm_respsonse","20736.099999964237","img/question_3_11.jpeg","0","mat_35","1","1","1","20736.099999964237","","","","","","","","","","","","","","","","","","","","",""
"","","","","","html-keyboard-response","75","346808","0.0-2.0-4.0-0.11","5e2b4e61a7f804000a55eee7","A3","batch1","spm_show_trial_num","null","<p class=block-text>Trial 36 out of 60</p>","null","","","","","","","","","","","","","","","","","","","","","","","","","",""
"","","","","","image-button-response","76","370716","0.0-2.0-4.0-1.11","5e2b4e61a7f804000a55eee7","A3","batch1","spm_respsonse","23904.5","img/question_3_12.jpeg","4","mat_36","2","0","0","23904.5","","","","","","","","","","","","","","","","","","","","",""
"","","","","","html-keyboard-response","77","371784","0.0-2.0-4.0-0.12","5e2b4e61a7f804000a55eee7","A3","batch1","spm_show_trial_num","null","<p class=block-text>Trial 37 out of 60</p>","null","","","","","","","","","","","","","","","","","","","","","","","","","",""
"","","","","","image-button-response","78","374685","0.0-2.0-4.0-1.12","5e2b4e61a7f804000a55eee7","A3","batch1","spm_respsonse","2897.600000023842","img/question_4_1.jpeg","2","mat_37","3","1","1","2897.600000023842","","","","","","","","","","","","","","","","","","","","",""
"","","","","","html-keyboard-response","79","375780","0.0-2.0-4.0-0.13","5e2b4e61a7f804000a55eee7","A3","batch1","spm_show_trial_num","null","<p class=block-text>Trial 38 out of 60</p>","null","","","","","","","","","","","","","","","","","","","","","","","","","",""
"","","","","","image-button-response","80","384352","0.0-2.0-4.0-1.13","5e2b4e61a7f804000a55eee7","A3","batch1","spm_respsonse","8567.699999988079","img/question_4_2.jpeg","3","mat_38","4","1","1","8567.699999988079","","","","","","","","","","","","","","","","","","","","",""
"","","","","","html-keyboard-response","81","385412","0.0-2.0-4.0-0.14","5e2b4e61a7f804000a55eee7","A3","batch1","spm_show_trial_num","null","<p class=block-text>Trial 39 out of 60</p>","null","","","","","","","","","","","","","","","","","","","","","","","","","",""
"","","","","","image-button-response","82","394297","0.0-2.0-4.0-1.14","5e2b4e61a7f804000a55eee7","A3","batch1","spm_respsonse","8880.800000011921","img/question_4_3.jpeg","2","mat_39","3","1","1","8880.800000011921","","","","","","","","","","","","","","","","","","","","",""
"","","","","","html-keyboard-response","83","395357","0.0-2.0-4.0-0.15","5e2b4e61a7f804000a55eee7","A3","batch1","spm_show_trial_num","null","<p class=block-text>Trial 40 out of 60</p>","null","","","","","","","","","","","","","","","","","","","","","","","","","",""
"","","","","","image-button-response","84","407396","0.0-2.0-4.0-1.15","5e2b4e61a7f804000a55eee7","A3","batch1","spm_respsonse","12034.800000011921","img/question_4_4.jpeg","6","mat_40","7","1","1","12034.800000011921","","","","","","","","","","","","","","","","","","","","",""
"","","","","","html-keyboard-response","85","408462","0.0-2.0-4.0-0.16","5e2b4e61a7f804000a55eee7","A3","batch1","spm_show_trial_num","null","<p class=block-text>Trial 41 out of 60</p>","null","","","","","","","","","","","","","","","","","","","","","","","","","",""
"","","","","","image-button-response","86","416624","0.0-2.0-4.0-1.16","5e2b4e61a7f804000a55eee7","A3","batch1","spm_respsonse","8158.900000035763","img/question_4_5.jpeg","7","mat_41","8","1","1","8158.900000035763","","","","","","","","","","","","","","","","","","","","",""
"","","","","","html-keyboard-response","87","417687","0.0-2.0-4.0-0.17","5e2b4e61a7f804000a55eee7","A3","batch1","spm_show_trial_num","null","<p class=block-text>Trial 42 out of 60</p>","null","","","","","","","","","","","","","","","","","","","","","","","","","",""
"","","","","","image-button-response","88","430127","0.0-2.0-4.0-1.17","5e2b4e61a7f804000a55eee7","A3","batch1","spm_respsonse","12436.5","img/question_4_6.jpeg","5","mat_42","6","1","1","12436.5","","","","","","","","","","","","","","","","","","","","",""
"","","","","","html-keyboard-response","89","431192","0.0-2.0-4.0-0.18","5e2b4e61a7f804000a55eee7","A3","batch1","spm_show_trial_num","null","<p class=block-text>Trial 43 out of 60</p>","null","","","","","","","","","","","","","","","","","","","","","","","","","",""
"","","","","","image-button-response","90","444602","0.0-2.0-4.0-1.18","5e2b4e61a7f804000a55eee7","A3","batch1","spm_respsonse","13405.800000011921","img/question_4_7.jpeg","4","mat_43","5","1","1","13405.800000011921","","","","","","","","","","","","","","","","","","","","",""
"","","","","","html-keyboard-response","91","445672","0.0-2.0-4.0-0.19","5e2b4e61a7f804000a55eee7","A3","batch1","spm_show_trial_num","null","<p class=block-text>Trial 44 out of 60</p>","null","","","","","","","","","","","","","","","","","","","","","","","","","",""
"","","","","","image-button-response","92","466167","0.0-2.0-4.0-1.19","5e2b4e61a7f804000a55eee7","A3","batch1","spm_respsonse","20491.80000001192","img/question_4_8.jpeg","3","mat_44","4","1","1","20491.80000001192","","","","","","","","","","","","","","","","","","","","",""
"","","","","","html-keyboard-response","93","467232","0.0-2.0-4.0-0.20","5e2b4e61a7f804000a55eee7","A3","batch1","spm_show_trial_num","null","<p class=block-text>Trial 45 out of 60</p>","null","","","","","","","","","","","","","","","","","","","","","","","","","",""
"","","","","","image-button-response","94","499164","0.0-2.0-4.0-1.20","5e2b4e61a7f804000a55eee7","A3","batch1","spm_respsonse","31927.80000001192","img/question_4_9.jpeg","0","mat_45","1","1","1","31927.80000001192","","","","","","","","","","","","","","","","","","","","",""
"","","","","","html-keyboard-response","95","500231","0.0-2.0-4.0-0.21","5e2b4e61a7f804000a55eee7","A3","batch1","spm_show_trial_num","null","<p class=block-text>Trial 46 out of 60</p>","null","","","","","","","","","","","","","","","","","","","","","","","","","",""
"","","","","","image-button-response","96","519132","0.0-2.0-4.0-1.21","5e2b4e61a7f804000a55eee7","A3","batch1","spm_respsonse","18897.80000001192","img/question_4_10.jpeg","1","mat_46","2","1","1","18897.80000001192","","","","","","","","","","","","","","","","","","","","",""
"","","","","","html-keyboard-response","97","520199","0.0-2.0-4.0-0.22","5e2b4e61a7f804000a55eee7","A3","batch1","spm_show_trial_num","null","<p class=block-text>Trial 47 out of 60</p>","null","","","","","","","","","","","","","","","","","","","","","","","","","",""
"","","","","","image-button-response","98","535747","0.0-2.0-4.0-1.22","5e2b4e61a7f804000a55eee7","A3","batch1","spm_respsonse","15543.899999976158","img/question_4_11.jpeg","7","mat_47","5","0","0","15543.899999976158","","","","","","","","","","","","","","","","","","","","",""
"","","","","","html-keyboard-response","99","536816","0.0-2.0-4.0-0.23","5e2b4e61a7f804000a55eee7","A3","batch1","spm_show_trial_num","null","<p class=block-text>Trial 48 out of 60</p>","null","","","","","","","","","","","","","","","","","","","","","","","","","",""
"","","","","","image-button-response","100","565009","0.0-2.0-4.0-1.23","5e2b4e61a7f804000a55eee7","A3","batch1","spm_respsonse","28189.600000023842","img/question_4_12.jpeg","5","mat_48","6","1","1","28189.600000023842","","","","","","","","","","","","","","","","","","","","",""
"","","","","","html-keyboard-response","101","566083","0.0-2.0-4.0-0.24","5e2b4e61a7f804000a55eee7","A3","batch1","spm_show_trial_num","null","<p class=block-text>Trial 49 out of 60</p>","null","","","","","","","","","","","","","","","","","","","","","","","","","",""
"","","","","","image-button-response","102","580351","0.0-2.0-4.0-1.24","5e2b4e61a7f804000a55eee7","A3","batch1","spm_respsonse","14265.200000047684","img/question_5_1.jpeg","6","mat_49","7","1","1","14265.200000047684","","","","","","","","","","","","","","","","","","","","",""
"","","","","","html-keyboard-response","103","581414","0.0-2.0-4.0-0.25","5e2b4e61a7f804000a55eee7","A3","batch1","spm_show_trial_num","null","<p class=block-text>Trial 50 out of 60</p>","null","","","","","","","","","","","","","","","","","","","","","","","","","",""
"","","","","","image-button-response","104","594892","0.0-2.0-4.0-1.25","5e2b4e61a7f804000a55eee7","A3","batch1","spm_respsonse","13474.100000023842","img/question_5_2.jpeg","5","mat_50","6","1","1","13474.100000023842","","","","","","","","","","","","","","","","","","","","",""
"","","","","","html-keyboard-response","105","595961","0.0-2.0-4.0-0.26","5e2b4e61a7f804000a55eee7","A3","batch1","spm_show_trial_num","null","<p class=block-text>Trial 51 out of 60</p>","null","","","","","","","","","","","","","","","","","","","","","","","","","",""
"","","","","","image-button-response","106","609647","0.0-2.0-4.0-1.26","5e2b4e61a7f804000a55eee7","A3","batch1","spm_respsonse","13681.800000011921","img/question_5_3.jpeg","7","mat_51","8","1","1","13681.800000011921","","","","","","","","","","","","","","","","","","","","",""
"","","","","","html-keyboard-response","107","610712","0.0-2.0-4.0-0.27","5e2b4e61a7f804000a55eee7","A3","batch1","spm_show_trial_num","null","<p class=block-text>Trial 52 out of 60</p>","null","","","","","","","","","","","","","","","","","","","","","","","","","",""
"","","","","","image-button-response","108","626245","0.0-2.0-4.0-1.27","5e2b4e61a7f804000a55eee7","A3","batch1","spm_respsonse","15528.199999988079","img/question_5_4.jpeg","1","mat_52","2","1","1","15528.199999988079","","","","","","","","","","","","","","","","","","","","",""
"","","","","","html-keyboard-response","109","627313","0.0-2.0-4.0-0.28","5e2b4e61a7f804000a55eee7","A3","batch1","spm_show_trial_num","null","<p class=block-text>Trial 53 out of 60</p>","null","","","","","","","","","","","","","","","","","","","","","","","","","",""
"","","","","","image-button-response","110","637758","0.0-2.0-4.0-1.28","5e2b4e61a7f804000a55eee7","A3","batch1","spm_respsonse","10440.800000011921","img/question_5_5.jpeg","0","mat_53","1","1","1","10440.800000011921","","","","","","","","","","","","","","","","","","","","",""
"","","","","","html-keyboard-response","111","638825","0.0-2.0-4.0-0.29","5e2b4e61a7f804000a55eee7","A3","batch1","spm_show_trial_num","null","<p class=block-text>Trial 54 out of 60</p>","null","","","","","","","","","","","","","","","","","","","","","","","","","",""
"","","","","","image-button-response","112","737630","0.0-2.0-4.0-1.29","5e2b4e61a7f804000a55eee7","A3","batch1","spm_respsonse","98800.69999998808","img/question_5_6.jpeg","7","mat_54","5","0","0","98800.69999998808","","","","","","","","","","","","","","","","","","","","",""
"","","","","","html-keyboard-response","113","738694","0.0-2.0-4.0-0.30","5e2b4e61a7f804000a55eee7","A3","batch1","spm_show_trial_num","null","<p class=block-text>Trial 55 out of 60</p>","null","","","","","","","","","","","","","","","","","","","","","","","","","",""
"","","","","","image-button-response","114","760112","0.0-2.0-4.0-1.30","5e2b4e61a7f804000a55eee7","A3","batch1","spm_respsonse","21413.80000001192","img/question_5_7.jpeg","0","mat_55","1","1","1","21413.80000001192","","","","","","","","","","","","","","","","","","","","",""
"","","","","","html-keyboard-response","115","761173","0.0-2.0-4.0-0.31","5e2b4e61a7f804000a55eee7","A3","batch1","spm_show_trial_num","null","<p class=block-text>Trial 56 out of 60</p>","null","","","","","","","","","","","","","","","","","","","","","","","","","",""
"","","","","","image-button-response","116","783739","0.0-2.0-4.0-1.31","5e2b4e61a7f804000a55eee7","A3","batch1","spm_respsonse","22561.80000001192","img/question_5_8.jpeg","2","mat_56","6","0","0","22561.80000001192","","","","","","","","","","","","","","","","","","","","",""
"","","","","","html-keyboard-response","117","784804","0.0-2.0-4.0-0.32","5e2b4e61a7f804000a55eee7","A3","batch1","spm_show_trial_num","null","<p class=block-text>Trial 57 out of 60</p>","null","","","","","","","","","","","","","","","","","","","","","","","","","",""
"","","","","","image-button-response","118","806183","0.0-2.0-4.0-1.32","5e2b4e61a7f804000a55eee7","A3","batch1","spm_respsonse","21375.400000035763","img/question_5_9.jpeg","0","mat_57","3","0","0","21375.400000035763","","","","","","","","","","","","","","","","","","","","",""
"","","","","","html-keyboard-response","119","807240","0.0-2.0-4.0-0.33","5e2b4e61a7f804000a55eee7","A3","batch1","spm_show_trial_num","null","<p class=block-text>Trial 58 out of 60</p>","null","","","","","","","","","","","","","","","","","","","","","","","","","",""
"","","","","","image-button-response","120","845813","0.0-2.0-4.0-1.33","5e2b4e61a7f804000a55eee7","A3","batch1","spm_respsonse","38569.5","img/question_5_10.jpeg","4","mat_58","2","0","0","38569.5","","","","","","","","","","","","","","","","","","","","",""
"","","","","","html-keyboard-response","121","846881","0.0-2.0-4.0-0.34","5e2b4e61a7f804000a55eee7","A3","batch1","spm_show_trial_num","null","<p class=block-text>Trial 59 out of 60</p>","null","","","","","","","","","","","","","","","","","","","","","","","","","",""
"","","","","","image-button-response","122","868358","0.0-2.0-4.0-1.34","5e2b4e61a7f804000a55eee7","A3","batch1","spm_respsonse","21472.899999976158","img/question_5_11.jpeg","3","mat_59","4","1","1","21472.899999976158","","","","","","","","","","","","","","","","","","","","",""
"","","","","","html-keyboard-response","123","869423","0.0-2.0-4.0-0.35","5e2b4e61a7f804000a55eee7","A3","batch1","spm_show_trial_num","null","<p class=block-text>Trial 60 out of 60</p>","null","","","","","","","","","","","","","","","","","","","","","","","","","",""
"","","","","","image-button-response","124","884940","0.0-2.0-4.0-1.35","5e2b4e61a7f804000a55eee7","A3","batch1","spm_respsonse","15513","img/question_5_12.jpeg","3","mat_60","5","0","0","15513","","","","","","","","","","","","","","","","","","","","",""
"","","","","","html-button-response","125","888044","0.0-2.0-5.0","5e2b4e61a7f804000a55eee7","A3","batch1","spm_goodbye","2845.2000000476837","<p class= block-text>This concludes the Standard Progressive Matrix game. Thank you for your responses!<br> When you are ready, click the button continue</p>","0","","","","","","","","","","","","","","","","","","","","","","","","","",""
"true","","","","","fullscreen","126","892321","0.0-3.0-0.0","5e2b4e61a7f804000a55eee7","A3","batch1","","","","","","","","","","","","","","","","","","","","","","","","","","","","","",""
"","","","","","instructions","127","1007595","0.0-3.0-1.0-0.0","5e2b4e61a7f804000a55eee7","A3","batch1","","115271.09999996424","","","","","","","","[{""page_index"":0,""viewing_time"":25971},{""page_index"":1,""viewing_time"":89299.19999998808}]","","","","","","","","","","","","","","","","","","","",""
"","","","","","html-button-response","128","1008965","0.0-3.0-1.0-1.0-0.0","5e2b4e61a7f804000a55eee7","A3","batch1","pattern_enter_quiz","1368","<p class=block-text> Let's answer a few questions <br>","0","","","","","","","","","","","","","","","","","","","","","","","","","",""
"","","","","","html-button-response","129","1012298","0.0-3.0-1.0-1.0-1.0","5e2b4e61a7f804000a55eee7","A3","batch1","pattern_quiz","3330.300000011921","<p class = block-text>True or False: You will have as much time as you want to make each choice. <br></p>","1","","","true","","","","","","","","","","","","","","","","","","","","","","",""
"","","","","","html-button-response","130","1013941","0.0-3.0-1.0-1.0-2.0","5e2b4e61a7f804000a55eee7","A3","batch1","pattern_quiz_feedback","1640.3999999761581","<p class = block-text>Correct! You should make your choice <strong> as fast as you can</strong>.</p>","0","","","","","","","","","","","","","","","","","","","","","","","","","",""
"","","","","","html-button-response","131","1019216","0.0-3.0-1.0-1.0-3.0","5e2b4e61a7f804000a55eee7","A3","batch1","pattern_quiz","5272.799999952316","<p class = block-text>True or False: You will look for 4 pieces in black or white color connected in a row either horizontally, vertically or diagonally. <br></p>","0","","","true","","","","","","","","","","","","","","","","","","","","","","",""
"","","","","","html-button-response","132","1020224","0.0-3.0-1.0-1.0-4.0","5e2b4e61a7f804000a55eee7","A3","batch1","pattern_quiz_feedback","1006.3000000119209","<p class = block-text>Correct! </p>","0","","","","","","","","","","","","","","","","","","","","","","","","","",""
"","","","","","html-button-response","133","1022237","0.0-3.0-2.0","5e2b4e61a7f804000a55eee7","A3","batch1","pattern_enter_practice","2008.8999999761581","<p class=block-text> Now that you've understood the game, let's do a few practice trials before we start!<br> <br>","0","","","","","","","","","","","","","","","","","","","","","","","","","",""
"","","","","","image-keyboard-response","134","1024760","0.0-3.0-3.0-0.0","5e2b4e61a7f804000a55eee7","A3","batch1","pattern_practice","2518.899999976158","stim/prac_yes_20_dia_b1.png","j","","f","false","","","","","","","","","","","","","","","","","","","","","","",""
"","","","","","html-keyboard-response","135","1025777","0.0-3.0-3.0-1.0","5e2b4e61a7f804000a55eee7","A3","batch1","pattern_feedback","null","<p style=""font-size:30px;color:red;"">Wrong.</p>","null","","","","","","","","","","","","","","","","","","","","","","","","","",""
"","","","","","image-keyboard-response","136","1028582","0.0-3.0-3.0-0.1","5e2b4e61a7f804000a55eee7","A3","batch1","pattern_practice","2801.7000000476837","stim/prac_no_16_1.png","j","","j","true","","","","","","","","","","","","","","","","","","","","","","",""
"","","","","","html-keyboard-response","137","1029590","0.0-3.0-3.0-1.1","5e2b4e61a7f804000a55eee7","A3","batch1","pattern_feedback","null","<p style=""font-size:30px;color:green;"">Correct!</p>","null","","","","","","","","","","","","","","","","","","","","","","","","","",""
"","","","","","image-keyboard-response","138","1030606","0.0-3.0-3.0-0.2","5e2b4e61a7f804000a55eee7","A3","batch1","pattern_practice","1012.5999999642372","stim/prac_yes_18_hor_w1.png","f","","f","true","","","","","","","","","","","","","","","","","","","","","","",""
"","","","","","html-keyboard-response","139","1031614","0.0-3.0-3.0-1.2","5e2b4e61a7f804000a55eee7","A3","batch1","pattern_feedback","null","<p style=""font-size:30px;color:green;"">Correct!</p>","null","","","","","","","","","","","","","","","","","","","","","","","","","",""
"","","","","","image-keyboard-response","140","1033436","0.0-3.0-3.0-0.3","5e2b4e61a7f804000a55eee7","A3","batch1","pattern_practice","1819.199999988079","stim/prac_no_18_1.png","j","","j","true","","","","","","","","","","","","","","","","","","","","","","",""
"","","","","","html-keyboard-response","141","1034457","0.0-3.0-3.0-1.3","5e2b4e61a7f804000a55eee7","A3","batch1","pattern_feedback","null","<p style=""font-size:30px;color:green;"">Correct!</p>","null","","","","","","","","","","","","","","","","","","","","","","","","","",""
"","","","","","image-keyboard-response","142","1036335","0.0-3.0-3.0-0.4","5e2b4e61a7f804000a55eee7","A3","batch1","pattern_practice","1875","stim/prac_yes_16_ver_w1.png","f","","f","true","","","","","","","","","","","","","","","","","","","","","","",""
"","","","","","html-keyboard-response","143","1037353","0.0-3.0-3.0-1.4","5e2b4e61a7f804000a55eee7","A3","batch1","pattern_feedback","null","<p style=""font-size:30px;color:green;"">Correct!</p>","null","","","","","","","","","","","","","","","","","","","","","","","","","",""
"","","","","","html-button-response","144","1042446","0.0-3.0-4.0","5e2b4e61a7f804000a55eee7","A3","batch1","pattern_enter_official_trials","5089.800000011921","<p class=block-text> Good job! You are done with practice trials!<br>
        You responded correctly on 80% of the trials.<br>
        Press the button below to start official trials. Now you won't see any feedback about your response</p>","0","","","","","","","","","","","","","","","","","","","","","","","","","",""
"","","","","","html-keyboard-response","145","1043255","0.0-3.0-5.0-0.0","5e2b4e61a7f804000a55eee7","A3","batch1","pattern_show_trial_num","null","<p class=block-text>Trial 1 out of 78</p>","null","","","","","","","","","","","","","","","","","","","","","","","","","",""
"","","","","","image-keyboard-response","146","1048353","0.0-3.0-5.0-1.0","5e2b4e61a7f804000a55eee7","A3","batch1","pattern_response","5094.600000023842","stim/no_47_1_b.png","j","pattern_27","j","true","","","","5094.600000023842","true","1","","","","","","","","","","","","","","","","",""
"","","","","","html-keyboard-response","147","1049673","0.0-3.0-5.0-0.1","5e2b4e61a7f804000a55eee7","A3","batch1","pattern_show_trial_num","null","<p class=block-text>Trial 2 out of 78</p>","null","","","","","","","","","","","","","","","","","","","","","","","","","",""
"","","","","","image-keyboard-response","148","1052842","0.0-3.0-5.0-1.1","5e2b4e61a7f804000a55eee7","A3","batch1","pattern_response","3164.900000035763","stim/no_33_1_b.png","j","pattern_15","j","true","","","","3164.900000035763","true","2","","","","","","","","","","","","","","","","",""
"","","","","","html-keyboard-response","149","1054167","0.0-3.0-5.0-0.2","5e2b4e61a7f804000a55eee7","A3","batch1","pattern_show_trial_num","null","<p class=block-text>Trial 3 out of 78</p>","null","","","","","","","","","","","","","","","","","","","","","","","","","",""
"","","","","","image-keyboard-response","150","1055982","0.0-3.0-5.0-1.2","5e2b4e61a7f804000a55eee7","A3","batch1","pattern_response","1810.2999999523163","stim/yes_49_hor_w1_b.png","f","pattern_70","f","true","","","","1810.2999999523163","true","3","","","","","","","","","","","","","","","","",""
"","","","","","html-keyboard-response","151","1057295","0.0-3.0-5.0-0.3","5e2b4e61a7f804000a55eee7","A3","batch1","pattern_show_trial_num","null","<p class=block-text>Trial 4 out of 78</p>","null","","","","","","","","","","","","","","","","","","","","","","","","","",""
"","","","","","image-keyboard-response","152","1063118","0.0-3.0-5.0-1.3","5e2b4e61a7f804000a55eee7","A3","batch1","pattern_response","5819.600000023842","stim/no_39_1_w.png","j","pattern_21","j","true","","","","5819.600000023842","true","4","","","","","","","","","","","","","","","","",""
"","","","","","html-keyboard-response","153","1064433","0.0-3.0-5.0-0.4","5e2b4e61a7f804000a55eee7","A3","batch1","pattern_show_trial_num","null","<p class=block-text>Trial 5 out of 78</p>","null","","","","","","","","","","","","","","","","","","","","","","","","","",""
"","","","","","image-keyboard-response","154","1065954","0.0-3.0-5.0-1.4","5e2b4e61a7f804000a55eee7","A3","batch1","pattern_response","1517.300000011921","stim/yes_17_ver_b1_b.png","f","pattern_46","f","true","","","","1517.300000011921","true","5","","","","","","","","","","","","","","","","",""
"","","","","","html-keyboard-response","155","1067273","0.0-3.0-5.0-0.5","5e2b4e61a7f804000a55eee7","A3","batch1","pattern_show_trial_num","null","<p class=block-text>Trial 6 out of 78</p>","null","","","","","","","","","","","","","","","","","","","","","","","","","",""
"","","","","","image-keyboard-response","156","1071973","0.0-3.0-5.0-1.5","5e2b4e61a7f804000a55eee7","A3","batch1","pattern_response","4695.399999976158","stim/no_53_1_b.png","j","pattern_33","j","true","","","","4695.399999976158","true","6","","","","","","","","","","","","","","","","",""
"","","","","","html-keyboard-response","157","1073285","0.0-3.0-5.0-0.6","5e2b4e61a7f804000a55eee7","A3","batch1","pattern_show_trial_num","null","<p class=block-text>Trial 7 out of 78</p>","null","","","","","","","","","","","","","","","","","","","","","","","","","",""
"","","","","","image-keyboard-response","158","1074375","0.0-3.0-5.0-1.6","5e2b4e61a7f804000a55eee7","A3","batch1","pattern_response","1086.6000000238419","stim/yes_44_ver_w1_w.png","f","pattern_66","f","true","","","","1086.6000000238419","true","7","","","","","","","","","","","","","","","","",""
"","","","","","html-keyboard-response","159","1075685","0.0-3.0-5.0-0.7","5e2b4e61a7f804000a55eee7","A3","batch1","pattern_show_trial_num","null","<p class=block-text>Trial 8 out of 78</p>","null","","","","","","","","","","","","","","","","","","","","","","","","","",""
"","","","","","image-keyboard-response","160","1076898","0.0-3.0-5.0-1.7","5e2b4e61a7f804000a55eee7","A3","batch1","pattern_response","1209.800000011921","stim/yes_46_ver_b1_b.png","f","pattern_68","f","true","","","","1209.800000011921","true","8","","","","","","","","","","","","","","","","",""
"","","","","","html-keyboard-response","161","1078230","0.0-3.0-5.0-0.8","5e2b4e61a7f804000a55eee7","A3","batch1","pattern_show_trial_num","null","<p class=block-text>Trial 9 out of 78</p>","null","","","","","","","","","","","","","","","","","","","","","","","","","",""
"","","","","","image-keyboard-response","162","1079600","0.0-3.0-5.0-1.8","5e2b4e61a7f804000a55eee7","A3","batch1","pattern_response","1366.800000011921","stim/yes_23_ver_b1.png","f","pattern_48","f","true","","","","1366.800000011921","true","9","","","","","","","","","","","","","","","","",""
"","","","","","html-keyboard-response","163","1080913","0.0-3.0-5.0-0.9","5e2b4e61a7f804000a55eee7","A3","batch1","pattern_show_trial_num","null","<p class=block-text>Trial 10 out of 78</p>","null","","","","","","","","","","","","","","","","","","","","","","","","","",""
"","","","","","image-keyboard-response","164","1084862","0.0-3.0-5.0-1.9","5e2b4e61a7f804000a55eee7","A3","batch1","pattern_response","3945.5","stim/no_58_1_w.png","j","pattern_35","j","true","","","","3945.5","true","10","","","","","","","","","","","","","","","","",""
"","","","","","html-keyboard-response","165","1086176","0.0-3.0-5.0-0.10","5e2b4e61a7f804000a55eee7","A3","batch1","pattern_show_trial_num","null","<p class=block-text>Trial 11 out of 78</p>","null","","","","","","","","","","","","","","","","","","","","","","","","","",""
"","","","","","image-keyboard-response","166","1087741","0.0-3.0-5.0-1.10","5e2b4e61a7f804000a55eee7","A3","batch1","pattern_response","1562.3999999761581","stim/no_37_2_w.png","j","pattern_19","j","true","","","","1562.3999999761581","true","11","","","","","","","","","","","","","","","","",""
"","","","","","html-keyboard-response","167","1089057","0.0-3.0-5.0-0.11","5e2b4e61a7f804000a55eee7","A3","batch1","pattern_show_trial_num","null","<p class=block-text>Trial 12 out of 78</p>","null","","","","","","","","","","","","","","","","","","","","","","","","","",""
"","","","","","image-keyboard-response","168","1089948","0.0-3.0-5.0-1.11","5e2b4e61a7f804000a55eee7","A3","batch1","pattern_response","887.8999999761581","stim/yes_37_hor_w1_w.png","f","pattern_60","f","true","","","","887.8999999761581","true","12","","","","","","","","","","","","","","","","",""
"","","","","","html-keyboard-response","169","1091261","0.0-3.0-5.0-0.12","5e2b4e61a7f804000a55eee7","A3","batch1","pattern_show_trial_num","null","<p class=block-text>Trial 13 out of 78</p>","null","","","","","","","","","","","","","","","","","","","","","","","","","",""
"","","","","","image-keyboard-response","170","1092913","0.0-3.0-5.0-1.12","5e2b4e61a7f804000a55eee7","A3","batch1","pattern_response","1649.5","stim/no_30_1_b.png","j","pattern_13","j","true","","","","1649.5","true","13","","","","","","","","","","","","","","","","",""
"","","","","","html-keyboard-response","171","1094231","0.0-3.0-5.0-0.13","5e2b4e61a7f804000a55eee7","A3","batch1","pattern_show_trial_num","null","<p class=block-text>Trial 14 out of 78</p>","null","","","","","","","","","","","","","","","","","","","","","","","","","",""
"","","","","","image-keyboard-response","172","1095306","0.0-3.0-5.0-1.13","5e2b4e61a7f804000a55eee7","A3","batch1","pattern_response","1072.1000000238419","stim/no_12_1.png","j","pattern_01","j","true","","","","1072.1000000238419","true","14","","","","","","","","","","","","","","","","",""
"","","","","","html-keyboard-response","173","1096621","0.0-3.0-5.0-0.14","5e2b4e61a7f804000a55eee7","A3","batch1","pattern_show_trial_num","null","<p class=block-text>Trial 15 out of 78</p>","null","","","","","","","","","","","","","","","","","","","","","","","","","",""
"","","","","","image-keyboard-response","174","1099903","0.0-3.0-5.0-1.14","5e2b4e61a7f804000a55eee7","A3","batch1","pattern_response","3278","stim/yes_42_dia_w1_w.png","j","pattern_64","f","false","","","","3278","false","14","","","","","","","","","","","","","","","","",""
"","","","","","html-keyboard-response","175","1101238","0.0-3.0-5.0-0.15","5e2b4e61a7f804000a55eee7","A3","batch1","pattern_show_trial_num","null","<p class=block-text>Trial 16 out of 78</p>","null","","","","","","","","","","","","","","","","","","","","","","","","","",""
"","","","","","image-keyboard-response","176","1102491","0.0-3.0-5.0-1.15","5e2b4e61a7f804000a55eee7","A3","batch1","pattern_response","1249.800000011921","stim/yes_53_ver_b1_b.png","f","pattern_74","f","true","","","","1249.800000011921","true","15","","","","","","","","","","","","","","","","",""
"","","","","","html-keyboard-response","177","1103807","0.0-3.0-5.0-0.16","5e2b4e61a7f804000a55eee7","A3","batch1","pattern_show_trial_num","null","<p class=block-text>Trial 17 out of 78</p>","null","","","","","","","","","","","","","","","","","","","","","","","","","",""
"","","","","","image-keyboard-response","178","1104602","0.0-3.0-5.0-1.16","5e2b4e61a7f804000a55eee7","A3","batch1","pattern_response","791","stim/yes_39_hor_w1_w.png","f","pattern_62","f","true","","","","791","true","16","","","","","","","","","","","","","","","","",""
"","","","","","html-keyboard-response","179","1105921","0.0-3.0-5.0-0.17","5e2b4e61a7f804000a55eee7","A3","batch1","pattern_show_trial_num","null","<p class=block-text>Trial 18 out of 78</p>","null","","","","","","","","","","","","","","","","","","","","","","","","","",""
"","","","","","image-keyboard-response","180","1107743","0.0-3.0-5.0-1.17","5e2b4e61a7f804000a55eee7","A3","batch1","pattern_response","1818.3999999761581","stim/no_25_1_b.png","j","pattern_09","j","true","","","","1818.3999999761581","true","17","","","","","","","","","","","","","","","","",""
"","","","","","html-keyboard-response","181","1109057","0.0-3.0-5.0-0.18","5e2b4e61a7f804000a55eee7","A3","batch1","pattern_show_trial_num","null","<p class=block-text>Trial 19 out of 78</p>","null","","","","","","","","","","","","","","","","","","","","","","","","","",""
"","","","","","image-keyboard-response","182","1117063","0.0-3.0-5.0-1.18","5e2b4e61a7f804000a55eee7","A3","batch1","pattern_response","8004.199999988079","stim/no_67_1.png","j","pattern_39","j","true","","","","8004.199999988079","true","18","","","","","","","","","","","","","","","","",""
"","","","","","html-keyboard-response","183","1118374","0.0-3.0-5.0-0.19","5e2b4e61a7f804000a55eee7","A3","batch1","pattern_show_trial_num","null","<p class=block-text>Trial 20 out of 78</p>","null","","","","","","","","","","","","","","","","","","","","","","","","","",""
"","","","","","image-keyboard-response","184","1119676","0.0-3.0-5.0-1.19","5e2b4e61a7f804000a55eee7","A3","batch1","pattern_response","1297.9000000357628","stim/no_43_2_b.png","j","pattern_23","j","true","","","","1297.9000000357628","true","19","","","","","","","","","","","","","","","","",""
"","","","","","html-keyboard-response","185","1120993","0.0-3.0-5.0-0.20","5e2b4e61a7f804000a55eee7","A3","batch1","pattern_show_trial_num","null","<p class=block-text>Trial 21 out of 78</p>","null","","","","","","","","","","","","","","","","","","","","","","","","","",""
"","","","","","image-keyboard-response","186","1121739","0.0-3.0-5.0-1.20","5e2b4e61a7f804000a55eee7","A3","batch1","pattern_response","742.4000000357628","stim/yes_12_hor_w1_w.png","f","pattern_42","f","true","","","","742.4000000357628","true","20","","","","","","","","","","","","","","","","",""
"","","","","","html-keyboard-response","187","1123079","0.0-3.0-5.0-0.21","5e2b4e61a7f804000a55eee7","A3","batch1","pattern_show_trial_num","null","<p class=block-text>Trial 22 out of 78</p>","null","","","","","","","","","","","","","","","","","","","","","","","","","",""
"","","","","","image-keyboard-response","188","1123684","0.0-3.0-5.0-1.21","5e2b4e61a7f804000a55eee7","A3","batch1","pattern_response","601.4000000357628","stim/yes_29_hor_b1_b.png","f","pattern_52","f","true","","","","601.4000000357628","true","21","","","","","","","","","","","","","","","","",""
"","","","","","html-keyboard-response","189","1125001","0.0-3.0-5.0-0.22","5e2b4e61a7f804000a55eee7","A3","batch1","pattern_show_trial_num","null","<p class=block-text>Trial 23 out of 78</p>","null","","","","","","","","","","","","","","","","","","","","","","","","","",""
"","","","","","image-keyboard-response","190","1127651","0.0-3.0-5.0-1.22","5e2b4e61a7f804000a55eee7","A3","batch1","pattern_response","2646.400000035763","stim/yes_30_ver_b1_b.png","f","pattern_54","f","true","","","","2646.400000035763","true","22","","","","","","","","","","","","","","","","",""
"","","","","","html-keyboard-response","191","1128993","0.0-3.0-5.0-0.23","5e2b4e61a7f804000a55eee7","A3","batch1","pattern_show_trial_num","null","<p class=block-text>Trial 24 out of 78</p>","null","","","","","","","","","","","","","","","","","","","","","","","","","",""
"","","","","","image-keyboard-response","192","1130151","0.0-3.0-5.0-1.23","5e2b4e61a7f804000a55eee7","A3","batch1","pattern_response","1154.199999988079","stim/yes_15_dia_b1u_b.png","f","pattern_44","f","true","","","","1154.199999988079","true","23","","","","","","","","","","","","","","","","",""
"","","","","","html-keyboard-response","193","1131465","0.0-3.0-5.0-0.24","5e2b4e61a7f804000a55eee7","A3","batch1","pattern_show_trial_num","null","<p class=block-text>Trial 25 out of 78</p>","null","","","","","","","","","","","","","","","","","","","","","","","","","",""
"","","","","","image-keyboard-response","194","1133196","0.0-3.0-5.0-1.24","5e2b4e61a7f804000a55eee7","A3","batch1","pattern_response","1727.699999988079","stim/no_18_1_b.png","j","pattern_05","j","true","","","","1727.699999988079","true","24","","","","","","","","","","","","","","","","",""
"","","","","","html-keyboard-response","195","1134513","0.0-3.0-5.0-0.25","5e2b4e61a7f804000a55eee7","A3","batch1","pattern_show_trial_num","null","<p class=block-text>Trial 26 out of 78</p>","null","","","","","","","","","","","","","","","","","","","","","","","","","",""
"","","","","","image-keyboard-response","196","1135835","0.0-3.0-5.0-1.25","5e2b4e61a7f804000a55eee7","A3","batch1","pattern_response","1318.800000011921","stim/no_15_1_w.png","j","pattern_03","j","true","","","","1318.800000011921","true","25","","","","","","","","","","","","","","","","",""
"","","","","","html-keyboard-response","197","1137150","0.0-3.0-5.0-0.26","5e2b4e61a7f804000a55eee7","A3","batch1","pattern_show_trial_num","null","<p class=block-text>Trial 27 out of 78</p>","null","","","","","","","","","","","","","","","","","","","","","","","","","",""
"","","","","","image-keyboard-response","198","1142333","0.0-3.0-5.0-1.26","5e2b4e61a7f804000a55eee7","A3","batch1","pattern_response","5180.800000011921","stim/yes_58_dia_w1_w.png","f","pattern_76","f","true","","","","5180.800000011921","true","26","","","","","","","","","","","","","","","","",""
"","","","","","html-keyboard-response","199","1143649","0.0-3.0-5.0-0.27","5e2b4e61a7f804000a55eee7","A3","batch1","pattern_show_trial_num","null","<p class=block-text>Trial 28 out of 78</p>","null","","","","","","","","","","","","","","","","","","","","","","","","","",""
"","","","","","image-keyboard-response","200","1147649","0.0-3.0-5.0-1.27","5e2b4e61a7f804000a55eee7","A3","batch1","pattern_response","3995.900000035763","stim/yes_51_dia_b1.png","f","pattern_72","f","true","","","","3995.900000035763","true","27","","","","","","","","","","","","","","","","",""
"","","","","","html-keyboard-response","201","1148967","0.0-3.0-5.0-0.28","5e2b4e61a7f804000a55eee7","A3","batch1","pattern_show_trial_num","null","<p class=block-text>Trial 29 out of 78</p>","null","","","","","","","","","","","","","","","","","","","","","","","","","",""
"","","","","","image-keyboard-response","202","1150124","0.0-3.0-5.0-1.28","5e2b4e61a7f804000a55eee7","A3","batch1","pattern_response","1153.2000000476837","stim/yes_33_dia_w1_w.png","f","pattern_56","f","true","","","","1153.2000000476837","true","28","","","","","","","","","","","","","","","","",""
"","","","","","html-keyboard-response","203","1151437","0.0-3.0-5.0-0.29","5e2b4e61a7f804000a55eee7","A3","batch1","pattern_show_trial_num","null","<p class=block-text>Trial 30 out of 78</p>","null","","","","","","","","","","","","","","","","","","","","","","","","","",""
"","","","","","image-keyboard-response","204","1160442","0.0-3.0-5.0-1.29","5e2b4e61a7f804000a55eee7","A3","batch1","pattern_response","9002.399999976158","stim/yes_63_dia_b1.png","j","pattern_78","f","false","","","","9002.399999976158","false","28","","","","","","","","","","","","","","","","",""
"","","","","","html-keyboard-response","205","1161760","0.0-3.0-5.0-0.30","5e2b4e61a7f804000a55eee7","A3","batch1","pattern_show_trial_num","null","<p class=block-text>Trial 31 out of 78</p>","null","","","","","","","","","","","","","","","","","","","","","","","","","",""
"","","","","","image-keyboard-response","206","1164603","0.0-3.0-5.0-1.30","5e2b4e61a7f804000a55eee7","A3","batch1","pattern_response","2840.099999964237","stim/no_45_1_w.png","j","pattern_25","j","true","","","","2840.099999964237","true","29","","","","","","","","","","","","","","","","",""
"","","","","","html-keyboard-response","207","1165953","0.0-3.0-5.0-0.31","5e2b4e61a7f804000a55eee7","A3","batch1","pattern_show_trial_num","null","<p class=block-text>Trial 32 out of 78</p>","null","","","","","","","","","","","","","","","","","","","","","","","","","",""
"","","","","","image-keyboard-response","208","1167245","0.0-3.0-5.0-1.31","5e2b4e61a7f804000a55eee7","A3","batch1","pattern_response","1288.699999988079","stim/yes_26_dia_w2_w.png","f","pattern_50","f","true","","","","1288.699999988079","true","30","","","","","","","","","","","","","","","","",""
"","","","","","html-keyboard-response","209","1168561","0.0-3.0-5.0-0.32","5e2b4e61a7f804000a55eee7","A3","batch1","pattern_show_trial_num","null","<p class=block-text>Trial 33 out of 78</p>","null","","","","","","","","","","","","","","","","","","","","","","","","","",""
"","","","","","image-keyboard-response","210","1173172","0.0-3.0-5.0-1.32","5e2b4e61a7f804000a55eee7","A3","batch1","pattern_response","4607.299999952316","stim/no_36_1_b.png","j","pattern_17","j","true","","","","4607.299999952316","true","31","","","","","","","","","","","","","","","","",""
"","","","","","html-keyboard-response","211","1174489","0.0-3.0-5.0-0.33","5e2b4e61a7f804000a55eee7","A3","batch1","pattern_show_trial_num","null","<p class=block-text>Trial 34 out of 78</p>","null","","","","","","","","","","","","","","","","","","","","","","","","","",""
"","","","","","image-keyboard-response","212","1175907","0.0-3.0-5.0-1.33","5e2b4e61a7f804000a55eee7","A3","batch1","pattern_response","1415","stim/no_22_1_b.png","j","pattern_07","j","true","","","","1415","true","32","","","","","","","","","","","","","","","","",""
"","","","","","html-keyboard-response","213","1177225","0.0-3.0-5.0-0.34","5e2b4e61a7f804000a55eee7","A3","batch1","pattern_show_trial_num","null","<p class=block-text>Trial 35 out of 78</p>","null","","","","","","","","","","","","","","","","","","","","","","","","","",""
"","","","","","image-keyboard-response","214","1178670","0.0-3.0-5.0-1.34","5e2b4e61a7f804000a55eee7","A3","batch1","pattern_response","1441.3999999761581","stim/yes_70_ver_b1.png","f","pattern_80","f","true","","","","1441.3999999761581","true","33","","","","","","","","","","","","","","","","",""
"","","","","","html-keyboard-response","215","1179985","0.0-3.0-5.0-0.35","5e2b4e61a7f804000a55eee7","A3","batch1","pattern_show_trial_num","null","<p class=block-text>Trial 36 out of 78</p>","null","","","","","","","","","","","","","","","","","","","","","","","","","",""
"","","","","","image-keyboard-response","216","1185225","0.0-3.0-5.0-1.35","5e2b4e61a7f804000a55eee7","A3","batch1","pattern_response","5237.199999988079","stim/no_51_1.png","j","pattern_31","j","true","","","","5237.199999988079","true","34","","","","","","","","","","","","","","","","",""
"","","","","","html-keyboard-response","217","1186542","0.0-3.0-5.0-0.36","5e2b4e61a7f804000a55eee7","A3","batch1","pattern_show_trial_num","null","<p class=block-text>Trial 37 out of 78</p>","null","","","","","","","","","","","","","","","","","","","","","","","","","",""
"","","","","","image-keyboard-response","218","1187726","0.0-3.0-5.0-1.36","5e2b4e61a7f804000a55eee7","A3","batch1","pattern_response","1180.8999999761581","stim/yes_36_ver_w1_w.png","f","pattern_58","f","true","","","","1180.8999999761581","true","35","","","","","","","","","","","","","","","","",""
"","","","","","html-keyboard-response","219","1189041","0.0-3.0-5.0-0.37","5e2b4e61a7f804000a55eee7","A3","batch1","pattern_show_trial_num","null","<p class=block-text>Trial 38 out of 78</p>","null","","","","","","","","","","","","","","","","","","","","","","","","","",""
"","","","","","image-keyboard-response","220","1192296","0.0-3.0-5.0-1.37","5e2b4e61a7f804000a55eee7","A3","batch1","pattern_response","3251.300000011921","stim/no_28_2.png","j","pattern_11","j","true","","","","3251.300000011921","true","36","","","","","","","","","","","","","","","","",""
"","","","","","html-keyboard-response","221","1193605","0.0-3.0-5.0-0.38","5e2b4e61a7f804000a55eee7","A3","batch1","pattern_show_trial_num","null","<p class=block-text>Trial 39 out of 78</p>","null","","","","","","","","","","","","","","","","","","","","","","","","","",""
"","","","","","image-keyboard-response","222","1196383","0.0-3.0-5.0-1.38","5e2b4e61a7f804000a55eee7","A3","batch1","pattern_response","2774.199999988079","stim/no_49_2_b.png","j","pattern_29","j","true","","","","2774.199999988079","true","37","","","","","","","","","","","","","","","","",""
"","","","","","image-keyboard-response","223","1198804","0.0-3.0-6.0","5e2b4e61a7f804000a55eee7","A3","batch1","attention_check","1912.5","stim/empty_board.png","j","","j","true","","","","","","","500","[""f"",""j""]","","","","","","","","","","","","","","",""
"","","","","","html-keyboard-response","224","1199616","0.0-3.0-7.0-0.0","5e2b4e61a7f804000a55eee7","A3","batch1","pattern_show_trial_num","null","<p class=block-text>Trial 40 out of 78</p>","null","","","","","","","","","","","","","","","","","","","","","","","","","",""
"","","","","","image-keyboard-response","225","1203614","0.0-3.0-7.0-1.0","5e2b4e61a7f804000a55eee7","A3","batch1","pattern_response","3993.800000011921","stim/yes_22_ver_w1.png","f","pattern_47","f","true","","","","3993.800000011921","true","38","","","","","","","","","","","","","","","","",""
"","","","","","html-keyboard-response","226","1204950","0.0-3.0-7.0-0.1","5e2b4e61a7f804000a55eee7","A3","batch1","pattern_show_trial_num","null","<p class=block-text>Trial 41 out of 78</p>","null","","","","","","","","","","","","","","","","","","","","","","","","","",""
"","","","","","image-keyboard-response","227","1205919","0.0-3.0-7.0-1.1","5e2b4e61a7f804000a55eee7","A3","batch1","pattern_response","965.5","stim/yes_25_hor_b1_b.png","f","pattern_49","f","true","","","","965.5","true","39","","","","","","","","","","","","","","","","",""
"","","","","","html-keyboard-response","228","1207233","0.0-3.0-7.0-0.2","5e2b4e61a7f804000a55eee7","A3","batch1","pattern_show_trial_num","null","<p class=block-text>Trial 42 out of 78</p>","null","","","","","","","","","","","","","","","","","","","","","","","","","",""
"","","","","","image-keyboard-response","229","1209705","0.0-3.0-7.0-1.2","5e2b4e61a7f804000a55eee7","A3","batch1","pattern_response","2467.5","stim/no_44_1.png","j","pattern_24","j","true","","","","2467.5","true","40","","","","","","","","","","","","","","","","",""
"","","","","","html-keyboard-response","230","1211039","0.0-3.0-7.0-0.3","5e2b4e61a7f804000a55eee7","A3","batch1","pattern_show_trial_num","null","<p class=block-text>Trial 43 out of 78</p>","null","","","","","","","","","","","","","","","","","","","","","","","","","",""
"","","","","","image-keyboard-response","231","1214357","0.0-3.0-7.0-1.3","5e2b4e61a7f804000a55eee7","A3","batch1","pattern_response","3314.7999999523163","stim/no_36_2_w.png","j","pattern_18","j","true","","","","3314.7999999523163","true","41","","","","","","","","","","","","","","","","",""
"","","","","","html-keyboard-response","232","1215669","0.0-3.0-7.0-0.4","5e2b4e61a7f804000a55eee7","A3","batch1","pattern_show_trial_num","null","<p class=block-text>Trial 44 out of 78</p>","null","","","","","","","","","","","","","","","","","","","","","","","","","",""
"","","","","","image-keyboard-response","233","1216992","0.0-3.0-7.0-1.4","5e2b4e61a7f804000a55eee7","A3","batch1","pattern_response","1319.4000000357628","stim/yes_43_ver_w1_w.png","f","pattern_65","f","true","","","","1319.4000000357628","true","42","","","","","","","","","","","","","","","","",""
"","","","","","html-keyboard-response","234","1218306","0.0-3.0-7.0-0.5","5e2b4e61a7f804000a55eee7","A3","batch1","pattern_show_trial_num","null","<p class=block-text>Trial 45 out of 78</p>","null","","","","","","","","","","","","","","","","","","","","","","","","","",""
"","","","","","image-keyboard-response","235","1219351","0.0-3.0-7.0-1.5","5e2b4e61a7f804000a55eee7","A3","batch1","pattern_response","1041.7000000476837","stim/yes_28_ver_b1.png","f","pattern_51","f","true","","","","1041.7000000476837","true","43","","","","","","","","","","","","","","","","",""
"","","","","","html-keyboard-response","236","1220664","0.0-3.0-7.0-0.6","5e2b4e61a7f804000a55eee7","A3","batch1","pattern_show_trial_num","null","<p class=block-text>Trial 46 out of 78</p>","null","","","","","","","","","","","","","","","","","","","","","","","","","",""
"","","","","","image-keyboard-response","237","1224251","0.0-3.0-7.0-1.6","5e2b4e61a7f804000a55eee7","A3","batch1","pattern_response","3583.699999988079","stim/no_55_1_w.png","j","pattern_34","j","true","","","","3583.699999988079","true","44","","","","","","","","","","","","","","","","",""
"","","","","","html-keyboard-response","238","1225589","0.0-3.0-7.0-0.7","5e2b4e61a7f804000a55eee7","A3","batch1","pattern_show_trial_num","null","<p class=block-text>Trial 47 out of 78</p>","null","","","","","","","","","","","","","","","","","","","","","","","","","",""
"","","","","","image-keyboard-response","239","1227415","0.0-3.0-7.0-1.7","5e2b4e61a7f804000a55eee7","A3","batch1","pattern_response","1821.5","stim/no_32_1_w.png","j","pattern_14","j","true","","","","1821.5","true","45","","","","","","","","","","","","","","","","",""
"","","","","","html-keyboard-response","240","1228725","0.0-3.0-7.0-0.8","5e2b4e61a7f804000a55eee7","A3","batch1","pattern_show_trial_num","null","<p class=block-text>Trial 48 out of 78</p>","null","","","","","","","","","","","","","","","","","","","","","","","","","",""
"","","","","","image-keyboard-response","241","1229764","0.0-3.0-7.0-1.8","5e2b4e61a7f804000a55eee7","A3","batch1","pattern_response","1027.699999988079","stim/no_20_1_w.png","j","pattern_06","j","true","","","","1027.699999988079","true","46","","","","","","","","","","","","","","","","",""
"","","","","","html-keyboard-response","242","1231082","0.0-3.0-7.0-0.9","5e2b4e61a7f804000a55eee7","A3","batch1","pattern_show_trial_num","null","<p class=block-text>Trial 49 out of 78</p>","null","","","","","","","","","","","","","","","","","","","","","","","","","",""
"","","","","","image-keyboard-response","243","1232592","0.0-3.0-7.0-1.9","5e2b4e61a7f804000a55eee7","A3","batch1","pattern_response","1506.9000000357628","stim/no_48_1_w.png","j","pattern_28","j","true","","","","1506.9000000357628","true","47","","","","","","","","","","","","","","","","",""
"","","","","","html-keyboard-response","244","1233904","0.0-3.0-7.0-0.10","5e2b4e61a7f804000a55eee7","A3","batch1","pattern_show_trial_num","null","<p class=block-text>Trial 50 out of 78</p>","null","","","","","","","","","","","","","","","","","","","","","","","","","",""
"","","","","","image-keyboard-response","245","1235258","0.0-3.0-7.0-1.10","5e2b4e61a7f804000a55eee7","A3","batch1","pattern_response","1350.199999988079","stim/yes_52_ver_w1.png","f","pattern_73","f","true","","","","1350.199999988079","true","48","","","","","","","","","","","","","","","","",""
"","","","","","html-keyboard-response","246","1236577","0.0-3.0-7.0-0.11","5e2b4e61a7f804000a55eee7","A3","batch1","pattern_show_trial_num","null","<p class=block-text>Trial 51 out of 78</p>","null","","","","","","","","","","","","","","","","","","","","","","","","","",""
"","","","","","image-keyboard-response","247","1238045","0.0-3.0-7.0-1.11","5e2b4e61a7f804000a55eee7","A3","batch1","pattern_response","1464.5999999642372","stim/yes_55_hor_w1_w.png","f","pattern_75","f","true","","","","1464.5999999642372","true","49","","","","","","","","","","","","","","","","",""
"","","","","","html-keyboard-response","248","1239361","0.0-3.0-7.0-0.12","5e2b4e61a7f804000a55eee7","A3","batch1","pattern_show_trial_num","null","<p class=block-text>Trial 52 out of 78</p>","null","","","","","","","","","","","","","","","","","","","","","","","","","",""
"","","","","","image-keyboard-response","249","1240189","0.0-3.0-7.0-1.12","5e2b4e61a7f804000a55eee7","A3","batch1","pattern_response","823.3999999761581","stim/yes_17_dia_w1.png","f","pattern_45","f","true","","","","823.3999999761581","true","50","","","","","","","","","","","","","","","","",""
"","","","","","html-keyboard-response","250","1241506","0.0-3.0-7.0-0.13","5e2b4e61a7f804000a55eee7","A3","batch1","pattern_show_trial_num","null","<p class=block-text>Trial 53 out of 78</p>","null","","","","","","","","","","","","","","","","","","","","","","","","","",""
"","","","","","image-keyboard-response","251","1243049","0.0-3.0-7.0-1.13","5e2b4e61a7f804000a55eee7","A3","batch1","pattern_response","1540.5","stim/no_26_1_w.png","j","pattern_10","j","true","","","","1540.5","true","51","","","","","","","","","","","","","","","","",""
"","","","","","html-keyboard-response","252","1244367","0.0-3.0-7.0-0.14","5e2b4e61a7f804000a55eee7","A3","batch1","pattern_show_trial_num","null","<p class=block-text>Trial 54 out of 78</p>","null","","","","","","","","","","","","","","","","","","","","","","","","","",""
"","","","","","image-keyboard-response","253","1245545","0.0-3.0-7.0-1.14","5e2b4e61a7f804000a55eee7","A3","batch1","pattern_response","1174.699999988079","stim/no_17_1_w.png","j","pattern_04","j","true","","","","1174.699999988079","true","52","","","","","","","","","","","","","","","","",""
"","","","","","html-keyboard-response","254","1246866","0.0-3.0-7.0-0.15","5e2b4e61a7f804000a55eee7","A3","batch1","pattern_show_trial_num","null","<p class=block-text>Trial 55 out of 78</p>","null","","","","","","","","","","","","","","","","","","","","","","","","","",""
"","","","","","image-keyboard-response","255","1247791","0.0-3.0-7.0-1.15","5e2b4e61a7f804000a55eee7","A3","batch1","pattern_response","921.8000000119209","stim/yes_14_hor_b1_w.png","f","pattern_43","f","true","","","","921.8000000119209","true","53","","","","","","","","","","","","","","","","",""
"","","","","","html-keyboard-response","256","1249114","0.0-3.0-7.0-0.16","5e2b4e61a7f804000a55eee7","A3","batch1","pattern_show_trial_num","null","<p class=block-text>Trial 56 out of 78</p>","null","","","","","","","","","","","","","","","","","","","","","","","","","",""
"","","","","","image-keyboard-response","257","1253063","0.0-3.0-7.0-1.16","5e2b4e61a7f804000a55eee7","A3","batch1","pattern_response","3946.600000023842","stim/no_46_1_b.png","j","pattern_26","j","true","","","","3946.600000023842","true","54","","","","","","","","","","","","","","","","",""
"","","","","","html-keyboard-response","258","1254378","0.0-3.0-7.0-0.17","5e2b4e61a7f804000a55eee7","A3","batch1","pattern_show_trial_num","null","<p class=block-text>Trial 57 out of 78</p>","null","","","","","","","","","","","","","","","","","","","","","","","","","",""
"","","","","","image-keyboard-response","259","1255708","0.0-3.0-7.0-1.17","5e2b4e61a7f804000a55eee7","A3","batch1","pattern_response","1327.0999999642372","stim/yes_60_ver_b1_b.png","f","pattern_77","f","true","","","","1327.0999999642372","true","55","","","","","","","","","","","","","","","","",""
"","","","","","html-keyboard-response","260","1257024","0.0-3.0-7.0-0.18","5e2b4e61a7f804000a55eee7","A3","batch1","pattern_show_trial_num","null","<p class=block-text>Trial 58 out of 78</p>","null","","","","","","","","","","","","","","","","","","","","","","","","","",""
"","","","","","image-keyboard-response","261","1266499","0.0-3.0-7.0-1.18","5e2b4e61a7f804000a55eee7","A3","batch1","pattern_response","9472","stim/no_65_1_b.png","j","pattern_38","j","true","","","","9472","true","56","","","","","","","","","","","","","","","","",""
"","","","","","html-keyboard-response","262","1267815","0.0-3.0-7.0-0.19","5e2b4e61a7f804000a55eee7","A3","batch1","pattern_show_trial_num","null","<p class=block-text>Trial 59 out of 78</p>","null","","","","","","","","","","","","","","","","","","","","","","","","","",""
"","","","","","image-keyboard-response","263","1270976","0.0-3.0-7.0-1.19","5e2b4e61a7f804000a55eee7","A3","batch1","pattern_response","3158","stim/no_42_1_w.png","j","pattern_22","j","true","","","","3158","true","57","","","","","","","","","","","","","","","","",""
"","","","","","html-keyboard-response","264","1272301","0.0-3.0-7.0-0.20","5e2b4e61a7f804000a55eee7","A3","batch1","pattern_show_trial_num","null","<p class=block-text>Trial 60 out of 78</p>","null","","","","","","","","","","","","","","","","","","","","","","","","","",""
"","","","","","image-keyboard-response","265","1277826","0.0-3.0-7.0-1.20","5e2b4e61a7f804000a55eee7","A3","batch1","pattern_response","5521","stim/no_70_2.png","j","pattern_40","j","true","","","","5521","true","58","","","","","","","","","","","","","","","","",""
"","","","","","html-keyboard-response","266","1279144","0.0-3.0-7.0-0.21","5e2b4e61a7f804000a55eee7","A3","batch1","pattern_show_trial_num","null","<p class=block-text>Trial 61 out of 78</p>","null","","","","","","","","","","","","","","","","","","","","","","","","","",""
"","","","","","image-keyboard-response","267","1280290","0.0-3.0-7.0-1.21","5e2b4e61a7f804000a55eee7","A3","batch1","pattern_response","1141.8999999761581","stim/no_29_1_b.png","j","pattern_12","j","true","","","","1141.8999999761581","true","59","","","","","","","","","","","","","","","","",""
"","","","","","html-keyboard-response","268","1281610","0.0-3.0-7.0-0.22","5e2b4e61a7f804000a55eee7","A3","batch1","pattern_show_trial_num","null","<p class=block-text>Trial 62 out of 78</p>","null","","","","","","","","","","","","","","","","","","","","","","","","","",""
"","","","","","image-keyboard-response","269","1284001","0.0-3.0-7.0-1.22","5e2b4e61a7f804000a55eee7","A3","batch1","pattern_response","2387.600000023842","stim/yes_31_hor_b1.png","f","pattern_55","f","true","","","","2387.600000023842","true","60","","","","","","","","","","","","","","","","",""
"","","","","","html-keyboard-response","270","1285312","0.0-3.0-7.0-0.23","5e2b4e61a7f804000a55eee7","A3","batch1","pattern_show_trial_num","null","<p class=block-text>Trial 63 out of 78</p>","null","","","","","","","","","","","","","","","","","","","","","","","","","",""
"","","","","","image-keyboard-response","271","1287229","0.0-3.0-7.0-1.23","5e2b4e61a7f804000a55eee7","A3","batch1","pattern_response","1912.800000011921","stim/no_23_1.png","j","pattern_08","j","true","","","","1912.800000011921","true","61","","","","","","","","","","","","","","","","",""
"","","","","","html-keyboard-response","272","1288546","0.0-3.0-7.0-0.24","5e2b4e61a7f804000a55eee7","A3","batch1","pattern_show_trial_num","null","<p class=block-text>Trial 64 out of 78</p>","null","","","","","","","","","","","","","","","","","","","","","","","","","",""
"","","","","","image-keyboard-response","273","1289981","0.0-3.0-7.0-1.24","5e2b4e61a7f804000a55eee7","A3","batch1","pattern_response","1432","stim/yes_37_dia_w1.png","j","pattern_59","f","false","","","","1432","false","61","","","","","","","","","","","","","","","","",""
"","","","","","html-keyboard-response","274","1291298","0.0-3.0-7.0-0.25","5e2b4e61a7f804000a55eee7","A3","batch1","pattern_show_trial_num","null","<p class=block-text>Trial 65 out of 78</p>","null","","","","","","","","","","","","","","","","","","","","","","","","","",""
"","","","","","image-keyboard-response","275","1292329","0.0-3.0-7.0-1.25","5e2b4e61a7f804000a55eee7","A3","batch1","pattern_response","1027.800000011921","stim/no_13_2_b.png","j","pattern_02","j","true","","","","1027.800000011921","true","62","","","","","","","","","","","","","","","","",""
"","","","","","html-keyboard-response","276","1293649","0.0-3.0-7.0-0.26","5e2b4e61a7f804000a55eee7","A3","batch1","pattern_show_trial_num","null","<p class=block-text>Trial 66 out of 78</p>","null","","","","","","","","","","","","","","","","","","","","","","","","","",""
"","","","","","image-keyboard-response","277","1297107","0.0-3.0-7.0-1.26","5e2b4e61a7f804000a55eee7","A3","batch1","pattern_response","3455.5","stim/yes_38_hor_b1_b.png","f","pattern_61","f","true","","","","3455.5","true","63","","","","","","","","","","","","","","","","",""
"","","","","","html-keyboard-response","278","1298426","0.0-3.0-7.0-0.27","5e2b4e61a7f804000a55eee7","A3","batch1","pattern_show_trial_num","null","<p class=block-text>Trial 67 out of 78</p>","null","","","","","","","","","","","","","","","","","","","","","","","","","",""
"","","","","","image-keyboard-response","279","1299825","0.0-3.0-7.0-1.27","5e2b4e61a7f804000a55eee7","A3","batch1","pattern_response","1395.800000011921","stim/yes_29_ver_w1.png","f","pattern_53","f","true","","","","1395.800000011921","true","64","","","","","","","","","","","","","","","","",""
"","","","","","html-keyboard-response","280","1301146","0.0-3.0-7.0-0.28","5e2b4e61a7f804000a55eee7","A3","batch1","pattern_show_trial_num","null","<p class=block-text>Trial 68 out of 78</p>","null","","","","","","","","","","","","","","","","","","","","","","","","","",""
"","","","","","image-keyboard-response","281","1307552","0.0-3.0-7.0-1.28","5e2b4e61a7f804000a55eee7","A3","batch1","pattern_response","6403.100000023842","stim/no_52_1.png","j","pattern_32","j","true","","","","6403.100000023842","true","65","","","","","","","","","","","","","","","","",""
"","","","","","html-keyboard-response","282","1308866","0.0-3.0-7.0-0.29","5e2b4e61a7f804000a55eee7","A3","batch1","pattern_show_trial_num","null","<p class=block-text>Trial 69 out of 78</p>","null","","","","","","","","","","","","","","","","","","","","","","","","","",""
"","","","","","image-keyboard-response","283","1310212","0.0-3.0-7.0-1.29","5e2b4e61a7f804000a55eee7","A3","batch1","pattern_response","1342.1000000238419","stim/yes_40_dia_b1_b.png","f","pattern_63","f","true","","","","1342.1000000238419","true","66","","","","","","","","","","","","","","","","",""
"","","","","","html-keyboard-response","284","1311530","0.0-3.0-7.0-0.30","5e2b4e61a7f804000a55eee7","A3","batch1","pattern_show_trial_num","null","<p class=block-text>Trial 70 out of 78</p>","null","","","","","","","","","","","","","","","","","","","","","","","","","",""
"","","","","","image-keyboard-response","285","1316131","0.0-3.0-7.0-1.30","5e2b4e61a7f804000a55eee7","A3","batch1","pattern_response","4598.600000023842","stim/yes_48_dia_w1_w.png","j","pattern_69","f","false","","","","4598.600000023842","false","66","","","","","","","","","","","","","","","","",""
"","","","","","html-keyboard-response","286","1317449","0.0-3.0-7.0-0.31","5e2b4e61a7f804000a55eee7","A3","batch1","pattern_show_trial_num","null","<p class=block-text>Trial 71 out of 78</p>","null","","","","","","","","","","","","","","","","","","","","","","","","","",""
"","","","","","image-keyboard-response","287","1321784","0.0-3.0-7.0-1.31","5e2b4e61a7f804000a55eee7","A3","batch1","pattern_response","4331.199999988079","stim/no_62_1_w.png","j","pattern_36","j","true","","","","4331.199999988079","true","67","","","","","","","","","","","","","","","","",""
"","","","","","html-keyboard-response","288","1323093","0.0-3.0-7.0-0.32","5e2b4e61a7f804000a55eee7","A3","batch1","pattern_show_trial_num","null","<p class=block-text>Trial 72 out of 78</p>","null","","","","","","","","","","","","","","","","","","","","","","","","","",""
"","","","","","image-keyboard-response","289","1324436","0.0-3.0-7.0-1.32","5e2b4e61a7f804000a55eee7","A3","batch1","pattern_response","1338.699999988079","stim/yes_45_hor_b2_b.png","f","pattern_67","f","true","","","","1338.699999988079","true","68","","","","","","","","","","","","","","","","",""
"","","","","","html-keyboard-response","290","1325753","0.0-3.0-7.0-0.33","5e2b4e61a7f804000a55eee7","A3","batch1","pattern_show_trial_num","null","<p class=block-text>Trial 73 out of 78</p>","null","","","","","","","","","","","","","","","","","","","","","","","","","",""
"","","","","","image-keyboard-response","291","1327293","0.0-3.0-7.0-1.33","5e2b4e61a7f804000a55eee7","A3","batch1","pattern_response","1537","stim/yes_35_dia_b1.png","j","pattern_57","f","false","","","","1537","false","68","","","","","","","","","","","","","","","","",""
"","","","","","html-keyboard-response","292","1328609","0.0-3.0-7.0-0.34","5e2b4e61a7f804000a55eee7","A3","batch1","pattern_show_trial_num","null","<p class=block-text>Trial 74 out of 78</p>","null","","","","","","","","","","","","","","","","","","","","","","","","","",""
"","","","","","image-keyboard-response","293","1330484","0.0-3.0-7.0-1.34","5e2b4e61a7f804000a55eee7","A3","batch1","pattern_response","1871.6000000238419","stim/yes_50_dia_w1.png","f","pattern_71","f","true","","","","1871.6000000238419","true","69","","","","","","","","","","","","","","","","",""
"","","","","","html-keyboard-response","294","1331800","0.0-3.0-7.0-0.35","5e2b4e61a7f804000a55eee7","A3","batch1","pattern_show_trial_num","null","<p class=block-text>Trial 75 out of 78</p>","null","","","","","","","","","","","","","","","","","","","","","","","","","",""
"","","","","","image-keyboard-response","295","1335676","0.0-3.0-7.0-1.35","5e2b4e61a7f804000a55eee7","A3","batch1","pattern_response","3872.699999988079","stim/yes_67_hor_b1.png","f","pattern_79","f","true","","","","3872.699999988079","true","70","","","","","","","","","","","","","","","","",""
"","","","","","html-keyboard-response","296","1336994","0.0-3.0-7.0-0.36","5e2b4e61a7f804000a55eee7","A3","batch1","pattern_show_trial_num","null","<p class=block-text>Trial 76 out of 78</p>","null","","","","","","","","","","","","","","","","","","","","","","","","","",""
"","","","","","image-keyboard-response","297","1339147","0.0-3.0-7.0-1.36","5e2b4e61a7f804000a55eee7","A3","batch1","pattern_response","2149.699999988079","stim/no_34_1_b.png","j","pattern_16","j","true","","","","2149.699999988079","true","71","","","","","","","","","","","","","","","","",""
"","","","","","html-keyboard-response","298","1340462","0.0-3.0-7.0-0.37","5e2b4e61a7f804000a55eee7","A3","batch1","pattern_show_trial_num","null","<p class=block-text>Trial 77 out of 78</p>","null","","","","","","","","","","","","","","","","","","","","","","","","","",""
"","","","","","image-keyboard-response","299","1342930","0.0-3.0-7.0-1.37","5e2b4e61a7f804000a55eee7","A3","batch1","pattern_response","2464.5","stim/no_50_1.png","j","pattern_30","j","true","","","","2464.5","true","72","","","","","","","","","","","","","","","","",""
"","","","","","html-keyboard-response","300","1344250","0.0-3.0-7.0-0.38","5e2b4e61a7f804000a55eee7","A3","batch1","pattern_show_trial_num","null","<p class=block-text>Trial 78 out of 78</p>","null","","","","","","","","","","","","","","","","","","","","","","","","","",""
"","","","","","image-keyboard-response","301","1348230","0.0-3.0-7.0-1.38","5e2b4e61a7f804000a55eee7","A3","batch1","pattern_response","3976.699999988079","stim/no_38_1_b.png","j","pattern_20","j","true","","","","3976.699999988079","true","73","","","","","","","","","","","","","","","","",""
"","","","","","html-button-response","302","1353838","0.0-3.0-8.0","5e2b4e61a7f804000a55eee7","A3","batch1","","5097.800000011921","<p class = block-text>This concludes the 4-in-a-row detection game.Thank you for your responses!<br>
            You responded correctly on 94% of the trials.<br>
            When you are ready, press ""Continue"" button to continue </p>","0","","","","","","","","","","","","","","","","","","","","","","","","","",""
"true","","","","","fullscreen","303","1356448","0.0-4.0-0.0","5e2b4e61a7f804000a55eee7","A3","batch1","","","","","","","","","","","","","","","","","","","","","","","","","","","","","",""
"","","","","","instructions","304","1420848","0.0-4.0-1.0-0.0-0.0","5e2b4e61a7f804000a55eee7","A3","batch1","tol-instructions","64398.90000003576","","","","","","","","[{""page_index"":0,""viewing_time"":13693.700000047684},{""page_index"":1,""viewing_time"":4819.799999952316},{""page_index"":2,""viewing_time"":4688.900000035763},{""page_index"":3,""viewing_time"":16750.19999998808},{""page_index"":4,""viewing_time"":14969.899999976158},{""page_index"":5,""viewing_time"":7242},{""page_index"":6,""viewing_time"":2234.100000023842}]","","","","","","","","","","","","","","","","","","","",""
"","","","","","html-button-response","305","1421793","0.0-4.0-1.0-1.0-0.0","5e2b4e61a7f804000a55eee7","A3","batch1","tol_enter_quiz","943.3999999761581","<p class=block-text> Let's answer a few questions <br>","0","","","","","","","","","","","","","","","","","","","","","","","","","",""
"","","","","","html-button-response","306","1428577","0.0-4.0-1.0-1.0-1.0","5e2b4e61a7f804000a55eee7","A3","batch1","tol_quiz","6781","<p class = block-text>True or False: You can only move the ball on top of a peg. <br></p>","1","","","false","","","","","","","","","","","","","","","","","","","","","","",""
"","","","","","html-button-response","307","1430735","0.0-4.0-1.0-1.0-2.0","5e2b4e61a7f804000a55eee7","A3","batch1","tol_quiz_feedback","2157.699999988079","<p class = block-text>Incorrect. Remember, you can only move the ball on top of a peg.</p>","0","","","","","","","","","","","","","","","","","","","","","","","","","",""
"","","","","","html-button-response","308","1434561","0.0-4.0-1.0-1.0-3.0","5e2b4e61a7f804000a55eee7","A3","batch1","tol_quiz","3824.2999999523163","<p class = block-text>True or False: You should try to match your board with the target board with fewest moves possible. <br></p>","0","","","true","","","","","","","","","","","","","","","","","","","","","","",""
"","","","","","html-button-response","309","1435350","0.0-4.0-1.0-1.0-4.0","5e2b4e61a7f804000a55eee7","A3","batch1","tol_quiz_feedback","786.6000000238419","<p class = block-text>Correct! </p>","0","","","","","","","","","","","","","","","","","","","","","","","","","",""
"","","","","","html-button-response","310","1436630","0.0-4.0-1.0-2.0-0.0","5e2b4e61a7f804000a55eee7","A3","batch1","","1278.699999988079","<p class = block-text>You made too many incorrect choices.</p><p class = block-text>You will now repeat the instructions and quiz</p>","0","","","","","","","","","","","","","","","","","","","","","","","","","",""
"","","","","","instructions","311","1443151","0.0-4.0-1.1-0.1-0.1","5e2b4e61a7f804000a55eee7","A3","batch1","tol-instructions","6519.599999964237","","","","","","","","[{""page_index"":0,""viewing_time"":1123.800000011921},{""page_index"":1,""viewing_time"":878.6999999880791},{""page_index"":2,""viewing_time"":451.89999997615814},{""page_index"":3,""viewing_time"":516.3000000119209},{""page_index"":4,""viewing_time"":468.10000002384186},{""page_index"":5,""viewing_time"":492.69999998807907},{""page_index"":6,""viewing_time"":2587.899999976158}]","","","","","","","","","","","","","","","","","","","",""
"","","","","","html-button-response","312","1444038","0.0-4.0-1.1-1.1-0.1","5e2b4e61a7f804000a55eee7","A3","batch1","tol_enter_quiz","884.8999999761581","<p class=block-text> Let's answer a few questions <br>","0","","","","","","","","","","","","","","","","","","","","","","","","","",""
"","","","","","html-button-response","313","1445698","0.0-4.0-1.1-1.1-1.1","5e2b4e61a7f804000a55eee7","A3","batch1","tol_quiz","1658","<p class = block-text>True or False: You can only move the ball on top of a peg. <br></p>","0","","","true","","","","","","","","","","","","","","","","","","","","","","",""
"","","","","","html-button-response","314","1446534","0.0-4.0-1.1-1.1-2.1","5e2b4e61a7f804000a55eee7","A3","batch1","tol_quiz_feedback","835","<p class = block-text>Correct! You can only move the ball on top of a peg.</p>","0","","","","","","","","","","","","","","","","","","","","","","","","","",""
"","","","","","html-button-response","315","1448498","0.0-4.0-1.1-1.1-3.1","5e2b4e61a7f804000a55eee7","A3","batch1","tol_quiz","1962.5","<p class = block-text>True or False: You should try to match your board with the target board with fewest moves possible. <br></p>","0","","","true","","","","","","","","","","","","","","","","","","","","","","",""
"","","","","","html-button-response","316","1449236","0.0-4.0-1.1-1.1-4.1","5e2b4e61a7f804000a55eee7","A3","batch1","tol_quiz_feedback","736.5","<p class = block-text>Correct! </p>","0","","","","","","","","","","","","","","","","","","","","","","","","","",""
"","","","","","html-button-response","317","1451378","0.0-4.0-2.0","5e2b4e61a7f804000a55eee7","A3","batch1","","2140.900000035763","<p class=block-text> Now that you've understood the game, let's practice a few easier examples before we start!<br> <br>","0","","","","","","","","","","","","","","","","","","","","","","","","","",""
"","","","","","single-stim-button","318","1453882","0.0-4.0-3.0-0.0","5e2b4e61a7f804000a55eee7","A3","batch1","tol_practice","2501","","","","","","","","","","","","","","tol_peg_2","2501","2501","0","[[1,2,0],[0,0],[0]]","1","[[1,2,0],[0,0],[3]]","practice","2501","","","","","",""
"","","","","","single-stim-button","319","1455727","0.0-4.0-3.0-1.0","5e2b4e61a7f804000a55eee7","A3","batch1","tol_practice","1843","","","","","","","","","","","","","","tol_peg_3","1843","1843","0","[[1,2,0],[0,0],[3]]","1","[[1,2,0],[0,0],[3]]","practice","1843","","","","","",""
"","","","","","poldrack-single-stim","320","1456743","0.0-4.0-4.0","5e2b4e61a7f804000a55eee7","A3","batch1","tol_feedback","-1","","","","","true","","","","","","","","","","1000","1000","500","","","","","","-1","none","true","","0",""
"","","","","","single-stim-button","321","1461074","0.0-4.0-5.0-0.0","5e2b4e61a7f804000a55eee7","A3","batch1","tol_practice","4329","","","","","","","","","","","","","","tol_peg_1","4329","4329","0","[[1,0,0],[3,0],[0]]","2","[[0,0,0],[3,1],[2]]","practice","4329","","","","","",""
"","","","","","single-stim-button","322","1462418","0.0-4.0-5.0-1.0","5e2b4e61a7f804000a55eee7","A3","batch1","tol_practice","1343","","","","","","","","","","","","","","tol_peg_3","1343","1343","0","[[1,0,0],[3,0],[2]]","2","[[0,0,0],[3,1],[2]]","practice","1343","","","","","",""
"","","","","","single-stim-button","323","1463233","0.0-4.0-5.1-0.1","5e2b4e61a7f804000a55eee7","A3","batch1","tol_practice","814","","","","","","","","","","","","","","tol_peg_1","814","814","0","[[0,0,0],[3,0],[2]]","3","[[0,0,0],[3,1],[2]]","practice","814","","","","","",""
"","","","","","single-stim-button","324","1463785","0.0-4.0-5.1-1.1","5e2b4e61a7f804000a55eee7","A3","batch1","tol_practice","550","","","","","","","","","","","","","","tol_peg_2","550","550","0","[[0,0,0],[3,1],[2]]","3","[[0,0,0],[3,1],[2]]","practice","550","","","","","",""
"","","","","","poldrack-single-stim","325","1464793","0.0-4.0-6.0","5e2b4e61a7f804000a55eee7","A3","batch1","tol_feedback","-1","","","","","true","","","","","","","","","","1000","1000","500","","","","","","-1","none","true","","0",""
"","","","","","single-stim-button","326","1467809","0.0-4.0-7.0-0.0","5e2b4e61a7f804000a55eee7","A3","batch1","tol_practice","3014","","","","","","","","","","","","","","tol_peg_2","3014","3014","0","[[1,2,0],[0,0],[0]]","4","[[1,0,0],[2,0],[3]]","practice","3014","","","","","",""
"","","","","","single-stim-button","327","1469311","0.0-4.0-7.0-1.0","5e2b4e61a7f804000a55eee7","A3","batch1","tol_practice","1501","","","","","","","","","","","","","","tol_peg_3","1501","1501","0","[[1,2,0],[0,0],[3]]","4","[[1,0,0],[2,0],[3]]","practice","1501","","","","","",""
"","","","","","single-stim-button","328","1470247","0.0-4.0-7.1-0.1","5e2b4e61a7f804000a55eee7","A3","batch1","tol_practice","935","","","","","","","","","","","","","","tol_peg_1","935","935","0","[[1,0,0],[0,0],[3]]","5","[[1,0,0],[2,0],[3]]","practice","935","","","","","",""
"","","","","","single-stim-button","329","1470945","0.0-4.0-7.1-1.1","5e2b4e61a7f804000a55eee7","A3","batch1","tol_practice","697","","","","","","","","","","","","","","tol_peg_2","697","697","0","[[1,0,0],[2,0],[3]]","5","[[1,0,0],[2,0],[3]]","practice","697","","","","","",""
"","","","","","poldrack-single-stim","330","1471954","0.0-4.0-8.0","5e2b4e61a7f804000a55eee7","A3","batch1","tol_feedback","-1","","","","","true","","","","","","","","","","1000","1000","500","","","","","","-1","none","true","","0",""
"","","","","","html-button-response","331","1474468","0.0-4.0-9.0","5e2b4e61a7f804000a55eee7","A3","batch1","tol_instruction","2512","<div class = centerbox><p class = center-block-text>Great job! You are done with practice trials<br>You are about to start official trials.<br> <br> Problem <strong>1</strong> out of 25 problems</p></div>","0","","","","","","","","","","","","","","","","","","","","","","","","","",""
"","","","","","single-stim-button","332","1483315","0.0-4.0-10.0-0.0","5e2b4e61a7f804000a55eee7","A3","batch1","tol_tohand","7833","","","","","","","","","","","","","","tol_peg_2","7833","7833","0","[[1,2,0],[0,0],[0]]","1","[[1,3,0],[2,0],[0]]","0","0","","","","","","3"
"","","","","","single-stim-button","333","1487675","0.0-4.0-10.0-1.0","5e2b4e61a7f804000a55eee7","A3","batch1","tol_toboard","4359","","","","","","","","","","","","","","tol_peg_3","4359","4359","0","[[1,2,0],[0,0],[3]]","1","[[1,3,0],[2,0],[0]]","0","0","","","","","","3"
"","","","","","single-stim-button","334","1488382","0.0-4.0-10.1-0.1","5e2b4e61a7f804000a55eee7","A3","batch1","tol_tohand","704","","","","","","","","","","","","","","tol_peg_1","704","704","0","[[1,0,0],[0,0],[3]]","2","[[1,3,0],[2,0],[0]]","0","0","","","","","","3"
"","","","","","single-stim-button","335","1489671","0.0-4.0-10.1-1.1","5e2b4e61a7f804000a55eee7","A3","batch1","tol_toboard","1287","","","","","","","","","","","","","","tol_peg_2","1287","1287","0","[[1,0,0],[2,0],[3]]","2","[[1,3,0],[2,0],[0]]","0","0","","","","","","3"
"","","","","","single-stim-button","336","1490492","0.0-4.0-10.2-0.2","5e2b4e61a7f804000a55eee7","A3","batch1","tol_tohand","820","","","","","","","","","","","","","","tol_peg_3","820","820","0","[[1,0,0],[2,0],[0]]","3","[[1,3,0],[2,0],[0]]","0","0","","","","","","3"
"","","","","","single-stim-button","337","1491379","0.0-4.0-10.2-1.2","5e2b4e61a7f804000a55eee7","A3","batch1","tol_toboard","885","","","","","","","","","","","","","","tol_peg_1","885","885","0","[[1,3,0],[2,0],[0]]","3","[[1,3,0],[2,0],[0]]","0","0","","","","","","3"
"","","","","","poldrack-single-stim","338","1492386","0.0-4.0-11.0","5e2b4e61a7f804000a55eee7","A3","batch1","tol_feedback","-1","","","","","true","","","","","","","","","","1000","1000","500","","","","","","-1","none","true","7833","9357",""
"","","","","","html-button-response","339","1493400","0.0-4.0-12.0","5e2b4e61a7f804000a55eee7","A3","batch1","tol_trial_num","1011.6999999880791","<div class = centerbox><p class = center-block-text>problem <strong>2</strong> out of 25 problems</p></div>","0","","","","","","","","","","","","","","","","","","","","","","","","","",""
"","","","","","single-stim-button","340","1498442","0.0-4.0-13.0-0.0","5e2b4e61a7f804000a55eee7","A3","batch1","tol_tohand","5040","","","","","","","","","","","","","","tol_peg_1","5040","5040","0","[[1,0,0],[3,0],[0]]","1","[[2,1,3],[0,0],[0]]","1","0","","","","","","5"
"","","","","","single-stim-button","341","1501202","0.0-4.0-13.0-1.0","5e2b4e61a7f804000a55eee7","A3","batch1","tol_toboard","2758","","","","","","","","","","","","","","tol_peg_2","2758","2758","0","[[1,0,0],[3,2],[0]]","1","[[2,1,3],[0,0],[0]]","1","0","","","","","","5"
"","","","","","single-stim-button","342","1502082","0.0-4.0-13.1-0.1","5e2b4e61a7f804000a55eee7","A3","batch1","tol_tohand","878","","","","","","","","","","","","","","tol_peg_1","878","878","0","[[0,0,0],[3,2],[0]]","2","[[2,1,3],[0,0],[0]]","1","0","","","","","","5"
"","","","","","single-stim-button","343","1503140","0.0-4.0-13.1-1.1","5e2b4e61a7f804000a55eee7","A3","batch1","tol_toboard","1058","","","","","","","","","","","","","","tol_peg_3","1058","1058","0","[[0,0,0],[3,2],[1]]","2","[[2,1,3],[0,0],[0]]","1","0","","","","","","5"
"","","","","","single-stim-button","344","1503937","0.0-4.0-13.2-0.2","5e2b4e61a7f804000a55eee7","A3","batch1","tol_tohand","795","","","","","","","","","","","","","","tol_peg_2","795","795","0","[[0,0,0],[3,0],[1]]","3","[[2,1,3],[0,0],[0]]","1","0","","","","","","5"
