"success","timeout","failed_images","failed_audio","failed_video","trial_type","trial_index","time_elapsed","internal_node_id","subject_id","study_id","session_id","task","rt","stimulus","response","item","answer","correct","spm_correct","spm_rt","view_history","fiar_detect_rt","fiar_detect_correct","total_correct_fiar_detect","post_trial_gap","choices","mouse_click","stim_duration","block_duration","timing_post_trial","current_position","tol_num_moves_made","tol_target","tol_problem_id","tol_rt","key_press","possible_responses","tol_correct","preplanning","tol_rt_per_trial","tol_min_moves"
"true","false","[]","[]","[]","preload","0","1198","0.0-0.0","5e3461bd8ec4fc0230fef43a","C3","batch3","","","","","","","","","","","","","","","","","","","","","","","","","","","","","",""
"true","","","","","fullscreen","1","14369","0.0-1.0-0.0","5e3461bd8ec4fc0230fef43a","C3","batch3","","","","","","","","","","","","","","","","","","","","","","","","","","","","","",""
"true","","","","","fullscreen","2","18621","0.0-2.0-0.0","5e3461bd8ec4fc0230fef43a","C3","batch3","spm_fullscreen","","","","","","","","","","","","","","","","","","","","","","","","","","","","",""
"","","","","","html-button-response","3","34233","0.0-2.0-1.0","5e3461bd8ec4fc0230fef43a","C3","batch3","","15608.5","<p class = block-text><b>Instructions</b> <br>This is a widely used intelligence test in research. <br>In this test, a figure with a missing piece will be presented.<br>Below the figure are alternative pieces to complete the figure, only one of which is correct.<br> Different figures might involve different principles for obtaining the missing piece<br>Your job is to select the most logical piece to complete the figure.</p>","0","","","","","","","","","","","","","","","","","","","","","","","","","",""
"","","","","","html-keyboard-response","4","35043","0.0-2.0-2.0-0.0","5e3461bd8ec4fc0230fef43a","C3","batch3","spm_show_trial_num","null","<p class=block-text>Trial 1 out of 60</p>","null","","","","","","","","","","","","","","","","","","","","","","","","","",""
"","","","","","image-button-response","5","49847","0.0-2.0-2.0-1.0","5e3461bd8ec4fc0230fef43a","C3","batch3","spm_respsonse","14797.400000095367","img/question_1_1.jpeg","3","mat_01","4","1","1","14797.400000095367","","","","","","","","","","","","","","","","","","","","",""
"","","","","","html-keyboard-response","6","50906","0.0-2.0-2.0-0.1","5e3461bd8ec4fc0230fef43a","C3","batch3","spm_show_trial_num","null","<p class=block-text>Trial 2 out of 60</p>","null","","","","","","","","","","","","","","","","","","","","","","","","","",""
"","","","","","image-button-response","7","56165","0.0-2.0-2.0-1.1","5e3461bd8ec4fc0230fef43a","C3","batch3","spm_respsonse","5255","img/question_1_2.jpeg","4","mat_02","5","1","1","5255","","","","","","","","","","","","","","","","","","","","",""
"","","","","","html-keyboard-response","8","57228","0.0-2.0-2.0-0.2","5e3461bd8ec4fc0230fef43a","C3","batch3","spm_show_trial_num","null","<p class=block-text>Trial 3 out of 60</p>","null","","","","","","","","","","","","","","","","","","","","","","","","","",""
"","","","","","image-button-response","9","61036","0.0-2.0-2.0-1.2","5e3461bd8ec4fc0230fef43a","C3","batch3","spm_respsonse","3805.600000143051","img/question_1_3.jpeg","0","mat_03","1","1","1","3805.600000143051","","","","","","","","","","","","","","","","","","","","",""
"","","","","","html-keyboard-response","10","62096","0.0-2.0-2.0-0.3","5e3461bd8ec4fc0230fef43a","C3","batch3","spm_show_trial_num","null","<p class=block-text>Trial 4 out of 60</p>","null","","","","","","","","","","","","","","","","","","","","","","","","","",""
"","","","","","image-button-response","11","66961","0.0-2.0-2.0-1.3","5e3461bd8ec4fc0230fef43a","C3","batch3","spm_respsonse","4860.199999809265","img/question_1_4.jpeg","1","mat_04","2","1","1","4860.199999809265","","","","","","","","","","","","","","","","","","","","",""
"","","","","","html-keyboard-response","12","68031","0.0-2.0-2.0-0.4","5e3461bd8ec4fc0230fef43a","C3","batch3","spm_show_trial_num","null","<p class=block-text>Trial 5 out of 60</p>","null","","","","","","","","","","","","","","","","","","","","","","","","","",""
"","","","","","image-button-response","13","74158","0.0-2.0-2.0-1.4","5e3461bd8ec4fc0230fef43a","C3","batch3","spm_respsonse","6124.700000047684","img/question_1_5.jpeg","5","mat_05","6","1","1","6124.700000047684","","","","","","","","","","","","","","","","","","","","",""
"","","","","","html-keyboard-response","14","75235","0.0-2.0-2.0-0.5","5e3461bd8ec4fc0230fef43a","C3","batch3","spm_show_trial_num","null","<p class=block-text>Trial 6 out of 60</p>","null","","","","","","","","","","","","","","","","","","","","","","","","","",""
"","","","","","image-button-response","15","79666","0.0-2.0-2.0-1.5","5e3461bd8ec4fc0230fef43a","C3","batch3","spm_respsonse","4428.700000047684","img/question_1_6.jpeg","2","mat_06","3","1","1","4428.700000047684","","","","","","","","","","","","","","","","","","","","",""
"","","","","","html-keyboard-response","16","80736","0.0-2.0-2.0-0.6","5e3461bd8ec4fc0230fef43a","C3","batch3","spm_show_trial_num","null","<p class=block-text>Trial 7 out of 60</p>","null","","","","","","","","","","","","","","","","","","","","","","","","","",""
"","","","","","image-button-response","17","87142","0.0-2.0-2.0-1.6","5e3461bd8ec4fc0230fef43a","C3","batch3","spm_respsonse","6400.600000143051","img/question_1_7.jpeg","5","mat_07","6","1","1","6400.600000143051","","","","","","","","","","","","","","","","","","","","",""
"","","","","","html-keyboard-response","18","88217","0.0-2.0-2.0-0.7","5e3461bd8ec4fc0230fef43a","C3","batch3","spm_show_trial_num","null","<p class=block-text>Trial 8 out of 60</p>","null","","","","","","","","","","","","","","","","","","","","","","","","","",""
"","","","","","image-button-response","19","97234","0.0-2.0-2.0-1.7","5e3461bd8ec4fc0230fef43a","C3","batch3","spm_respsonse","9012.799999952316","img/question_1_8.jpeg","1","mat_08","2","1","1","9012.799999952316","","","","","","","","","","","","","","","","","","","","",""
"","","","","","html-keyboard-response","20","98309","0.0-2.0-2.0-0.8","5e3461bd8ec4fc0230fef43a","C3","batch3","spm_show_trial_num","null","<p class=block-text>Trial 9 out of 60</p>","null","","","","","","","","","","","","","","","","","","","","","","","","","",""
"","","","","","image-button-response","21","102102","0.0-2.0-2.0-1.8","5e3461bd8ec4fc0230fef43a","C3","batch3","spm_respsonse","3788.5999999046326","img/question_1_9.jpeg","0","mat_09","1","1","1","3788.5999999046326","","","","","","","","","","","","","","","","","","","","",""
"","","","","","html-keyboard-response","22","103169","0.0-2.0-2.0-0.9","5e3461bd8ec4fc0230fef43a","C3","batch3","spm_show_trial_num","null","<p class=block-text>Trial 10 out of 60</p>","null","","","","","","","","","","","","","","","","","","","","","","","","","",""
"","","","","","image-button-response","23","113966","0.0-2.0-2.0-1.9","5e3461bd8ec4fc0230fef43a","C3","batch3","spm_respsonse","10793.799999952316","img/question_1_10.jpeg","2","mat_10","3","1","1","10793.799999952316","","","","","","","","","","","","","","","","","","","","",""
"","","","","","html-keyboard-response","24","115033","0.0-2.0-2.0-0.10","5e3461bd8ec4fc0230fef43a","C3","batch3","spm_show_trial_num","null","<p class=block-text>Trial 11 out of 60</p>","null","","","","","","","","","","","","","","","","","","","","","","","","","",""
"","","","","","image-button-response","25","145842","0.0-2.0-2.0-1.10","5e3461bd8ec4fc0230fef43a","C3","batch3","spm_respsonse","30805.89999985695","img/question_1_11.jpeg","3","mat_11","4","1","1","30805.89999985695","","","","","","","","","","","","","","","","","","","","",""
"","","","","","html-keyboard-response","26","146910","0.0-2.0-2.0-0.11","5e3461bd8ec4fc0230fef43a","C3","batch3","spm_show_trial_num","null","<p class=block-text>Trial 12 out of 60</p>","null","","","","","","","","","","","","","","","","","","","","","","","","","",""
"","","","","","image-button-response","27","174018","0.0-2.0-2.0-1.11","5e3461bd8ec4fc0230fef43a","C3","batch3","spm_respsonse","27103.199999809265","img/question_1_12.jpeg","0","mat_12","5","0","0","27103.199999809265","","","","","","","","","","","","","","","","","","","","",""
"","","","","","html-keyboard-response","28","175081","0.0-2.0-2.0-0.12","5e3461bd8ec4fc0230fef43a","C3","batch3","spm_show_trial_num","null","<p class=block-text>Trial 13 out of 60</p>","null","","","","","","","","","","","","","","","","","","","","","","","","","",""
"","","","","","image-button-response","29","179040","0.0-2.0-2.0-1.12","5e3461bd8ec4fc0230fef43a","C3","batch3","spm_respsonse","3954.0999999046326","img/question_2_1.jpeg","1","mat_13","2","1","1","3954.0999999046326","","","","","","","","","","","","","","","","","","","","",""
"","","","","","html-keyboard-response","30","180096","0.0-2.0-2.0-0.13","5e3461bd8ec4fc0230fef43a","C3","batch3","spm_show_trial_num","null","<p class=block-text>Trial 14 out of 60</p>","null","","","","","","","","","","","","","","","","","","","","","","","","","",""
"","","","","","image-button-response","31","188422","0.0-2.0-2.0-1.13","5e3461bd8ec4fc0230fef43a","C3","batch3","spm_respsonse","8321.400000095367","img/question_2_2.jpeg","5","mat_14","6","1","1","8321.400000095367","","","","","","","","","","","","","","","","","","","","",""
"","","","","","html-keyboard-response","32","189495","0.0-2.0-2.0-0.14","5e3461bd8ec4fc0230fef43a","C3","batch3","spm_show_trial_num","null","<p class=block-text>Trial 15 out of 60</p>","null","","","","","","","","","","","","","","","","","","","","","","","","","",""
"","","","","","image-button-response","33","193360","0.0-2.0-2.0-1.14","5e3461bd8ec4fc0230fef43a","C3","batch3","spm_respsonse","3860.100000143051","img/question_2_3.jpeg","0","mat_15","1","1","1","3860.100000143051","","","","","","","","","","","","","","","","","","","","",""
"","","","","","html-keyboard-response","34","194439","0.0-2.0-2.0-0.15","5e3461bd8ec4fc0230fef43a","C3","batch3","spm_show_trial_num","null","<p class=block-text>Trial 16 out of 60</p>","null","","","","","","","","","","","","","","","","","","","","","","","","","",""
"","","","","","image-button-response","35","200250","0.0-2.0-2.0-1.15","5e3461bd8ec4fc0230fef43a","C3","batch3","spm_respsonse","5806.399999856949","img/question_2_4.jpeg","1","mat_16","2","1","1","5806.399999856949","","","","","","","","","","","","","","","","","","","","",""
"","","","","","html-keyboard-response","36","201311","0.0-2.0-2.0-0.16","5e3461bd8ec4fc0230fef43a","C3","batch3","spm_show_trial_num","null","<p class=block-text>Trial 17 out of 60</p>","null","","","","","","","","","","","","","","","","","","","","","","","","","",""
"","","","","","image-button-response","37","209052","0.0-2.0-2.0-1.16","5e3461bd8ec4fc0230fef43a","C3","batch3","spm_respsonse","7736.099999904633","img/question_2_5.jpeg","0","mat_17","1","1","1","7736.099999904633","","","","","","","","","","","","","","","","","","","","",""
"","","","","","html-keyboard-response","38","210124","0.0-2.0-2.0-0.17","5e3461bd8ec4fc0230fef43a","C3","batch3","spm_show_trial_num","null","<p class=block-text>Trial 18 out of 60</p>","null","","","","","","","","","","","","","","","","","","","","","","","","","",""
"","","","","","image-button-response","39","218758","0.0-2.0-2.0-1.17","5e3461bd8ec4fc0230fef43a","C3","batch3","spm_respsonse","8629.100000143051","img/question_2_6.jpeg","2","mat_18","3","1","1","8629.100000143051","","","","","","","","","","","","","","","","","","","","",""
"","","","","","html-keyboard-response","40","219837","0.0-2.0-2.0-0.18","5e3461bd8ec4fc0230fef43a","C3","batch3","spm_show_trial_num","null","<p class=block-text>Trial 19 out of 60</p>","null","","","","","","","","","","","","","","","","","","","","","","","","","",""
"","","","","","image-button-response","41","228702","0.0-2.0-2.0-1.18","5e3461bd8ec4fc0230fef43a","C3","batch3","spm_respsonse","8863.5","img/question_2_7.jpeg","4","mat_19","5","1","1","8863.5","","","","","","","","","","","","","","","","","","","","",""
"","","","","","html-keyboard-response","42","229759","0.0-2.0-2.0-0.19","5e3461bd8ec4fc0230fef43a","C3","batch3","spm_show_trial_num","null","<p class=block-text>Trial 20 out of 60</p>","null","","","","","","","","","","","","","","","","","","","","","","","","","",""
"","","","","","image-button-response","43","246326","0.0-2.0-2.0-1.19","5e3461bd8ec4fc0230fef43a","C3","batch3","spm_respsonse","16553.299999952316","img/question_2_8.jpeg","5","mat_20","6","1","1","16553.299999952316","","","","","","","","","","","","","","","","","","","","",""
"","","","","","html-keyboard-response","44","247397","0.0-2.0-2.0-0.20","5e3461bd8ec4fc0230fef43a","C3","batch3","spm_show_trial_num","null","<p class=block-text>Trial 21 out of 60</p>","null","","","","","","","","","","","","","","","","","","","","","","","","","",""
"","","","","","image-button-response","45","253702","0.0-2.0-2.0-1.20","5e3461bd8ec4fc0230fef43a","C3","batch3","spm_respsonse","6300.199999809265","img/question_2_9.jpeg","3","mat_21","4","1","1","6300.199999809265","","","","","","","","","","","","","","","","","","","","",""
"","","","","","html-keyboard-response","46","254779","0.0-2.0-2.0-0.21","5e3461bd8ec4fc0230fef43a","C3","batch3","spm_show_trial_num","null","<p class=block-text>Trial 22 out of 60</p>","null","","","","","","","","","","","","","","","","","","","","","","","","","",""
"","","","","","image-button-response","47","279141","0.0-2.0-2.0-1.21","5e3461bd8ec4fc0230fef43a","C3","batch3","spm_respsonse","24357.799999952316","img/question_2_10.jpeg","2","mat_22","3","1","1","24357.799999952316","","","","","","","","","","","","","","","","","","","","",""
"","","","","","html-keyboard-response","48","280198","0.0-2.0-2.0-0.22","5e3461bd8ec4fc0230fef43a","C3","batch3","spm_show_trial_num","null","<p class=block-text>Trial 23 out of 60</p>","null","","","","","","","","","","","","","","","","","","","","","","","","","",""
"","","","","","image-button-response","49","296306","0.0-2.0-2.0-1.22","5e3461bd8ec4fc0230fef43a","C3","batch3","spm_respsonse","16103.300000190735","img/question_2_11.jpeg","3","mat_23","4","1","1","16103.300000190735","","","","","","","","","","","","","","","","","","","","",""
"","","","","","html-keyboard-response","50","297373","0.0-2.0-2.0-0.23","5e3461bd8ec4fc0230fef43a","C3","batch3","spm_show_trial_num","null","<p class=block-text>Trial 24 out of 60</p>","null","","","","","","","","","","","","","","","","","","","","","","","","","",""
"","","","","","image-button-response","51","343215","0.0-2.0-2.0-1.23","5e3461bd8ec4fc0230fef43a","C3","batch3","spm_respsonse","45845.09999990463","img/question_2_12.jpeg","5","mat_24","5","0","0","45845.09999990463","","","","","","","","","","","","","","","","","","","","",""
"","","","","","html-button-response","52","346894","0.0-2.0-3.0","5e3461bd8ec4fc0230fef43a","C3","batch3","attention_check","3416.2999999523163","<p class = block-text>Attention check: Please choose 1<br></p>","0","","","true","","","","","","","","","","","","","","","","","","","","","","",""
"","","","","","html-keyboard-response","53","347701","0.0-2.0-4.0-0.0","5e3461bd8ec4fc0230fef43a","C3","batch3","spm_show_trial_num","null","<p class=block-text>Trial 25 out of 60</p>","null","","","","","","","","","","","","","","","","","","","","","","","","","",""
"","","","","","image-button-response","54","373743","0.0-2.0-4.0-1.0","5e3461bd8ec4fc0230fef43a","C3","batch3","spm_respsonse","26029.39999985695","img/question_3_1.jpeg","7","mat_25","8","1","1","26029.39999985695","","","","","","","","","","","","","","","","","","","","",""
"","","","","","html-keyboard-response","55","374806","0.0-2.0-4.0-0.1","5e3461bd8ec4fc0230fef43a","C3","batch3","spm_show_trial_num","null","<p class=block-text>Trial 26 out of 60</p>","null","","","","","","","","","","","","","","","","","","","","","","","","","",""
"","","","","","image-button-response","56","385838","0.0-2.0-4.0-1.1","5e3461bd8ec4fc0230fef43a","C3","batch3","spm_respsonse","11026.600000143051","img/question_3_2.jpeg","1","mat_26","2","1","1","11026.600000143051","","","","","","","","","","","","","","","","","","","","",""
"","","","","","html-keyboard-response","57","386906","0.0-2.0-4.0-0.2","5e3461bd8ec4fc0230fef43a","C3","batch3","spm_show_trial_num","null","<p class=block-text>Trial 27 out of 60</p>","null","","","","","","","","","","","","","","","","","","","","","","","","","",""
"","","","","","image-button-response","58","401931","0.0-2.0-4.0-1.2","5e3461bd8ec4fc0230fef43a","C3","batch3","spm_respsonse","15019.5","img/question_3_3.jpeg","2","mat_27","3","1","1","15019.5","","","","","","","","","","","","","","","","","","","","",""
"","","","","","html-keyboard-response","59","403006","0.0-2.0-4.0-0.3","5e3461bd8ec4fc0230fef43a","C3","batch3","spm_show_trial_num","null","<p class=block-text>Trial 28 out of 60</p>","null","","","","","","","","","","","","","","","","","","","","","","","","","",""
"","","","","","image-button-response","60","421104","0.0-2.0-4.0-1.3","5e3461bd8ec4fc0230fef43a","C3","batch3","spm_respsonse","18093.700000047684","img/question_3_4.jpeg","7","mat_28","8","1","1","18093.700000047684","","","","","","","","","","","","","","","","","","","","",""
"","","","","","html-keyboard-response","61","422176","0.0-2.0-4.0-0.4","5e3461bd8ec4fc0230fef43a","C3","batch3","spm_show_trial_num","null","<p class=block-text>Trial 29 out of 60</p>","null","","","","","","","","","","","","","","","","","","","","","","","","","",""
"","","","","","image-button-response","62","443865","0.0-2.0-4.0-1.4","5e3461bd8ec4fc0230fef43a","C3","batch3","spm_respsonse","21684.200000047684","img/question_3_5.jpeg","6","mat_29","7","1","1","21684.200000047684","","","","","","","","","","","","","","","","","","","","",""
"","","","","","html-keyboard-response","63","444935","0.0-2.0-4.0-0.5","5e3461bd8ec4fc0230fef43a","C3","batch3","spm_show_trial_num","null","<p class=block-text>Trial 30 out of 60</p>","null","","","","","","","","","","","","","","","","","","","","","","","","","",""
"","","","","","image-button-response","64","473202","0.0-2.0-4.0-1.5","5e3461bd8ec4fc0230fef43a","C3","batch3","spm_respsonse","28264.799999952316","img/question_3_6.jpeg","3","mat_30","4","1","1","28264.799999952316","","","","","","","","","","","","","","","","","","","","",""
"","","","","","html-keyboard-response","65","474270","0.0-2.0-4.0-0.6","5e3461bd8ec4fc0230fef43a","C3","batch3","spm_show_trial_num","null","<p class=block-text>Trial 31 out of 60</p>","null","","","","","","","","","","","","","","","","","","","","","","","","","",""
"","","","","","image-button-response","66","485584","0.0-2.0-4.0-1.6","5e3461bd8ec4fc0230fef43a","C3","batch3","spm_respsonse","11309.099999904633","img/question_3_7.jpeg","4","mat_31","5","1","1","11309.099999904633","","","","","","","","","","","","","","","","","","","","",""
"","","","","","html-keyboard-response","67","486642","0.0-2.0-4.0-0.7","5e3461bd8ec4fc0230fef43a","C3","batch3","spm_show_trial_num","null","<p class=block-text>Trial 32 out of 60</p>","null","","","","","","","","","","","","","","","","","","","","","","","","","",""
"","","","","","image-button-response","68","560692","0.0-2.0-4.0-1.7","5e3461bd8ec4fc0230fef43a","C3","batch3","spm_respsonse","74044.5","img/question_3_8.jpeg","2","mat_32","1","0","0","74044.5","","","","","","","","","","","","","","","","","","","","",""
"","","","","","html-keyboard-response","69","561767","0.0-2.0-4.0-0.8","5e3461bd8ec4fc0230fef43a","C3","batch3","spm_show_trial_num","null","<p class=block-text>Trial 33 out of 60</p>","null","","","","","","","","","","","","","","","","","","","","","","","","","",""
"","","","","","image-button-response","70","586258","0.0-2.0-4.0-1.8","5e3461bd8ec4fc0230fef43a","C3","batch3","spm_respsonse","24485.5","img/question_3_9.jpeg","6","mat_33","7","1","1","24485.5","","","","","","","","","","","","","","","","","","","","",""
"","","","","","html-keyboard-response","71","587321","0.0-2.0-4.0-0.9","5e3461bd8ec4fc0230fef43a","C3","batch3","spm_show_trial_num","null","<p class=block-text>Trial 34 out of 60</p>","null","","","","","","","","","","","","","","","","","","","","","","","","","",""
"","","","","","image-button-response","72","669844","0.0-2.0-4.0-1.9","5e3461bd8ec4fc0230fef43a","C3","batch3","spm_respsonse","82518.29999995232","img/question_3_10.jpeg","2","mat_34","6","0","0","82518.29999995232","","","","","","","","","","","","","","","","","","","","",""
"","","","","","html-keyboard-response","73","670920","0.0-2.0-4.0-0.10","5e3461bd8ec4fc0230fef43a","C3","batch3","spm_show_trial_num","null","<p class=block-text>Trial 35 out of 60</p>","null","","","","","","","","","","","","","","","","","","","","","","","","","",""
"","","","","","image-button-response","74","695787","0.0-2.0-4.0-1.10","5e3461bd8ec4fc0230fef43a","C3","batch3","spm_respsonse","24863.200000047684","img/question_3_11.jpeg","0","mat_35","1","1","1","24863.200000047684","","","","","","","","","","","","","","","","","","","","",""
"","","","","","html-keyboard-response","75","696856","0.0-2.0-4.0-0.11","5e3461bd8ec4fc0230fef43a","C3","batch3","spm_show_trial_num","null","<p class=block-text>Trial 36 out of 60</p>","null","","","","","","","","","","","","","","","","","","","","","","","","","",""
"","","","","","image-button-response","76","808443","0.0-2.0-4.0-1.11","5e3461bd8ec4fc0230fef43a","C3","batch3","spm_respsonse","111585.70000004768","img/question_3_12.jpeg","1","mat_36","2","1","1","111585.70000004768","","","","","","","","","","","","","","","","","","","","",""
"","","","","","html-keyboard-response","77","809502","0.0-2.0-4.0-0.12","5e3461bd8ec4fc0230fef43a","C3","batch3","spm_show_trial_num","null","<p class=block-text>Trial 37 out of 60</p>","null","","","","","","","","","","","","","","","","","","","","","","","","","",""
"","","","","","image-button-response","78","821588","0.0-2.0-4.0-1.12","5e3461bd8ec4fc0230fef43a","C3","batch3","spm_respsonse","12080.900000095367","img/question_4_1.jpeg","2","mat_37","3","1","1","12080.900000095367","","","","","","","","","","","","","","","","","","","","",""
"","","","","","html-keyboard-response","79","822656","0.0-2.0-4.0-0.13","5e3461bd8ec4fc0230fef43a","C3","batch3","spm_show_trial_num","null","<p class=block-text>Trial 38 out of 60</p>","null","","","","","","","","","","","","","","","","","","","","","","","","","",""
"","","","","","image-button-response","80","832358","0.0-2.0-4.0-1.13","5e3461bd8ec4fc0230fef43a","C3","batch3","spm_respsonse","9697","img/question_4_2.jpeg","3","mat_38","4","1","1","9697","","","","","","","","","","","","","","","","","","","","",""
"","","","","","html-keyboard-response","81","833424","0.0-2.0-4.0-0.14","5e3461bd8ec4fc0230fef43a","C3","batch3","spm_show_trial_num","null","<p class=block-text>Trial 39 out of 60</p>","null","","","","","","","","","","","","","","","","","","","","","","","","","",""
"","","","","","image-button-response","82","846158","0.0-2.0-4.0-1.14","5e3461bd8ec4fc0230fef43a","C3","batch3","spm_respsonse","12728.799999952316","img/question_4_3.jpeg","2","mat_39","3","1","1","12728.799999952316","","","","","","","","","","","","","","","","","","","","",""
"","","","","","html-keyboard-response","83","847222","0.0-2.0-4.0-0.15","5e3461bd8ec4fc0230fef43a","C3","batch3","spm_show_trial_num","null","<p class=block-text>Trial 40 out of 60</p>","null","","","","","","","","","","","","","","","","","","","","","","","","","",""
"","","","","","image-button-response","84","868970","0.0-2.0-4.0-1.15","5e3461bd8ec4fc0230fef43a","C3","batch3","spm_respsonse","21743.200000047684","img/question_4_4.jpeg","6","mat_40","7","1","1","21743.200000047684","","","","","","","","","","","","","","","","","","","","",""
"","","","","","html-keyboard-response","85","870035","0.0-2.0-4.0-0.16","5e3461bd8ec4fc0230fef43a","C3","batch3","spm_show_trial_num","null","<p class=block-text>Trial 41 out of 60</p>","null","","","","","","","","","","","","","","","","","","","","","","","","","",""
"","","","","","image-button-response","86","889278","0.0-2.0-4.0-1.16","5e3461bd8ec4fc0230fef43a","C3","batch3","spm_respsonse","19244.599999904633","img/question_4_5.jpeg","7","mat_41","8","1","1","19244.599999904633","","","","","","","","","","","","","","","","","","","","",""
"","","","","","html-keyboard-response","87","890344","0.0-2.0-4.0-0.17","5e3461bd8ec4fc0230fef43a","C3","batch3","spm_show_trial_num","null","<p class=block-text>Trial 42 out of 60</p>","null","","","","","","","","","","","","","","","","","","","","","","","","","",""
"","","","","","image-button-response","88","919198","0.0-2.0-4.0-1.17","5e3461bd8ec4fc0230fef43a","C3","batch3","spm_respsonse","28849.099999904633","img/question_4_6.jpeg","5","mat_42","6","1","1","28849.099999904633","","","","","","","","","","","","","","","","","","","","",""
"","","","","","html-keyboard-response","89","920258","0.0-2.0-4.0-0.18","5e3461bd8ec4fc0230fef43a","C3","batch3","spm_show_trial_num","null","<p class=block-text>Trial 43 out of 60</p>","null","","","","","","","","","","","","","","","","","","","","","","","","","",""
"","","","","","image-button-response","90","940962","0.0-2.0-4.0-1.18","5e3461bd8ec4fc0230fef43a","C3","batch3","spm_respsonse","20693.700000047684","img/question_4_7.jpeg","7","mat_43","5","0","0","20693.700000047684","","","","","","","","","","","","","","","","","","","","",""
"","","","","","html-keyboard-response","91","942026","0.0-2.0-4.0-0.19","5e3461bd8ec4fc0230fef43a","C3","batch3","spm_show_trial_num","null","<p class=block-text>Trial 44 out of 60</p>","null","","","","","","","","","","","","","","","","","","","","","","","","","",""
"","","","","","image-button-response","92","953354","0.0-2.0-4.0-1.19","5e3461bd8ec4fc0230fef43a","C3","batch3","spm_respsonse","11326.199999809265","img/question_4_8.jpeg","3","mat_44","4","1","1","11326.199999809265","","","","","","","","","","","","","","","","","","","","",""
"","","","","","html-keyboard-response","93","954416","0.0-2.0-4.0-0.20","5e3461bd8ec4fc0230fef43a","C3","batch3","spm_show_trial_num","null","<p class=block-text>Trial 45 out of 60</p>","null","","","","","","","","","","","","","","","","","","","","","","","","","",""
"","","","","","image-button-response","94","983995","0.0-2.0-4.0-1.20","5e3461bd8ec4fc0230fef43a","C3","batch3","spm_respsonse","29574.60000014305","img/question_4_9.jpeg","0","mat_45","1","1","1","29574.60000014305","","","","","","","","","","","","","","","","","","","","",""
"","","","","","html-keyboard-response","95","985060","0.0-2.0-4.0-0.21","5e3461bd8ec4fc0230fef43a","C3","batch3","spm_show_trial_num","null","<p class=block-text>Trial 46 out of 60</p>","null","","","","","","","","","","","","","","","","","","","","","","","","","",""
"","","","","","image-button-response","96","1011762","0.0-2.0-4.0-1.21","5e3461bd8ec4fc0230fef43a","C3","batch3","spm_respsonse","26696.799999952316","img/question_4_10.jpeg","2","mat_46","2","0","0","26696.799999952316","","","","","","","","","","","","","","","","","","","","",""
"","","","","","html-keyboard-response","97","1012820","0.0-2.0-4.0-0.22","5e3461bd8ec4fc0230fef43a","C3","batch3","spm_show_trial_num","null","<p class=block-text>Trial 47 out of 60</p>","null","","","","","","","","","","","","","","","","","","","","","","","","","",""
"","","","","","image-button-response","98","1076889","0.0-2.0-4.0-1.22","5e3461bd8ec4fc0230fef43a","C3","batch3","spm_respsonse","64064.800000190735","img/question_4_11.jpeg","2","mat_47","5","0","0","64064.800000190735","","","","","","","","","","","","","","","","","","","","",""
"","","","","","html-keyboard-response","99","1077946","0.0-2.0-4.0-0.23","5e3461bd8ec4fc0230fef43a","C3","batch3","spm_show_trial_num","null","<p class=block-text>Trial 48 out of 60</p>","null","","","","","","","","","","","","","","","","","","","","","","","","","",""
"","","","","","image-button-response","100","1170559","0.0-2.0-4.0-1.23","5e3461bd8ec4fc0230fef43a","C3","batch3","spm_respsonse","92609.5","img/question_4_12.jpeg","6","mat_48","6","0","0","92609.5","","","","","","","","","","","","","","","","","","","","",""
"","","","","","html-keyboard-response","101","1171621","0.0-2.0-4.0-0.24","5e3461bd8ec4fc0230fef43a","C3","batch3","spm_show_trial_num","null","<p class=block-text>Trial 49 out of 60</p>","null","","","","","","","","","","","","","","","","","","","","","","","","","",""
"","","","","","image-button-response","102","1186786","0.0-2.0-4.0-1.24","5e3461bd8ec4fc0230fef43a","C3","batch3","spm_respsonse","15159.299999952316","img/question_5_1.jpeg","6","mat_49","7","1","1","15159.299999952316","","","","","","","","","","","","","","","","","","","","",""
"","","","","","html-keyboard-response","103","1187845","0.0-2.0-4.0-0.25","5e3461bd8ec4fc0230fef43a","C3","batch3","spm_show_trial_num","null","<p class=block-text>Trial 50 out of 60</p>","null","","","","","","","","","","","","","","","","","","","","","","","","","",""
"","","","","","image-button-response","104","1251504","0.0-2.0-4.0-1.25","5e3461bd8ec4fc0230fef43a","C3","batch3","spm_respsonse","63653.300000190735","img/question_5_2.jpeg","5","mat_50","6","1","1","63653.300000190735","","","","","","","","","","","","","","","","","","","","",""
"","","","","","html-keyboard-response","105","1252570","0.0-2.0-4.0-0.26","5e3461bd8ec4fc0230fef43a","C3","batch3","spm_show_trial_num","null","<p class=block-text>Trial 51 out of 60</p>","null","","","","","","","","","","","","","","","","","","","","","","","","","",""
"","","","","","image-button-response","106","1328840","0.0-2.0-4.0-1.26","5e3461bd8ec4fc0230fef43a","C3","batch3","spm_respsonse","76265","img/question_5_3.jpeg","2","mat_51","8","0","0","76265","","","","","","","","","","","","","","","","","","","","",""
"","","","","","html-keyboard-response","107","1329906","0.0-2.0-4.0-0.27","5e3461bd8ec4fc0230fef43a","C3","batch3","spm_show_trial_num","null","<p class=block-text>Trial 52 out of 60</p>","null","","","","","","","","","","","","","","","","","","","","","","","","","",""
"","","","","","image-button-response","108","1400563","0.0-2.0-4.0-1.27","5e3461bd8ec4fc0230fef43a","C3","batch3","spm_respsonse","70651.20000004768","img/question_5_4.jpeg","2","mat_52","2","0","0","70651.20000004768","","","","","","","","","","","","","","","","","","","","",""
"","","","","","html-keyboard-response","109","1401616","0.0-2.0-4.0-0.28","5e3461bd8ec4fc0230fef43a","C3","batch3","spm_show_trial_num","null","<p class=block-text>Trial 53 out of 60</p>","null","","","","","","","","","","","","","","","","","","","","","","","","","",""
"","","","","","image-button-response","110","1423003","0.0-2.0-4.0-1.28","5e3461bd8ec4fc0230fef43a","C3","batch3","spm_respsonse","21383.199999809265","img/question_5_5.jpeg","6","mat_53","1","0","0","21383.199999809265","","","","","","","","","","","","","","","","","","","","",""
"","","","","","html-keyboard-response","111","1424063","0.0-2.0-4.0-0.29","5e3461bd8ec4fc0230fef43a","C3","batch3","spm_show_trial_num","null","<p class=block-text>Trial 54 out of 60</p>","null","","","","","","","","","","","","","","","","","","","","","","","","","",""
"","","","","","image-button-response","112","1521099","0.0-2.0-4.0-1.29","5e3461bd8ec4fc0230fef43a","C3","batch3","spm_respsonse","97032.10000014305","img/question_5_6.jpeg","1","mat_54","5","0","0","97032.10000014305","","","","","","","","","","","","","","","","","","","","",""
"","","","","","html-keyboard-response","113","1522166","0.0-2.0-4.0-0.30","5e3461bd8ec4fc0230fef43a","C3","batch3","spm_show_trial_num","null","<p class=block-text>Trial 55 out of 60</p>","null","","","","","","","","","","","","","","","","","","","","","","","","","",""
"","","","","","image-button-response","114","1564300","0.0-2.0-4.0-1.30","5e3461bd8ec4fc0230fef43a","C3","batch3","spm_respsonse","42128.10000014305","img/question_5_7.jpeg","4","mat_55","1","0","0","42128.10000014305","","","","","","","","","","","","","","","","","","","","",""
"","","","","","html-keyboard-response","115","1565362","0.0-2.0-4.0-0.31","5e3461bd8ec4fc0230fef43a","C3","batch3","spm_show_trial_num","null","<p class=block-text>Trial 56 out of 60</p>","null","","","","","","","","","","","","","","","","","","","","","","","","","",""
"","","","","","image-button-response","116","1628220","0.0-2.0-4.0-1.31","5e3461bd8ec4fc0230fef43a","C3","batch3","spm_respsonse","62852.700000047684","img/question_5_8.jpeg","1","mat_56","6","0","0","62852.700000047684","","","","","","","","","","","","","","","","","","","","",""
"","","","","","html-keyboard-response","117","1629294","0.0-2.0-4.0-0.32","5e3461bd8ec4fc0230fef43a","C3","batch3","spm_show_trial_num","null","<p class=block-text>Trial 57 out of 60</p>","null","","","","","","","","","","","","","","","","","","","","","","","","","",""
"","","","","","image-button-response","118","1680245","0.0-2.0-4.0-1.32","5e3461bd8ec4fc0230fef43a","C3","batch3","spm_respsonse","50946.700000047684","img/question_5_9.jpeg","3","mat_57","3","0","0","50946.700000047684","","","","","","","","","","","","","","","","","","","","",""
"","","","","","html-keyboard-response","119","1681314","0.0-2.0-4.0-0.33","5e3461bd8ec4fc0230fef43a","C3","batch3","spm_show_trial_num","null","<p class=block-text>Trial 58 out of 60</p>","null","","","","","","","","","","","","","","","","","","","","","","","","","",""
"","","","","","image-button-response","120","1735256","0.0-2.0-4.0-1.33","5e3461bd8ec4fc0230fef43a","C3","batch3","spm_respsonse","53937.39999985695","img/question_5_10.jpeg","6","mat_58","2","0","0","53937.39999985695","","","","","","","","","","","","","","","","","","","","",""
"","","","","","html-keyboard-response","121","1736324","0.0-2.0-4.0-0.34","5e3461bd8ec4fc0230fef43a","C3","batch3","spm_show_trial_num","null","<p class=block-text>Trial 59 out of 60</p>","null","","","","","","","","","","","","","","","","","","","","","","","","","",""
"","","","","","image-button-response","122","1818264","0.0-2.0-4.0-1.34","5e3461bd8ec4fc0230fef43a","C3","batch3","spm_respsonse","81934.39999985695","img/question_5_11.jpeg","5","mat_59","4","0","0","81934.39999985695","","","","","","","","","","","","","","","","","","","","",""
"","","","","","html-keyboard-response","123","1819340","0.0-2.0-4.0-0.35","5e3461bd8ec4fc0230fef43a","C3","batch3","spm_show_trial_num","null","<p class=block-text>Trial 60 out of 60</p>","null","","","","","","","","","","","","","","","","","","","","","","","","","",""
"","","","","","image-button-response","124","1943224","0.0-2.0-4.0-1.35","5e3461bd8ec4fc0230fef43a","C3","batch3","spm_respsonse","123877.20000004768","img/question_5_12.jpeg","1","mat_60","5","0","0","123877.20000004768","","","","","","","","","","","","","","","","","","","","",""
"","","","","","html-button-response","125","1947349","0.0-2.0-5.0","5e3461bd8ec4fc0230fef43a","C3","batch3","spm_goodbye","3866.5999999046326","<p class= block-text>This concludes the Standard Progressive Matrix game. Thank you for your responses!<br> When you are ready, click the button continue</p>","0","","","","","","","","","","","","","","","","","","","","","","","","","",""
"true","","","","","fullscreen","126","1951668","0.0-3.0-0.0","5e3461bd8ec4fc0230fef43a","C3","batch3","","","","","","","","","","","","","","","","","","","","","","","","","","","","","",""
"","","","","","instructions","127","1983202","0.0-3.0-1.0-0.0","5e3461bd8ec4fc0230fef43a","C3","batch3","","31530.700000047684","","","","","","","","[{""page_index"":0,""viewing_time"":19299},{""page_index"":1,""viewing_time"":12231.400000095367}]","","","","","","","","","","","","","","","","","","","",""
"","","","","","html-button-response","128","1985278","0.0-3.0-1.0-1.0-0.0","5e3461bd8ec4fc0230fef43a","C3","batch3","pattern_enter_quiz","2074.9000000953674","<p class=block-text> Let's answer a few questions <br>","0","","","","","","","","","","","","","","","","","","","","","","","","","",""
"","","","","","html-button-response","129","1988495","0.0-3.0-1.0-1.0-1.0","5e3461bd8ec4fc0230fef43a","C3","batch3","pattern_quiz","3215.2999999523163","<p class = block-text>True or False: You will have as much time as you want to make each choice. <br></p>","1","","","true","","","","","","","","","","","","","","","","","","","","","","",""
"","","","","","html-button-response","130","1990446","0.0-3.0-1.0-1.0-2.0","5e3461bd8ec4fc0230fef43a","C3","batch3","pattern_quiz_feedback","1949.7999999523163","<p class = block-text>Correct! You should make your choice <strong> as fast as you can</strong>.</p>","0","","","","","","","","","","","","","","","","","","","","","","","","","",""
"","","","","","html-button-response","131","2000418","0.0-3.0-1.0-1.0-3.0","5e3461bd8ec4fc0230fef43a","C3","batch3","pattern_quiz","9971.300000190735","<p class = block-text>True or False: You will look for 4 pieces in black or white color connected in a row either horizontally, vertically or diagonally. <br></p>","0","","","true","","","","","","","","","","","","","","","","","","","","","","",""
"","","","","","html-button-response","132","2001968","0.0-3.0-1.0-1.0-4.0","5e3461bd8ec4fc0230fef43a","C3","batch3","pattern_quiz_feedback","1548.4000000953674","<p class = block-text>Correct! </p>","0","","","","","","","","","","","","","","","","","","","","","","","","","",""
"","","","","","html-button-response","133","2006197","0.0-3.0-2.0","5e3461bd8ec4fc0230fef43a","C3","batch3","pattern_enter_practice","4226.299999952316","<p class=block-text> Now that you've understood the game, let's do a few practice trials before we start!<br> <br>","0","","","","","","","","","","","","","","","","","","","","","","","","","",""
"","","","","","image-keyboard-response","134","2008513","0.0-3.0-3.0-0.0","5e3461bd8ec4fc0230fef43a","C3","batch3","pattern_practice","2313.2999999523163","stim/prac_yes_20_dia_b1.png","j","","f","false","","","","","","","","","","","","","","","","","","","","","","",""
"","","","","","html-keyboard-response","135","2009541","0.0-3.0-3.0-1.0","5e3461bd8ec4fc0230fef43a","C3","batch3","pattern_feedback","null","<p style=""font-size:30px;color:red;"">Wrong.</p>","null","","","","","","","","","","","","","","","","","","","","","","","","","",""
"","","","","","image-keyboard-response","136","2012461","0.0-3.0-3.0-0.1","5e3461bd8ec4fc0230fef43a","C3","batch3","pattern_practice","2916.9000000953674","stim/prac_no_16_1.png","j","","j","true","","","","","","","","","","","","","","","","","","","","","","",""
"","","","","","html-keyboard-response","137","2013474","0.0-3.0-3.0-1.1","5e3461bd8ec4fc0230fef43a","C3","batch3","pattern_feedback","null","<p style=""font-size:30px;color:green;"">Correct!</p>","null","","","","","","","","","","","","","","","","","","","","","","","","","",""
"","","","","","image-keyboard-response","138","2014758","0.0-3.0-3.0-0.2","5e3461bd8ec4fc0230fef43a","C3","batch3","pattern_practice","1282.0999999046326","stim/prac_yes_16_ver_w1.png","f","","f","true","","","","","","","","","","","","","","","","","","","","","","",""
"","","","","","html-keyboard-response","139","2015774","0.0-3.0-3.0-1.2","5e3461bd8ec4fc0230fef43a","C3","batch3","pattern_feedback","null","<p style=""font-size:30px;color:green;"">Correct!</p>","null","","","","","","","","","","","","","","","","","","","","","","","","","",""
"","","","","","image-keyboard-response","140","2016736","0.0-3.0-3.0-0.3","5e3461bd8ec4fc0230fef43a","C3","batch3","pattern_practice","959","stim/prac_no_18_1.png","j","","j","true","","","","","","","","","","","","","","","","","","","","","","",""
"","","","","","html-keyboard-response","141","2017750","0.0-3.0-3.0-1.3","5e3461bd8ec4fc0230fef43a","C3","batch3","pattern_feedback","null","<p style=""font-size:30px;color:green;"">Correct!</p>","null","","","","","","","","","","","","","","","","","","","","","","","","","",""
"","","","","","image-keyboard-response","142","2018788","0.0-3.0-3.0-0.4","5e3461bd8ec4fc0230fef43a","C3","batch3","pattern_practice","1034.7999999523163","stim/prac_yes_18_hor_w1.png","f","","f","true","","","","","","","","","","","","","","","","","","","","","","",""
"","","","","","html-keyboard-response","143","2019819","0.0-3.0-3.0-1.4","5e3461bd8ec4fc0230fef43a","C3","batch3","pattern_feedback","null","<p style=""font-size:30px;color:green;"">Correct!</p>","null","","","","","","","","","","","","","","","","","","","","","","","","","",""
"","","","","","html-button-response","144","2026936","0.0-3.0-4.0","5e3461bd8ec4fc0230fef43a","C3","batch3","pattern_enter_official_trials","7112.799999952316","<p class=block-text> Good job! You are done with practice trials!<br>
        You responded correctly on 80% of the trials.<br>
        Press the button below to start official trials. Now you won't see any feedback about your response</p>","0","","","","","","","","","","","","","","","","","","","","","","","","","",""
"","","","","","html-keyboard-response","145","2027739","0.0-3.0-5.0-0.0","5e3461bd8ec4fc0230fef43a","C3","batch3","pattern_show_trial_num","null","<p class=block-text>Trial 1 out of 78</p>","null","","","","","","","","","","","","","","","","","","","","","","","","","",""
"","","","","","image-keyboard-response","146","2029163","0.0-3.0-5.0-1.0","5e3461bd8ec4fc0230fef43a","C3","batch3","pattern_response","1419.7999999523163","stim/no_28_2.png","j","pattern_11","j","true","","","","1419.7999999523163","true","1","","","","","","","","","","","","","","","","",""
"","","","","","html-keyboard-response","147","2030474","0.0-3.0-5.0-0.1","5e3461bd8ec4fc0230fef43a","C3","batch3","pattern_show_trial_num","null","<p class=block-text>Trial 2 out of 78</p>","null","","","","","","","","","","","","","","","","","","","","","","","","","",""
"","","","","","image-keyboard-response","148","2031874","0.0-3.0-5.0-1.1","5e3461bd8ec4fc0230fef43a","C3","batch3","pattern_response","1397.2000000476837","stim/no_12_1.png","j","pattern_01","j","true","","","","1397.2000000476837","true","2","","","","","","","","","","","","","","","","",""
"","","","","","html-keyboard-response","149","2033185","0.0-3.0-5.0-0.2","5e3461bd8ec4fc0230fef43a","C3","batch3","pattern_show_trial_num","null","<p class=block-text>Trial 3 out of 78</p>","null","","","","","","","","","","","","","","","","","","","","","","","","","",""
"","","","","","image-keyboard-response","150","2034506","0.0-3.0-5.0-1.2","5e3461bd8ec4fc0230fef43a","C3","batch3","pattern_response","1317.7999999523163","stim/yes_39_hor_w1_w.png","f","pattern_62","f","true","","","","1317.7999999523163","true","3","","","","","","","","","","","","","","","","",""
"","","","","","html-keyboard-response","151","2035820","0.0-3.0-5.0-0.3","5e3461bd8ec4fc0230fef43a","C3","batch3","pattern_show_trial_num","null","<p class=block-text>Trial 4 out of 78</p>","null","","","","","","","","","","","","","","","","","","","","","","","","","",""
"","","","","","image-keyboard-response","152","2037624","0.0-3.0-5.0-1.3","5e3461bd8ec4fc0230fef43a","C3","batch3","pattern_response","1799.2999999523163","stim/yes_23_ver_b1.png","j","pattern_48","f","false","","","","1799.2999999523163","false","3","","","","","","","","","","","","","","","","",""
"","","","","","html-keyboard-response","153","2038950","0.0-3.0-5.0-0.4","5e3461bd8ec4fc0230fef43a","C3","batch3","pattern_show_trial_num","null","<p class=block-text>Trial 5 out of 78</p>","null","","","","","","","","","","","","","","","","","","","","","","","","","",""
"","","","","","image-keyboard-response","154","2040213","0.0-3.0-5.0-1.4","5e3461bd8ec4fc0230fef43a","C3","batch3","pattern_response","1260.5","stim/yes_37_hor_w1_w.png","f","pattern_60","f","true","","","","1260.5","true","4","","","","","","","","","","","","","","","","",""
"","","","","","html-keyboard-response","155","2041534","0.0-3.0-5.0-0.5","5e3461bd8ec4fc0230fef43a","C3","batch3","pattern_show_trial_num","null","<p class=block-text>Trial 6 out of 78</p>","null","","","","","","","","","","","","","","","","","","","","","","","","","",""
"","","","","","image-keyboard-response","156","2042585","0.0-3.0-5.0-1.5","5e3461bd8ec4fc0230fef43a","C3","batch3","pattern_response","1047.0999999046326","stim/yes_29_hor_b1_b.png","f","pattern_52","f","true","","","","1047.0999999046326","true","5","","","","","","","","","","","","","","","","",""
"","","","","","html-keyboard-response","157","2043901","0.0-3.0-5.0-0.6","5e3461bd8ec4fc0230fef43a","C3","batch3","pattern_show_trial_num","null","<p class=block-text>Trial 7 out of 78</p>","null","","","","","","","","","","","","","","","","","","","","","","","","","",""
"","","","","","image-keyboard-response","158","2044863","0.0-3.0-5.0-1.6","5e3461bd8ec4fc0230fef43a","C3","batch3","pattern_response","958.9000000953674","stim/no_18_1_b.png","j","pattern_05","j","true","","","","958.9000000953674","true","6","","","","","","","","","","","","","","","","",""
"","","","","","html-keyboard-response","159","2046185","0.0-3.0-5.0-0.7","5e3461bd8ec4fc0230fef43a","C3","batch3","pattern_show_trial_num","null","<p class=block-text>Trial 8 out of 78</p>","null","","","","","","","","","","","","","","","","","","","","","","","","","",""
"","","","","","image-keyboard-response","160","2047761","0.0-3.0-5.0-1.7","5e3461bd8ec4fc0230fef43a","C3","batch3","pattern_response","1572.8000001907349","stim/no_36_1_b.png","j","pattern_17","j","true","","","","1572.8000001907349","true","7","","","","","","","","","","","","","","","","",""
"","","","","","html-keyboard-response","161","2049083","0.0-3.0-5.0-0.8","5e3461bd8ec4fc0230fef43a","C3","batch3","pattern_show_trial_num","null","<p class=block-text>Trial 9 out of 78</p>","null","","","","","","","","","","","","","","","","","","","","","","","","","",""
"","","","","","image-keyboard-response","162","2050659","0.0-3.0-5.0-1.8","5e3461bd8ec4fc0230fef43a","C3","batch3","pattern_response","1572.6000001430511","stim/no_25_1_b.png","j","pattern_09","j","true","","","","1572.6000001430511","true","8","","","","","","","","","","","","","","","","",""
"","","","","","html-keyboard-response","163","2051983","0.0-3.0-5.0-0.9","5e3461bd8ec4fc0230fef43a","C3","batch3","pattern_show_trial_num","null","<p class=block-text>Trial 10 out of 78</p>","null","","","","","","","","","","","","","","","","","","","","","","","","","",""
"","","","","","image-keyboard-response","164","2053892","0.0-3.0-5.0-1.9","5e3461bd8ec4fc0230fef43a","C3","batch3","pattern_response","1905.7999999523163","stim/yes_42_dia_w1_w.png","j","pattern_64","f","false","","","","1905.7999999523163","false","8","","","","","","","","","","","","","","","","",""
"","","","","","html-keyboard-response","165","2055216","0.0-3.0-5.0-0.10","5e3461bd8ec4fc0230fef43a","C3","batch3","pattern_show_trial_num","null","<p class=block-text>Trial 11 out of 78</p>","null","","","","","","","","","","","","","","","","","","","","","","","","","",""
"","","","","","image-keyboard-response","166","2056101","0.0-3.0-5.0-1.10","5e3461bd8ec4fc0230fef43a","C3","batch3","pattern_response","880.7999999523163","stim/yes_36_ver_w1_w.png","f","pattern_58","f","true","","","","880.7999999523163","true","9","","","","","","","","","","","","","","","","",""
"","","","","","html-keyboard-response","167","2057432","0.0-3.0-5.0-0.11","5e3461bd8ec4fc0230fef43a","C3","batch3","pattern_show_trial_num","null","<p class=block-text>Trial 12 out of 78</p>","null","","","","","","","","","","","","","","","","","","","","","","","","","",""
"","","","","","image-keyboard-response","168","2058377","0.0-3.0-5.0-1.11","5e3461bd8ec4fc0230fef43a","C3","batch3","pattern_response","943.2999999523163","stim/yes_30_ver_b1_b.png","f","pattern_54","f","true","","","","943.2999999523163","true","10","","","","","","","","","","","","","","","","",""
"","","","","","html-keyboard-response","169","2059699","0.0-3.0-5.0-0.12","5e3461bd8ec4fc0230fef43a","C3","batch3","pattern_show_trial_num","null","<p class=block-text>Trial 13 out of 78</p>","null","","","","","","","","","","","","","","","","","","","","","","","","","",""
"","","","","","image-keyboard-response","170","2061468","0.0-3.0-5.0-1.12","5e3461bd8ec4fc0230fef43a","C3","batch3","pattern_response","1766.2999999523163","stim/no_43_2_b.png","j","pattern_23","j","true","","","","1766.2999999523163","true","11","","","","","","","","","","","","","","","","",""
"","","","","","html-keyboard-response","171","2062793","0.0-3.0-5.0-0.13","5e3461bd8ec4fc0230fef43a","C3","batch3","pattern_show_trial_num","null","<p class=block-text>Trial 14 out of 78</p>","null","","","","","","","","","","","","","","","","","","","","","","","","","",""
"","","","","","image-keyboard-response","172","2063949","0.0-3.0-5.0-1.13","5e3461bd8ec4fc0230fef43a","C3","batch3","pattern_response","1152.2999999523163","stim/yes_26_dia_w2_w.png","j","pattern_50","f","false","","","","1152.2999999523163","false","11","","","","","","","","","","","","","","","","",""
"","","","","","html-keyboard-response","173","2065264","0.0-3.0-5.0-0.14","5e3461bd8ec4fc0230fef43a","C3","batch3","pattern_show_trial_num","null","<p class=block-text>Trial 15 out of 78</p>","null","","","","","","","","","","","","","","","","","","","","","","","","","",""
"","","","","","image-keyboard-response","174","2068177","0.0-3.0-5.0-1.14","5e3461bd8ec4fc0230fef43a","C3","batch3","pattern_response","2910.399999856949","stim/no_58_1_w.png","j","pattern_35","j","true","","","","2910.399999856949","true","12","","","","","","","","","","","","","","","","",""
"","","","","","html-keyboard-response","175","2069495","0.0-3.0-5.0-0.15","5e3461bd8ec4fc0230fef43a","C3","batch3","pattern_show_trial_num","null","<p class=block-text>Trial 16 out of 78</p>","null","","","","","","","","","","","","","","","","","","","","","","","","","",""
"","","","","","image-keyboard-response","176","2070297","0.0-3.0-5.0-1.15","5e3461bd8ec4fc0230fef43a","C3","batch3","pattern_response","798","stim/yes_17_ver_b1_b.png","f","pattern_46","f","true","","","","798","true","13","","","","","","","","","","","","","","","","",""
"","","","","","html-keyboard-response","177","2071613","0.0-3.0-5.0-0.16","5e3461bd8ec4fc0230fef43a","C3","batch3","pattern_show_trial_num","null","<p class=block-text>Trial 17 out of 78</p>","null","","","","","","","","","","","","","","","","","","","","","","","","","",""
"","","","","","image-keyboard-response","178","2072947","0.0-3.0-5.0-1.16","5e3461bd8ec4fc0230fef43a","C3","batch3","pattern_response","1331.7000000476837","stim/no_30_1_b.png","j","pattern_13","j","true","","","","1331.7000000476837","true","14","","","","","","","","","","","","","","","","",""
"","","","","","html-keyboard-response","179","2074263","0.0-3.0-5.0-0.17","5e3461bd8ec4fc0230fef43a","C3","batch3","pattern_show_trial_num","null","<p class=block-text>Trial 18 out of 78</p>","null","","","","","","","","","","","","","","","","","","","","","","","","","",""
"","","","","","image-keyboard-response","180","2075730","0.0-3.0-5.0-1.17","5e3461bd8ec4fc0230fef43a","C3","batch3","pattern_response","1464.2000000476837","stim/no_33_1_b.png","j","pattern_15","j","true","","","","1464.2000000476837","true","15","","","","","","","","","","","","","","","","",""
"","","","","","html-keyboard-response","181","2077048","0.0-3.0-5.0-0.18","5e3461bd8ec4fc0230fef43a","C3","batch3","pattern_show_trial_num","null","<p class=block-text>Trial 19 out of 78</p>","null","","","","","","","","","","","","","","","","","","","","","","","","","",""
"","","","","","image-keyboard-response","182","2079239","0.0-3.0-5.0-1.18","5e3461bd8ec4fc0230fef43a","C3","batch3","pattern_response","2187.2999999523163","stim/no_37_2_w.png","j","pattern_19","j","true","","","","2187.2999999523163","true","16","","","","","","","","","","","","","","","","",""
"","","","","","html-keyboard-response","183","2080563","0.0-3.0-5.0-0.19","5e3461bd8ec4fc0230fef43a","C3","batch3","pattern_show_trial_num","null","<p class=block-text>Trial 20 out of 78</p>","null","","","","","","","","","","","","","","","","","","","","","","","","","",""
"","","","","","image-keyboard-response","184","2082709","0.0-3.0-5.0-1.19","5e3461bd8ec4fc0230fef43a","C3","batch3","pattern_response","2142.699999809265","stim/yes_46_ver_b1_b.png","j","pattern_68","f","false","","","","2142.699999809265","false","16","","","","","","","","","","","","","","","","",""
"","","","","","html-keyboard-response","185","2084028","0.0-3.0-5.0-0.20","5e3461bd8ec4fc0230fef43a","C3","batch3","pattern_show_trial_num","null","<p class=block-text>Trial 21 out of 78</p>","null","","","","","","","","","","","","","","","","","","","","","","","","","",""
"","","","","","image-keyboard-response","186","2086908","0.0-3.0-5.0-1.20","5e3461bd8ec4fc0230fef43a","C3","batch3","pattern_response","2876.2000000476837","stim/yes_58_dia_w1_w.png","j","pattern_76","f","false","","","","2876.2000000476837","false","16","","","","","","","","","","","","","","","","",""
"","","","","","html-keyboard-response","187","2088228","0.0-3.0-5.0-0.21","5e3461bd8ec4fc0230fef43a","C3","batch3","pattern_show_trial_num","null","<p class=block-text>Trial 22 out of 78</p>","null","","","","","","","","","","","","","","","","","","","","","","","","","",""
"","","","","","image-keyboard-response","188","2089469","0.0-3.0-5.0-1.21","5e3461bd8ec4fc0230fef43a","C3","batch3","pattern_response","1238.7000000476837","stim/yes_53_ver_b1_b.png","f","pattern_74","f","true","","","","1238.7000000476837","true","17","","","","","","","","","","","","","","","","",""
"","","","","","html-keyboard-response","189","2090794","0.0-3.0-5.0-0.22","5e3461bd8ec4fc0230fef43a","C3","batch3","pattern_show_trial_num","null","<p class=block-text>Trial 23 out of 78</p>","null","","","","","","","","","","","","","","","","","","","","","","","","","",""
"","","","","","image-keyboard-response","190","2093461","0.0-3.0-5.0-1.22","5e3461bd8ec4fc0230fef43a","C3","batch3","pattern_response","2664.800000190735","stim/no_51_1.png","j","pattern_31","j","true","","","","2664.800000190735","true","18","","","","","","","","","","","","","","","","",""
"","","","","","html-keyboard-response","191","2094776","0.0-3.0-5.0-0.23","5e3461bd8ec4fc0230fef43a","C3","batch3","pattern_show_trial_num","null","<p class=block-text>Trial 24 out of 78</p>","null","","","","","","","","","","","","","","","","","","","","","","","","","",""
"","","","","","image-keyboard-response","192","2096974","0.0-3.0-5.0-1.23","5e3461bd8ec4fc0230fef43a","C3","batch3","pattern_response","2196.199999809265","stim/yes_44_ver_w1_w.png","j","pattern_66","f","false","","","","2196.199999809265","false","18","","","","","","","","","","","","","","","","",""
"","","","","","html-keyboard-response","193","2098291","0.0-3.0-5.0-0.24","5e3461bd8ec4fc0230fef43a","C3","batch3","pattern_show_trial_num","null","<p class=block-text>Trial 25 out of 78</p>","null","","","","","","","","","","","","","","","","","","","","","","","","","",""
"","","","","","image-keyboard-response","194","2099116","0.0-3.0-5.0-1.24","5e3461bd8ec4fc0230fef43a","C3","batch3","pattern_response","820.5","stim/no_15_1_w.png","j","pattern_03","j","true","","","","820.5","true","19","","","","","","","","","","","","","","","","",""
"","","","","","html-keyboard-response","195","2100441","0.0-3.0-5.0-0.25","5e3461bd8ec4fc0230fef43a","C3","batch3","pattern_show_trial_num","null","<p class=block-text>Trial 26 out of 78</p>","null","","","","","","","","","","","","","","","","","","","","","","","","","",""
"","","","","","image-keyboard-response","196","2102502","0.0-3.0-5.0-1.25","5e3461bd8ec4fc0230fef43a","C3","batch3","pattern_response","2057.5999999046326","stim/yes_70_ver_b1.png","f","pattern_80","f","true","","","","2057.5999999046326","true","20","","","","","","","","","","","","","","","","",""
"","","","","","html-keyboard-response","197","2103825","0.0-3.0-5.0-0.26","5e3461bd8ec4fc0230fef43a","C3","batch3","pattern_show_trial_num","null","<p class=block-text>Trial 27 out of 78</p>","null","","","","","","","","","","","","","","","","","","","","","","","","","",""
"","","","","","image-keyboard-response","198","2106352","0.0-3.0-5.0-1.26","5e3461bd8ec4fc0230fef43a","C3","batch3","pattern_response","2522.4000000953674","stim/yes_51_dia_b1.png","j","pattern_72","f","false","","","","2522.4000000953674","false","20","","","","","","","","","","","","","","","","",""
"","","","","","html-keyboard-response","199","2107679","0.0-3.0-5.0-0.27","5e3461bd8ec4fc0230fef43a","C3","batch3","pattern_show_trial_num","null","<p class=block-text>Trial 28 out of 78</p>","null","","","","","","","","","","","","","","","","","","","","","","","","","",""
"","","","","","image-keyboard-response","200","2110009","0.0-3.0-5.0-1.27","5e3461bd8ec4fc0230fef43a","C3","batch3","pattern_response","2325.600000143051","stim/no_53_1_b.png","j","pattern_33","j","true","","","","2325.600000143051","true","21","","","","","","","","","","","","","","","","",""
"","","","","","html-keyboard-response","201","2111324","0.0-3.0-5.0-0.28","5e3461bd8ec4fc0230fef43a","C3","batch3","pattern_show_trial_num","null","<p class=block-text>Trial 29 out of 78</p>","null","","","","","","","","","","","","","","","","","","","","","","","","","",""
"","","","","","image-keyboard-response","202","2112163","0.0-3.0-5.0-1.28","5e3461bd8ec4fc0230fef43a","C3","batch3","pattern_response","836.7000000476837","stim/yes_15_dia_b1u_b.png","j","pattern_44","f","false","","","","836.7000000476837","false","21","","","","","","","","","","","","","","","","",""
"","","","","","html-keyboard-response","203","2113476","0.0-3.0-5.0-0.29","5e3461bd8ec4fc0230fef43a","C3","batch3","pattern_show_trial_num","null","<p class=block-text>Trial 30 out of 78</p>","null","","","","","","","","","","","","","","","","","","","","","","","","","",""
"","","","","","image-keyboard-response","204","2115036","0.0-3.0-5.0-1.29","5e3461bd8ec4fc0230fef43a","C3","batch3","pattern_response","1557.5","stim/no_22_1_b.png","j","pattern_07","j","true","","","","1557.5","true","22","","","","","","","","","","","","","","","","",""
"","","","","","html-keyboard-response","205","2116358","0.0-3.0-5.0-0.30","5e3461bd8ec4fc0230fef43a","C3","batch3","pattern_show_trial_num","null","<p class=block-text>Trial 31 out of 78</p>","null","","","","","","","","","","","","","","","","","","","","","","","","","",""
"","","","","","image-keyboard-response","206","2117218","0.0-3.0-5.0-1.30","5e3461bd8ec4fc0230fef43a","C3","batch3","pattern_response","857.5","stim/yes_49_hor_w1_b.png","f","pattern_70","f","true","","","","857.5","true","23","","","","","","","","","","","","","","","","",""
"","","","","","html-keyboard-response","207","2118542","0.0-3.0-5.0-0.31","5e3461bd8ec4fc0230fef43a","C3","batch3","pattern_show_trial_num","null","<p class=block-text>Trial 32 out of 78</p>","null","","","","","","","","","","","","","","","","","","","","","","","","","",""
"","","","","","image-keyboard-response","208","2120699","0.0-3.0-5.0-1.31","5e3461bd8ec4fc0230fef43a","C3","batch3","pattern_response","2155.7999999523163","stim/no_45_1_w.png","j","pattern_25","j","true","","","","2155.7999999523163","true","24","","","","","","","","","","","","","","","","",""
"","","","","","html-keyboard-response","209","2122020","0.0-3.0-5.0-0.32","5e3461bd8ec4fc0230fef43a","C3","batch3","pattern_show_trial_num","null","<p class=block-text>Trial 33 out of 78</p>","null","","","","","","","","","","","","","","","","","","","","","","","","","",""
"","","","","","image-keyboard-response","210","2126001","0.0-3.0-5.0-1.32","5e3461bd8ec4fc0230fef43a","C3","batch3","pattern_response","3976.7999999523163","stim/no_67_1.png","j","pattern_39","j","true","","","","3976.7999999523163","true","25","","","","","","","","","","","","","","","","",""
"","","","","","html-keyboard-response","211","2127324","0.0-3.0-5.0-0.33","5e3461bd8ec4fc0230fef43a","C3","batch3","pattern_show_trial_num","null","<p class=block-text>Trial 34 out of 78</p>","null","","","","","","","","","","","","","","","","","","","","","","","","","",""
"","","","","","image-keyboard-response","212","2131628","0.0-3.0-5.0-1.33","5e3461bd8ec4fc0230fef43a","C3","batch3","pattern_response","4297.5","stim/yes_63_dia_b1.png","j","pattern_78","f","false","","","","4297.5","false","25","","","","","","","","","","","","","","","","",""
"","","","","","html-keyboard-response","213","2132953","0.0-3.0-5.0-0.34","5e3461bd8ec4fc0230fef43a","C3","batch3","pattern_show_trial_num","null","<p class=block-text>Trial 35 out of 78</p>","null","","","","","","","","","","","","","","","","","","","","","","","","","",""
"","","","","","image-keyboard-response","214","2135575","0.0-3.0-5.0-1.34","5e3461bd8ec4fc0230fef43a","C3","batch3","pattern_response","2616.7999999523163","stim/no_39_1_w.png","j","pattern_21","j","true","","","","2616.7999999523163","true","26","","","","","","","","","","","","","","","","",""
"","","","","","html-keyboard-response","215","2136903","0.0-3.0-5.0-0.35","5e3461bd8ec4fc0230fef43a","C3","batch3","pattern_show_trial_num","null","<p class=block-text>Trial 36 out of 78</p>","null","","","","","","","","","","","","","","","","","","","","","","","","","",""
"","","","","","image-keyboard-response","216","2139340","0.0-3.0-5.0-1.35","5e3461bd8ec4fc0230fef43a","C3","batch3","pattern_response","2432.2999999523163","stim/yes_33_dia_w1_w.png","j","pattern_56","f","false","","","","2432.2999999523163","false","26","","","","","","","","","","","","","","","","",""
"","","","","","html-keyboard-response","217","2140668","0.0-3.0-5.0-0.36","5e3461bd8ec4fc0230fef43a","C3","batch3","pattern_show_trial_num","null","<p class=block-text>Trial 37 out of 78</p>","null","","","","","","","","","","","","","","","","","","","","","","","","","",""
"","","","","","image-keyboard-response","218","2143521","0.0-3.0-5.0-1.36","5e3461bd8ec4fc0230fef43a","C3","batch3","pattern_response","2849.0999999046326","stim/no_49_2_b.png","j","pattern_29","j","true","","","","2849.0999999046326","true","27","","","","","","","","","","","","","","","","",""
"","","","","","html-keyboard-response","219","2144837","0.0-3.0-5.0-0.37","5e3461bd8ec4fc0230fef43a","C3","batch3","pattern_show_trial_num","null","<p class=block-text>Trial 38 out of 78</p>","null","","","","","","","","","","","","","","","","","","","","","","","","","",""
"","","","","","image-keyboard-response","220","2148423","0.0-3.0-5.0-1.37","5e3461bd8ec4fc0230fef43a","C3","batch3","pattern_response","3581.5999999046326","stim/no_47_1_b.png","j","pattern_27","j","true","","","","3581.5999999046326","true","28","","","","","","","","","","","","","","","","",""
"","","","","","html-keyboard-response","221","2149738","0.0-3.0-5.0-0.38","5e3461bd8ec4fc0230fef43a","C3","batch3","pattern_show_trial_num","null","<p class=block-text>Trial 39 out of 78</p>","null","","","","","","","","","","","","","","","","","","","","","","","","","",""
"","","","","","image-keyboard-response","222","2150610","0.0-3.0-5.0-1.38","5e3461bd8ec4fc0230fef43a","C3","batch3","pattern_response","866.1000001430511","stim/yes_12_hor_w1_w.png","f","pattern_42","f","true","","","","866.1000001430511","true","29","","","","","","","","","","","","","","","","",""
"","","","","","image-keyboard-response","223","2154750","0.0-3.0-6.0","5e3461bd8ec4fc0230fef43a","C3","batch3","attention_check","3627.2999999523163","stim/empty_board.png","j","","j","true","","","","","","","500","[""f"",""j""]","","","","","","","","","","","","","","",""
"","","","","","html-keyboard-response","224","2155568","0.0-3.0-7.0-0.0","5e3461bd8ec4fc0230fef43a","C3","batch3","pattern_show_trial_num","null","<p class=block-text>Trial 40 out of 78</p>","null","","","","","","","","","","","","","","","","","","","","","","","","","",""
"","","","","","image-keyboard-response","225","2158883","0.0-3.0-7.0-1.0","5e3461bd8ec4fc0230fef43a","C3","batch3","pattern_response","3310.199999809265","stim/no_52_1.png","j","pattern_32","j","true","","","","3310.199999809265","true","30","","","","","","","","","","","","","","","","",""
"","","","","","html-keyboard-response","226","2160200","0.0-3.0-7.0-0.1","5e3461bd8ec4fc0230fef43a","C3","batch3","pattern_show_trial_num","null","<p class=block-text>Trial 41 out of 78</p>","null","","","","","","","","","","","","","","","","","","","","","","","","","",""
"","","","","","image-keyboard-response","227","2161404","0.0-3.0-7.0-1.1","5e3461bd8ec4fc0230fef43a","C3","batch3","pattern_response","1200.4000000953674","stim/no_20_1_w.png","j","pattern_06","j","true","","","","1200.4000000953674","true","31","","","","","","","","","","","","","","","","",""
"","","","","","html-keyboard-response","228","2162720","0.0-3.0-7.0-0.2","5e3461bd8ec4fc0230fef43a","C3","batch3","pattern_show_trial_num","null","<p class=block-text>Trial 42 out of 78</p>","null","","","","","","","","","","","","","","","","","","","","","","","","","",""
"","","","","","image-keyboard-response","229","2165626","0.0-3.0-7.0-1.2","5e3461bd8ec4fc0230fef43a","C3","batch3","pattern_response","2876.600000143051","stim/yes_48_dia_w1_w.png","j","pattern_69","f","false","","","","2876.600000143051","false","31","","","","","","","","","","","","","","","","",""
"","","","","","html-keyboard-response","230","2166940","0.0-3.0-7.0-0.3","5e3461bd8ec4fc0230fef43a","C3","batch3","pattern_show_trial_num","null","<p class=block-text>Trial 43 out of 78</p>","null","","","","","","","","","","","","","","","","","","","","","","","","","",""
"","","","","","image-keyboard-response","231","2170337","0.0-3.0-7.0-1.3","5e3461bd8ec4fc0230fef43a","C3","batch3","pattern_response","3395.2000000476837","stim/yes_67_hor_b1.png","j","pattern_79","f","false","","","","3395.2000000476837","false","31","","","","","","","","","","","","","","","","",""
"","","","","","html-keyboard-response","232","2171665","0.0-3.0-7.0-0.4","5e3461bd8ec4fc0230fef43a","C3","batch3","pattern_show_trial_num","null","<p class=block-text>Trial 44 out of 78</p>","null","","","","","","","","","","","","","","","","","","","","","","","","","",""
"","","","","","image-keyboard-response","233","2173327","0.0-3.0-7.0-1.4","5e3461bd8ec4fc0230fef43a","C3","batch3","pattern_response","1658","stim/yes_14_hor_b1_w.png","f","pattern_43","f","true","","","","1658","true","32","","","","","","","","","","","","","","","","",""
"","","","","","html-keyboard-response","234","2174650","0.0-3.0-7.0-0.5","5e3461bd8ec4fc0230fef43a","C3","batch3","pattern_show_trial_num","null","<p class=block-text>Trial 45 out of 78</p>","null","","","","","","","","","","","","","","","","","","","","","","","","","",""
"","","","","","image-keyboard-response","235","2178667","0.0-3.0-7.0-1.5","5e3461bd8ec4fc0230fef43a","C3","batch3","pattern_response","4012.600000143051","stim/no_50_1.png","j","pattern_30","j","true","","","","4012.600000143051","true","33","","","","","","","","","","","","","","","","",""
"","","","","","html-keyboard-response","236","2179982","0.0-3.0-7.0-0.6","5e3461bd8ec4fc0230fef43a","C3","batch3","pattern_show_trial_num","null","<p class=block-text>Trial 46 out of 78</p>","null","","","","","","","","","","","","","","","","","","","","","","","","","",""
"","","","","","image-keyboard-response","237","2183481","0.0-3.0-7.0-1.6","5e3461bd8ec4fc0230fef43a","C3","batch3","pattern_response","3497.2000000476837","stim/no_62_1_w.png","j","pattern_36","j","true","","","","3497.2000000476837","true","34","","","","","","","","","","","","","","","","",""
"","","","","","html-keyboard-response","238","2184812","0.0-3.0-7.0-0.7","5e3461bd8ec4fc0230fef43a","C3","batch3","pattern_show_trial_num","null","<p class=block-text>Trial 47 out of 78</p>","null","","","","","","","","","","","","","","","","","","","","","","","","","",""
"","","","","","image-keyboard-response","239","2187405","0.0-3.0-7.0-1.7","5e3461bd8ec4fc0230fef43a","C3","batch3","pattern_response","2588.2000000476837","stim/no_29_1_b.png","j","pattern_12","j","true","","","","2588.2000000476837","true","35","","","","","","","","","","","","","","","","",""
"","","","","","html-keyboard-response","240","2188730","0.0-3.0-7.0-0.8","5e3461bd8ec4fc0230fef43a","C3","batch3","pattern_show_trial_num","null","<p class=block-text>Trial 48 out of 78</p>","null","","","","","","","","","","","","","","","","","","","","","","","","","",""
"","","","","","image-keyboard-response","241","2191300","0.0-3.0-7.0-1.8","5e3461bd8ec4fc0230fef43a","C3","batch3","pattern_response","2566","stim/no_32_1_w.png","j","pattern_14","j","true","","","","2566","true","36","","","","","","","","","","","","","","","","",""
"","","","","","html-keyboard-response","242","2192612","0.0-3.0-7.0-0.9","5e3461bd8ec4fc0230fef43a","C3","batch3","pattern_show_trial_num","null","<p class=block-text>Trial 49 out of 78</p>","null","","","","","","","","","","","","","","","","","","","","","","","","","",""
"","","","","","image-keyboard-response","243","2193692","0.0-3.0-7.0-1.9","5e3461bd8ec4fc0230fef43a","C3","batch3","pattern_response","1076","stim/yes_28_ver_b1.png","f","pattern_51","f","true","","","","1076","true","37","","","","","","","","","","","","","","","","",""
"","","","","","html-keyboard-response","244","2195011","0.0-3.0-7.0-0.10","5e3461bd8ec4fc0230fef43a","C3","batch3","pattern_show_trial_num","null","<p class=block-text>Trial 50 out of 78</p>","null","","","","","","","","","","","","","","","","","","","","","","","","","",""
"","","","","","image-keyboard-response","245","2197840","0.0-3.0-7.0-1.10","5e3461bd8ec4fc0230fef43a","C3","batch3","pattern_response","2826.2999999523163","stim/no_38_1_b.png","j","pattern_20","j","true","","","","2826.2999999523163","true","38","","","","","","","","","","","","","","","","",""
"","","","","","html-keyboard-response","246","2199159","0.0-3.0-7.0-0.11","5e3461bd8ec4fc0230fef43a","C3","batch3","pattern_show_trial_num","null","<p class=block-text>Trial 51 out of 78</p>","null","","","","","","","","","","","","","","","","","","","","","","","","","",""
"","","","","","image-keyboard-response","247","2200616","0.0-3.0-7.0-1.11","5e3461bd8ec4fc0230fef43a","C3","batch3","pattern_response","1452.5","stim/no_13_2_b.png","j","pattern_02","j","true","","","","1452.5","true","39","","","","","","","","","","","","","","","","",""
"","","","","","html-keyboard-response","248","2201943","0.0-3.0-7.0-0.12","5e3461bd8ec4fc0230fef43a","C3","batch3","pattern_show_trial_num","null","<p class=block-text>Trial 52 out of 78</p>","null","","","","","","","","","","","","","","","","","","","","","","","","","",""
"","","","","","image-keyboard-response","249","2203478","0.0-3.0-7.0-1.12","5e3461bd8ec4fc0230fef43a","C3","batch3","pattern_response","1531.2000000476837","stim/yes_45_hor_b2_b.png","f","pattern_67","f","true","","","","1531.2000000476837","true","40","","","","","","","","","","","","","","","","",""
"","","","","","html-keyboard-response","250","2204809","0.0-3.0-7.0-0.13","5e3461bd8ec4fc0230fef43a","C3","batch3","pattern_show_trial_num","null","<p class=block-text>Trial 53 out of 78</p>","null","","","","","","","","","","","","","","","","","","","","","","","","","",""
"","","","","","image-keyboard-response","251","2207762","0.0-3.0-7.0-1.13","5e3461bd8ec4fc0230fef43a","C3","batch3","pattern_response","2949.2999999523163","stim/no_48_1_w.png","j","pattern_28","j","true","","","","2949.2999999523163","true","41","","","","","","","","","","","","","","","","",""
"","","","","","html-keyboard-response","252","2209079","0.0-3.0-7.0-0.14","5e3461bd8ec4fc0230fef43a","C3","batch3","pattern_show_trial_num","null","<p class=block-text>Trial 54 out of 78</p>","null","","","","","","","","","","","","","","","","","","","","","","","","","",""
"","","","","","image-keyboard-response","253","2211573","0.0-3.0-7.0-1.14","5e3461bd8ec4fc0230fef43a","C3","batch3","pattern_response","2489.4000000953674","stim/yes_60_ver_b1_b.png","f","pattern_77","f","true","","","","2489.4000000953674","true","42","","","","","","","","","","","","","","","","",""
"","","","","","html-keyboard-response","254","2212880","0.0-3.0-7.0-0.15","5e3461bd8ec4fc0230fef43a","C3","batch3","pattern_show_trial_num","null","<p class=block-text>Trial 55 out of 78</p>","null","","","","","","","","","","","","","","","","","","","","","","","","","",""
"","","","","","image-keyboard-response","255","2217713","0.0-3.0-7.0-1.15","5e3461bd8ec4fc0230fef43a","C3","batch3","pattern_response","4828.900000095367","stim/no_55_1_w.png","j","pattern_34","j","true","","","","4828.900000095367","true","43","","","","","","","","","","","","","","","","",""
"","","","","","html-keyboard-response","256","2219041","0.0-3.0-7.0-0.16","5e3461bd8ec4fc0230fef43a","C3","batch3","pattern_show_trial_num","null","<p class=block-text>Trial 56 out of 78</p>","null","","","","","","","","","","","","","","","","","","","","","","","","","",""
"","","","","","image-keyboard-response","257","2220822","0.0-3.0-7.0-1.16","5e3461bd8ec4fc0230fef43a","C3","batch3","pattern_response","1776.4000000953674","stim/yes_38_hor_b1_b.png","f","pattern_61","f","true","","","","1776.4000000953674","true","44","","","","","","","","","","","","","","","","",""
"","","","","","html-keyboard-response","258","2222141","0.0-3.0-7.0-0.17","5e3461bd8ec4fc0230fef43a","C3","batch3","pattern_show_trial_num","null","<p class=block-text>Trial 57 out of 78</p>","null","","","","","","","","","","","","","","","","","","","","","","","","","",""
"","","","","","image-keyboard-response","259","2228832","0.0-3.0-7.0-1.17","5e3461bd8ec4fc0230fef43a","C3","batch3","pattern_response","6686.800000190735","stim/no_65_1_b.png","j","pattern_38","j","true","","","","6686.800000190735","true","45","","","","","","","","","","","","","","","","",""
"","","","","","html-keyboard-response","260","2230157","0.0-3.0-7.0-0.18","5e3461bd8ec4fc0230fef43a","C3","batch3","pattern_show_trial_num","null","<p class=block-text>Trial 58 out of 78</p>","null","","","","","","","","","","","","","","","","","","","","","","","","","",""
"","","","","","image-keyboard-response","261","2231333","0.0-3.0-7.0-1.18","5e3461bd8ec4fc0230fef43a","C3","batch3","pattern_response","1172.2000000476837","stim/yes_52_ver_w1.png","f","pattern_73","f","true","","","","1172.2000000476837","true","46","","","","","","","","","","","","","","","","",""
"","","","","","html-keyboard-response","262","2232655","0.0-3.0-7.0-0.19","5e3461bd8ec4fc0230fef43a","C3","batch3","pattern_show_trial_num","null","<p class=block-text>Trial 59 out of 78</p>","null","","","","","","","","","","","","","","","","","","","","","","","","","",""
"","","","","","image-keyboard-response","263","2235332","0.0-3.0-7.0-1.19","5e3461bd8ec4fc0230fef43a","C3","batch3","pattern_response","2674.7000000476837","stim/yes_31_hor_b1.png","j","pattern_55","f","false","","","","2674.7000000476837","false","46","","","","","","","","","","","","","","","","",""
"","","","","","html-keyboard-response","264","2236654","0.0-3.0-7.0-0.20","5e3461bd8ec4fc0230fef43a","C3","batch3","pattern_show_trial_num","null","<p class=block-text>Trial 60 out of 78</p>","null","","","","","","","","","","","","","","","","","","","","","","","","","",""
"","","","","","image-keyboard-response","265","2239717","0.0-3.0-7.0-1.20","5e3461bd8ec4fc0230fef43a","C3","batch3","pattern_response","3059.399999856949","stim/no_17_1_w.png","j","pattern_04","j","true","","","","3059.399999856949","true","47","","","","","","","","","","","","","","","","",""
"","","","","","html-keyboard-response","266","2241037","0.0-3.0-7.0-0.21","5e3461bd8ec4fc0230fef43a","C3","batch3","pattern_show_trial_num","null","<p class=block-text>Trial 61 out of 78</p>","null","","","","","","","","","","","","","","","","","","","","","","","","","",""
"","","","","","image-keyboard-response","267","2242847","0.0-3.0-7.0-1.21","5e3461bd8ec4fc0230fef43a","C3","batch3","pattern_response","1807.2000000476837","stim/yes_17_dia_w1.png","j","pattern_45","f","false","","","","1807.2000000476837","false","47","","","","","","","","","","","","","","","","",""
"","","","","","html-keyboard-response","268","2244175","0.0-3.0-7.0-0.22","5e3461bd8ec4fc0230fef43a","C3","batch3","pattern_show_trial_num","null","<p class=block-text>Trial 62 out of 78</p>","null","","","","","","","","","","","","","","","","","","","","","","","","","",""
"","","","","","image-keyboard-response","269","2245197","0.0-3.0-7.0-1.22","5e3461bd8ec4fc0230fef43a","C3","batch3","pattern_response","1018.1000001430511","stim/yes_22_ver_w1.png","f","pattern_47","f","true","","","","1018.1000001430511","true","48","","","","","","","","","","","","","","","","",""
"","","","","","html-keyboard-response","270","2246515","0.0-3.0-7.0-0.23","5e3461bd8ec4fc0230fef43a","C3","batch3","pattern_show_trial_num","null","<p class=block-text>Trial 63 out of 78</p>","null","","","","","","","","","","","","","","","","","","","","","","","","","",""
"","","","","","image-keyboard-response","271","2249887","0.0-3.0-7.0-1.23","5e3461bd8ec4fc0230fef43a","C3","batch3","pattern_response","3369.600000143051","stim/yes_40_dia_b1_b.png","j","pattern_63","f","false","","","","3369.600000143051","false","48","","","","","","","","","","","","","","","","",""
"","","","","","html-keyboard-response","272","2251193","0.0-3.0-7.0-0.24","5e3461bd8ec4fc0230fef43a","C3","batch3","pattern_show_trial_num","null","<p class=block-text>Trial 64 out of 78</p>","null","","","","","","","","","","","","","","","","","","","","","","","","","",""
"","","","","","image-keyboard-response","273","2255494","0.0-3.0-7.0-1.24","5e3461bd8ec4fc0230fef43a","C3","batch3","pattern_response","4299.200000047684","stim/yes_50_dia_w1.png","j","pattern_71","f","false","","","","4299.200000047684","false","48","","","","","","","","","","","","","","","","",""
"","","","","","html-keyboard-response","274","2256798","0.0-3.0-7.0-0.25","5e3461bd8ec4fc0230fef43a","C3","batch3","pattern_show_trial_num","null","<p class=block-text>Trial 65 out of 78</p>","null","","","","","","","","","","","","","","","","","","","","","","","","","",""
"","","","","","image-keyboard-response","275","2261334","0.0-3.0-7.0-1.25","5e3461bd8ec4fc0230fef43a","C3","batch3","pattern_response","4527.299999952316","stim/no_46_1_b.png","j","pattern_26","j","true","","","","4527.299999952316","true","49","","","","","","","","","","","","","","","","",""
"","","","","","html-keyboard-response","276","2262653","0.0-3.0-7.0-0.26","5e3461bd8ec4fc0230fef43a","C3","batch3","pattern_show_trial_num","null","<p class=block-text>Trial 66 out of 78</p>","null","","","","","","","","","","","","","","","","","","","","","","","","","",""
"","","","","","image-keyboard-response","277","2264255","0.0-3.0-7.0-1.26","5e3461bd8ec4fc0230fef43a","C3","batch3","pattern_response","1597.7999999523163","stim/yes_35_dia_b1.png","f","pattern_57","f","true","","","","1597.7999999523163","true","50","","","","","","","","","","","","","","","","",""
"","","","","","html-keyboard-response","278","2265570","0.0-3.0-7.0-0.27","5e3461bd8ec4fc0230fef43a","C3","batch3","pattern_show_trial_num","null","<p class=block-text>Trial 67 out of 78</p>","null","","","","","","","","","","","","","","","","","","","","","","","","","",""
"","","","","","image-keyboard-response","279","2268193","0.0-3.0-7.0-1.27","5e3461bd8ec4fc0230fef43a","C3","batch3","pattern_response","2622.2999999523163","stim/no_26_1_w.png","j","pattern_10","j","true","","","","2622.2999999523163","true","51","","","","","","","","","","","","","","","","",""
"","","","","","html-keyboard-response","280","2269503","0.0-3.0-7.0-0.28","5e3461bd8ec4fc0230fef43a","C3","batch3","pattern_show_trial_num","null","<p class=block-text>Trial 68 out of 78</p>","null","","","","","","","","","","","","","","","","","","","","","","","","","",""
"","","","","","image-keyboard-response","281","2274593","0.0-3.0-7.0-1.28","5e3461bd8ec4fc0230fef43a","C3","batch3","pattern_response","5089.400000095367","stim/no_36_2_w.png","j","pattern_18","j","true","","","","5089.400000095367","true","52","","","","","","","","","","","","","","","","",""
"","","","","","html-keyboard-response","282","2275921","0.0-3.0-7.0-0.29","5e3461bd8ec4fc0230fef43a","C3","batch3","pattern_show_trial_num","null","<p class=block-text>Trial 69 out of 78</p>","null","","","","","","","","","","","","","","","","","","","","","","","","","",""
"","","","","","image-keyboard-response","283","2276835","0.0-3.0-7.0-1.29","5e3461bd8ec4fc0230fef43a","C3","batch3","pattern_response","909.7999999523163","stim/yes_25_hor_b1_b.png","f","pattern_49","f","true","","","","909.7999999523163","true","53","","","","","","","","","","","","","","","","",""
"","","","","","html-keyboard-response","284","2278145","0.0-3.0-7.0-0.30","5e3461bd8ec4fc0230fef43a","C3","batch3","pattern_show_trial_num","null","<p class=block-text>Trial 70 out of 78</p>","null","","","","","","","","","","","","","","","","","","","","","","","","","",""
"","","","","","image-keyboard-response","285","2279553","0.0-3.0-7.0-1.30","5e3461bd8ec4fc0230fef43a","C3","batch3","pattern_response","1405.7000000476837","stim/yes_43_ver_w1_w.png","f","pattern_65","f","true","","","","1405.7000000476837","true","54","","","","","","","","","","","","","","","","",""
"","","","","","html-keyboard-response","286","2280885","0.0-3.0-7.0-0.31","5e3461bd8ec4fc0230fef43a","C3","batch3","pattern_show_trial_num","null","<p class=block-text>Trial 71 out of 78</p>","null","","","","","","","","","","","","","","","","","","","","","","","","","",""
"","","","","","image-keyboard-response","287","2285029","0.0-3.0-7.0-1.31","5e3461bd8ec4fc0230fef43a","C3","batch3","pattern_response","4140.300000190735","stim/no_44_1.png","j","pattern_24","j","true","","","","4140.300000190735","true","55","","","","","","","","","","","","","","","","",""
"","","","","","html-keyboard-response","288","2286354","0.0-3.0-7.0-0.32","5e3461bd8ec4fc0230fef43a","C3","batch3","pattern_show_trial_num","null","<p class=block-text>Trial 72 out of 78</p>","null","","","","","","","","","","","","","","","","","","","","","","","","","",""
"","","","","","image-keyboard-response","289","2288604","0.0-3.0-7.0-1.32","5e3461bd8ec4fc0230fef43a","C3","batch3","pattern_response","2246.5","stim/no_23_1.png","j","pattern_08","j","true","","","","2246.5","true","56","","","","","","","","","","","","","","","","",""
"","","","","","html-keyboard-response","290","2289934","0.0-3.0-7.0-0.33","5e3461bd8ec4fc0230fef43a","C3","batch3","pattern_show_trial_num","null","<p class=block-text>Trial 73 out of 78</p>","null","","","","","","","","","","","","","","","","","","","","","","","","","",""
"","","","","","image-keyboard-response","291","2291049","0.0-3.0-7.0-1.33","5e3461bd8ec4fc0230fef43a","C3","batch3","pattern_response","1111","stim/yes_29_ver_w1.png","f","pattern_53","f","true","","","","1111","true","57","","","","","","","","","","","","","","","","",""
"","","","","","html-keyboard-response","292","2292366","0.0-3.0-7.0-0.34","5e3461bd8ec4fc0230fef43a","C3","batch3","pattern_show_trial_num","null","<p class=block-text>Trial 74 out of 78</p>","null","","","","","","","","","","","","","","","","","","","","","","","","","",""
"","","","","","image-keyboard-response","293","2293618","0.0-3.0-7.0-1.34","5e3461bd8ec4fc0230fef43a","C3","batch3","pattern_response","1250.5","stim/yes_55_hor_w1_w.png","f","pattern_75","f","true","","","","1250.5","true","58","","","","","","","","","","","","","","","","",""
"","","","","","html-keyboard-response","294","2294933","0.0-3.0-7.0-0.35","5e3461bd8ec4fc0230fef43a","C3","batch3","pattern_show_trial_num","null","<p class=block-text>Trial 75 out of 78</p>","null","","","","","","","","","","","","","","","","","","","","","","","","","",""
"","","","","","image-keyboard-response","295","2299953","0.0-3.0-7.0-1.35","5e3461bd8ec4fc0230fef43a","C3","batch3","pattern_response","5016.399999856949","stim/no_70_2.png","j","pattern_40","j","true","","","","5016.399999856949","true","59","","","","","","","","","","","","","","","","",""
"","","","","","html-keyboard-response","296","2301284","0.0-3.0-7.0-0.36","5e3461bd8ec4fc0230fef43a","C3","batch3","pattern_show_trial_num","null","<p class=block-text>Trial 76 out of 78</p>","null","","","","","","","","","","","","","","","","","","","","","","","","","",""
"","","","","","image-keyboard-response","297","2303348","0.0-3.0-7.0-1.36","5e3461bd8ec4fc0230fef43a","C3","batch3","pattern_response","2059.2999999523163","stim/no_34_1_b.png","f","pattern_16","j","false","","","","2059.2999999523163","false","59","","","","","","","","","","","","","","","","",""
"","","","","","html-keyboard-response","298","2304668","0.0-3.0-7.0-0.37","5e3461bd8ec4fc0230fef43a","C3","batch3","pattern_show_trial_num","null","<p class=block-text>Trial 77 out of 78</p>","null","","","","","","","","","","","","","","","","","","","","","","","","","",""
"","","","","","image-keyboard-response","299","2308470","0.0-3.0-7.0-1.37","5e3461bd8ec4fc0230fef43a","C3","batch3","pattern_response","3796.2000000476837","stim/no_42_1_w.png","j","pattern_22","j","true","","","","3796.2000000476837","true","60","","","","","","","","","","","","","","","","",""
"","","","","","html-keyboard-response","300","2309798","0.0-3.0-7.0-0.38","5e3461bd8ec4fc0230fef43a","C3","batch3","pattern_show_trial_num","null","<p class=block-text>Trial 78 out of 78</p>","null","","","","","","","","","","","","","","","","","","","","","","","","","",""
"","","","","","image-keyboard-response","301","2312450","0.0-3.0-7.0-1.38","5e3461bd8ec4fc0230fef43a","C3","batch3","pattern_response","2647.600000143051","stim/yes_37_dia_w1.png","j","pattern_59","f","false","","","","2647.600000143051","false","60","","","","","","","","","","","","","","","","",""
"","","","","","html-button-response","302","2317704","0.0-3.0-8.0","5e3461bd8ec4fc0230fef43a","C3","batch3","","4739.299999952316","<p class = block-text>This concludes the 4-in-a-row detection game.Thank you for your responses!<br>
            You responded correctly on 77% of the trials.<br>
            When you are ready, press ""Continue"" button to continue </p>","0","","","","","","","","","","","","","","","","","","","","","","","","","",""
"true","","","","","fullscreen","303","2320954","0.0-4.0-0.0","5e3461bd8ec4fc0230fef43a","C3","batch3","","","","","","","","","","","","","","","","","","","","","","","","","","","","","",""
"","","","","","instructions","304","2394774","0.0-4.0-1.0-0.0-0.0","5e3461bd8ec4fc0230fef43a","C3","batch3","tol-instructions","73819.40000009537","","","","","","","","[{""page_index"":0,""viewing_time"":16397.10000014305},{""page_index"":1,""viewing_time"":11683.199999809265},{""page_index"":2,""viewing_time"":10004.700000047684},{""page_index"":3,""viewing_time"":7006.900000095367},{""page_index"":4,""viewing_time"":12429.700000047684},{""page_index"":5,""viewing_time"":12107.5},{""page_index"":6,""viewing_time"":4190}]","","","","","","","","","","","","","","","","","","","",""
"","","","","","html-button-response","305","2396269","0.0-4.0-1.0-1.0-0.0","5e3461bd8ec4fc0230fef43a","C3","batch3","tol_enter_quiz","1494.3999998569489","<p class=block-text> Let's answer a few questions <br>","0","","","","","","","","","","","","","","","","","","","","","","","","","",""
"","","","","","html-button-response","306","2408248","0.0-4.0-1.0-1.0-1.0","5e3461bd8ec4fc0230fef43a","C3","batch3","tol_quiz","11976.900000095367","<p class = block-text>True or False: You can only move the ball on top of a peg. <br></p>","0","","","true","","","","","","","","","","","","","","","","","","","","","","",""
"","","","","","html-button-response","307","2410662","0.0-4.0-1.0-1.0-2.0","5e3461bd8ec4fc0230fef43a","C3","batch3","tol_quiz_feedback","2412.899999856949","<p class = block-text>Correct! You can only move the ball on top of a peg.</p>","0","","","","","","","","","","","","","","","","","","","","","","","","","",""
"","","","","","html-button-response","308","2414720","0.0-4.0-1.0-1.0-3.0","5e3461bd8ec4fc0230fef43a","C3","batch3","tol_quiz","4056.699999809265","<p class = block-text>True or False: You should try to match your board with the target board with fewest moves possible. <br></p>","0","","","true","","","","","","","","","","","","","","","","","","","","","","",""
"","","","","","html-button-response","309","2416286","0.0-4.0-1.0-1.0-4.0","5e3461bd8ec4fc0230fef43a","C3","batch3","tol_quiz_feedback","1564.6000001430511","<p class = block-text>Correct! </p>","0","","","","","","","","","","","","","","","","","","","","","","","","","",""
"","","","","","html-button-response","310","2419488","0.0-4.0-2.0","5e3461bd8ec4fc0230fef43a","C3","batch3","","3201","<p class=block-text> Now that you've understood the game, let's practice a few easier examples before we start!<br> <br>","0","","","","","","","","","","","","","","","","","","","","","","","","","",""
"","","","","","single-stim-button","311","2426464","0.0-4.0-3.0-0.0","5e3461bd8ec4fc0230fef43a","C3","batch3","tol_practice","6974","","","","","","","","","","","","","","tol_peg_2","6974","6974","0","[[1,2,0],[0,0],[0]]","1","[[1,2,0],[0,0],[3]]","practice","6974","","","","","",""
"","","","","","single-stim-button","312","2428430","0.0-4.0-3.0-1.0","5e3461bd8ec4fc0230fef43a","C3","batch3","tol_practice","1964","","","","","","","","","","","","","","tol_peg_3","1964","1964","0","[[1,2,0],[0,0],[3]]","1","[[1,2,0],[0,0],[3]]","practice","1964","","","","","",""
"","","","","","poldrack-single-stim","313","2429447","0.0-4.0-4.0","5e3461bd8ec4fc0230fef43a","C3","batch3","tol_feedback","-1","","","","","true","","","","","","","","","","1000","1000","500","","","","","","-1","none","true","","0",""
"","","","","","single-stim-button","314","2432504","0.0-4.0-5.0-0.0","5e3461bd8ec4fc0230fef43a","C3","batch3","tol_practice","3055","","","","","","","","","","","","","","tol_peg_1","3055","3055","0","[[1,0,0],[3,0],[0]]","2","[[0,0,0],[3,1],[2]]","practice","3055","","","","","",""
"","","","","","single-stim-button","315","2434340","0.0-4.0-5.0-1.0","5e3461bd8ec4fc0230fef43a","C3","batch3","tol_practice","1835","","","","","","","","","","","","","","tol_peg_3","1835","1835","0","[[1,0,0],[3,0],[2]]","2","[[0,0,0],[3,1],[2]]","practice","1835","","","","","",""
"","","","","","single-stim-button","316","2436993","0.0-4.0-5.1-0.1","5e3461bd8ec4fc0230fef43a","C3","batch3","tol_practice","2653","","","","","","","","","","","","","","tol_peg_1","2653","2653","0","[[0,0,0],[3,0],[2]]","3","[[0,0,0],[3,1],[2]]","practice","2653","","","","","",""
"","","","","","single-stim-button","317","2438358","0.0-4.0-5.1-1.1","5e3461bd8ec4fc0230fef43a","C3","batch3","tol_practice","1364","","","","","","","","","","","","","","tol_peg_2","1364","1364","0","[[0,0,0],[3,1],[2]]","3","[[0,0,0],[3,1],[2]]","practice","1364","","","","","",""
"","","","","","poldrack-single-stim","318","2439366","0.0-4.0-6.0","5e3461bd8ec4fc0230fef43a","C3","batch3","tol_feedback","-1","","","","","true","","","","","","","","","","1000","1000","500","","","","","","-1","none","true","","0",""
"","","","","","single-stim-button","319","2445080","0.0-4.0-7.0-0.0","5e3461bd8ec4fc0230fef43a","C3","batch3","tol_practice","5713","","","","","","","","","","","","","","tol_peg_1","5713","5713","0","[[1,0,0],[3,0],[0]]","4","[[1,0,0],[2,0],[3]]","practice","5713","","","","","",""
"","","","","","single-stim-button","320","2448662","0.0-4.0-7.0-1.0","5e3461bd8ec4fc0230fef43a","C3","batch3","tol_practice","3580","","","","","","","","","","","","","","tol_peg_3","3580","3580","0","[[1,0,0],[3,0],[2]]","4","[[1,0,0],[2,0],[3]]","practice","3580","","","","","",""
"","","","","","single-stim-button","321","2449509","0.0-4.0-7.1-0.1","5e3461bd8ec4fc0230fef43a","C3","batch3","tol_practice","847","","","","","","","","","","","","","","tol_peg_2","847","847","0","[[1,0,0],[0,0],[2]]","5","[[1,0,0],[2,0],[3]]","practice","847","","","","","",""
"","","","","","single-stim-button","322","2454702","0.0-4.0-7.1-1.1","5e3461bd8ec4fc0230fef43a","C3","batch3","tol_practice","5191","","","","","","","","","","","","","","tol_peg_1","5191","5191","0","[[1,3,0],[0,0],[2]]","5","[[1,0,0],[2,0],[3]]","practice","5191","","","","","",""
"","","","","","single-stim-button","323","2455550","0.0-4.0-7.2-0.2","5e3461bd8ec4fc0230fef43a","C3","batch3","tol_practice","847","","","","","","","","","","","","","","tol_peg_3","847","847","0","[[1,3,0],[0,0],[0]]","6","[[1,0,0],[2,0],[3]]","practice","847","","","","","",""
"","","","","","single-stim-button","324","2456297","0.0-4.0-7.2-1.2","5e3461bd8ec4fc0230fef43a","C3","batch3","tol_practice","747","","","","","","","","","","","","","","tol_peg_2","747","747","0","[[1,3,0],[2,0],[0]]","6","[[1,0,0],[2,0],[3]]","practice","747","","","","","",""
"","","","","","single-stim-button","325","2457215","0.0-4.0-7.3-0.3","5e3461bd8ec4fc0230fef43a","C3","batch3","tol_practice","917","","","","","","","","","","","","","","tol_peg_1","917","917","0","[[1,0,0],[2,0],[0]]","7","[[1,0,0],[2,0],[3]]","practice","917","","","","","",""
"","","","","","single-stim-button","326","2458598","0.0-4.0-7.3-1.3","5e3461bd8ec4fc0230fef43a","C3","batch3","tol_practice","1382","","","","","","","","","","","","","","tol_peg_3","1382","1382","0","[[1,0,0],[2,0],[3]]","7","[[1,0,0],[2,0],[3]]","practice","1382","","","","","",""
"","","","","","poldrack-single-stim","327","2459603","0.0-4.0-8.0","5e3461bd8ec4fc0230fef43a","C3","batch3","tol_feedback","-1","","","","","true","","","","","","","","","","1000","1000","500","","","","","","-1","none","true","","0",""
"","","","","","html-button-response","328","2464654","0.0-4.0-9.0","5e3461bd8ec4fc0230fef43a","C3","batch3","tol_instruction","5049.100000143051","<div class = centerbox><p class = center-block-text>Great job! You are done with practice trials<br>You are about to start official trials.<br> <br> Problem <strong>1</strong> out of 25 problems</p></div>","0","","","","","","","","","","","","","","","","","","","","","","","","","",""
"","","","","","single-stim-button","329","2472862","0.0-4.0-10.0-0.0","5e3461bd8ec4fc0230fef43a","C3","batch3","tol_tohand","7197","","","","","","","","","","","","","","tol_peg_1","7197","7197","0","[[1,0,0],[3,0],[0]]","1","[[1,3,0],[2,0],[0]]","0","0","","","","","","3"
"","","","","","single-stim-button","330","2475869","0.0-4.0-10.0-1.0","5e3461bd8ec4fc0230fef43a","C3","batch3","tol_toboard","3007","","","","","","","","","","","","","","tol_peg_3","3007","3007","0","[[1,0,0],[3,0],[2]]","1","[[1,3,0],[2,0],[0]]","0","0","","","","","","3"
"","","","","","single-stim-button","331","2481240","0.0-4.0-10.1-0.1","5e3461bd8ec4fc0230fef43a","C3","batch3","tol_tohand","5370","","","","","","","","","","","","","","tol_peg_2","5370","5370","0","[[1,0,0],[0,0],[2]]","2","[[1,3,0],[2,0],[0]]","0","0","","","","","","3"
"","","","","","single-stim-button","332","2487890","0.0-4.0-10.1-1.1","5e3461bd8ec4fc0230fef43a","C3","batch3","tol_toboard","6648","","","","","","","","","","","","","","tol_peg_1","6648","6648","0","[[1,3,0],[0,0],[2]]","2","[[1,3,0],[2,0],[0]]","0","0","","","","","","3"
"","","","","","single-stim-button","333","2490884","0.0-4.0-10.2-0.2","5e3461bd8ec4fc0230fef43a","C3","batch3","tol_tohand","2994","","","","","","","","","","","","","","tol_peg_3","2994","2994","0","[[1,3,0],[0,0],[0]]","3","[[1,3,0],[2,0],[0]]","0","0","","","","","","3"
"","","","","","single-stim-button","334","2491987","0.0-4.0-10.2-1.2","5e3461bd8ec4fc0230fef43a","C3","batch3","tol_toboard","1102","","","","","","","","","","","","","","tol_peg_2","1102","1102","0","[[1,3,0],[2,0],[0]]","3","[[1,3,0],[2,0],[0]]","0","0","","","","","","3"
"","","","","","poldrack-single-stim","335","2492999","0.0-4.0-11.0","5e3461bd8ec4fc0230fef43a","C3","batch3","tol_feedback","-1","","","","","true","","","","","","","","","","1000","1000","500","","","","","","-1","none","true","7197","15561",""
"","","","","","html-button-response","336","2494787","0.0-4.0-12.0","5e3461bd8ec4fc0230fef43a","C3","batch3","tol_trial_num","1786.2000000476837","<div class = centerbox><p class = center-block-text>problem <strong>2</strong> out of 25 problems</p></div>","0","","","","","","","","","","","","","","","","","","","","","","","","","",""
"","","","","","single-stim-button","337","2499091","0.0-4.0-13.0-0.0","5e3461bd8ec4fc0230fef43a","C3","batch3","tol_tohand","4303","","","","","","","","","","","","","","tol_peg_2","4303","4303","0","[[1,2,0],[0,0],[0]]","1","[[2,1,3],[0,0],[0]]","1","0","","","","","","5"
"","","","","","single-stim-button","338","2501939","0.0-4.0-13.0-1.0","5e3461bd8ec4fc0230fef43a","C3","batch3","tol_toboard","2847","","","","","","","","","","","","","","tol_peg_1","2847","2847","0","[[1,2,3],[0,0],[0]]","1","[[2,1,3],[0,0],[0]]","1","0","","","","","","5"
"","","","","","single-stim-button","339","2506621","0.0-4.0-13.1-0.1","5e3461bd8ec4fc0230fef43a","C3","batch3","tol_tohand","4680","","","","","","","","","","","","","","tol_peg_1","4680","4680","0","[[1,2,0],[0,0],[0]]","2","[[2,1,3],[0,0],[0]]","1","0","","","","","","5"
"","","","","","single-stim-button","340","2508041","0.0-4.0-13.1-1.1","5e3461bd8ec4fc0230fef43a","C3","batch3","tol_toboard","1419","","","","","","","","","","","","","","tol_peg_3","1419","1419","0","[[1,2,0],[0,0],[3]]","2","[[2,1,3],[0,0],[0]]","1","0","","","","","","5"
"","","","","","single-stim-button","341","2508944","0.0-4.0-13.2-0.2","5e3461bd8ec4fc0230fef43a","C3","batch3","tol_tohand","902","","","","","","","","","","","","","","tol_peg_1","902","902","0","[[1,0,0],[0,0],[3]]","3","[[2,1,3],[0,0],[0]]","1","0","","","","","","5"
"","","","","","single-stim-button","342","2510009","0.0-4.0-13.2-1.2","5e3461bd8ec4fc0230fef43a","C3","batch3","tol_toboard","1065","","","","","","","","","","","","","","tol_peg_2","1065","1065","0","[[1,0,0],[2,0],[3]]","3","[[2,1,3],[0,0],[0]]","1","0","","","","","","5"
"","","","","","single-stim-button","343","2512801","0.0-4.0-13.3-0.3","5e3461bd8ec4fc0230fef43a","C3","batch3","tol_tohand","2790","","","","","","","","","","","","","","tol_peg_1","2790","2790","0","[[0,0,0],[2,0],[3]]","4","[[2,1,3],[0,0],[0]]","1","0","","","","","","5"
"","","","","","single-stim-button","344","2527432","0.0-4.0-13.3-1.3","5e3461bd8ec4fc0230fef43a","C3","batch3","tol_toboard","14630","","","","","","","","","","","","","","tol_peg_1","14630","14630","0","[[1,0,0],[2,0],[3]]","4","[[2,1,3],[0,0],[0]]","1","0","","","","","","5"
"","","","","","single-stim-button","345","2529128","0.0-4.0-13.4-0.4","5e3461bd8ec4fc0230fef43a","C3","batch3","tol_tohand","1695","","","","","","","","","","","","","","tol_peg_3","1695","1695","0","[[1,0,0],[2,0],[0]]","5","[[2,1,3],[0,0],[0]]","1","0","","","","","","5"
