"success","timeout","failed_images","failed_audio","failed_video","trial_type","trial_index","time_elapsed","internal_node_id","subject_id","study_id","session_id","view_history","rt","stimulus","response","task","correct","answer","item","fiar_detect_rt","fiar_detect_correct","total_correct_fiar_detect","post_trial_gap","choices","spm_correct","spm_rt","mouse_click","stim_duration","block_duration","timing_post_trial","current_position","tol_num_moves_made","tol_target","tol_problem_id","tol_rt","key_press","possible_responses","tol_correct","preplanning","tol_rt_per_trial","tol_min_moves"
"true","false","[]","[]","[]","preload","0","1125","0.0-0.0","5e387f2c0d70ef099d5e5a4f","E1","batch5","","","","","","","","","","","","","","","","","","","","","","","","","","","","","",""
"true","","","","","fullscreen","1","7966","0.0-1.0-0.0","5e387f2c0d70ef099d5e5a4f","E1","batch5","","","","","","","","","","","","","","","","","","","","","","","","","","","","","",""
"true","","","","","fullscreen","2","11179","0.0-2.0-0.0","5e387f2c0d70ef099d5e5a4f","E1","batch5","","","","","","","","","","","","","","","","","","","","","","","","","","","","","",""
"","","","","","instructions","3","20884","0.0-2.0-1.0-0.0","5e387f2c0d70ef099d5e5a4f","E1","batch5","[{""page_index"":0,""viewing_time"":6304},{""page_index"":1,""viewing_time"":3399.7999999523163}]","9703.900000095367","","","","","","","","","","","","","","","","","","","","","","","","","","","",""
"","","","","","html-button-response","4","22580","0.0-2.0-1.0-1.0-0.0","5e387f2c0d70ef099d5e5a4f","E1","batch5","","1695.7000000476837","<p class=block-text> Let's answer a few questions <br>","0","pattern_enter_quiz","","","","","","","","","","","","","","","","","","","","","","","","",""
"","","","","","html-button-response","5","30708","0.0-2.0-1.0-1.0-1.0","5e387f2c0d70ef099d5e5a4f","E1","batch5","","8127","<p class = block-text>True or False: You will have as much time as you want to make each choice. <br></p>","1","pattern_quiz","true","","","","","","","","","","","","","","","","","","","","","","","",""
"","","","","","html-button-response","6","32333","0.0-2.0-1.0-1.0-2.0","5e387f2c0d70ef099d5e5a4f","E1","batch5","","1624.5999999046326","<p class = block-text>Correct! You should make your choice <strong> as fast as you can</strong>.</p>","0","pattern_quiz_feedback","","","","","","","","","","","","","","","","","","","","","","","","",""
"","","","","","html-button-response","7","36372","0.0-2.0-1.0-1.0-3.0","5e387f2c0d70ef099d5e5a4f","E1","batch5","","4038.2000000476837","<p class = block-text>True or False: You will look for 4 pieces in black or white color connected in a row either horizontally, vertically or diagonally. <br></p>","0","pattern_quiz","true","","","","","","","","","","","","","","","","","","","","","","","",""
"","","","","","html-button-response","8","37180","0.0-2.0-1.0-1.0-4.0","5e387f2c0d70ef099d5e5a4f","E1","batch5","","807","<p class = block-text>Correct! </p>","0","pattern_quiz_feedback","","","","","","","","","","","","","","","","","","","","","","","","",""
"","","","","","html-button-response","9","38860","0.0-2.0-2.0","5e387f2c0d70ef099d5e5a4f","E1","batch5","","1679.4000000953674","<p class=block-text> Now that you've understood the game, let's do a few practice trials before we start!<br> <br>","0","pattern_enter_practice","","","","","","","","","","","","","","","","","","","","","","","","",""
"","","","","","image-keyboard-response","10","40227","0.0-2.0-3.0-0.0","5e387f2c0d70ef099d5e5a4f","E1","batch5","","1365.6000001430511","stim/prac_no_18_1.png","j","pattern_practice","true","j","","","","","","","","","","","","","","","","","","","","","","",""
"","","","","","html-keyboard-response","11","41236","0.0-2.0-3.0-1.0","5e387f2c0d70ef099d5e5a4f","E1","batch5","","null","<p style=""font-size:30px;color:green;"">Correct!</p>","null","pattern_feedback","","","","","","","","","","","","","","","","","","","","","","","","",""
"","","","","","image-keyboard-response","12","41908","0.0-2.0-3.0-0.1","5e387f2c0d70ef099d5e5a4f","E1","batch5","","670.6999998092651","stim/prac_yes_16_ver_w1.png","f","pattern_practice","true","f","","","","","","","","","","","","","","","","","","","","","","",""
"","","","","","html-keyboard-response","13","42924","0.0-2.0-3.0-1.1","5e387f2c0d70ef099d5e5a4f","E1","batch5","","null","<p style=""font-size:30px;color:green;"">Correct!</p>","null","pattern_feedback","","","","","","","","","","","","","","","","","","","","","","","","",""
"","","","","","image-keyboard-response","14","43878","0.0-2.0-3.0-0.2","5e387f2c0d70ef099d5e5a4f","E1","batch5","","952.2000000476837","stim/prac_yes_20_dia_b1.png","f","pattern_practice","true","f","","","","","","","","","","","","","","","","","","","","","","",""
"","","","","","html-keyboard-response","15","44888","0.0-2.0-3.0-1.2","5e387f2c0d70ef099d5e5a4f","E1","batch5","","null","<p style=""font-size:30px;color:green;"">Correct!</p>","null","pattern_feedback","","","","","","","","","","","","","","","","","","","","","","","","",""
"","","","","","image-keyboard-response","16","45620","0.0-2.0-3.0-0.3","5e387f2c0d70ef099d5e5a4f","E1","batch5","","730.4000000953674","stim/prac_yes_18_hor_w1.png","f","pattern_practice","true","f","","","","","","","","","","","","","","","","","","","","","","",""
"","","","","","html-keyboard-response","17","46630","0.0-2.0-3.0-1.3","5e387f2c0d70ef099d5e5a4f","E1","batch5","","null","<p style=""font-size:30px;color:green;"">Correct!</p>","null","pattern_feedback","","","","","","","","","","","","","","","","","","","","","","","","",""
"","","","","","image-keyboard-response","18","47444","0.0-2.0-3.0-0.4","5e387f2c0d70ef099d5e5a4f","E1","batch5","","812.3999998569489","stim/prac_no_16_1.png","j","pattern_practice","true","j","","","","","","","","","","","","","","","","","","","","","","",""
"","","","","","html-keyboard-response","19","48447","0.0-2.0-3.0-1.4","5e387f2c0d70ef099d5e5a4f","E1","batch5","","null","<p style=""font-size:30px;color:green;"">Correct!</p>","null","pattern_feedback","","","","","","","","","","","","","","","","","","","","","","","","",""
"","","","","","html-button-response","20","50957","0.0-2.0-4.0","5e387f2c0d70ef099d5e5a4f","E1","batch5","","2509.2999999523163","<p class=block-text> Good job! You are done with practice trials!<br>
        You responded correctly on 100% of the trials.<br>
        Press the button below to start official trials. Now you won't see any feedback about your response</p>","0","pattern_enter_official_trials","","","","","","","","","","","","","","","","","","","","","","","","",""
"","","","","","html-keyboard-response","21","51760","0.0-2.0-5.0-0.0","5e387f2c0d70ef099d5e5a4f","E1","batch5","","null","<p class=block-text>Trial 1 out of 78</p>","null","pattern_show_trial_num","","","","","","","","","","","","","","","","","","","","","","","","",""
"","","","","","image-keyboard-response","22","52868","0.0-2.0-5.0-1.0","5e387f2c0d70ef099d5e5a4f","E1","batch5","","1106.7000000476837","stim/yes_39_hor_w1_w.png","f","pattern_response","true","f","pattern_62","1106.7000000476837","true","1","","","","","","","","","","","","","","","","","","",""
"","","","","","html-keyboard-response","23","54193","0.0-2.0-5.0-0.1","5e387f2c0d70ef099d5e5a4f","E1","batch5","","null","<p class=block-text>Trial 2 out of 78</p>","null","pattern_show_trial_num","","","","","","","","","","","","","","","","","","","","","","","","",""
"","","","","","image-keyboard-response","24","55860","0.0-2.0-5.0-1.1","5e387f2c0d70ef099d5e5a4f","E1","batch5","","1664.6000001430511","stim/yes_42_dia_w1_w.png","j","pattern_response","false","f","pattern_64","1664.6000001430511","false","1","","","","","","","","","","","","","","","","","","",""
"","","","","","html-keyboard-response","25","57166","0.0-2.0-5.0-0.2","5e387f2c0d70ef099d5e5a4f","E1","batch5","","null","<p class=block-text>Trial 3 out of 78</p>","null","pattern_show_trial_num","","","","","","","","","","","","","","","","","","","","","","","","",""
"","","","","","image-keyboard-response","26","58835","0.0-2.0-5.0-1.2","5e387f2c0d70ef099d5e5a4f","E1","batch5","","1667.7999999523163","stim/no_37_2_w.png","j","pattern_response","true","j","pattern_19","1667.7999999523163","true","2","","","","","","","","","","","","","","","","","","",""
"","","","","","html-keyboard-response","27","60145","0.0-2.0-5.0-0.3","5e387f2c0d70ef099d5e5a4f","E1","batch5","","null","<p class=block-text>Trial 4 out of 78</p>","null","pattern_show_trial_num","","","","","","","","","","","","","","","","","","","","","","","","",""
"","","","","","image-keyboard-response","28","60867","0.0-2.0-5.0-1.3","5e387f2c0d70ef099d5e5a4f","E1","batch5","","721.6000001430511","stim/yes_36_ver_w1_w.png","f","pattern_response","true","f","pattern_58","721.6000001430511","true","3","","","","","","","","","","","","","","","","","","",""
"","","","","","html-keyboard-response","29","62179","0.0-2.0-5.0-0.4","5e387f2c0d70ef099d5e5a4f","E1","batch5","","null","<p class=block-text>Trial 5 out of 78</p>","null","pattern_show_trial_num","","","","","","","","","","","","","","","","","","","","","","","","",""
"","","","","","image-keyboard-response","30","63923","0.0-2.0-5.0-1.4","5e387f2c0d70ef099d5e5a4f","E1","batch5","","1743.3999998569489","stim/no_30_1_b.png","j","pattern_response","true","j","pattern_13","1743.3999998569489","true","4","","","","","","","","","","","","","","","","","","",""
"","","","","","html-keyboard-response","31","65237","0.0-2.0-5.0-0.5","5e387f2c0d70ef099d5e5a4f","E1","batch5","","null","<p class=block-text>Trial 6 out of 78</p>","null","pattern_show_trial_num","","","","","","","","","","","","","","","","","","","","","","","","",""
"","","","","","image-keyboard-response","32","66580","0.0-2.0-5.0-1.5","5e387f2c0d70ef099d5e5a4f","E1","batch5","","1341.9000000953674","stim/yes_51_dia_b1.png","f","pattern_response","true","f","pattern_72","1341.9000000953674","true","5","","","","","","","","","","","","","","","","","","",""
"","","","","","html-keyboard-response","33","67901","0.0-2.0-5.0-0.6","5e387f2c0d70ef099d5e5a4f","E1","batch5","","null","<p class=block-text>Trial 7 out of 78</p>","null","pattern_show_trial_num","","","","","","","","","","","","","","","","","","","","","","","","",""
"","","","","","image-keyboard-response","34","69523","0.0-2.0-5.0-1.6","5e387f2c0d70ef099d5e5a4f","E1","batch5","","1621.4000000953674","stim/yes_23_ver_b1.png","j","pattern_response","false","f","pattern_48","1621.4000000953674","false","5","","","","","","","","","","","","","","","","","","",""
"","","","","","html-keyboard-response","35","70836","0.0-2.0-5.0-0.7","5e387f2c0d70ef099d5e5a4f","E1","batch5","","null","<p class=block-text>Trial 8 out of 78</p>","null","pattern_show_trial_num","","","","","","","","","","","","","","","","","","","","","","","","",""
"","","","","","image-keyboard-response","36","71555","0.0-2.0-5.0-1.7","5e387f2c0d70ef099d5e5a4f","E1","batch5","","718.3000001907349","stim/yes_12_hor_w1_w.png","f","pattern_response","true","f","pattern_42","718.3000001907349","true","6","","","","","","","","","","","","","","","","","","",""
"","","","","","html-keyboard-response","37","72863","0.0-2.0-5.0-0.8","5e387f2c0d70ef099d5e5a4f","E1","batch5","","null","<p class=block-text>Trial 9 out of 78</p>","null","pattern_show_trial_num","","","","","","","","","","","","","","","","","","","","","","","","",""
"","","","","","image-keyboard-response","38","73603","0.0-2.0-5.0-1.8","5e387f2c0d70ef099d5e5a4f","E1","batch5","","738.3999998569489","stim/yes_46_ver_b1_b.png","f","pattern_response","true","f","pattern_68","738.3999998569489","true","7","","","","","","","","","","","","","","","","","","",""
"","","","","","html-keyboard-response","39","74918","0.0-2.0-5.0-0.9","5e387f2c0d70ef099d5e5a4f","E1","batch5","","null","<p class=block-text>Trial 10 out of 78</p>","null","pattern_show_trial_num","","","","","","","","","","","","","","","","","","","","","","","","",""
"","","","","","image-keyboard-response","40","77155","0.0-2.0-5.0-1.9","5e387f2c0d70ef099d5e5a4f","E1","batch5","","2236.100000143051","stim/no_53_1_b.png","j","pattern_response","true","j","pattern_33","2236.100000143051","true","8","","","","","","","","","","","","","","","","","","",""
"","","","","","html-keyboard-response","41","78484","0.0-2.0-5.0-0.10","5e387f2c0d70ef099d5e5a4f","E1","batch5","","null","<p class=block-text>Trial 11 out of 78</p>","null","pattern_show_trial_num","","","","","","","","","","","","","","","","","","","","","","","","",""
"","","","","","image-keyboard-response","42","80419","0.0-2.0-5.0-1.10","5e387f2c0d70ef099d5e5a4f","E1","batch5","","1934.6000001430511","stim/no_28_2.png","j","pattern_response","true","j","pattern_11","1934.6000001430511","true","9","","","","","","","","","","","","","","","","","","",""
"","","","","","html-keyboard-response","43","81735","0.0-2.0-5.0-0.11","5e387f2c0d70ef099d5e5a4f","E1","batch5","","null","<p class=block-text>Trial 12 out of 78</p>","null","pattern_show_trial_num","","","","","","","","","","","","","","","","","","","","","","","","",""
"","","","","","image-keyboard-response","44","83348","0.0-2.0-5.0-1.11","5e387f2c0d70ef099d5e5a4f","E1","batch5","","1611.5999999046326","stim/no_36_1_b.png","j","pattern_response","true","j","pattern_17","1611.5999999046326","true","10","","","","","","","","","","","","","","","","","","",""
"","","","","","html-keyboard-response","45","84664","0.0-2.0-5.0-0.12","5e387f2c0d70ef099d5e5a4f","E1","batch5","","null","<p class=block-text>Trial 13 out of 78</p>","null","pattern_show_trial_num","","","","","","","","","","","","","","","","","","","","","","","","",""
"","","","","","image-keyboard-response","46","86515","0.0-2.0-5.0-1.12","5e387f2c0d70ef099d5e5a4f","E1","batch5","","1850.5","stim/no_51_1.png","j","pattern_response","true","j","pattern_31","1850.5","true","11","","","","","","","","","","","","","","","","","","",""
"","","","","","html-keyboard-response","47","87820","0.0-2.0-5.0-0.13","5e387f2c0d70ef099d5e5a4f","E1","batch5","","null","<p class=block-text>Trial 14 out of 78</p>","null","pattern_show_trial_num","","","","","","","","","","","","","","","","","","","","","","","","",""
"","","","","","image-keyboard-response","48","88964","0.0-2.0-5.0-1.13","5e387f2c0d70ef099d5e5a4f","E1","batch5","","1142.9000000953674","stim/no_15_1_w.png","j","pattern_response","true","j","pattern_03","1142.9000000953674","true","12","","","","","","","","","","","","","","","","","","",""
"","","","","","html-keyboard-response","49","90284","0.0-2.0-5.0-0.14","5e387f2c0d70ef099d5e5a4f","E1","batch5","","null","<p class=block-text>Trial 15 out of 78</p>","null","pattern_show_trial_num","","","","","","","","","","","","","","","","","","","","","","","","",""
"","","","","","image-keyboard-response","50","93348","0.0-2.0-5.0-1.14","5e387f2c0d70ef099d5e5a4f","E1","batch5","","3062.4000000953674","stim/no_58_1_w.png","j","pattern_response","true","j","pattern_35","3062.4000000953674","true","13","","","","","","","","","","","","","","","","","","",""
"","","","","","html-keyboard-response","51","94658","0.0-2.0-5.0-0.15","5e387f2c0d70ef099d5e5a4f","E1","batch5","","null","<p class=block-text>Trial 16 out of 78</p>","null","pattern_show_trial_num","","","","","","","","","","","","","","","","","","","","","","","","",""
"","","","","","image-keyboard-response","52","96804","0.0-2.0-5.0-1.15","5e387f2c0d70ef099d5e5a4f","E1","batch5","","2144.2999999523163","stim/no_47_1_b.png","j","pattern_response","true","j","pattern_27","2144.2999999523163","true","14","","","","","","","","","","","","","","","","","","",""
"","","","","","html-keyboard-response","53","98111","0.0-2.0-5.0-0.16","5e387f2c0d70ef099d5e5a4f","E1","batch5","","null","<p class=block-text>Trial 17 out of 78</p>","null","pattern_show_trial_num","","","","","","","","","","","","","","","","","","","","","","","","",""
"","","","","","image-keyboard-response","54","100118","0.0-2.0-5.0-1.16","5e387f2c0d70ef099d5e5a4f","E1","batch5","","2005.5999999046326","stim/no_33_1_b.png","j","pattern_response","true","j","pattern_15","2005.5999999046326","true","15","","","","","","","","","","","","","","","","","","",""
"","","","","","html-keyboard-response","55","101434","0.0-2.0-5.0-0.17","5e387f2c0d70ef099d5e5a4f","E1","batch5","","null","<p class=block-text>Trial 18 out of 78</p>","null","pattern_show_trial_num","","","","","","","","","","","","","","","","","","","","","","","","",""
"","","","","","image-keyboard-response","56","102804","0.0-2.0-5.0-1.17","5e387f2c0d70ef099d5e5a4f","E1","batch5","","1368.9000000953674","stim/yes_53_ver_b1_b.png","f","pattern_response","true","f","pattern_74","1368.9000000953674","true","16","","","","","","","","","","","","","","","","","","",""
"","","","","","html-keyboard-response","57","104117","0.0-2.0-5.0-0.18","5e387f2c0d70ef099d5e5a4f","E1","batch5","","null","<p class=block-text>Trial 19 out of 78</p>","null","pattern_show_trial_num","","","","","","","","","","","","","","","","","","","","","","","","",""
"","","","","","image-keyboard-response","58","109987","0.0-2.0-5.0-1.18","5e387f2c0d70ef099d5e5a4f","E1","batch5","","5869.399999856949","stim/yes_63_dia_b1.png","j","pattern_response","false","f","pattern_78","5869.399999856949","false","16","","","","","","","","","","","","","","","","","","",""
"","","","","","html-keyboard-response","59","111299","0.0-2.0-5.0-0.19","5e387f2c0d70ef099d5e5a4f","E1","batch5","","null","<p class=block-text>Trial 20 out of 78</p>","null","pattern_show_trial_num","","","","","","","","","","","","","","","","","","","","","","","","",""
"","","","","","image-keyboard-response","60","113332","0.0-2.0-5.0-1.19","5e387f2c0d70ef099d5e5a4f","E1","batch5","","2031.5","stim/no_43_2_b.png","j","pattern_response","true","j","pattern_23","2031.5","true","17","","","","","","","","","","","","","","","","","","",""
"","","","","","html-keyboard-response","61","114647","0.0-2.0-5.0-0.20","5e387f2c0d70ef099d5e5a4f","E1","batch5","","null","<p class=block-text>Trial 21 out of 78</p>","null","pattern_show_trial_num","","","","","","","","","","","","","","","","","","","","","","","","",""
"","","","","","image-keyboard-response","62","115876","0.0-2.0-5.0-1.20","5e387f2c0d70ef099d5e5a4f","E1","batch5","","1227.7999999523163","stim/yes_17_ver_b1_b.png","f","pattern_response","true","f","pattern_46","1227.7999999523163","true","18","","","","","","","","","","","","","","","","","","",""
"","","","","","html-keyboard-response","63","117186","0.0-2.0-5.0-0.21","5e387f2c0d70ef099d5e5a4f","E1","batch5","","null","<p class=block-text>Trial 22 out of 78</p>","null","pattern_show_trial_num","","","","","","","","","","","","","","","","","","","","","","","","",""
"","","","","","image-keyboard-response","64","117923","0.0-2.0-5.0-1.21","5e387f2c0d70ef099d5e5a4f","E1","batch5","","729","stim/yes_49_hor_w1_b.png","f","pattern_response","true","f","pattern_70","729","true","19","","","","","","","","","","","","","","","","","","",""
"","","","","","html-keyboard-response","65","119245","0.0-2.0-5.0-0.22","5e387f2c0d70ef099d5e5a4f","E1","batch5","","null","<p class=block-text>Trial 23 out of 78</p>","null","pattern_show_trial_num","","","","","","","","","","","","","","","","","","","","","","","","",""
"","","","","","image-keyboard-response","66","122163","0.0-2.0-5.0-1.22","5e387f2c0d70ef099d5e5a4f","E1","batch5","","2916.199999809265","stim/yes_58_dia_w1_w.png","j","pattern_response","false","f","pattern_76","2916.199999809265","false","19","","","","","","","","","","","","","","","","","","",""
"","","","","","html-keyboard-response","67","123478","0.0-2.0-5.0-0.23","5e387f2c0d70ef099d5e5a4f","E1","batch5","","null","<p class=block-text>Trial 24 out of 78</p>","null","pattern_show_trial_num","","","","","","","","","","","","","","","","","","","","","","","","",""
"","","","","","image-keyboard-response","68","124467","0.0-2.0-5.0-1.23","5e387f2c0d70ef099d5e5a4f","E1","batch5","","987.3999998569489","stim/yes_30_ver_b1_b.png","f","pattern_response","true","f","pattern_54","987.3999998569489","true","20","","","","","","","","","","","","","","","","","","",""
"","","","","","html-keyboard-response","69","125797","0.0-2.0-5.0-0.24","5e387f2c0d70ef099d5e5a4f","E1","batch5","","null","<p class=block-text>Trial 25 out of 78</p>","null","pattern_show_trial_num","","","","","","","","","","","","","","","","","","","","","","","","",""
"","","","","","image-keyboard-response","70","127699","0.0-2.0-5.0-1.24","5e387f2c0d70ef099d5e5a4f","E1","batch5","","1901.5999999046326","stim/no_49_2_b.png","j","pattern_response","true","j","pattern_29","1901.5999999046326","true","21","","","","","","","","","","","","","","","","","","",""
"","","","","","html-keyboard-response","71","129011","0.0-2.0-5.0-0.25","5e387f2c0d70ef099d5e5a4f","E1","batch5","","null","<p class=block-text>Trial 26 out of 78</p>","null","pattern_show_trial_num","","","","","","","","","","","","","","","","","","","","","","","","",""
"","","","","","image-keyboard-response","72","130985","0.0-2.0-5.0-1.25","5e387f2c0d70ef099d5e5a4f","E1","batch5","","1972.8999998569489","stim/no_45_1_w.png","j","pattern_response","true","j","pattern_25","1972.8999998569489","true","22","","","","","","","","","","","","","","","","","","",""
"","","","","","html-keyboard-response","73","132291","0.0-2.0-5.0-0.26","5e387f2c0d70ef099d5e5a4f","E1","batch5","","null","<p class=block-text>Trial 27 out of 78</p>","null","pattern_show_trial_num","","","","","","","","","","","","","","","","","","","","","","","","",""
"","","","","","image-keyboard-response","74","133332","0.0-2.0-5.0-1.26","5e387f2c0d70ef099d5e5a4f","E1","batch5","","1039.2000000476837","stim/yes_26_dia_w2_w.png","f","pattern_response","true","f","pattern_50","1039.2000000476837","true","23","","","","","","","","","","","","","","","","","","",""
"","","","","","html-keyboard-response","75","134634","0.0-2.0-5.0-0.27","5e387f2c0d70ef099d5e5a4f","E1","batch5","","null","<p class=block-text>Trial 28 out of 78</p>","null","pattern_show_trial_num","","","","","","","","","","","","","","","","","","","","","","","","",""
"","","","","","image-keyboard-response","76","136355","0.0-2.0-5.0-1.27","5e387f2c0d70ef099d5e5a4f","E1","batch5","","1720.0999999046326","stim/no_39_1_w.png","j","pattern_response","true","j","pattern_21","1720.0999999046326","true","24","","","","","","","","","","","","","","","","","","",""
"","","","","","html-keyboard-response","77","137666","0.0-2.0-5.0-0.28","5e387f2c0d70ef099d5e5a4f","E1","batch5","","null","<p class=block-text>Trial 29 out of 78</p>","null","pattern_show_trial_num","","","","","","","","","","","","","","","","","","","","","","","","",""
"","","","","","image-keyboard-response","78","139027","0.0-2.0-5.0-1.28","5e387f2c0d70ef099d5e5a4f","E1","batch5","","1358.7000000476837","stim/no_25_1_b.png","j","pattern_response","true","j","pattern_09","1358.7000000476837","true","25","","","","","","","","","","","","","","","","","","",""
"","","","","","html-keyboard-response","79","140339","0.0-2.0-5.0-0.29","5e387f2c0d70ef099d5e5a4f","E1","batch5","","null","<p class=block-text>Trial 30 out of 78</p>","null","pattern_show_trial_num","","","","","","","","","","","","","","","","","","","","","","","","",""
"","","","","","image-keyboard-response","80","140994","0.0-2.0-5.0-1.29","5e387f2c0d70ef099d5e5a4f","E1","batch5","","654","stim/yes_70_ver_b1.png","f","pattern_response","true","f","pattern_80","654","true","26","","","","","","","","","","","","","","","","","","",""
"","","","","","html-keyboard-response","81","142317","0.0-2.0-5.0-0.30","5e387f2c0d70ef099d5e5a4f","E1","batch5","","null","<p class=block-text>Trial 31 out of 78</p>","null","pattern_show_trial_num","","","","","","","","","","","","","","","","","","","","","","","","",""
"","","","","","image-keyboard-response","82","143170","0.0-2.0-5.0-1.30","5e387f2c0d70ef099d5e5a4f","E1","batch5","","852.5","stim/no_12_1.png","j","pattern_response","true","j","pattern_01","852.5","true","27","","","","","","","","","","","","","","","","","","",""
"","","","","","html-keyboard-response","83","144489","0.0-2.0-5.0-0.31","5e387f2c0d70ef099d5e5a4f","E1","batch5","","null","<p class=block-text>Trial 32 out of 78</p>","null","pattern_show_trial_num","","","","","","","","","","","","","","","","","","","","","","","","",""
"","","","","","image-keyboard-response","84","146259","0.0-2.0-5.0-1.31","5e387f2c0d70ef099d5e5a4f","E1","batch5","","1769.4000000953674","stim/no_67_1.png","j","pattern_response","true","j","pattern_39","1769.4000000953674","true","28","","","","","","","","","","","","","","","","","","",""
"","","","","","html-keyboard-response","85","147582","0.0-2.0-5.0-0.32","5e387f2c0d70ef099d5e5a4f","E1","batch5","","null","<p class=block-text>Trial 33 out of 78</p>","null","pattern_show_trial_num","","","","","","","","","","","","","","","","","","","","","","","","",""
"","","","","","image-keyboard-response","86","148211","0.0-2.0-5.0-1.32","5e387f2c0d70ef099d5e5a4f","E1","batch5","","620.6000001430511","stim/yes_29_hor_b1_b.png","f","pattern_response","true","f","pattern_52","620.6000001430511","true","29","","","","","","","","","","","","","","","","","","",""
"","","","","","html-keyboard-response","87","149527","0.0-2.0-5.0-0.33","5e387f2c0d70ef099d5e5a4f","E1","batch5","","null","<p class=block-text>Trial 34 out of 78</p>","null","pattern_show_trial_num","","","","","","","","","","","","","","","","","","","","","","","","",""
"","","","","","image-keyboard-response","88","150306","0.0-2.0-5.0-1.33","5e387f2c0d70ef099d5e5a4f","E1","batch5","","777.8999998569489","stim/yes_33_dia_w1_w.png","f","pattern_response","true","f","pattern_56","777.8999998569489","true","30","","","","","","","","","","","","","","","","","","",""
"","","","","","html-keyboard-response","89","151634","0.0-2.0-5.0-0.34","5e387f2c0d70ef099d5e5a4f","E1","batch5","","null","<p class=block-text>Trial 35 out of 78</p>","null","pattern_show_trial_num","","","","","","","","","","","","","","","","","","","","","","","","",""
"","","","","","image-keyboard-response","90","153026","0.0-2.0-5.0-1.34","5e387f2c0d70ef099d5e5a4f","E1","batch5","","1389.9000000953674","stim/yes_44_ver_w1_w.png","j","pattern_response","false","f","pattern_66","1389.9000000953674","false","30","","","","","","","","","","","","","","","","","","",""
"","","","","","html-keyboard-response","91","154339","0.0-2.0-5.0-0.35","5e387f2c0d70ef099d5e5a4f","E1","batch5","","null","<p class=block-text>Trial 36 out of 78</p>","null","pattern_show_trial_num","","","","","","","","","","","","","","","","","","","","","","","","",""
"","","","","","image-keyboard-response","92","155683","0.0-2.0-5.0-1.35","5e387f2c0d70ef099d5e5a4f","E1","batch5","","1343.0999999046326","stim/yes_37_hor_w1_w.png","f","pattern_response","true","f","pattern_60","1343.0999999046326","true","31","","","","","","","","","","","","","","","","","","",""
"","","","","","html-keyboard-response","93","157003","0.0-2.0-5.0-0.36","5e387f2c0d70ef099d5e5a4f","E1","batch5","","null","<p class=block-text>Trial 37 out of 78</p>","null","pattern_show_trial_num","","","","","","","","","","","","","","","","","","","","","","","","",""
"","","","","","image-keyboard-response","94","157618","0.0-2.0-5.0-1.36","5e387f2c0d70ef099d5e5a4f","E1","batch5","","614","stim/yes_15_dia_b1u_b.png","f","pattern_response","true","f","pattern_44","614","true","32","","","","","","","","","","","","","","","","","","",""
"","","","","","html-keyboard-response","95","158937","0.0-2.0-5.0-0.37","5e387f2c0d70ef099d5e5a4f","E1","batch5","","null","<p class=block-text>Trial 38 out of 78</p>","null","pattern_show_trial_num","","","","","","","","","","","","","","","","","","","","","","","","",""
"","","","","","image-keyboard-response","96","159813","0.0-2.0-5.0-1.37","5e387f2c0d70ef099d5e5a4f","E1","batch5","","874.9000000953674","stim/no_22_1_b.png","j","pattern_response","true","j","pattern_07","874.9000000953674","true","33","","","","","","","","","","","","","","","","","","",""
"","","","","","html-keyboard-response","97","161126","0.0-2.0-5.0-0.38","5e387f2c0d70ef099d5e5a4f","E1","batch5","","null","<p class=block-text>Trial 39 out of 78</p>","null","pattern_show_trial_num","","","","","","","","","","","","","","","","","","","","","","","","",""
"","","","","","image-keyboard-response","98","162019","0.0-2.0-5.0-1.38","5e387f2c0d70ef099d5e5a4f","E1","batch5","","892.2999999523163","stim/no_18_1_b.png","j","pattern_response","true","j","pattern_05","892.2999999523163","true","34","","","","","","","","","","","","","","","","","","",""
"","","","","","image-keyboard-response","99","164723","0.0-2.0-6.0","5e387f2c0d70ef099d5e5a4f","E1","batch5","","2189.2000000476837","stim/empty_board.png","j","attention_check","true","j","","","","","500","[""f"",""j""]","","","","","","","","","","","","","","","","",""
"","","","","","html-keyboard-response","100","165525","0.0-2.0-7.0-0.0","5e387f2c0d70ef099d5e5a4f","E1","batch5","","null","<p class=block-text>Trial 40 out of 78</p>","null","pattern_show_trial_num","","","","","","","","","","","","","","","","","","","","","","","","",""
"","","","","","image-keyboard-response","101","168979","0.0-2.0-7.0-1.0","5e387f2c0d70ef099d5e5a4f","E1","batch5","","3452","stim/no_46_1_b.png","j","pattern_response","true","j","pattern_26","3452","true","35","","","","","","","","","","","","","","","","","","",""
"","","","","","html-keyboard-response","102","170288","0.0-2.0-7.0-0.1","5e387f2c0d70ef099d5e5a4f","E1","batch5","","null","<p class=block-text>Trial 41 out of 78</p>","null","pattern_show_trial_num","","","","","","","","","","","","","","","","","","","","","","","","",""
"","","","","","image-keyboard-response","103","171877","0.0-2.0-7.0-1.1","5e387f2c0d70ef099d5e5a4f","E1","batch5","","1587.8000001907349","stim/no_29_1_b.png","j","pattern_response","true","j","pattern_12","1587.8000001907349","true","36","","","","","","","","","","","","","","","","","","",""
"","","","","","html-keyboard-response","104","173193","0.0-2.0-7.0-0.2","5e387f2c0d70ef099d5e5a4f","E1","batch5","","null","<p class=block-text>Trial 42 out of 78</p>","null","pattern_show_trial_num","","","","","","","","","","","","","","","","","","","","","","","","",""
"","","","","","image-keyboard-response","105","174163","0.0-2.0-7.0-1.2","5e387f2c0d70ef099d5e5a4f","E1","batch5","","969.5999999046326","stim/no_20_1_w.png","j","pattern_response","true","j","pattern_06","969.5999999046326","true","37","","","","","","","","","","","","","","","","","","",""
"","","","","","html-keyboard-response","106","175487","0.0-2.0-7.0-0.3","5e387f2c0d70ef099d5e5a4f","E1","batch5","","null","<p class=block-text>Trial 43 out of 78</p>","null","pattern_show_trial_num","","","","","","","","","","","","","","","","","","","","","","","","",""
"","","","","","image-keyboard-response","107","176531","0.0-2.0-7.0-1.3","5e387f2c0d70ef099d5e5a4f","E1","batch5","","1043.0999999046326","stim/yes_28_ver_b1.png","f","pattern_response","true","f","pattern_51","1043.0999999046326","true","38","","","","","","","","","","","","","","","","","","",""
"","","","","","html-keyboard-response","108","177858","0.0-2.0-7.0-0.4","5e387f2c0d70ef099d5e5a4f","E1","batch5","","null","<p class=block-text>Trial 44 out of 78</p>","null","pattern_show_trial_num","","","","","","","","","","","","","","","","","","","","","","","","",""
"","","","","","image-keyboard-response","109","179651","0.0-2.0-7.0-1.4","5e387f2c0d70ef099d5e5a4f","E1","batch5","","1790.3999998569489","stim/yes_31_hor_b1.png","j","pattern_response","false","f","pattern_55","1790.3999998569489","false","38","","","","","","","","","","","","","","","","","","",""
"","","","","","html-keyboard-response","110","180957","0.0-2.0-7.0-0.5","5e387f2c0d70ef099d5e5a4f","E1","batch5","","null","<p class=block-text>Trial 45 out of 78</p>","null","pattern_show_trial_num","","","","","","","","","","","","","","","","","","","","","","","","",""
"","","","","","image-keyboard-response","111","183491","0.0-2.0-7.0-1.5","5e387f2c0d70ef099d5e5a4f","E1","batch5","","2533.800000190735","stim/no_44_1.png","j","pattern_response","true","j","pattern_24","2533.800000190735","true","39","","","","","","","","","","","","","","","","","","",""
"","","","","","html-keyboard-response","112","184805","0.0-2.0-7.0-0.6","5e387f2c0d70ef099d5e5a4f","E1","batch5","","null","<p class=block-text>Trial 46 out of 78</p>","null","pattern_show_trial_num","","","","","","","","","","","","","","","","","","","","","","","","",""
"","","","","","image-keyboard-response","113","186723","0.0-2.0-7.0-1.6","5e387f2c0d70ef099d5e5a4f","E1","batch5","","1916.7000000476837","stim/no_36_2_w.png","j","pattern_response","true","j","pattern_18","1916.7000000476837","true","40","","","","","","","","","","","","","","","","","","",""
"","","","","","html-keyboard-response","114","188048","0.0-2.0-7.0-0.7","5e387f2c0d70ef099d5e5a4f","E1","batch5","","null","<p class=block-text>Trial 47 out of 78</p>","null","pattern_show_trial_num","","","","","","","","","","","","","","","","","","","","","","","","",""
"","","","","","image-keyboard-response","115","189219","0.0-2.0-7.0-1.7","5e387f2c0d70ef099d5e5a4f","E1","batch5","","1168.6999998092651","stim/yes_55_hor_w1_w.png","f","pattern_response","true","f","pattern_75","1168.6999998092651","true","41","","","","","","","","","","","","","","","","","","",""
"","","","","","html-keyboard-response","116","190538","0.0-2.0-7.0-0.8","5e387f2c0d70ef099d5e5a4f","E1","batch5","","null","<p class=block-text>Trial 48 out of 78</p>","null","pattern_show_trial_num","","","","","","","","","","","","","","","","","","","","","","","","",""
"","","","","","image-keyboard-response","117","191491","0.0-2.0-7.0-1.8","5e387f2c0d70ef099d5e5a4f","E1","batch5","","951.8999998569489","stim/yes_52_ver_w1.png","f","pattern_response","true","f","pattern_73","951.8999998569489","true","42","","","","","","","","","","","","","","","","","","",""
"","","","","","html-keyboard-response","118","192807","0.0-2.0-7.0-0.9","5e387f2c0d70ef099d5e5a4f","E1","batch5","","null","<p class=block-text>Trial 49 out of 78</p>","null","pattern_show_trial_num","","","","","","","","","","","","","","","","","","","","","","","","",""
"","","","","","image-keyboard-response","119","194676","0.0-2.0-7.0-1.9","5e387f2c0d70ef099d5e5a4f","E1","batch5","","1868.7999999523163","stim/no_48_1_w.png","j","pattern_response","true","j","pattern_28","1868.7999999523163","true","43","","","","","","","","","","","","","","","","","","",""
"","","","","","html-keyboard-response","120","195996","0.0-2.0-7.0-0.10","5e387f2c0d70ef099d5e5a4f","E1","batch5","","null","<p class=block-text>Trial 50 out of 78</p>","null","pattern_show_trial_num","","","","","","","","","","","","","","","","","","","","","","","","",""
"","","","","","image-keyboard-response","121","198291","0.0-2.0-7.0-1.10","5e387f2c0d70ef099d5e5a4f","E1","batch5","","2293.7000000476837","stim/no_38_1_b.png","j","pattern_response","true","j","pattern_20","2293.7000000476837","true","44","","","","","","","","","","","","","","","","","","",""
"","","","","","html-keyboard-response","122","199615","0.0-2.0-7.0-0.11","5e387f2c0d70ef099d5e5a4f","E1","batch5","","null","<p class=block-text>Trial 51 out of 78</p>","null","pattern_show_trial_num","","","","","","","","","","","","","","","","","","","","","","","","",""
"","","","","","image-keyboard-response","123","203139","0.0-2.0-7.0-1.11","5e387f2c0d70ef099d5e5a4f","E1","batch5","","3522.899999856949","stim/no_70_2.png","j","pattern_response","true","j","pattern_40","3522.899999856949","true","45","","","","","","","","","","","","","","","","","","",""
"","","","","","html-keyboard-response","124","204453","0.0-2.0-7.0-0.12","5e387f2c0d70ef099d5e5a4f","E1","batch5","","null","<p class=block-text>Trial 52 out of 78</p>","null","pattern_show_trial_num","","","","","","","","","","","","","","","","","","","","","","","","",""
"","","","","","image-keyboard-response","125","206004","0.0-2.0-7.0-1.12","5e387f2c0d70ef099d5e5a4f","E1","batch5","","1549.5999999046326","stim/no_34_1_b.png","j","pattern_response","true","j","pattern_16","1549.5999999046326","true","46","","","","","","","","","","","","","","","","","","",""
"","","","","","html-keyboard-response","126","207327","0.0-2.0-7.0-0.13","5e387f2c0d70ef099d5e5a4f","E1","batch5","","null","<p class=block-text>Trial 53 out of 78</p>","null","pattern_show_trial_num","","","","","","","","","","","","","","","","","","","","","","","","",""
"","","","","","image-keyboard-response","127","208099","0.0-2.0-7.0-1.13","5e387f2c0d70ef099d5e5a4f","E1","batch5","","771","stim/yes_29_ver_w1.png","f","pattern_response","true","f","pattern_53","771","true","47","","","","","","","","","","","","","","","","","","",""
"","","","","","html-keyboard-response","128","209407","0.0-2.0-7.0-0.14","5e387f2c0d70ef099d5e5a4f","E1","batch5","","null","<p class=block-text>Trial 54 out of 78</p>","null","pattern_show_trial_num","","","","","","","","","","","","","","","","","","","","","","","","",""
"","","","","","image-keyboard-response","129","210371","0.0-2.0-7.0-1.14","5e387f2c0d70ef099d5e5a4f","E1","batch5","","963.2000000476837","stim/yes_45_hor_b2_b.png","f","pattern_response","true","f","pattern_67","963.2000000476837","true","48","","","","","","","","","","","","","","","","","","",""
"","","","","","html-keyboard-response","130","211689","0.0-2.0-7.0-0.15","5e387f2c0d70ef099d5e5a4f","E1","batch5","","null","<p class=block-text>Trial 55 out of 78</p>","null","pattern_show_trial_num","","","","","","","","","","","","","","","","","","","","","","","","",""
"","","","","","image-keyboard-response","131","212435","0.0-2.0-7.0-1.15","5e387f2c0d70ef099d5e5a4f","E1","batch5","","745.2000000476837","stim/yes_22_ver_w1.png","f","pattern_response","true","f","pattern_47","745.2000000476837","true","49","","","","","","","","","","","","","","","","","","",""
"","","","","","html-keyboard-response","132","213760","0.0-2.0-7.0-0.16","5e387f2c0d70ef099d5e5a4f","E1","batch5","","null","<p class=block-text>Trial 56 out of 78</p>","null","pattern_show_trial_num","","","","","","","","","","","","","","","","","","","","","","","","",""
"","","","","","image-keyboard-response","133","215316","0.0-2.0-7.0-1.16","5e387f2c0d70ef099d5e5a4f","E1","batch5","","1554.3999998569489","stim/no_55_1_w.png","j","pattern_response","true","j","pattern_34","1554.3999998569489","true","50","","","","","","","","","","","","","","","","","","",""
"","","","","","html-keyboard-response","134","216618","0.0-2.0-7.0-0.17","5e387f2c0d70ef099d5e5a4f","E1","batch5","","null","<p class=block-text>Trial 57 out of 78</p>","null","pattern_show_trial_num","","","","","","","","","","","","","","","","","","","","","","","","",""
"","","","","","image-keyboard-response","135","218019","0.0-2.0-7.0-1.17","5e387f2c0d70ef099d5e5a4f","E1","batch5","","1399.9000000953674","stim/yes_48_dia_w1_w.png","j","pattern_response","false","f","pattern_69","1399.9000000953674","false","50","","","","","","","","","","","","","","","","","","",""
"","","","","","html-keyboard-response","136","219342","0.0-2.0-7.0-0.18","5e387f2c0d70ef099d5e5a4f","E1","batch5","","null","<p class=block-text>Trial 58 out of 78</p>","null","pattern_show_trial_num","","","","","","","","","","","","","","","","","","","","","","","","",""
"","","","","","image-keyboard-response","137","220083","0.0-2.0-7.0-1.18","5e387f2c0d70ef099d5e5a4f","E1","batch5","","740.6000001430511","stim/yes_38_hor_b1_b.png","j","pattern_response","false","f","pattern_61","740.6000001430511","false","50","","","","","","","","","","","","","","","","","","",""
"","","","","","html-keyboard-response","138","221392","0.0-2.0-7.0-0.19","5e387f2c0d70ef099d5e5a4f","E1","batch5","","null","<p class=block-text>Trial 59 out of 78</p>","null","pattern_show_trial_num","","","","","","","","","","","","","","","","","","","","","","","","",""
"","","","","","image-keyboard-response","139","222243","0.0-2.0-7.0-1.19","5e387f2c0d70ef099d5e5a4f","E1","batch5","","849.5999999046326","stim/no_26_1_w.png","j","pattern_response","true","j","pattern_10","849.5999999046326","true","51","","","","","","","","","","","","","","","","","","",""
"","","","","","html-keyboard-response","140","223568","0.0-2.0-7.0-0.20","5e387f2c0d70ef099d5e5a4f","E1","batch5","","null","<p class=block-text>Trial 60 out of 78</p>","null","pattern_show_trial_num","","","","","","","","","","","","","","","","","","","","","","","","",""
"","","","","","image-keyboard-response","141","225443","0.0-2.0-7.0-1.20","5e387f2c0d70ef099d5e5a4f","E1","batch5","","1873.8999998569489","stim/no_32_1_w.png","j","pattern_response","true","j","pattern_14","1873.8999998569489","true","52","","","","","","","","","","","","","","","","","","",""
"","","","","","html-keyboard-response","142","226757","0.0-2.0-7.0-0.21","5e387f2c0d70ef099d5e5a4f","E1","batch5","","null","<p class=block-text>Trial 61 out of 78</p>","null","pattern_show_trial_num","","","","","","","","","","","","","","","","","","","","","","","","",""
"","","","","","image-keyboard-response","143","227715","0.0-2.0-7.0-1.21","5e387f2c0d70ef099d5e5a4f","E1","batch5","","956.7000000476837","stim/yes_37_dia_w1.png","j","pattern_response","false","f","pattern_59","956.7000000476837","false","52","","","","","","","","","","","","","","","","","","",""
"","","","","","html-keyboard-response","144","229021","0.0-2.0-7.0-0.22","5e387f2c0d70ef099d5e5a4f","E1","batch5","","null","<p class=block-text>Trial 62 out of 78</p>","null","pattern_show_trial_num","","","","","","","","","","","","","","","","","","","","","","","","",""
"","","","","","image-keyboard-response","145","229812","0.0-2.0-7.0-1.22","5e387f2c0d70ef099d5e5a4f","E1","batch5","","790","stim/yes_25_hor_b1_b.png","f","pattern_response","true","f","pattern_49","790","true","53","","","","","","","","","","","","","","","","","","",""
"","","","","","html-keyboard-response","146","231123","0.0-2.0-7.0-0.23","5e387f2c0d70ef099d5e5a4f","E1","batch5","","null","<p class=block-text>Trial 63 out of 78</p>","null","pattern_show_trial_num","","","","","","","","","","","","","","","","","","","","","","","","",""
"","","","","","image-keyboard-response","147","231811","0.0-2.0-7.0-1.23","5e387f2c0d70ef099d5e5a4f","E1","batch5","","686.7999999523163","stim/no_13_2_b.png","j","pattern_response","true","j","pattern_02","686.7999999523163","true","54","","","","","","","","","","","","","","","","","","",""
"","","","","","html-keyboard-response","148","233122","0.0-2.0-7.0-0.24","5e387f2c0d70ef099d5e5a4f","E1","batch5","","null","<p class=block-text>Trial 64 out of 78</p>","null","pattern_show_trial_num","","","","","","","","","","","","","","","","","","","","","","","","",""
"","","","","","image-keyboard-response","149","234435","0.0-2.0-7.0-1.24","5e387f2c0d70ef099d5e5a4f","E1","batch5","","1311.5999999046326","stim/yes_67_hor_b1.png","f","pattern_response","true","f","pattern_79","1311.5999999046326","true","55","","","","","","","","","","","","","","","","","","",""
"","","","","","html-keyboard-response","150","235751","0.0-2.0-7.0-0.25","5e387f2c0d70ef099d5e5a4f","E1","batch5","","null","<p class=block-text>Trial 65 out of 78</p>","null","pattern_show_trial_num","","","","","","","","","","","","","","","","","","","","","","","","",""
"","","","","","image-keyboard-response","151","236899","0.0-2.0-7.0-1.25","5e387f2c0d70ef099d5e5a4f","E1","batch5","","1146.8999998569489","stim/yes_17_dia_w1.png","f","pattern_response","true","f","pattern_45","1146.8999998569489","true","56","","","","","","","","","","","","","","","","","","",""
"","","","","","html-keyboard-response","152","238220","0.0-2.0-7.0-0.26","5e387f2c0d70ef099d5e5a4f","E1","batch5","","null","<p class=block-text>Trial 66 out of 78</p>","null","pattern_show_trial_num","","","","","","","","","","","","","","","","","","","","","","","","",""
"","","","","","image-keyboard-response","153","240212","0.0-2.0-7.0-1.26","5e387f2c0d70ef099d5e5a4f","E1","batch5","","1991.7000000476837","stim/yes_35_dia_b1.png","f","pattern_response","true","f","pattern_57","1991.7000000476837","true","57","","","","","","","","","","","","","","","","","","",""
"","","","","","html-keyboard-response","154","241529","0.0-2.0-7.0-0.27","5e387f2c0d70ef099d5e5a4f","E1","batch5","","null","<p class=block-text>Trial 67 out of 78</p>","null","pattern_show_trial_num","","","","","","","","","","","","","","","","","","","","","","","","",""
"","","","","","image-keyboard-response","155","242147","0.0-2.0-7.0-1.27","5e387f2c0d70ef099d5e5a4f","E1","batch5","","617.2000000476837","stim/yes_14_hor_b1_w.png","f","pattern_response","true","f","pattern_43","617.2000000476837","true","58","","","","","","","","","","","","","","","","","","",""
"","","","","","html-keyboard-response","156","243474","0.0-2.0-7.0-0.28","5e387f2c0d70ef099d5e5a4f","E1","batch5","","null","<p class=block-text>Trial 68 out of 78</p>","null","pattern_show_trial_num","","","","","","","","","","","","","","","","","","","","","","","","",""
"","","","","","image-keyboard-response","157","245026","0.0-2.0-7.0-1.28","5e387f2c0d70ef099d5e5a4f","E1","batch5","","1550.5","stim/yes_60_ver_b1_b.png","f","pattern_response","true","f","pattern_77","1550.5","true","59","","","","","","","","","","","","","","","","","","",""
"","","","","","html-keyboard-response","158","246342","0.0-2.0-7.0-0.29","5e387f2c0d70ef099d5e5a4f","E1","batch5","","null","<p class=block-text>Trial 69 out of 78</p>","null","pattern_show_trial_num","","","","","","","","","","","","","","","","","","","","","","","","",""
"","","","","","image-keyboard-response","159","248611","0.0-2.0-7.0-1.29","5e387f2c0d70ef099d5e5a4f","E1","batch5","","2267.399999856949","stim/no_50_1.png","j","pattern_response","true","j","pattern_30","2267.399999856949","true","60","","","","","","","","","","","","","","","","","","",""
"","","","","","html-keyboard-response","160","249932","0.0-2.0-7.0-0.30","5e387f2c0d70ef099d5e5a4f","E1","batch5","","null","<p class=block-text>Trial 70 out of 78</p>","null","pattern_show_trial_num","","","","","","","","","","","","","","","","","","","","","","","","",""
"","","","","","image-keyboard-response","161","252451","0.0-2.0-7.0-1.30","5e387f2c0d70ef099d5e5a4f","E1","batch5","","2518.0999999046326","stim/yes_50_dia_w1.png","j","pattern_response","false","f","pattern_71","2518.0999999046326","false","60","","","","","","","","","","","","","","","","","","",""
"","","","","","html-keyboard-response","162","253772","0.0-2.0-7.0-0.31","5e387f2c0d70ef099d5e5a4f","E1","batch5","","null","<p class=block-text>Trial 71 out of 78</p>","null","pattern_show_trial_num","","","","","","","","","","","","","","","","","","","","","","","","",""
"","","","","","image-keyboard-response","163","255283","0.0-2.0-7.0-1.31","5e387f2c0d70ef099d5e5a4f","E1","batch5","","1510.0999999046326","stim/yes_40_dia_b1_b.png","j","pattern_response","false","f","pattern_63","1510.0999999046326","false","60","","","","","","","","","","","","","","","","","","",""
"","","","","","html-keyboard-response","164","256592","0.0-2.0-7.0-0.32","5e387f2c0d70ef099d5e5a4f","E1","batch5","","null","<p class=block-text>Trial 72 out of 78</p>","null","pattern_show_trial_num","","","","","","","","","","","","","","","","","","","","","","","","",""
"","","","","","image-keyboard-response","165","257635","0.0-2.0-7.0-1.32","5e387f2c0d70ef099d5e5a4f","E1","batch5","","1041.5999999046326","stim/no_17_1_w.png","j","pattern_response","true","j","pattern_04","1041.5999999046326","true","61","","","","","","","","","","","","","","","","","","",""
"","","","","","html-keyboard-response","166","258944","0.0-2.0-7.0-0.33","5e387f2c0d70ef099d5e5a4f","E1","batch5","","null","<p class=block-text>Trial 73 out of 78</p>","null","pattern_show_trial_num","","","","","","","","","","","","","","","","","","","","","","","","",""
"","","","","","image-keyboard-response","167","259762","0.0-2.0-7.0-1.33","5e387f2c0d70ef099d5e5a4f","E1","batch5","","812.4000000953674","stim/no_23_1.png","j","pattern_response","true","j","pattern_08","812.4000000953674","true","62","","","","","","","","","","","","","","","","","","",""
"","","","","","html-keyboard-response","168","261075","0.0-2.0-7.0-0.34","5e387f2c0d70ef099d5e5a4f","E1","batch5","","null","<p class=block-text>Trial 74 out of 78</p>","null","pattern_show_trial_num","","","","","","","","","","","","","","","","","","","","","","","","",""
"","","","","","image-keyboard-response","169","263155","0.0-2.0-7.0-1.34","5e387f2c0d70ef099d5e5a4f","E1","batch5","","2078.2999999523163","stim/no_62_1_w.png","j","pattern_response","true","j","pattern_36","2078.2999999523163","true","63","","","","","","","","","","","","","","","","","","",""
"","","","","","html-keyboard-response","170","264470","0.0-2.0-7.0-0.35","5e387f2c0d70ef099d5e5a4f","E1","batch5","","null","<p class=block-text>Trial 75 out of 78</p>","null","pattern_show_trial_num","","","","","","","","","","","","","","","","","","","","","","","","",""
"","","","","","image-keyboard-response","171","265603","0.0-2.0-7.0-1.35","5e387f2c0d70ef099d5e5a4f","E1","batch5","","1131.2999999523163","stim/no_52_1.png","j","pattern_response","true","j","pattern_32","1131.2999999523163","true","64","","","","","","","","","","","","","","","","","","",""
"","","","","","html-keyboard-response","172","266931","0.0-2.0-7.0-0.36","5e387f2c0d70ef099d5e5a4f","E1","batch5","","null","<p class=block-text>Trial 76 out of 78</p>","null","pattern_show_trial_num","","","","","","","","","","","","","","","","","","","","","","","","",""
"","","","","","image-keyboard-response","173","268659","0.0-2.0-7.0-1.36","5e387f2c0d70ef099d5e5a4f","E1","batch5","","1727","stim/no_42_1_w.png","j","pattern_response","true","j","pattern_22","1727","true","65","","","","","","","","","","","","","","","","","","",""
"","","","","","html-keyboard-response","174","269974","0.0-2.0-7.0-0.37","5e387f2c0d70ef099d5e5a4f","E1","batch5","","null","<p class=block-text>Trial 77 out of 78</p>","null","pattern_show_trial_num","","","","","","","","","","","","","","","","","","","","","","","","",""
"","","","","","image-keyboard-response","175","274483","0.0-2.0-7.0-1.37","5e387f2c0d70ef099d5e5a4f","E1","batch5","","4508.100000143051","stim/no_65_1_b.png","j","pattern_response","true","j","pattern_38","4508.100000143051","true","66","","","","","","","","","","","","","","","","","","",""
"","","","","","html-keyboard-response","176","275803","0.0-2.0-7.0-0.38","5e387f2c0d70ef099d5e5a4f","E1","batch5","","null","<p class=block-text>Trial 78 out of 78</p>","null","pattern_show_trial_num","","","","","","","","","","","","","","","","","","","","","","","","",""
"","","","","","image-keyboard-response","177","276787","0.0-2.0-7.0-1.38","5e387f2c0d70ef099d5e5a4f","E1","batch5","","980.3000001907349","stim/yes_43_ver_w1_w.png","f","pattern_response","true","f","pattern_65","980.3000001907349","true","67","","","","","","","","","","","","","","","","","","",""
"","","","","","html-button-response","178","281618","0.0-2.0-8.0","5e387f2c0d70ef099d5e5a4f","E1","batch5","","4312.200000047684","<p class = block-text>This concludes the 4-in-a-row detection game.Thank you for your responses!<br>
            You responded correctly on 86% of the trials.<br>
            When you are ready, press ""Continue"" button to continue </p>","0","","","","","","","","","","","","","","","","","","","","","","","","","",""
"true","","","","","fullscreen","179","284376","0.0-3.0-0.0","5e387f2c0d70ef099d5e5a4f","E1","batch5","","","","","spm_fullscreen","","","","","","","","","","","","","","","","","","","","","","","","",""
"","","","","","html-button-response","180","289108","0.0-3.0-1.0","5e387f2c0d70ef099d5e5a4f","E1","batch5","","4731","<p class = block-text><b>Instructions</b> <br>This is a widely used intelligence test in research. <br>In this test, a figure with a missing piece will be presented.<br>Below the figure are alternative pieces to complete the figure, only one of which is correct.<br> Different figures might involve different principles for obtaining the missing piece<br>Your job is to select the most logical piece to complete the figure.</p>","0","","","","","","","","","","","","","","","","","","","","","","","","","",""
"","","","","","html-keyboard-response","181","289923","0.0-3.0-2.0-0.0","5e387f2c0d70ef099d5e5a4f","E1","batch5","","null","<p class=block-text>Trial 1 out of 60</p>","null","spm_show_trial_num","","","","","","","","","","","","","","","","","","","","","","","","",""
"","","","","","image-button-response","182","293052","0.0-3.0-2.0-1.0","5e387f2c0d70ef099d5e5a4f","E1","batch5","","3126.600000143051","img/question_1_1.jpeg","3","spm_respsonse","1","4","mat_01","","","","","","1","3126.600000143051","","","","","","","","","","","","","","",""
"","","","","","html-keyboard-response","183","294117","0.0-3.0-2.0-0.1","5e387f2c0d70ef099d5e5a4f","E1","batch5","","null","<p class=block-text>Trial 2 out of 60</p>","null","spm_show_trial_num","","","","","","","","","","","","","","","","","","","","","","","","",""
"","","","","","image-button-response","184","297019","0.0-3.0-2.0-1.1","5e387f2c0d70ef099d5e5a4f","E1","batch5","","2900.2999999523163","img/question_1_2.jpeg","4","spm_respsonse","1","5","mat_02","","","","","","1","2900.2999999523163","","","","","","","","","","","","","","",""
"","","","","","html-keyboard-response","185","298084","0.0-3.0-2.0-0.2","5e387f2c0d70ef099d5e5a4f","E1","batch5","","null","<p class=block-text>Trial 3 out of 60</p>","null","spm_show_trial_num","","","","","","","","","","","","","","","","","","","","","","","","",""
"","","","","","image-button-response","186","300379","0.0-3.0-2.0-1.2","5e387f2c0d70ef099d5e5a4f","E1","batch5","","2292.5999999046326","img/question_1_3.jpeg","0","spm_respsonse","1","1","mat_03","","","","","","1","2292.5999999046326","","","","","","","","","","","","","","",""
"","","","","","html-keyboard-response","187","301452","0.0-3.0-2.0-0.3","5e387f2c0d70ef099d5e5a4f","E1","batch5","","null","<p class=block-text>Trial 4 out of 60</p>","null","spm_show_trial_num","","","","","","","","","","","","","","","","","","","","","","","","",""
"","","","","","image-button-response","188","304083","0.0-3.0-2.0-1.3","5e387f2c0d70ef099d5e5a4f","E1","batch5","","2630.2999999523163","img/question_1_4.jpeg","1","spm_respsonse","1","2","mat_04","","","","","","1","2630.2999999523163","","","","","","","","","","","","","","",""
"","","","","","html-keyboard-response","189","305150","0.0-3.0-2.0-0.4","5e387f2c0d70ef099d5e5a4f","E1","batch5","","null","<p class=block-text>Trial 5 out of 60</p>","null","spm_show_trial_num","","","","","","","","","","","","","","","","","","","","","","","","",""
"","","","","","image-button-response","190","309699","0.0-3.0-2.0-1.4","5e387f2c0d70ef099d5e5a4f","E1","batch5","","4546.5","img/question_1_5.jpeg","5","spm_respsonse","1","6","mat_05","","","","","","1","4546.5","","","","","","","","","","","","","","",""
"","","","","","html-keyboard-response","191","310756","0.0-3.0-2.0-0.5","5e387f2c0d70ef099d5e5a4f","E1","batch5","","null","<p class=block-text>Trial 6 out of 60</p>","null","spm_show_trial_num","","","","","","","","","","","","","","","","","","","","","","","","",""
"","","","","","image-button-response","192","314412","0.0-3.0-2.0-1.5","5e387f2c0d70ef099d5e5a4f","E1","batch5","","3653.2000000476837","img/question_1_6.jpeg","2","spm_respsonse","1","3","mat_06","","","","","","1","3653.2000000476837","","","","","","","","","","","","","","",""
"","","","","","html-keyboard-response","193","315486","0.0-3.0-2.0-0.6","5e387f2c0d70ef099d5e5a4f","E1","batch5","","null","<p class=block-text>Trial 7 out of 60</p>","null","spm_show_trial_num","","","","","","","","","","","","","","","","","","","","","","","","",""
"","","","","","image-button-response","194","318667","0.0-3.0-2.0-1.6","5e387f2c0d70ef099d5e5a4f","E1","batch5","","3179.7000000476837","img/question_1_7.jpeg","5","spm_respsonse","1","6","mat_07","","","","","","1","3179.7000000476837","","","","","","","","","","","","","","",""
"","","","","","html-keyboard-response","195","319719","0.0-3.0-2.0-0.7","5e387f2c0d70ef099d5e5a4f","E1","batch5","","null","<p class=block-text>Trial 8 out of 60</p>","null","spm_show_trial_num","","","","","","","","","","","","","","","","","","","","","","","","",""
"","","","","","image-button-response","196","323963","0.0-3.0-2.0-1.7","5e387f2c0d70ef099d5e5a4f","E1","batch5","","4242.5","img/question_1_8.jpeg","1","spm_respsonse","1","2","mat_08","","","","","","1","4242.5","","","","","","","","","","","","","","",""
"","","","","","html-keyboard-response","197","325045","0.0-3.0-2.0-0.8","5e387f2c0d70ef099d5e5a4f","E1","batch5","","null","<p class=block-text>Trial 9 out of 60</p>","null","spm_show_trial_num","","","","","","","","","","","","","","","","","","","","","","","","",""
"","","","","","image-button-response","198","329291","0.0-3.0-2.0-1.8","5e387f2c0d70ef099d5e5a4f","E1","batch5","","4245","img/question_1_9.jpeg","0","spm_respsonse","1","1","mat_09","","","","","","1","4245","","","","","","","","","","","","","","",""
"","","","","","html-keyboard-response","199","330361","0.0-3.0-2.0-0.9","5e387f2c0d70ef099d5e5a4f","E1","batch5","","null","<p class=block-text>Trial 10 out of 60</p>","null","spm_show_trial_num","","","","","","","","","","","","","","","","","","","","","","","","",""
"","","","","","image-button-response","200","336691","0.0-3.0-2.0-1.9","5e387f2c0d70ef099d5e5a4f","E1","batch5","","6326.700000047684","img/question_1_10.jpeg","2","spm_respsonse","1","3","mat_10","","","","","","1","6326.700000047684","","","","","","","","","","","","","","",""
"","","","","","html-keyboard-response","201","337748","0.0-3.0-2.0-0.10","5e387f2c0d70ef099d5e5a4f","E1","batch5","","null","<p class=block-text>Trial 11 out of 60</p>","null","spm_show_trial_num","","","","","","","","","","","","","","","","","","","","","","","","",""
"","","","","","image-button-response","202","343955","0.0-3.0-2.0-1.10","5e387f2c0d70ef099d5e5a4f","E1","batch5","","6205.400000095367","img/question_1_11.jpeg","3","spm_respsonse","1","4","mat_11","","","","","","1","6205.400000095367","","","","","","","","","","","","","","",""
"","","","","","html-keyboard-response","203","345013","0.0-3.0-2.0-0.11","5e387f2c0d70ef099d5e5a4f","E1","batch5","","null","<p class=block-text>Trial 12 out of 60</p>","null","spm_show_trial_num","","","","","","","","","","","","","","","","","","","","","","","","",""
"","","","","","image-button-response","204","351707","0.0-3.0-2.0-1.11","5e387f2c0d70ef099d5e5a4f","E1","batch5","","6692.899999856949","img/question_1_12.jpeg","0","spm_respsonse","0","5","mat_12","","","","","","0","6692.899999856949","","","","","","","","","","","","","","",""
"","","","","","html-keyboard-response","205","352760","0.0-3.0-2.0-0.12","5e387f2c0d70ef099d5e5a4f","E1","batch5","","null","<p class=block-text>Trial 13 out of 60</p>","null","spm_show_trial_num","","","","","","","","","","","","","","","","","","","","","","","","",""
"","","","","","image-button-response","206","354763","0.0-3.0-2.0-1.12","5e387f2c0d70ef099d5e5a4f","E1","batch5","","2000.2999999523163","img/question_2_1.jpeg","1","spm_respsonse","1","2","mat_13","","","","","","1","2000.2999999523163","","","","","","","","","","","","","","",""
"","","","","","html-keyboard-response","207","355815","0.0-3.0-2.0-0.13","5e387f2c0d70ef099d5e5a4f","E1","batch5","","null","<p class=block-text>Trial 14 out of 60</p>","null","spm_show_trial_num","","","","","","","","","","","","","","","","","","","","","","","","",""
"","","","","","image-button-response","208","360459","0.0-3.0-2.0-1.13","5e387f2c0d70ef099d5e5a4f","E1","batch5","","4643.299999952316","img/question_2_2.jpeg","5","spm_respsonse","1","6","mat_14","","","","","","1","4643.299999952316","","","","","","","","","","","","","","",""
"","","","","","html-keyboard-response","209","361535","0.0-3.0-2.0-0.14","5e387f2c0d70ef099d5e5a4f","E1","batch5","","null","<p class=block-text>Trial 15 out of 60</p>","null","spm_show_trial_num","","","","","","","","","","","","","","","","","","","","","","","","",""
"","","","","","image-button-response","210","363708","0.0-3.0-2.0-1.14","5e387f2c0d70ef099d5e5a4f","E1","batch5","","2169.2000000476837","img/question_2_3.jpeg","0","spm_respsonse","1","1","mat_15","","","","","","1","2169.2000000476837","","","","","","","","","","","","","","",""
"","","","","","html-keyboard-response","211","364764","0.0-3.0-2.0-0.15","5e387f2c0d70ef099d5e5a4f","E1","batch5","","null","<p class=block-text>Trial 16 out of 60</p>","null","spm_show_trial_num","","","","","","","","","","","","","","","","","","","","","","","","",""
"","","","","","image-button-response","212","367219","0.0-3.0-2.0-1.15","5e387f2c0d70ef099d5e5a4f","E1","batch5","","2452.4000000953674","img/question_2_4.jpeg","1","spm_respsonse","1","2","mat_16","","","","","","1","2452.4000000953674","","","","","","","","","","","","","","",""
"","","","","","html-keyboard-response","213","368273","0.0-3.0-2.0-0.16","5e387f2c0d70ef099d5e5a4f","E1","batch5","","null","<p class=block-text>Trial 17 out of 60</p>","null","spm_show_trial_num","","","","","","","","","","","","","","","","","","","","","","","","",""
"","","","","","image-button-response","214","371810","0.0-3.0-2.0-1.16","5e387f2c0d70ef099d5e5a4f","E1","batch5","","3535.5","img/question_2_5.jpeg","0","spm_respsonse","1","1","mat_17","","","","","","1","3535.5","","","","","","","","","","","","","","",""
"","","","","","html-keyboard-response","215","372863","0.0-3.0-2.0-0.17","5e387f2c0d70ef099d5e5a4f","E1","batch5","","null","<p class=block-text>Trial 18 out of 60</p>","null","spm_show_trial_num","","","","","","","","","","","","","","","","","","","","","","","","",""
"","","","","","image-button-response","216","380651","0.0-3.0-2.0-1.17","5e387f2c0d70ef099d5e5a4f","E1","batch5","","7786.5","img/question_2_6.jpeg","2","spm_respsonse","1","3","mat_18","","","","","","1","7786.5","","","","","","","","","","","","","","",""
"","","","","","html-keyboard-response","217","381707","0.0-3.0-2.0-0.18","5e387f2c0d70ef099d5e5a4f","E1","batch5","","null","<p class=block-text>Trial 19 out of 60</p>","null","spm_show_trial_num","","","","","","","","","","","","","","","","","","","","","","","","",""
"","","","","","image-button-response","218","384901","0.0-3.0-2.0-1.18","5e387f2c0d70ef099d5e5a4f","E1","batch5","","3191.5","img/question_2_7.jpeg","4","spm_respsonse","1","5","mat_19","","","","","","1","3191.5","","","","","","","","","","","","","","",""
"","","","","","html-keyboard-response","219","385957","0.0-3.0-2.0-0.19","5e387f2c0d70ef099d5e5a4f","E1","batch5","","null","<p class=block-text>Trial 20 out of 60</p>","null","spm_show_trial_num","","","","","","","","","","","","","","","","","","","","","","","","",""
"","","","","","image-button-response","220","389228","0.0-3.0-2.0-1.19","5e387f2c0d70ef099d5e5a4f","E1","batch5","","3269.5","img/question_2_8.jpeg","2","spm_respsonse","0","6","mat_20","","","","","","0","3269.5","","","","","","","","","","","","","","",""
"","","","","","html-keyboard-response","221","390292","0.0-3.0-2.0-0.20","5e387f2c0d70ef099d5e5a4f","E1","batch5","","null","<p class=block-text>Trial 21 out of 60</p>","null","spm_show_trial_num","","","","","","","","","","","","","","","","","","","","","","","","",""
"","","","","","image-button-response","222","395314","0.0-3.0-2.0-1.20","5e387f2c0d70ef099d5e5a4f","E1","batch5","","5021","img/question_2_9.jpeg","3","spm_respsonse","1","4","mat_21","","","","","","1","5021","","","","","","","","","","","","","","",""
"","","","","","html-keyboard-response","223","396372","0.0-3.0-2.0-0.21","5e387f2c0d70ef099d5e5a4f","E1","batch5","","null","<p class=block-text>Trial 22 out of 60</p>","null","spm_show_trial_num","","","","","","","","","","","","","","","","","","","","","","","","",""
"","","","","","image-button-response","224","399243","0.0-3.0-2.0-1.21","5e387f2c0d70ef099d5e5a4f","E1","batch5","","2870","img/question_2_10.jpeg","2","spm_respsonse","1","3","mat_22","","","","","","1","2870","","","","","","","","","","","","","","",""
"","","","","","html-keyboard-response","225","400296","0.0-3.0-2.0-0.22","5e387f2c0d70ef099d5e5a4f","E1","batch5","","null","<p class=block-text>Trial 23 out of 60</p>","null","spm_show_trial_num","","","","","","","","","","","","","","","","","","","","","","","","",""
"","","","","","image-button-response","226","403571","0.0-3.0-2.0-1.22","5e387f2c0d70ef099d5e5a4f","E1","batch5","","3273.7999999523163","img/question_2_11.jpeg","3","spm_respsonse","1","4","mat_23","","","","","","1","3273.7999999523163","","","","","","","","","","","","","","",""
"","","","","","html-keyboard-response","227","404624","0.0-3.0-2.0-0.23","5e387f2c0d70ef099d5e5a4f","E1","batch5","","null","<p class=block-text>Trial 24 out of 60</p>","null","spm_show_trial_num","","","","","","","","","","","","","","","","","","","","","","","","",""
"","","","","","image-button-response","228","408644","0.0-3.0-2.0-1.23","5e387f2c0d70ef099d5e5a4f","E1","batch5","","4019","img/question_2_12.jpeg","4","spm_respsonse","1","5","mat_24","","","","","","1","4019","","","","","","","","","","","","","","",""
"","","","","","html-button-response","229","410524","0.0-3.0-3.0","5e387f2c0d70ef099d5e5a4f","E1","batch5","","1628.0999999046326","<p class = block-text>Attention check: Please choose 1<br></p>","0","attention_check","true","","","","","","","","","","","","","","","","","","","","","","","",""
"","","","","","html-keyboard-response","230","411325","0.0-3.0-4.0-0.0","5e387f2c0d70ef099d5e5a4f","E1","batch5","","null","<p class=block-text>Trial 25 out of 60</p>","null","spm_show_trial_num","","","","","","","","","","","","","","","","","","","","","","","","",""
"","","","","","image-button-response","231","417691","0.0-3.0-4.0-1.0","5e387f2c0d70ef099d5e5a4f","E1","batch5","","6364.600000143051","img/question_3_1.jpeg","7","spm_respsonse","1","8","mat_25","","","","","","1","6364.600000143051","","","","","","","","","","","","","","",""
"","","","","","html-keyboard-response","232","418763","0.0-3.0-4.0-0.1","5e387f2c0d70ef099d5e5a4f","E1","batch5","","null","<p class=block-text>Trial 26 out of 60</p>","null","spm_show_trial_num","","","","","","","","","","","","","","","","","","","","","","","","",""
"","","","","","image-button-response","233","424706","0.0-3.0-4.0-1.1","5e387f2c0d70ef099d5e5a4f","E1","batch5","","5941.799999952316","img/question_3_2.jpeg","1","spm_respsonse","1","2","mat_26","","","","","","1","5941.799999952316","","","","","","","","","","","","","","",""
"","","","","","html-keyboard-response","234","425768","0.0-3.0-4.0-0.2","5e387f2c0d70ef099d5e5a4f","E1","batch5","","null","<p class=block-text>Trial 27 out of 60</p>","null","spm_show_trial_num","","","","","","","","","","","","","","","","","","","","","","","","",""
"","","","","","image-button-response","235","430362","0.0-3.0-4.0-1.2","5e387f2c0d70ef099d5e5a4f","E1","batch5","","4591.800000190735","img/question_3_3.jpeg","2","spm_respsonse","1","3","mat_27","","","","","","1","4591.800000190735","","","","","","","","","","","","","","",""
"","","","","","html-keyboard-response","236","431413","0.0-3.0-4.0-0.3","5e387f2c0d70ef099d5e5a4f","E1","batch5","","null","<p class=block-text>Trial 28 out of 60</p>","null","spm_show_trial_num","","","","","","","","","","","","","","","","","","","","","","","","",""
"","","","","","image-button-response","237","437058","0.0-3.0-4.0-1.3","5e387f2c0d70ef099d5e5a4f","E1","batch5","","5643.299999952316","img/question_3_4.jpeg","7","spm_respsonse","1","8","mat_28","","","","","","1","5643.299999952316","","","","","","","","","","","","","","",""
"","","","","","html-keyboard-response","238","438114","0.0-3.0-4.0-0.4","5e387f2c0d70ef099d5e5a4f","E1","batch5","","null","<p class=block-text>Trial 29 out of 60</p>","null","spm_show_trial_num","","","","","","","","","","","","","","","","","","","","","","","","",""
"","","","","","image-button-response","239","444786","0.0-3.0-4.0-1.4","5e387f2c0d70ef099d5e5a4f","E1","batch5","","6670.100000143051","img/question_3_5.jpeg","6","spm_respsonse","1","7","mat_29","","","","","","1","6670.100000143051","","","","","","","","","","","","","","",""
"","","","","","html-keyboard-response","240","445838","0.0-3.0-4.0-0.5","5e387f2c0d70ef099d5e5a4f","E1","batch5","","null","<p class=block-text>Trial 30 out of 60</p>","null","spm_show_trial_num","","","","","","","","","","","","","","","","","","","","","","","","",""
"","","","","","image-button-response","241","449378","0.0-3.0-4.0-1.5","5e387f2c0d70ef099d5e5a4f","E1","batch5","","3537.800000190735","img/question_3_6.jpeg","3","spm_respsonse","1","4","mat_30","","","","","","1","3537.800000190735","","","","","","","","","","","","","","",""
"","","","","","html-keyboard-response","242","450443","0.0-3.0-4.0-0.6","5e387f2c0d70ef099d5e5a4f","E1","batch5","","null","<p class=block-text>Trial 31 out of 60</p>","null","spm_show_trial_num","","","","","","","","","","","","","","","","","","","","","","","","",""
"","","","","","image-button-response","243","455291","0.0-3.0-4.0-1.6","5e387f2c0d70ef099d5e5a4f","E1","batch5","","4844.899999856949","img/question_3_7.jpeg","4","spm_respsonse","1","5","mat_31","","","","","","1","4844.899999856949","","","","","","","","","","","","","","",""
"","","","","","html-keyboard-response","244","456346","0.0-3.0-4.0-0.7","5e387f2c0d70ef099d5e5a4f","E1","batch5","","null","<p class=block-text>Trial 32 out of 60</p>","null","spm_show_trial_num","","","","","","","","","","","","","","","","","","","","","","","","",""
"","","","","","image-button-response","245","462114","0.0-3.0-4.0-1.7","5e387f2c0d70ef099d5e5a4f","E1","batch5","","5767.200000047684","img/question_3_8.jpeg","0","spm_respsonse","1","1","mat_32","","","","","","1","5767.200000047684","","","","","","","","","","","","","","",""
"","","","","","html-keyboard-response","246","463173","0.0-3.0-4.0-0.8","5e387f2c0d70ef099d5e5a4f","E1","batch5","","null","<p class=block-text>Trial 33 out of 60</p>","null","spm_show_trial_num","","","","","","","","","","","","","","","","","","","","","","","","",""
"","","","","","image-button-response","247","469578","0.0-3.0-4.0-1.8","5e387f2c0d70ef099d5e5a4f","E1","batch5","","6402.599999904633","img/question_3_9.jpeg","6","spm_respsonse","1","7","mat_33","","","","","","1","6402.599999904633","","","","","","","","","","","","","","",""
"","","","","","html-keyboard-response","248","470642","0.0-3.0-4.0-0.9","5e387f2c0d70ef099d5e5a4f","E1","batch5","","null","<p class=block-text>Trial 34 out of 60</p>","null","spm_show_trial_num","","","","","","","","","","","","","","","","","","","","","","","","",""
"","","","","","image-button-response","249","478682","0.0-3.0-4.0-1.9","5e387f2c0d70ef099d5e5a4f","E1","batch5","","8038.699999809265","img/question_3_10.jpeg","5","spm_respsonse","1","6","mat_34","","","","","","1","8038.699999809265","","","","","","","","","","","","","","",""
"","","","","","html-keyboard-response","250","479734","0.0-3.0-4.0-0.10","5e387f2c0d70ef099d5e5a4f","E1","batch5","","null","<p class=block-text>Trial 35 out of 60</p>","null","spm_show_trial_num","","","","","","","","","","","","","","","","","","","","","","","","",""
"","","","","","image-button-response","251","487938","0.0-3.0-4.0-1.10","5e387f2c0d70ef099d5e5a4f","E1","batch5","","8202.799999952316","img/question_3_11.jpeg","0","spm_respsonse","1","1","mat_35","","","","","","1","8202.799999952316","","","","","","","","","","","","","","",""
"","","","","","html-keyboard-response","252","488991","0.0-3.0-4.0-0.11","5e387f2c0d70ef099d5e5a4f","E1","batch5","","null","<p class=block-text>Trial 36 out of 60</p>","null","spm_show_trial_num","","","","","","","","","","","","","","","","","","","","","","","","",""
"","","","","","image-button-response","253","502234","0.0-3.0-4.0-1.11","5e387f2c0d70ef099d5e5a4f","E1","batch5","","13241.899999856949","img/question_3_12.jpeg","1","spm_respsonse","1","2","mat_36","","","","","","1","13241.899999856949","","","","","","","","","","","","","","",""
"","","","","","html-keyboard-response","254","503296","0.0-3.0-4.0-0.12","5e387f2c0d70ef099d5e5a4f","E1","batch5","","null","<p class=block-text>Trial 37 out of 60</p>","null","spm_show_trial_num","","","","","","","","","","","","","","","","","","","","","","","","",""
"","","","","","image-button-response","255","505570","0.0-3.0-4.0-1.12","5e387f2c0d70ef099d5e5a4f","E1","batch5","","2272.399999856949","img/question_4_1.jpeg","2","spm_respsonse","1","3","mat_37","","","","","","1","2272.399999856949","","","","","","","","","","","","","","",""
"","","","","","html-keyboard-response","256","506622","0.0-3.0-4.0-0.13","5e387f2c0d70ef099d5e5a4f","E1","batch5","","null","<p class=block-text>Trial 38 out of 60</p>","null","spm_show_trial_num","","","","","","","","","","","","","","","","","","","","","","","","",""
"","","","","","image-button-response","257","509458","0.0-3.0-4.0-1.13","5e387f2c0d70ef099d5e5a4f","E1","batch5","","2833.899999856949","img/question_4_2.jpeg","3","spm_respsonse","1","4","mat_38","","","","","","1","2833.899999856949","","","","","","","","","","","","","","",""
"","","","","","html-keyboard-response","258","510510","0.0-3.0-4.0-0.14","5e387f2c0d70ef099d5e5a4f","E1","batch5","","null","<p class=block-text>Trial 39 out of 60</p>","null","spm_show_trial_num","","","","","","","","","","","","","","","","","","","","","","","","",""
"","","","","","image-button-response","259","515875","0.0-3.0-4.0-1.14","5e387f2c0d70ef099d5e5a4f","E1","batch5","","5362.800000190735","img/question_4_3.jpeg","2","spm_respsonse","1","3","mat_39","","","","","","1","5362.800000190735","","","","","","","","","","","","","","",""
"","","","","","html-keyboard-response","260","516950","0.0-3.0-4.0-0.15","5e387f2c0d70ef099d5e5a4f","E1","batch5","","null","<p class=block-text>Trial 40 out of 60</p>","null","spm_show_trial_num","","","","","","","","","","","","","","","","","","","","","","","","",""
"","","","","","image-button-response","261","521324","0.0-3.0-4.0-1.15","5e387f2c0d70ef099d5e5a4f","E1","batch5","","4372.5","img/question_4_4.jpeg","6","spm_respsonse","1","7","mat_40","","","","","","1","4372.5","","","","","","","","","","","","","","",""
"","","","","","html-keyboard-response","262","522378","0.0-3.0-4.0-0.16","5e387f2c0d70ef099d5e5a4f","E1","batch5","","null","<p class=block-text>Trial 41 out of 60</p>","null","spm_show_trial_num","","","","","","","","","","","","","","","","","","","","","","","","",""
"","","","","","image-button-response","263","527378","0.0-3.0-4.0-1.16","5e387f2c0d70ef099d5e5a4f","E1","batch5","","4998.299999952316","img/question_4_5.jpeg","7","spm_respsonse","1","8","mat_41","","","","","","1","4998.299999952316","","","","","","","","","","","","","","",""
"","","","","","html-keyboard-response","264","528434","0.0-3.0-4.0-0.17","5e387f2c0d70ef099d5e5a4f","E1","batch5","","null","<p class=block-text>Trial 42 out of 60</p>","null","spm_show_trial_num","","","","","","","","","","","","","","","","","","","","","","","","",""
"","","","","","image-button-response","265","539546","0.0-3.0-4.0-1.17","5e387f2c0d70ef099d5e5a4f","E1","batch5","","11109.599999904633","img/question_4_6.jpeg","5","spm_respsonse","1","6","mat_42","","","","","","1","11109.599999904633","","","","","","","","","","","","","","",""
"","","","","","html-keyboard-response","266","540599","0.0-3.0-4.0-0.18","5e387f2c0d70ef099d5e5a4f","E1","batch5","","null","<p class=block-text>Trial 43 out of 60</p>","null","spm_show_trial_num","","","","","","","","","","","","","","","","","","","","","","","","",""
"","","","","","image-button-response","267","551434","0.0-3.0-4.0-1.18","5e387f2c0d70ef099d5e5a4f","E1","batch5","","10833.299999952316","img/question_4_7.jpeg","4","spm_respsonse","1","5","mat_43","","","","","","1","10833.299999952316","","","","","","","","","","","","","","",""
"","","","","","html-keyboard-response","268","552486","0.0-3.0-4.0-0.19","5e387f2c0d70ef099d5e5a4f","E1","batch5","","null","<p class=block-text>Trial 44 out of 60</p>","null","spm_show_trial_num","","","","","","","","","","","","","","","","","","","","","","","","",""
"","","","","","image-button-response","269","560546","0.0-3.0-4.0-1.19","5e387f2c0d70ef099d5e5a4f","E1","batch5","","8058.5","img/question_4_8.jpeg","3","spm_respsonse","1","4","mat_44","","","","","","1","8058.5","","","","","","","","","","","","","","",""
"","","","","","html-keyboard-response","270","561617","0.0-3.0-4.0-0.20","5e387f2c0d70ef099d5e5a4f","E1","batch5","","null","<p class=block-text>Trial 45 out of 60</p>","null","spm_show_trial_num","","","","","","","","","","","","","","","","","","","","","","","","",""
"","","","","","image-button-response","271","581834","0.0-3.0-4.0-1.20","5e387f2c0d70ef099d5e5a4f","E1","batch5","","20215.599999904633","img/question_4_9.jpeg","0","spm_respsonse","1","1","mat_45","","","","","","1","20215.599999904633","","","","","","","","","","","","","","",""
"","","","","","html-keyboard-response","272","582888","0.0-3.0-4.0-0.21","5e387f2c0d70ef099d5e5a4f","E1","batch5","","null","<p class=block-text>Trial 46 out of 60</p>","null","spm_show_trial_num","","","","","","","","","","","","","","","","","","","","","","","","",""
"","","","","","image-button-response","273","596746","0.0-3.0-4.0-1.21","5e387f2c0d70ef099d5e5a4f","E1","batch5","","13855.899999856949","img/question_4_10.jpeg","1","spm_respsonse","1","2","mat_46","","","","","","1","13855.899999856949","","","","","","","","","","","","","","",""
"","","","","","html-keyboard-response","274","597806","0.0-3.0-4.0-0.22","5e387f2c0d70ef099d5e5a4f","E1","batch5","","null","<p class=block-text>Trial 47 out of 60</p>","null","spm_show_trial_num","","","","","","","","","","","","","","","","","","","","","","","","",""
"","","","","","image-button-response","275","658507","0.0-3.0-4.0-1.22","5e387f2c0d70ef099d5e5a4f","E1","batch5","","60698.700000047684","img/question_4_11.jpeg","4","spm_respsonse","1","5","mat_47","","","","","","1","60698.700000047684","","","","","","","","","","","","","","",""
"","","","","","html-keyboard-response","276","659562","0.0-3.0-4.0-0.23","5e387f2c0d70ef099d5e5a4f","E1","batch5","","null","<p class=block-text>Trial 48 out of 60</p>","null","spm_show_trial_num","","","","","","","","","","","","","","","","","","","","","","","","",""
"","","","","","image-button-response","277","684147","0.0-3.0-4.0-1.23","5e387f2c0d70ef099d5e5a4f","E1","batch5","","24583.300000190735","img/question_4_12.jpeg","5","spm_respsonse","1","6","mat_48","","","","","","1","24583.300000190735","","","","","","","","","","","","","","",""
"","","","","","html-keyboard-response","278","685226","0.0-3.0-4.0-0.24","5e387f2c0d70ef099d5e5a4f","E1","batch5","","null","<p class=block-text>Trial 49 out of 60</p>","null","spm_show_trial_num","","","","","","","","","","","","","","","","","","","","","","","","",""
"","","","","","image-button-response","279","692108","0.0-3.0-4.0-1.24","5e387f2c0d70ef099d5e5a4f","E1","batch5","","6879.800000190735","img/question_5_1.jpeg","6","spm_respsonse","1","7","mat_49","","","","","","1","6879.800000190735","","","","","","","","","","","","","","",""
"","","","","","html-keyboard-response","280","693169","0.0-3.0-4.0-0.25","5e387f2c0d70ef099d5e5a4f","E1","batch5","","null","<p class=block-text>Trial 50 out of 60</p>","null","spm_show_trial_num","","","","","","","","","","","","","","","","","","","","","","","","",""
"","","","","","image-button-response","281","712299","0.0-3.0-4.0-1.25","5e387f2c0d70ef099d5e5a4f","E1","batch5","","19127.799999952316","img/question_5_2.jpeg","5","spm_respsonse","1","6","mat_50","","","","","","1","19127.799999952316","","","","","","","","","","","","","","",""
"","","","","","html-keyboard-response","282","713360","0.0-3.0-4.0-0.26","5e387f2c0d70ef099d5e5a4f","E1","batch5","","null","<p class=block-text>Trial 51 out of 60</p>","null","spm_show_trial_num","","","","","","","","","","","","","","","","","","","","","","","","",""
"","","","","","image-button-response","283","723403","0.0-3.0-4.0-1.26","5e387f2c0d70ef099d5e5a4f","E1","batch5","","10041.700000047684","img/question_5_3.jpeg","7","spm_respsonse","1","8","mat_51","","","","","","1","10041.700000047684","","","","","","","","","","","","","","",""
"","","","","","html-keyboard-response","284","724455","0.0-3.0-4.0-0.27","5e387f2c0d70ef099d5e5a4f","E1","batch5","","null","<p class=block-text>Trial 52 out of 60</p>","null","spm_show_trial_num","","","","","","","","","","","","","","","","","","","","","","","","",""
"","","","","","image-button-response","285","730114","0.0-3.0-4.0-1.27","5e387f2c0d70ef099d5e5a4f","E1","batch5","","5656.5","img/question_5_4.jpeg","1","spm_respsonse","1","2","mat_52","","","","","","1","5656.5","","","","","","","","","","","","","","",""
"","","","","","html-keyboard-response","286","731166","0.0-3.0-4.0-0.28","5e387f2c0d70ef099d5e5a4f","E1","batch5","","null","<p class=block-text>Trial 53 out of 60</p>","null","spm_show_trial_num","","","","","","","","","","","","","","","","","","","","","","","","",""
"","","","","","image-button-response","287","738249","0.0-3.0-4.0-1.28","5e387f2c0d70ef099d5e5a4f","E1","batch5","","7081.200000047684","img/question_5_5.jpeg","0","spm_respsonse","1","1","mat_53","","","","","","1","7081.200000047684","","","","","","","","","","","","","","",""
"","","","","","html-keyboard-response","288","739305","0.0-3.0-4.0-0.29","5e387f2c0d70ef099d5e5a4f","E1","batch5","","null","<p class=block-text>Trial 54 out of 60</p>","null","spm_show_trial_num","","","","","","","","","","","","","","","","","","","","","","","","",""
"","","","","","image-button-response","289","774819","0.0-3.0-4.0-1.29","5e387f2c0d70ef099d5e5a4f","E1","batch5","","35512.199999809265","img/question_5_6.jpeg","4","spm_respsonse","1","5","mat_54","","","","","","1","35512.199999809265","","","","","","","","","","","","","","",""
"","","","","","html-keyboard-response","290","775882","0.0-3.0-4.0-0.30","5e387f2c0d70ef099d5e5a4f","E1","batch5","","null","<p class=block-text>Trial 55 out of 60</p>","null","spm_show_trial_num","","","","","","","","","","","","","","","","","","","","","","","","",""
"","","","","","image-button-response","291","793835","0.0-3.0-4.0-1.30","5e387f2c0d70ef099d5e5a4f","E1","batch5","","17951","img/question_5_7.jpeg","0","spm_respsonse","1","1","mat_55","","","","","","1","17951","","","","","","","","","","","","","","",""
"","","","","","html-keyboard-response","292","794904","0.0-3.0-4.0-0.31","5e387f2c0d70ef099d5e5a4f","E1","batch5","","null","<p class=block-text>Trial 56 out of 60</p>","null","spm_show_trial_num","","","","","","","","","","","","","","","","","","","","","","","","",""
"","","","","","image-button-response","293","805148","0.0-3.0-4.0-1.31","5e387f2c0d70ef099d5e5a4f","E1","batch5","","10241.799999952316","img/question_5_8.jpeg","5","spm_respsonse","1","6","mat_56","","","","","","1","10241.799999952316","","","","","","","","","","","","","","",""
"","","","","","html-keyboard-response","294","806214","0.0-3.0-4.0-0.32","5e387f2c0d70ef099d5e5a4f","E1","batch5","","null","<p class=block-text>Trial 57 out of 60</p>","null","spm_show_trial_num","","","","","","","","","","","","","","","","","","","","","","","","",""
"","","","","","image-button-response","295","815260","0.0-3.0-4.0-1.32","5e387f2c0d70ef099d5e5a4f","E1","batch5","","9043.099999904633","img/question_5_9.jpeg","2","spm_respsonse","1","3","mat_57","","","","","","1","9043.099999904633","","","","","","","","","","","","","","",""
"","","","","","html-keyboard-response","296","816328","0.0-3.0-4.0-0.33","5e387f2c0d70ef099d5e5a4f","E1","batch5","","null","<p class=block-text>Trial 58 out of 60</p>","null","spm_show_trial_num","","","","","","","","","","","","","","","","","","","","","","","","",""
"","","","","","image-button-response","297","834914","0.0-3.0-4.0-1.33","5e387f2c0d70ef099d5e5a4f","E1","batch5","","18584.299999952316","img/question_5_10.jpeg","1","spm_respsonse","1","2","mat_58","","","","","","1","18584.299999952316","","","","","","","","","","","","","","",""
"","","","","","html-keyboard-response","298","835987","0.0-3.0-4.0-0.34","5e387f2c0d70ef099d5e5a4f","E1","batch5","","null","<p class=block-text>Trial 59 out of 60</p>","null","spm_show_trial_num","","","","","","","","","","","","","","","","","","","","","","","","",""
"","","","","","image-button-response","299","861275","0.0-3.0-4.0-1.34","5e387f2c0d70ef099d5e5a4f","E1","batch5","","25286.5","img/question_5_11.jpeg","3","spm_respsonse","1","4","mat_59","","","","","","1","25286.5","","","","","","","","","","","","","","",""
"","","","","","html-keyboard-response","300","862327","0.0-3.0-4.0-0.35","5e387f2c0d70ef099d5e5a4f","E1","batch5","","null","<p class=block-text>Trial 60 out of 60</p>","null","spm_show_trial_num","","","","","","","","","","","","","","","","","","","","","","","","",""
"","","","","","image-button-response","301","921362","0.0-3.0-4.0-1.35","5e387f2c0d70ef099d5e5a4f","E1","batch5","","59034.60000014305","img/question_5_12.jpeg","4","spm_respsonse","1","5","mat_60","","","","","","1","59034.60000014305","","","","","","","","","","","","","","",""
"","","","","","html-button-response","302","923242","0.0-3.0-5.0","5e387f2c0d70ef099d5e5a4f","E1","batch5","","1628.2000000476837","<p class= block-text>This concludes the Standard Progressive Matrix game. Thank you for your responses!<br> When you are ready, click the button continue</p>","0","spm_goodbye","","","","","","","","","","","","","","","","","","","","","","","","",""
"true","","","","","fullscreen","303","926132","0.0-4.0-0.0","5e387f2c0d70ef099d5e5a4f","E1","batch5","","","","","","","","","","","","","","","","","","","","","","","","","","","","","",""
"","","","","","instructions","304","947634","0.0-4.0-1.0-0.0-0.0","5e387f2c0d70ef099d5e5a4f","E1","batch5","[{""page_index"":0,""viewing_time"":3828.7000000476837},{""page_index"":1,""viewing_time"":1944.0999999046326},{""page_index"":2,""viewing_time"":2616.0999999046326},{""page_index"":3,""viewing_time"":2144.5},{""page_index"":4,""viewing_time"":4023.5},{""page_index"":5,""viewing_time"":4775.600000143051},{""page_index"":6,""viewing_time"":2168.2999999523163}]","21501","","","tol-instructions","","","","","","","","","","","","","","","","","","","","","","","","",""
"","","","","","html-button-response","305","948649","0.0-4.0-1.0-1.0-0.0","5e387f2c0d70ef099d5e5a4f","E1","batch5","","1015.1000001430511","<p class=block-text> Let's answer a few questions <br>","0","tol_enter_quiz","","","","","","","","","","","","","","","","","","","","","","","","",""
"","","","","","html-button-response","306","952954","0.0-4.0-1.0-1.0-1.0","5e387f2c0d70ef099d5e5a4f","E1","batch5","","4303.599999904633","<p class = block-text>True or False: You can only move the ball on top of a peg. <br></p>","0","tol_quiz","true","","","","","","","","","","","","","","","","","","","","","","","",""
"","","","","","html-button-response","307","954402","0.0-4.0-1.0-1.0-2.0","5e387f2c0d70ef099d5e5a4f","E1","batch5","","1447.2000000476837","<p class = block-text>Correct! You can only move the ball on top of a peg.</p>","0","tol_quiz_feedback","","","","","","","","","","","","","","","","","","","","","","","","",""
"","","","","","html-button-response","308","956947","0.0-4.0-1.0-1.0-3.0","5e387f2c0d70ef099d5e5a4f","E1","batch5","","2544.0999999046326","<p class = block-text>True or False: You should try to match your board with the target board with fewest moves possible. <br></p>","0","tol_quiz","true","","","","","","","","","","","","","","","","","","","","","","","",""
"","","","","","html-button-response","309","957890","0.0-4.0-1.0-1.0-4.0","5e387f2c0d70ef099d5e5a4f","E1","batch5","","942.4000000953674","<p class = block-text>Correct! </p>","0","tol_quiz_feedback","","","","","","","","","","","","","","","","","","","","","","","","",""
"","","","","","html-button-response","310","958802","0.0-4.0-2.0","5e387f2c0d70ef099d5e5a4f","E1","batch5","","911.5999999046326","<p class=block-text> Now that you've understood the game, let's practice a few easier examples before we start!<br> <br>","0","","","","","","","","","","","","","","","","","","","","","","","","","",""
"","","","","","single-stim-button","311","962651","0.0-4.0-3.0-0.0","5e387f2c0d70ef099d5e5a4f","E1","batch5","","3848","","","tol_practice","","","","","","","","","","","tol_peg_2","3848","3848","0","[[1,2,0],[0,0],[0]]","1","[[1,2,0],[0,0],[3]]","practice","3848","","","","","",""
"","","","","","single-stim-button","312","963698","0.0-4.0-3.0-1.0","5e387f2c0d70ef099d5e5a4f","E1","batch5","","1046","","","tol_practice","","","","","","","","","","","tol_peg_3","1046","1046","0","[[1,2,0],[0,0],[3]]","1","[[1,2,0],[0,0],[3]]","practice","1046","","","","","",""
"","","","","","poldrack-single-stim","313","964706","0.0-4.0-4.0","5e387f2c0d70ef099d5e5a4f","E1","batch5","","-1","","","tol_feedback","true","","","","","","","","","","","1000","1000","500","","","","","","-1","none","true","","0",""
"","","","","","single-stim-button","314","969067","0.0-4.0-5.0-0.0","5e387f2c0d70ef099d5e5a4f","E1","batch5","","4359","","","tol_practice","","","","","","","","","","","tol_peg_1","4359","4359","0","[[1,0,0],[3,0],[0]]","2","[[0,0,0],[3,1],[2]]","practice","4359","","","","","",""
"","","","","","single-stim-button","315","969883","0.0-4.0-5.0-1.0","5e387f2c0d70ef099d5e5a4f","E1","batch5","","816","","","tol_practice","","","","","","","","","","","tol_peg_3","816","816","0","[[1,0,0],[3,0],[2]]","2","[[0,0,0],[3,1],[2]]","practice","816","","","","","",""
"","","","","","single-stim-button","316","970634","0.0-4.0-5.1-0.1","5e387f2c0d70ef099d5e5a4f","E1","batch5","","750","","","tol_practice","","","","","","","","","","","tol_peg_1","750","750","0","[[0,0,0],[3,0],[2]]","3","[[0,0,0],[3,1],[2]]","practice","750","","","","","",""
"","","","","","single-stim-button","317","971186","0.0-4.0-5.1-1.1","5e387f2c0d70ef099d5e5a4f","E1","batch5","","551","","","tol_practice","","","","","","","","","","","tol_peg_2","551","551","0","[[0,0,0],[3,1],[2]]","3","[[0,0,0],[3,1],[2]]","practice","551","","","","","",""
"","","","","","poldrack-single-stim","318","972202","0.0-4.0-6.0","5e387f2c0d70ef099d5e5a4f","E1","batch5","","-1","","","tol_feedback","true","","","","","","","","","","","1000","1000","500","","","","","","-1","none","true","","0",""
"","","","","","single-stim-button","319","975890","0.0-4.0-7.0-0.0","5e387f2c0d70ef099d5e5a4f","E1","batch5","","3687","","","tol_practice","","","","","","","","","","","tol_peg_2","3687","3687","0","[[1,2,0],[0,0],[0]]","4","[[1,0,0],[2,0],[3]]","practice","3687","","","","","",""
"","","","","","single-stim-button","320","976666","0.0-4.0-7.0-1.0","5e387f2c0d70ef099d5e5a4f","E1","batch5","","776","","","tol_practice","","","","","","","","","","","tol_peg_3","776","776","0","[[1,2,0],[0,0],[3]]","4","[[1,0,0],[2,0],[3]]","practice","776","","","","","",""
"","","","","","single-stim-button","321","977434","0.0-4.0-7.1-0.1","5e387f2c0d70ef099d5e5a4f","E1","batch5","","767","","","tol_practice","","","","","","","","","","","tol_peg_1","767","767","0","[[1,0,0],[0,0],[3]]","5","[[1,0,0],[2,0],[3]]","practice","767","","","","","",""
"","","","","","single-stim-button","322","978098","0.0-4.0-7.1-1.1","5e387f2c0d70ef099d5e5a4f","E1","batch5","","662","","","tol_practice","","","","","","","","","","","tol_peg_2","662","662","0","[[1,0,0],[2,0],[3]]","5","[[1,0,0],[2,0],[3]]","practice","662","","","","","",""
"","","","","","poldrack-single-stim","323","979104","0.0-4.0-8.0","5e387f2c0d70ef099d5e5a4f","E1","batch5","","-1","","","tol_feedback","true","","","","","","","","","","","1000","1000","500","","","","","","-1","none","true","","0",""
"","","","","","html-button-response","324","980715","0.0-4.0-9.0","5e387f2c0d70ef099d5e5a4f","E1","batch5","","1609.7999999523163","<div class = centerbox><p class = center-block-text>Great job! You are done with practice trials<br>You are about to start official trials.<br> <br> Problem <strong>1</strong> out of 25 problems</p></div>","0","tol_instruction","","","","","","","","","","","","","","","","","","","","","","","","",""
"","","","","","single-stim-button","325","984370","0.0-4.0-10.0-0.0","5e387f2c0d70ef099d5e5a4f","E1","batch5","","2654","","","tol_tohand","","","","","","","","","","","tol_peg_1","2654","2654","0","[[1,0,0],[3,0],[0]]","1","[[1,3,0],[2,0],[0]]","0","0","","","","","","3"
"","","","","","single-stim-button","326","985306","0.0-4.0-10.0-1.0","5e387f2c0d70ef099d5e5a4f","E1","batch5","","935","","","tol_toboard","","","","","","","","","","","tol_peg_3","935","935","0","[[1,0,0],[3,0],[2]]","1","[[1,3,0],[2,0],[0]]","0","0","","","","","","3"
"","","","","","single-stim-button","327","985946","0.0-4.0-10.1-0.1","5e387f2c0d70ef099d5e5a4f","E1","batch5","","640","","","tol_tohand","","","","","","","","","","","tol_peg_2","640","640","0","[[1,0,0],[0,0],[2]]","2","[[1,3,0],[2,0],[0]]","0","0","","","","","","3"
"","","","","","single-stim-button","328","986426","0.0-4.0-10.1-1.1","5e387f2c0d70ef099d5e5a4f","E1","batch5","","480","","","tol_toboard","","","","","","","","","","","tol_peg_1","480","480","0","[[1,3,0],[0,0],[2]]","2","[[1,3,0],[2,0],[0]]","0","0","","","","","","3"
"","","","","","single-stim-button","329","991738","0.0-4.0-10.2-0.2","5e387f2c0d70ef099d5e5a4f","E1","batch5","","5312","","","tol_tohand","","","","","","","","","","","tol_peg_3","5312","5312","0","[[1,3,0],[0,0],[0]]","3","[[1,3,0],[2,0],[0]]","0","0","","","","","","3"
"","","","","","single-stim-button","330","992338","0.0-4.0-10.2-1.2","5e387f2c0d70ef099d5e5a4f","E1","batch5","","599","","","tol_toboard","","","","","","","","","","","tol_peg_2","599","599","0","[[1,3,0],[2,0],[0]]","3","[[1,3,0],[2,0],[0]]","0","0","","","","","","3"
"","","","","","poldrack-single-stim","331","993339","0.0-4.0-11.0","5e387f2c0d70ef099d5e5a4f","E1","batch5","","-1","","","tol_feedback","true","","","","","","","","","","","1000","1000","500","","","","","","-1","none","true","2654","8606",""
"","","","","","html-button-response","332","994370","0.0-4.0-12.0","5e387f2c0d70ef099d5e5a4f","E1","batch5","","1030","<div class = centerbox><p class = center-block-text>problem <strong>2</strong> out of 25 problems</p></div>","0","tol_trial_num","","","","","","","","","","","","","","","","","","","","","","","","",""
"","","","","","single-stim-button","333","1000546","0.0-4.0-13.0-0.0","5e387f2c0d70ef099d5e5a4f","E1","batch5","","6176","","","tol_tohand","","","","","","","","","","","tol_peg_1","6176","6176","0","[[1,0,0],[3,0],[0]]","1","[[2,1,3],[0,0],[0]]","1","0","","","","","","5"
"","","","","","single-stim-button","334","1003634","0.0-4.0-13.0-1.0","5e387f2c0d70ef099d5e5a4f","E1","batch5","","3087","","","tol_toboard","","","","","","","","","","","tol_peg_3","3087","3087","0","[[1,0,0],[3,0],[2]]","1","[[2,1,3],[0,0],[0]]","1","0","","","","","","5"
"","","","","","single-stim-button","335","1005691","0.0-4.0-13.1-0.1","5e387f2c0d70ef099d5e5a4f","E1","batch5","","2055","","","tol_tohand","","","","","","","","","","","tol_peg_2","2055","2055","0","[[1,0,0],[0,0],[2]]","2","[[2,1,3],[0,0],[0]]","1","0","","","","","","5"
"","","","","","single-stim-button","336","1008706","0.0-4.0-13.1-1.1","5e387f2c0d70ef099d5e5a4f","E1","batch5","","3015","","","tol_toboard","","","","","","","","","","","tol_peg_2","3015","3015","0","[[1,0,0],[3,0],[2]]","2","[[2,1,3],[0,0],[0]]","1","0","","","","","","5"
"","","","","","single-stim-button","337","1009362","0.0-4.0-13.2-0.2","5e387f2c0d70ef099d5e5a4f","E1","batch5","","655","","","tol_tohand","","","","","","","","","","","tol_peg_3","655","655","0","[[1,0,0],[3,0],[0]]","3","[[2,1,3],[0,0],[0]]","1","0","","","","","","5"
"","","","","","single-stim-button","338","1010067","0.0-4.0-13.2-1.2","5e387f2c0d70ef099d5e5a4f","E1","batch5","","705","","","tol_toboard","","","","","","","","","","","tol_peg_1","705","705","0","[[1,2,0],[3,0],[0]]","3","[[2,1,3],[0,0],[0]]","1","0","","","","","","5"
"","","","","","single-stim-button","339","1010586","0.0-4.0-13.3-0.3","5e387f2c0d70ef099d5e5a4f","E1","batch5","","519","","","tol_tohand","","","","","","","","","","","tol_peg_2","519","519","0","[[1,2,0],[0,0],[0]]","4","[[2,1,3],[0,0],[0]]","1","0","","","","","","5"
"","","","","","single-stim-button","340","1011194","0.0-4.0-13.3-1.3","5e387f2c0d70ef099d5e5a4f","E1","batch5","","608","","","tol_toboard","","","","","","","","","","","tol_peg_3","608","608","0","[[1,2,0],[0,0],[3]]","4","[[2,1,3],[0,0],[0]]","1","0","","","","","","5"
"","","","","","single-stim-button","341","1011738","0.0-4.0-13.4-0.4","5e387f2c0d70ef099d5e5a4f","E1","batch5","","543","","","tol_tohand","","","","","","","","","","","tol_peg_1","543","543","0","[[1,0,0],[0,0],[3]]","5","[[2,1,3],[0,0],[0]]","1","0","","","","","","5"
"","","","","","single-stim-button","342","1012346","0.0-4.0-13.4-1.4","5e387f2c0d70ef099d5e5a4f","E1","batch5","","607","","","tol_toboard","","","","","","","","","","","tol_peg_2","607","607","0","[[1,0,0],[2,0],[3]]","5","[[2,1,3],[0,0],[0]]","1","0","","","","","","5"
"","","","","","single-stim-button","343","1012802","0.0-4.0-13.5-0.5","5e387f2c0d70ef099d5e5a4f","E1","batch5","","456","","","tol_tohand","","","","","","","","","","","tol_peg_1","456","456","0","[[0,0,0],[2,0],[3]]","6","[[2,1,3],[0,0],[0]]","1","0","","","","","","5"
"","","","","","single-stim-button","344","1013218","0.0-4.0-13.5-1.5","5e387f2c0d70ef099d5e5a4f","E1","batch5","","415","","","tol_toboard","","","","","","","","","","","tol_peg_2","415","415","0","[[0,0,0],[2,1],[3]]","6","[[2,1,3],[0,0],[0]]","1","0","","","","","","5"
"","","","","","single-stim-button","345","1013659","0.0-4.0-13.6-0.6","5e387f2c0d70ef099d5e5a4f","E1","batch5","","440","","","tol_tohand","","","","","","","","","","","tol_peg_3","440","440","0","[[0,0,0],[2,1],[0]]","7","[[2,1,3],[0,0],[0]]","1","0","","","","","","5"
"","","","","","single-stim-button","346","1015178","0.0-4.0-13.6-1.6","5e387f2c0d70ef099d5e5a4f","E1","batch5","","1519","","","tol_toboard","","","","","","","","","","","tol_peg_3","1519","1519","0","[[0,0,0],[2,1],[3]]","7","[[2,1,3],[0,0],[0]]","1","0","","","","","","5"
"","","","","","single-stim-button","347","1016346","0.0-4.0-13.7-0.7","5e387f2c0d70ef099d5e5a4f","E1","batch5","","1167","","","tol_tohand","","","","","","","","","","","tol_peg_2","1167","1167","0","[[0,0,0],[2,0],[3]]","8","[[2,1,3],[0,0],[0]]","1","0","","","","","","5"
