"success","timeout","failed_images","failed_audio","failed_video","trial_type","trial_index","time_elapsed","internal_node_id","subject_id","study_id","session_id","view_history","rt","task","stimulus","response","correct","mouse_click","stim_duration","block_duration","timing_post_trial","current_position","tol_num_moves_made","tol_target","tol_problem_id","tol_rt","key_press","possible_responses","tol_correct","preplanning","tol_rt_per_trial","tol_min_moves","item","answer","spm_correct","spm_rt","fiar_detect_rt","fiar_detect_correct","total_correct_fiar_detect","post_trial_gap","choices"
"true","false","[]","[]","[]","preload","0","1321","0.0-0.0","5e3bb7770e53243ce0376fe1","B2","batch2","","","","","","","","","","","","","","","","","","","","","","","","","","","","","",""
"true","","","","","fullscreen","1","11740","0.0-1.0-0.0","5e3bb7770e53243ce0376fe1","B2","batch2","","","","","","","","","","","","","","","","","","","","","","","","","","","","","",""
"true","","","","","fullscreen","2","15056","0.0-2.0-0.0","5e3bb7770e53243ce0376fe1","B2","batch2","","","","","","","","","","","","","","","","","","","","","","","","","","","","","",""
"","","","","","instructions","3","80127","0.0-2.0-1.0-0.0-0.0","5e3bb7770e53243ce0376fe1","B2","batch2","[{""page_index"":0,""viewing_time"":13232.600000143051},{""page_index"":1,""viewing_time"":9792.799999952316},{""page_index"":2,""viewing_time"":5535.099999904633},{""page_index"":3,""viewing_time"":14062.800000190735},{""page_index"":4,""viewing_time"":7110.099999904633},{""page_index"":5,""viewing_time"":11984.900000095367},{""page_index"":6,""viewing_time"":3352}]","65070.5","tol-instructions","","","","","","","","","","","","","","","","","","","","","","","","","","",""
"","","","","","html-button-response","4","81231","0.0-2.0-1.0-1.0-0.0","5e3bb7770e53243ce0376fe1","B2","batch2","","1103.0999999046326","tol_enter_quiz","<p class=block-text> Let's answer a few questions <br>","0","","","","","","","","","","","","","","","","","","","","","","","","",""
"","","","","","html-button-response","5","86586","0.0-2.0-1.0-1.0-1.0","5e3bb7770e53243ce0376fe1","B2","batch2","","5353.799999952316","tol_quiz","<p class = block-text>True or False: You can only move the ball on top of a peg. <br></p>","0","true","","","","","","","","","","","","","","","","","","","","","","","",""
"","","","","","html-button-response","6","88212","0.0-2.0-1.0-1.0-2.0","5e3bb7770e53243ce0376fe1","B2","batch2","","1624.3000001907349","tol_quiz_feedback","<p class = block-text>Correct! You can only move the ball on top of a peg.</p>","0","","","","","","","","","","","","","","","","","","","","","","","","",""
"","","","","","html-button-response","7","91821","0.0-2.0-1.0-1.0-3.0","5e3bb7770e53243ce0376fe1","B2","batch2","","3608.100000143051","tol_quiz","<p class = block-text>True or False: You should try to match your board with the target board with fewest moves possible. <br></p>","0","true","","","","","","","","","","","","","","","","","","","","","","","",""
"","","","","","html-button-response","8","92482","0.0-2.0-1.0-1.0-4.0","5e3bb7770e53243ce0376fe1","B2","batch2","","659.7999999523163","tol_quiz_feedback","<p class = block-text>Correct! </p>","0","","","","","","","","","","","","","","","","","","","","","","","","",""
"","","","","","html-button-response","9","94318","0.0-2.0-2.0","5e3bb7770e53243ce0376fe1","B2","batch2","","1834.6000001430511","","<p class=block-text> Now that you've understood the game, let's practice a few easier examples before we start!<br> <br>","0","","","","","","","","","","","","","","","","","","","","","","","","",""
"","","","","","single-stim-button","10","96196","0.0-2.0-3.0-0.0","5e3bb7770e53243ce0376fe1","B2","batch2","","1877","tol_practice","","","","tol_peg_2","1877","1877","0","[[1,2,0],[0,0],[0]]","1","[[1,2,0],[0,0],[3]]","practice","1877","","","","","","","","","","","","","","",""
"","","","","","single-stim-button","11","97030","0.0-2.0-3.0-1.0","5e3bb7770e53243ce0376fe1","B2","batch2","","833","tol_practice","","","","tol_peg_3","833","833","0","[[1,2,0],[0,0],[3]]","1","[[1,2,0],[0,0],[3]]","practice","833","","","","","","","","","","","","","","",""
"","","","","","poldrack-single-stim","12","98045","0.0-2.0-4.0","5e3bb7770e53243ce0376fe1","B2","batch2","","-1","tol_feedback","","","true","","1000","1000","500","","","","","","-1","none","true","","0","","","","","","","","","",""
"","","","","","single-stim-button","13","101187","0.0-2.0-5.0-0.0","5e3bb7770e53243ce0376fe1","B2","batch2","","3142","tol_practice","","","","tol_peg_1","3142","3142","0","[[1,0,0],[3,0],[0]]","2","[[0,0,0],[3,1],[2]]","practice","3142","","","","","","","","","","","","","","",""
"","","","","","single-stim-button","14","102733","0.0-2.0-5.0-1.0","5e3bb7770e53243ce0376fe1","B2","batch2","","1545","tol_practice","","","","tol_peg_3","1545","1545","0","[[1,0,0],[3,0],[2]]","2","[[0,0,0],[3,1],[2]]","practice","1545","","","","","","","","","","","","","","",""
"","","","","","single-stim-button","15","103212","0.0-2.0-5.1-0.1","5e3bb7770e53243ce0376fe1","B2","batch2","","478","tol_practice","","","","tol_peg_1","478","478","0","[[0,0,0],[3,0],[2]]","3","[[0,0,0],[3,1],[2]]","practice","478","","","","","","","","","","","","","","",""
"","","","","","single-stim-button","16","104155","0.0-2.0-5.1-1.1","5e3bb7770e53243ce0376fe1","B2","batch2","","942","tol_practice","","","","tol_peg_2","942","942","0","[[0,0,0],[3,1],[2]]","3","[[0,0,0],[3,1],[2]]","practice","942","","","","","","","","","","","","","","",""
"","","","","","poldrack-single-stim","17","105156","0.0-2.0-6.0","5e3bb7770e53243ce0376fe1","B2","batch2","","-1","tol_feedback","","","true","","1000","1000","500","","","","","","-1","none","true","","0","","","","","","","","","",""
"","","","","","single-stim-button","18","107451","0.0-2.0-7.0-0.0","5e3bb7770e53243ce0376fe1","B2","batch2","","2295","tol_practice","","","","tol_peg_2","2295","2295","0","[[1,2,0],[0,0],[0]]","4","[[1,0,0],[2,0],[3]]","practice","2295","","","","","","","","","","","","","","",""
"","","","","","single-stim-button","19","108235","0.0-2.0-7.0-1.0","5e3bb7770e53243ce0376fe1","B2","batch2","","783","tol_practice","","","","tol_peg_3","783","783","0","[[1,2,0],[0,0],[3]]","4","[[1,0,0],[2,0],[3]]","practice","783","","","","","","","","","","","","","","",""
"","","","","","single-stim-button","20","108912","0.0-2.0-7.1-0.1","5e3bb7770e53243ce0376fe1","B2","batch2","","677","tol_practice","","","","tol_peg_1","677","677","0","[[1,0,0],[0,0],[3]]","5","[[1,0,0],[2,0],[3]]","practice","677","","","","","","","","","","","","","","",""
"","","","","","single-stim-button","21","109392","0.0-2.0-7.1-1.1","5e3bb7770e53243ce0376fe1","B2","batch2","","479","tol_practice","","","","tol_peg_2","479","479","0","[[1,0,0],[2,0],[3]]","5","[[1,0,0],[2,0],[3]]","practice","479","","","","","","","","","","","","","","",""
"","","","","","poldrack-single-stim","22","110401","0.0-2.0-8.0","5e3bb7770e53243ce0376fe1","B2","batch2","","-1","tol_feedback","","","true","","1000","1000","500","","","","","","-1","none","true","","0","","","","","","","","","",""
"","","","","","html-button-response","23","113831","0.0-2.0-9.0","5e3bb7770e53243ce0376fe1","B2","batch2","","3429.2999999523163","tol_instruction","<div class = centerbox><p class = center-block-text>Great job! You are done with practice trials<br>You are about to start official trials.<br> <br> Problem <strong>1</strong> out of 25 problems</p></div>","0","","","","","","","","","","","","","","","","","","","","","","","","",""
"","","","","","single-stim-button","24","118457","0.0-2.0-10.0-0.0","5e3bb7770e53243ce0376fe1","B2","batch2","","3623","tol_tohand","","","","tol_peg_2","3623","3623","0","[[1,2,0],[0,0],[0]]","1","[[1,3,0],[2,0],[0]]","0","0","","","","","","3","","","","","","","","",""
"","","","","","single-stim-button","25","119505","0.0-2.0-10.0-1.0","5e3bb7770e53243ce0376fe1","B2","batch2","","1047","tol_toboard","","","","tol_peg_3","1047","1047","0","[[1,2,0],[0,0],[3]]","1","[[1,3,0],[2,0],[0]]","0","0","","","","","","3","","","","","","","","",""
"","","","","","single-stim-button","26","120221","0.0-2.0-10.1-0.1","5e3bb7770e53243ce0376fe1","B2","batch2","","715","tol_tohand","","","","tol_peg_1","715","715","0","[[1,0,0],[0,0],[3]]","2","[[1,3,0],[2,0],[0]]","0","0","","","","","","3","","","","","","","","",""
"","","","","","single-stim-button","27","121151","0.0-2.0-10.1-1.1","5e3bb7770e53243ce0376fe1","B2","batch2","","929","tol_toboard","","","","tol_peg_2","929","929","0","[[1,0,0],[2,0],[3]]","2","[[1,3,0],[2,0],[0]]","0","0","","","","","","3","","","","","","","","",""
"","","","","","single-stim-button","28","121903","0.0-2.0-10.2-0.2","5e3bb7770e53243ce0376fe1","B2","batch2","","752","tol_tohand","","","","tol_peg_3","752","752","0","[[1,0,0],[2,0],[0]]","3","[[1,3,0],[2,0],[0]]","0","0","","","","","","3","","","","","","","","",""
"","","","","","single-stim-button","29","122757","0.0-2.0-10.2-1.2","5e3bb7770e53243ce0376fe1","B2","batch2","","853","tol_toboard","","","","tol_peg_1","853","853","0","[[1,3,0],[2,0],[0]]","3","[[1,3,0],[2,0],[0]]","0","0","","","","","","3","","","","","","","","",""
"","","","","","poldrack-single-stim","30","123761","0.0-2.0-11.0","5e3bb7770e53243ce0376fe1","B2","batch2","","-1","tol_feedback","","","true","","1000","1000","500","","","","","","-1","none","true","3623","5090","","","","","","","","","",""
"","","","","","html-button-response","31","124847","0.0-2.0-12.0","5e3bb7770e53243ce0376fe1","B2","batch2","","1085.2999999523163","tol_trial_num","<div class = centerbox><p class = center-block-text>problem <strong>2</strong> out of 25 problems</p></div>","0","","","","","","","","","","","","","","","","","","","","","","","","",""
"","","","","","single-stim-button","32","130013","0.0-2.0-13.0-0.0","5e3bb7770e53243ce0376fe1","B2","batch2","","5166","tol_tohand","","","","tol_peg_1","5166","5166","0","[[1,0,0],[3,0],[0]]","1","[[2,1,3],[0,0],[0]]","1","0","","","","","","5","","","","","","","","",""
"","","","","","single-stim-button","33","132109","0.0-2.0-13.0-1.0","5e3bb7770e53243ce0376fe1","B2","batch2","","2095","tol_toboard","","","","tol_peg_3","2095","2095","0","[[1,0,0],[3,0],[2]]","1","[[2,1,3],[0,0],[0]]","1","0","","","","","","5","","","","","","","","",""
"","","","","","single-stim-button","34","137058","0.0-2.0-13.1-0.1","5e3bb7770e53243ce0376fe1","B2","batch2","","4948","tol_tohand","","","","tol_peg_1","4948","4948","0","[[0,0,0],[3,0],[2]]","2","[[2,1,3],[0,0],[0]]","1","0","","","","","","5","","","","","","","","",""
"","","","","","single-stim-button","35","137742","0.0-2.0-13.1-1.1","5e3bb7770e53243ce0376fe1","B2","batch2","","684","tol_toboard","","","","tol_peg_2","684","684","0","[[0,0,0],[3,1],[2]]","2","[[2,1,3],[0,0],[0]]","1","0","","","","","","5","","","","","","","","",""
"","","","","","single-stim-button","36","138410","0.0-2.0-13.2-0.2","5e3bb7770e53243ce0376fe1","B2","batch2","","667","tol_tohand","","","","tol_peg_3","667","667","0","[[0,0,0],[3,1],[0]]","3","[[2,1,3],[0,0],[0]]","1","0","","","","","","5","","","","","","","","",""
"","","","","","single-stim-button","37","139307","0.0-2.0-13.2-1.2","5e3bb7770e53243ce0376fe1","B2","batch2","","897","tol_toboard","","","","tol_peg_1","897","897","0","[[2,0,0],[3,1],[0]]","3","[[2,1,3],[0,0],[0]]","1","0","","","","","","5","","","","","","","","",""
"","","","","","single-stim-button","38","141309","0.0-2.0-13.3-0.3","5e3bb7770e53243ce0376fe1","B2","batch2","","2000","tol_tohand","","","","tol_peg_2","2000","2000","0","[[2,0,0],[3,0],[0]]","4","[[2,1,3],[0,0],[0]]","1","0","","","","","","5","","","","","","","","",""
"","","","","","single-stim-button","39","142431","0.0-2.0-13.3-1.3","5e3bb7770e53243ce0376fe1","B2","batch2","","1122","tol_toboard","","","","tol_peg_1","1122","1122","0","[[2,1,0],[3,0],[0]]","4","[[2,1,3],[0,0],[0]]","1","0","","","","","","5","","","","","","","","",""
"","","","","","single-stim-button","40","142984","0.0-2.0-13.4-0.4","5e3bb7770e53243ce0376fe1","B2","batch2","","552","tol_tohand","","","","tol_peg_2","552","552","0","[[2,1,0],[0,0],[0]]","5","[[2,1,3],[0,0],[0]]","1","0","","","","","","5","","","","","","","","",""
"","","","","","single-stim-button","41","143760","0.0-2.0-13.4-1.4","5e3bb7770e53243ce0376fe1","B2","batch2","","774","tol_toboard","","","","tol_peg_1","774","774","0","[[2,1,3],[0,0],[0]]","5","[[2,1,3],[0,0],[0]]","1","0","","","","","","5","","","","","","","","",""
"","","","","","poldrack-single-stim","42","144770","0.0-2.0-14.0","5e3bb7770e53243ce0376fe1","B2","batch2","","-1","tol_feedback","","","true","","1000","1000","500","","","","","","-1","none","true","5166","13333","","","","","","","","","",""
"","","","","","html-button-response","43","145413","0.0-2.0-15.0","5e3bb7770e53243ce0376fe1","B2","batch2","","642.2000000476837","tol_trial_num","<div class = centerbox><p class = center-block-text>problem <strong>3</strong> out of 25 problems</p></div>","0","","","","","","","","","","","","","","","","","","","","","","","","",""
"","","","","","single-stim-button","44","150642","0.0-2.0-16.0-0.0","5e3bb7770e53243ce0376fe1","B2","batch2","","5227","tol_tohand","","","","tol_peg_1","5227","5227","0","[[2,0,0],[0,0],[1]]","1","[[1,2,0],[3,0],[0]]","2","0","","","","","","4","","","","","","","","",""
"","","","","","single-stim-button","45","151763","0.0-2.0-16.0-1.0","5e3bb7770e53243ce0376fe1","B2","batch2","","1121","tol_toboard","","","","tol_peg_2","1121","1121","0","[[2,0,0],[3,0],[1]]","1","[[1,2,0],[3,0],[0]]","2","0","","","","","","4","","","","","","","","",""
"","","","","","single-stim-button","46","152321","0.0-2.0-16.1-0.1","5e3bb7770e53243ce0376fe1","B2","batch2","","557","tol_tohand","","","","tol_peg_1","557","557","0","[[0,0,0],[3,0],[1]]","2","[[1,2,0],[3,0],[0]]","2","0","","","","","","4","","","","","","","","",""
"","","","","","single-stim-button","47","153421","0.0-2.0-16.1-1.1","5e3bb7770e53243ce0376fe1","B2","batch2","","1099","tol_toboard","","","","tol_peg_2","1099","1099","0","[[0,0,0],[3,2],[1]]","2","[[1,2,0],[3,0],[0]]","2","0","","","","","","4","","","","","","","","",""
"","","","","","single-stim-button","48","153850","0.0-2.0-16.2-0.2","5e3bb7770e53243ce0376fe1","B2","batch2","","428","tol_tohand","","","","tol_peg_3","428","428","0","[[0,0,0],[3,2],[0]]","3","[[1,2,0],[3,0],[0]]","2","0","","","","","","4","","","","","","","","",""
"","","","","","single-stim-button","49","154522","0.0-2.0-16.2-1.2","5e3bb7770e53243ce0376fe1","B2","batch2","","671","tol_toboard","","","","tol_peg_1","671","671","0","[[1,0,0],[3,2],[0]]","3","[[1,2,0],[3,0],[0]]","2","0","","","","","","4","","","","","","","","",""
"","","","","","single-stim-button","50","155623","0.0-2.0-16.3-0.3","5e3bb7770e53243ce0376fe1","B2","batch2","","1099","tol_tohand","","","","tol_peg_2","1099","1099","0","[[1,0,0],[3,0],[0]]","4","[[1,2,0],[3,0],[0]]","2","0","","","","","","4","","","","","","","","",""
"","","","","","single-stim-button","51","156320","0.0-2.0-16.3-1.3","5e3bb7770e53243ce0376fe1","B2","batch2","","697","tol_toboard","","","","tol_peg_1","697","697","0","[[1,2,0],[3,0],[0]]","4","[[1,2,0],[3,0],[0]]","2","0","","","","","","4","","","","","","","","",""
"","","","","","poldrack-single-stim","52","157321","0.0-2.0-17.0","5e3bb7770e53243ce0376fe1","B2","batch2","","-1","tol_feedback","","","true","","1000","1000","500","","","","","","-1","none","true","5227","7311","","","","","","","","","",""
"","","","","","html-button-response","53","158010","0.0-2.0-18.0","5e3bb7770e53243ce0376fe1","B2","batch2","","688.2000000476837","tol_trial_num","<div class = centerbox><p class = center-block-text>problem <strong>4</strong> out of 25 problems</p></div>","0","","","","","","","","","","","","","","","","","","","","","","","","",""
"","","","","","single-stim-button","54","161839","0.0-2.0-19.0-0.0","5e3bb7770e53243ce0376fe1","B2","batch2","","3828","tol_tohand","","","","tol_peg_2","3828","3828","0","[[3,0,0],[2,0],[0]]","1","[[3,0,0],[1,0],[2]]","3","0","","","","","","3","","","","","","","","",""
"","","","","","single-stim-button","55","162594","0.0-2.0-19.0-1.0","5e3bb7770e53243ce0376fe1","B2","batch2","","754","tol_toboard","","","","tol_peg_3","754","754","0","[[3,0,0],[2,0],[1]]","1","[[3,0,0],[1,0],[2]]","3","0","","","","","","3","","","","","","","","",""
"","","","","","single-stim-button","56","163111","0.0-2.0-19.1-0.1","5e3bb7770e53243ce0376fe1","B2","batch2","","516","tol_tohand","","","","tol_peg_2","516","516","0","[[3,0,0],[0,0],[1]]","2","[[3,0,0],[1,0],[2]]","3","0","","","","","","3","","","","","","","","",""
"","","","","","single-stim-button","57","163755","0.0-2.0-19.1-1.1","5e3bb7770e53243ce0376fe1","B2","batch2","","644","tol_toboard","","","","tol_peg_1","644","644","0","[[3,2,0],[0,0],[1]]","2","[[3,0,0],[1,0],[2]]","3","0","","","","","","3","","","","","","","","",""
"","","","","","single-stim-button","58","164541","0.0-2.0-19.2-0.2","5e3bb7770e53243ce0376fe1","B2","batch2","","786","tol_tohand","","","","tol_peg_3","786","786","0","[[3,2,0],[0,0],[0]]","3","[[3,0,0],[1,0],[2]]","3","0","","","","","","3","","","","","","","","",""
"","","","","","single-stim-button","59","165240","0.0-2.0-19.2-1.2","5e3bb7770e53243ce0376fe1","B2","batch2","","699","tol_toboard","","","","tol_peg_2","699","699","0","[[3,2,0],[1,0],[0]]","3","[[3,0,0],[1,0],[2]]","3","0","","","","","","3","","","","","","","","",""
"","","","","","single-stim-button","60","165914","0.0-2.0-19.3-0.3","5e3bb7770e53243ce0376fe1","B2","batch2","","673","tol_tohand","","","","tol_peg_1","673","673","0","[[3,0,0],[1,0],[0]]","4","[[3,0,0],[1,0],[2]]","3","0","","","","","","3","","","","","","","","",""
"","","","","","single-stim-button","61","166796","0.0-2.0-19.3-1.3","5e3bb7770e53243ce0376fe1","B2","batch2","","882","tol_toboard","","","","tol_peg_3","882","882","0","[[3,0,0],[1,0],[2]]","4","[[3,0,0],[1,0],[2]]","3","0","","","","","","3","","","","","","","","",""
"","","","","","poldrack-single-stim","62","167797","0.0-2.0-20.0","5e3bb7770e53243ce0376fe1","B2","batch2","","-1","tol_feedback","","","true","","1000","1000","500","","","","","","-1","none","true","3828","5803","","","","","","","","","",""
"","","","","","html-button-response","63","168638","0.0-2.0-21.0","5e3bb7770e53243ce0376fe1","B2","batch2","","840.2000000476837","tol_trial_num","<div class = centerbox><p class = center-block-text>problem <strong>5</strong> out of 25 problems</p></div>","0","","","","","","","","","","","","","","","","","","","","","","","","",""
"","","","","","single-stim-button","64","173371","0.0-2.0-22.0-0.0","5e3bb7770e53243ce0376fe1","B2","batch2","","4733","tol_tohand","","","","tol_peg_3","4733","4733","0","[[1,0,0],[2,0],[0]]","1","[[0,0,0],[1,2],[3]]","4","0","","","","","","7","","","","","","","","",""
"","","","","","single-stim-button","65","187790","0.0-2.0-22.0-1.0","5e3bb7770e53243ce0376fe1","B2","batch2","","14419","tol_toboard","","","","tol_peg_1","14419","14419","0","[[1,3,0],[2,0],[0]]","1","[[0,0,0],[1,2],[3]]","4","0","","","","","","7","","","","","","","","",""
"","","","","","single-stim-button","66","188496","0.0-2.0-22.1-0.1","5e3bb7770e53243ce0376fe1","B2","batch2","","705","tol_tohand","","","","tol_peg_2","705","705","0","[[1,3,0],[0,0],[0]]","2","[[0,0,0],[1,2],[3]]","4","0","","","","","","7","","","","","","","","",""
"","","","","","single-stim-button","67","189410","0.0-2.0-22.1-1.1","5e3bb7770e53243ce0376fe1","B2","batch2","","914","tol_toboard","","","","tol_peg_3","914","914","0","[[1,3,0],[0,0],[2]]","2","[[0,0,0],[1,2],[3]]","4","0","","","","","","7","","","","","","","","",""
"","","","","","single-stim-button","68","191981","0.0-2.0-22.2-0.2","5e3bb7770e53243ce0376fe1","B2","batch2","","2570","tol_tohand","","","","tol_peg_1","2570","2570","0","[[1,0,0],[0,0],[2]]","3","[[0,0,0],[1,2],[3]]","4","0","","","","","","7","","","","","","","","",""
"","","","","","single-stim-button","69","196678","0.0-2.0-22.2-1.2","5e3bb7770e53243ce0376fe1","B2","batch2","","4697","tol_toboard","","","","tol_peg_2","4697","4697","0","[[1,0,0],[3,0],[2]]","3","[[0,0,0],[1,2],[3]]","4","0","","","","","","7","","","","","","","","",""
"","","","","","single-stim-button","70","197577","0.0-2.0-22.3-0.3","5e3bb7770e53243ce0376fe1","B2","batch2","","899","tol_tohand","","","","tol_peg_3","899","899","0","[[1,0,0],[3,0],[0]]","4","[[0,0,0],[1,2],[3]]","4","0","","","","","","7","","","","","","","","",""
"","","","","","single-stim-button","71","198391","0.0-2.0-22.3-1.3","5e3bb7770e53243ce0376fe1","B2","batch2","","814","tol_toboard","","","","tol_peg_1","814","814","0","[[1,2,0],[3,0],[0]]","4","[[0,0,0],[1,2],[3]]","4","0","","","","","","7","","","","","","","","",""
"","","","","","single-stim-button","72","199424","0.0-2.0-22.4-0.4","5e3bb7770e53243ce0376fe1","B2","batch2","","1033","tol_tohand","","","","tol_peg_2","1033","1033","0","[[1,2,0],[0,0],[0]]","5","[[0,0,0],[1,2],[3]]","4","0","","","","","","7","","","","","","","","",""
"","","","","","single-stim-button","73","200208","0.0-2.0-22.4-1.4","5e3bb7770e53243ce0376fe1","B2","batch2","","784","tol_toboard","","","","tol_peg_3","784","784","0","[[1,2,0],[0,0],[3]]","5","[[0,0,0],[1,2],[3]]","4","0","","","","","","7","","","","","","","","",""
"","","","","","single-stim-button","74","201075","0.0-2.0-22.5-0.5","5e3bb7770e53243ce0376fe1","B2","batch2","","867","tol_tohand","","","","tol_peg_1","867","867","0","[[1,0,0],[0,0],[3]]","6","[[0,0,0],[1,2],[3]]","4","0","","","","","","7","","","","","","","","",""
"","","","","","single-stim-button","75","202674","0.0-2.0-22.5-1.5","5e3bb7770e53243ce0376fe1","B2","batch2","","1599","tol_toboard","","","","tol_peg_1","1599","1599","0","[[1,2,0],[0,0],[3]]","6","[[0,0,0],[1,2],[3]]","4","0","","","","","","7","","","","","","","","",""
"","","","","","single-stim-button","76","203316","0.0-2.0-22.6-0.6","5e3bb7770e53243ce0376fe1","B2","batch2","","642","tol_tohand","","","","tol_peg_3","642","642","0","[[1,2,0],[0,0],[0]]","7","[[0,0,0],[1,2],[3]]","4","0","","","","","","7","","","","","","","","",""
"","","","","","single-stim-button","77","203739","0.0-2.0-22.6-1.6","5e3bb7770e53243ce0376fe1","B2","batch2","","422","tol_toboard","","","","tol_peg_2","422","422","0","[[1,2,0],[3,0],[0]]","7","[[0,0,0],[1,2],[3]]","4","0","","","","","","7","","","","","","","","",""
"","","","","","single-stim-button","78","204403","0.0-2.0-22.7-0.7","5e3bb7770e53243ce0376fe1","B2","batch2","","664","tol_tohand","","","","tol_peg_1","664","664","0","[[1,0,0],[3,0],[0]]","8","[[0,0,0],[1,2],[3]]","4","0","","","","","","7","","","","","","","","",""
"","","","","","single-stim-button","79","205234","0.0-2.0-22.7-1.7","5e3bb7770e53243ce0376fe1","B2","batch2","","831","tol_toboard","","","","tol_peg_3","831","831","0","[[1,0,0],[3,0],[2]]","8","[[0,0,0],[1,2],[3]]","4","0","","","","","","7","","","","","","","","",""
"","","","","","single-stim-button","80","205765","0.0-2.0-22.8-0.8","5e3bb7770e53243ce0376fe1","B2","batch2","","531","tol_tohand","","","","tol_peg_1","531","531","0","[[0,0,0],[3,0],[2]]","9","[[0,0,0],[1,2],[3]]","4","0","","","","","","7","","","","","","","","",""
"","","","","","single-stim-button","81","206270","0.0-2.0-22.8-1.8","5e3bb7770e53243ce0376fe1","B2","batch2","","504","tol_toboard","","","","tol_peg_2","504","504","0","[[0,0,0],[3,1],[2]]","9","[[0,0,0],[1,2],[3]]","4","0","","","","","","7","","","","","","","","",""
"","","","","","single-stim-button","82","207467","0.0-2.0-22.9-0.9","5e3bb7770e53243ce0376fe1","B2","batch2","","1197","tol_tohand","","","","tol_peg_2","1197","1197","0","[[0,0,0],[3,0],[2]]","10","[[0,0,0],[1,2],[3]]","4","0","","","","","","7","","","","","","","","",""
"","","","","","single-stim-button","83","209175","0.0-2.0-22.9-1.9","5e3bb7770e53243ce0376fe1","B2","batch2","","1708","tol_toboard","","","","tol_peg_2","1708","1708","0","[[0,0,0],[3,1],[2]]","10","[[0,0,0],[1,2],[3]]","4","0","","","","","","7","","","","","","","","",""
"","","","","","single-stim-button","84","210809","0.0-2.0-22.10-0.10","5e3bb7770e53243ce0376fe1","B2","batch2","","1634","tol_tohand","","","","tol_peg_2","1634","1634","0","[[0,0,0],[3,0],[2]]","11","[[0,0,0],[1,2],[3]]","4","0","","","","","","7","","","","","","","","",""
"","","","","","single-stim-button","85","211408","0.0-2.0-22.10-1.10","5e3bb7770e53243ce0376fe1","B2","batch2","","599","tol_toboard","","","","tol_peg_1","599","599","0","[[1,0,0],[3,0],[2]]","11","[[0,0,0],[1,2],[3]]","4","0","","","","","","7","","","","","","","","",""
"","","","","","single-stim-button","86","211922","0.0-2.0-22.11-0.11","5e3bb7770e53243ce0376fe1","B2","batch2","","514","tol_tohand","","","","tol_peg_2","514","514","0","[[1,0,0],[0,0],[2]]","12","[[0,0,0],[1,2],[3]]","4","0","","","","","","7","","","","","","","","",""
"","","","","","single-stim-button","87","212574","0.0-2.0-22.11-1.11","5e3bb7770e53243ce0376fe1","B2","batch2","","652","tol_toboard","","","","tol_peg_1","652","652","0","[[1,3,0],[0,0],[2]]","12","[[0,0,0],[1,2],[3]]","4","0","","","","","","7","","","","","","","","",""
"","","","","","single-stim-button","88","213172","0.0-2.0-22.12-0.12","5e3bb7770e53243ce0376fe1","B2","batch2","","598","tol_tohand","","","","tol_peg_3","598","598","0","[[1,3,0],[0,0],[0]]","13","[[0,0,0],[1,2],[3]]","4","0","","","","","","7","","","","","","","","",""
"","","","","","single-stim-button","89","213827","0.0-2.0-22.12-1.12","5e3bb7770e53243ce0376fe1","B2","batch2","","655","tol_toboard","","","","tol_peg_2","655","655","0","[[1,3,0],[2,0],[0]]","13","[[0,0,0],[1,2],[3]]","4","0","","","","","","7","","","","","","","","",""
"","","","","","single-stim-button","90","214405","0.0-2.0-22.13-0.13","5e3bb7770e53243ce0376fe1","B2","batch2","","578","tol_tohand","","","","tol_peg_1","578","578","0","[[1,0,0],[2,0],[0]]","14","[[0,0,0],[1,2],[3]]","4","0","","","","","","7","","","","","","","","",""
"","","","","","single-stim-button","91","215204","0.0-2.0-22.13-1.13","5e3bb7770e53243ce0376fe1","B2","batch2","","799","tol_toboard","","","","tol_peg_3","799","799","0","[[1,0,0],[2,0],[3]]","14","[[0,0,0],[1,2],[3]]","4","0","","","","","","7","","","","","","","","",""
"","","","","","single-stim-button","92","215693","0.0-2.0-22.14-0.14","5e3bb7770e53243ce0376fe1","B2","batch2","","488","tol_tohand","","","","tol_peg_1","488","488","0","[[0,0,0],[2,0],[3]]","15","[[0,0,0],[1,2],[3]]","4","0","","","","","","7","","","","","","","","",""
"","","","","","single-stim-button","93","216274","0.0-2.0-22.14-1.14","5e3bb7770e53243ce0376fe1","B2","batch2","","581","tol_toboard","","","","tol_peg_2","581","581","0","[[0,0,0],[2,1],[3]]","15","[[0,0,0],[1,2],[3]]","4","0","","","","","","7","","","","","","","","",""
"","","","","","single-stim-button","94","217830","0.0-2.0-22.15-0.15","5e3bb7770e53243ce0376fe1","B2","batch2","","1555","tol_tohand","","","","tol_peg_2","1555","1555","0","[[0,0,0],[2,0],[3]]","16","[[0,0,0],[1,2],[3]]","4","0","","","","","","7","","","","","","","","",""
"","","","","","single-stim-button","95","218760","0.0-2.0-22.15-1.15","5e3bb7770e53243ce0376fe1","B2","batch2","","929","tol_toboard","","","","tol_peg_1","929","929","0","[[1,0,0],[2,0],[3]]","16","[[0,0,0],[1,2],[3]]","4","0","","","","","","7","","","","","","","","",""
"","","","","","single-stim-button","96","223134","0.0-2.0-22.16-0.16","5e3bb7770e53243ce0376fe1","B2","batch2","","4373","tol_tohand","","","","tol_peg_2","4373","4373","0","[[1,0,0],[0,0],[3]]","17","[[0,0,0],[1,2],[3]]","4","0","","","","","","7","","","","","","","","",""
"","","","","","single-stim-button","97","226512","0.0-2.0-22.16-1.16","5e3bb7770e53243ce0376fe1","B2","batch2","","3377","tol_toboard","","","","tol_peg_1","3377","3377","0","[[1,2,0],[0,0],[3]]","17","[[0,0,0],[1,2],[3]]","4","0","","","","","","7","","","","","","","","",""
"","","","","","single-stim-button","98","227343","0.0-2.0-22.17-0.17","5e3bb7770e53243ce0376fe1","B2","batch2","","830","tol_tohand","","","","tol_peg_3","830","830","0","[[1,2,0],[0,0],[0]]","18","[[0,0,0],[1,2],[3]]","4","0","","","","","","7","","","","","","","","",""
"","","","","","single-stim-button","99","227879","0.0-2.0-22.17-1.17","5e3bb7770e53243ce0376fe1","B2","batch2","","535","tol_toboard","","","","tol_peg_2","535","535","0","[[1,2,0],[3,0],[0]]","18","[[0,0,0],[1,2],[3]]","4","0","","","","","","7","","","","","","","","",""
"","","","","","single-stim-button","100","229801","0.0-2.0-22.18-0.18","5e3bb7770e53243ce0376fe1","B2","batch2","","1920","tol_tohand","","","","tol_peg_1","1920","1920","0","[[1,0,0],[3,0],[0]]","19","[[0,0,0],[1,2],[3]]","4","0","","","","","","7","","","","","","","","",""
"","","","","","single-stim-button","101","232548","0.0-2.0-22.18-1.18","5e3bb7770e53243ce0376fe1","B2","batch2","","2747","tol_toboard","","","","tol_peg_2","2747","2747","0","[[1,0,0],[3,2],[0]]","19","[[0,0,0],[1,2],[3]]","4","0","","","","","","7","","","","","","","","",""
"","","","","","single-stim-button","102","233750","0.0-2.0-22.19-0.19","5e3bb7770e53243ce0376fe1","B2","batch2","","1201","tol_tohand","","","","tol_peg_1","1201","1201","0","[[0,0,0],[3,2],[0]]","20","[[0,0,0],[1,2],[3]]","4","0","","","","","","7","","","","","","","","",""
"","","","","","single-stim-button","103","234491","0.0-2.0-22.19-1.19","5e3bb7770e53243ce0376fe1","B2","batch2","","740","tol_toboard","","","","tol_peg_3","740","740","0","[[0,0,0],[3,2],[1]]","20","[[0,0,0],[1,2],[3]]","4","0","","","","","","7","","","","","","","","",""
"","","","","","single-stim-button","104","235017","0.0-2.0-22.20-0.20","5e3bb7770e53243ce0376fe1","B2","batch2","","524","tol_tohand","","","","tol_peg_2","524","524","0","[[0,0,0],[3,0],[1]]","21","[[0,0,0],[1,2],[3]]","4","0","","","","","","7","","","","","","","","",""
"","","","","","single-stim-button","105","235663","0.0-2.0-22.20-1.20","5e3bb7770e53243ce0376fe1","B2","batch2","","646","tol_toboard","","","","tol_peg_1","646","646","0","[[2,0,0],[3,0],[1]]","21","[[0,0,0],[1,2],[3]]","4","0","","","","","","7","","","","","","","","",""
"","","","","","single-stim-button","106","236367","0.0-2.0-22.21-0.21","5e3bb7770e53243ce0376fe1","B2","batch2","","703","tol_tohand","","","","tol_peg_2","703","703","0","[[2,0,0],[0,0],[1]]","22","[[0,0,0],[1,2],[3]]","4","0","","","","","","7","","","","","","","","",""
"","","","","","single-stim-button","107","237036","0.0-2.0-22.21-1.21","5e3bb7770e53243ce0376fe1","B2","batch2","","668","tol_toboard","","","","tol_peg_1","668","668","0","[[2,3,0],[0,0],[1]]","22","[[0,0,0],[1,2],[3]]","4","0","","","","","","7","","","","","","","","",""
"","","","","","single-stim-button","108","237813","0.0-2.0-22.22-0.22","5e3bb7770e53243ce0376fe1","B2","batch2","","776","tol_tohand","","","","tol_peg_3","776","776","0","[[2,3,0],[0,0],[0]]","23","[[0,0,0],[1,2],[3]]","4","0","","","","","","7","","","","","","","","",""
"","","","","","single-stim-button","109","238573","0.0-2.0-22.22-1.22","5e3bb7770e53243ce0376fe1","B2","batch2","","759","tol_toboard","","","","tol_peg_2","759","759","0","[[2,3,0],[1,0],[0]]","23","[[0,0,0],[1,2],[3]]","4","0","","","","","","7","","","","","","","","",""
"","","","","","single-stim-button","110","239306","0.0-2.0-22.23-0.23","5e3bb7770e53243ce0376fe1","B2","batch2","","733","tol_tohand","","","","tol_peg_1","733","733","0","[[2,0,0],[1,0],[0]]","24","[[0,0,0],[1,2],[3]]","4","0","","","","","","7","","","","","","","","",""
"","","","","","single-stim-button","111","240009","0.0-2.0-22.23-1.23","5e3bb7770e53243ce0376fe1","B2","batch2","","702","tol_toboard","","","","tol_peg_3","702","702","0","[[2,0,0],[1,0],[3]]","24","[[0,0,0],[1,2],[3]]","4","0","","","","","","7","","","","","","","","",""
"","","","","","single-stim-button","112","240602","0.0-2.0-22.24-0.24","5e3bb7770e53243ce0376fe1","B2","batch2","","592","tol_tohand","","","","tol_peg_1","592","592","0","[[0,0,0],[1,0],[3]]","25","[[0,0,0],[1,2],[3]]","4","0","","","","","","7","","","","","","","","",""
"","","","","","single-stim-button","113","241152","0.0-2.0-22.24-1.24","5e3bb7770e53243ce0376fe1","B2","batch2","","549","tol_toboard","","","","tol_peg_2","549","549","0","[[0,0,0],[1,2],[3]]","25","[[0,0,0],[1,2],[3]]","4","0","","","","","","7","","","","","","","","",""
"","","","","","poldrack-single-stim","114","242166","0.0-2.0-23.0","5e3bb7770e53243ce0376fe1","B2","batch2","","-1","tol_feedback","","","true","","1000","1000","500","","","","","","-1","none","true","4733","30860","","","","","","","","","",""
"","","","","","html-button-response","115","242897","0.0-2.0-24.0","5e3bb7770e53243ce0376fe1","B2","batch2","","730.7999999523163","tol_trial_num","<div class = centerbox><p class = center-block-text>problem <strong>6</strong> out of 25 problems</p></div>","0","","","","","","","","","","","","","","","","","","","","","","","","",""
"","","","","","single-stim-button","116","247338","0.0-2.0-25.0-0.0","5e3bb7770e53243ce0376fe1","B2","batch2","","4440","tol_tohand","","","","tol_peg_2","4440","4440","0","[[0,0,0],[1,0],[3]]","1","[[1,0,0],[2,3],[0]]","5","0","","","","","","6","","","","","","","","",""
"","","","","","single-stim-button","117","249292","0.0-2.0-25.0-1.0","5e3bb7770e53243ce0376fe1","B2","batch2","","1953","tol_toboard","","","","tol_peg_1","1953","1953","0","[[2,0,0],[1,0],[3]]","1","[[1,0,0],[2,3],[0]]","5","0","","","","","","6","","","","","","","","",""
"","","","","","single-stim-button","118","251696","0.0-2.0-25.1-0.1","5e3bb7770e53243ce0376fe1","B2","batch2","","2403","tol_tohand","","","","tol_peg_3","2403","2403","0","[[2,0,0],[1,0],[0]]","2","[[1,0,0],[2,3],[0]]","5","0","","","","","","6","","","","","","","","",""
"","","","","","single-stim-button","119","252504","0.0-2.0-25.1-1.1","5e3bb7770e53243ce0376fe1","B2","batch2","","807","tol_toboard","","","","tol_peg_2","807","807","0","[[2,0,0],[1,3],[0]]","2","[[1,0,0],[2,3],[0]]","5","0","","","","","","6","","","","","","","","",""
"","","","","","single-stim-button","120","253169","0.0-2.0-25.2-0.2","5e3bb7770e53243ce0376fe1","B2","batch2","","664","tol_tohand","","","","tol_peg_1","664","664","0","[[0,0,0],[1,3],[0]]","3","[[1,0,0],[2,3],[0]]","5","0","","","","","","6","","","","","","","","",""
"","","","","","single-stim-button","121","253842","0.0-2.0-25.2-1.2","5e3bb7770e53243ce0376fe1","B2","batch2","","672","tol_toboard","","","","tol_peg_3","672","672","0","[[0,0,0],[1,3],[2]]","3","[[1,0,0],[2,3],[0]]","5","0","","","","","","6","","","","","","","","",""
"","","","","","single-stim-button","122","259323","0.0-2.0-25.3-0.3","5e3bb7770e53243ce0376fe1","B2","batch2","","5480","tol_tohand","","","","tol_peg_3","5480","5480","0","[[0,0,0],[1,3],[0]]","4","[[1,0,0],[2,3],[0]]","5","0","","","","","","6","","","","","","","","",""
"","","","","","single-stim-button","123","260126","0.0-2.0-25.3-1.3","5e3bb7770e53243ce0376fe1","B2","batch2","","802","tol_toboard","","","","tol_peg_1","802","802","0","[[2,0,0],[1,3],[0]]","4","[[1,0,0],[2,3],[0]]","5","0","","","","","","6","","","","","","","","",""
"","","","","","single-stim-button","124","260702","0.0-2.0-25.4-0.4","5e3bb7770e53243ce0376fe1","B2","batch2","","575","tol_tohand","","","","tol_peg_2","575","575","0","[[2,0,0],[1,0],[0]]","5","[[1,0,0],[2,3],[0]]","5","0","","","","","","6","","","","","","","","",""
"","","","","","single-stim-button","125","261338","0.0-2.0-25.4-1.4","5e3bb7770e53243ce0376fe1","B2","batch2","","635","tol_toboard","","","","tol_peg_1","635","635","0","[[2,3,0],[1,0],[0]]","5","[[1,0,0],[2,3],[0]]","5","0","","","","","","6","","","","","","","","",""
"","","","","","single-stim-button","126","262310","0.0-2.0-25.5-0.5","5e3bb7770e53243ce0376fe1","B2","batch2","","970","tol_tohand","","","","tol_peg_2","970","970","0","[[2,3,0],[0,0],[0]]","6","[[1,0,0],[2,3],[0]]","5","0","","","","","","6","","","","","","","","",""
"","","","","","single-stim-button","127","262832","0.0-2.0-25.5-1.5","5e3bb7770e53243ce0376fe1","B2","batch2","","522","tol_toboard","","","","tol_peg_3","522","522","0","[[2,3,0],[0,0],[1]]","6","[[1,0,0],[2,3],[0]]","5","0","","","","","","6","","","","","","","","",""
"","","","","","single-stim-button","128","264148","0.0-2.0-25.6-0.6","5e3bb7770e53243ce0376fe1","B2","batch2","","1315","tol_tohand","","","","tol_peg_1","1315","1315","0","[[2,0,0],[0,0],[1]]","7","[[1,0,0],[2,3],[0]]","5","0","","","","","","6","","","","","","","","",""
"","","","","","single-stim-button","129","267625","0.0-2.0-25.6-1.6","5e3bb7770e53243ce0376fe1","B2","batch2","","3476","tol_toboard","","","","tol_peg_2","3476","3476","0","[[2,0,0],[3,0],[1]]","7","[[1,0,0],[2,3],[0]]","5","0","","","","","","6","","","","","","","","",""
"","","","","","single-stim-button","130","268136","0.0-2.0-25.7-0.7","5e3bb7770e53243ce0376fe1","B2","batch2","","510","tol_tohand","","","","tol_peg_3","510","510","0","[[2,0,0],[3,0],[0]]","8","[[1,0,0],[2,3],[0]]","5","0","","","","","","6","","","","","","","","",""
"","","","","","single-stim-button","131","268865","0.0-2.0-25.7-1.7","5e3bb7770e53243ce0376fe1","B2","batch2","","729","tol_toboard","","","","tol_peg_1","729","729","0","[[2,1,0],[3,0],[0]]","8","[[1,0,0],[2,3],[0]]","5","0","","","","","","6","","","","","","","","",""
"","","","","","single-stim-button","132","269329","0.0-2.0-25.8-0.8","5e3bb7770e53243ce0376fe1","B2","batch2","","463","tol_tohand","","","","tol_peg_2","463","463","0","[[2,1,0],[0,0],[0]]","9","[[1,0,0],[2,3],[0]]","5","0","","","","","","6","","","","","","","","",""
"","","","","","single-stim-button","133","270134","0.0-2.0-25.8-1.8","5e3bb7770e53243ce0376fe1","B2","batch2","","804","tol_toboard","","","","tol_peg_3","804","804","0","[[2,1,0],[0,0],[3]]","9","[[1,0,0],[2,3],[0]]","5","0","","","","","","6","","","","","","","","",""
"","","","","","single-stim-button","134","270872","0.0-2.0-25.9-0.9","5e3bb7770e53243ce0376fe1","B2","batch2","","737","tol_tohand","","","","tol_peg_1","737","737","0","[[2,0,0],[0,0],[3]]","10","[[1,0,0],[2,3],[0]]","5","0","","","","","","6","","","","","","","","",""
"","","","","","single-stim-button","135","273119","0.0-2.0-25.9-1.9","5e3bb7770e53243ce0376fe1","B2","batch2","","2246","tol_toboard","","","","tol_peg_2","2246","2246","0","[[2,0,0],[1,0],[3]]","10","[[1,0,0],[2,3],[0]]","5","0","","","","","","6","","","","","","","","",""
"","","","","","single-stim-button","136","273604","0.0-2.0-25.10-0.10","5e3bb7770e53243ce0376fe1","B2","batch2","","485","tol_tohand","","","","tol_peg_1","485","485","0","[[0,0,0],[1,0],[3]]","11","[[1,0,0],[2,3],[0]]","5","0","","","","","","6","","","","","","","","",""
"","","","","","single-stim-button","137","274098","0.0-2.0-25.10-1.10","5e3bb7770e53243ce0376fe1","B2","batch2","","493","tol_toboard","","","","tol_peg_2","493","493","0","[[0,0,0],[1,2],[3]]","11","[[1,0,0],[2,3],[0]]","5","0","","","","","","6","","","","","","","","",""
"","","","","","single-stim-button","138","275010","0.0-2.0-25.11-0.11","5e3bb7770e53243ce0376fe1","B2","batch2","","911","tol_tohand","","","","tol_peg_3","911","911","0","[[0,0,0],[1,2],[0]]","12","[[1,0,0],[2,3],[0]]","5","0","","","","","","6","","","","","","","","",""
"","","","","","single-stim-button","139","276964","0.0-2.0-25.11-1.11","5e3bb7770e53243ce0376fe1","B2","batch2","","1953","tol_toboard","","","","tol_peg_1","1953","1953","0","[[3,0,0],[1,2],[0]]","12","[[1,0,0],[2,3],[0]]","5","0","","","","","","6","","","","","","","","",""
"","","","","","single-stim-button","140","277775","0.0-2.0-25.12-0.12","5e3bb7770e53243ce0376fe1","B2","batch2","","811","tol_tohand","","","","tol_peg_2","811","811","0","[[3,0,0],[1,0],[0]]","13","[[1,0,0],[2,3],[0]]","5","0","","","","","","6","","","","","","","","",""
"","","","","","single-stim-button","141","280606","0.0-2.0-25.12-1.12","5e3bb7770e53243ce0376fe1","B2","batch2","","2831","tol_toboard","","","","tol_peg_3","2831","2831","0","[[3,0,0],[1,0],[2]]","13","[[1,0,0],[2,3],[0]]","5","0","","","","","","6","","","","","","","","",""
"","","","","","single-stim-button","142","281127","0.0-2.0-25.13-0.13","5e3bb7770e53243ce0376fe1","B2","batch2","","521","tol_tohand","","","","tol_peg_2","521","521","0","[[3,0,0],[0,0],[2]]","14","[[1,0,0],[2,3],[0]]","5","0","","","","","","6","","","","","","","","",""
"","","","","","single-stim-button","143","281753","0.0-2.0-25.13-1.13","5e3bb7770e53243ce0376fe1","B2","batch2","","626","tol_toboard","","","","tol_peg_1","626","626","0","[[3,1,0],[0,0],[2]]","14","[[1,0,0],[2,3],[0]]","5","0","","","","","","6","","","","","","","","",""
"","","","","","single-stim-button","144","282503","0.0-2.0-25.14-0.14","5e3bb7770e53243ce0376fe1","B2","batch2","","749","tol_tohand","","","","tol_peg_1","749","749","0","[[3,0,0],[0,0],[2]]","15","[[1,0,0],[2,3],[0]]","5","0","","","","","","6","","","","","","","","",""
"","","","","","single-stim-button","145","284112","0.0-2.0-25.14-1.14","5e3bb7770e53243ce0376fe1","B2","batch2","","1609","tol_toboard","","","","tol_peg_2","1609","1609","0","[[3,0,0],[1,0],[2]]","15","[[1,0,0],[2,3],[0]]","5","0","","","","","","6","","","","","","","","",""
"","","","","","single-stim-button","146","284515","0.0-2.0-25.15-0.15","5e3bb7770e53243ce0376fe1","B2","batch2","","402","tol_tohand","","","","tol_peg_3","402","402","0","[[3,0,0],[1,0],[0]]","16","[[1,0,0],[2,3],[0]]","5","0","","","","","","6","","","","","","","","",""
"","","","","","single-stim-button","147","285098","0.0-2.0-25.15-1.15","5e3bb7770e53243ce0376fe1","B2","batch2","","582","tol_toboard","","","","tol_peg_2","582","582","0","[[3,0,0],[1,2],[0]]","16","[[1,0,0],[2,3],[0]]","5","0","","","","","","6","","","","","","","","",""
"","","","","","single-stim-button","148","285571","0.0-2.0-25.16-0.16","5e3bb7770e53243ce0376fe1","B2","batch2","","473","tol_tohand","","","","tol_peg_2","473","473","0","[[3,0,0],[1,0],[0]]","17","[[1,0,0],[2,3],[0]]","5","0","","","","","","6","","","","","","","","",""
"","","","","","single-stim-button","149","286037","0.0-2.0-25.16-1.16","5e3bb7770e53243ce0376fe1","B2","batch2","","466","tol_toboard","","","","tol_peg_1","466","466","0","[[3,2,0],[1,0],[0]]","17","[[1,0,0],[2,3],[0]]","5","0","","","","","","6","","","","","","","","",""
"","","","","","single-stim-button","150","286562","0.0-2.0-25.17-0.17","5e3bb7770e53243ce0376fe1","B2","batch2","","525","tol_tohand","","","","tol_peg_2","525","525","0","[[3,2,0],[0,0],[0]]","18","[[1,0,0],[2,3],[0]]","5","0","","","","","","6","","","","","","","","",""
"","","","","","single-stim-button","151","287130","0.0-2.0-25.17-1.17","5e3bb7770e53243ce0376fe1","B2","batch2","","567","tol_toboard","","","","tol_peg_3","567","567","0","[[3,2,0],[0,0],[1]]","18","[[1,0,0],[2,3],[0]]","5","0","","","","","","6","","","","","","","","",""
"","","","","","single-stim-button","152","288269","0.0-2.0-25.18-0.18","5e3bb7770e53243ce0376fe1","B2","batch2","","1139","tol_tohand","","","","tol_peg_1","1139","1139","0","[[3,0,0],[0,0],[1]]","19","[[1,0,0],[2,3],[0]]","5","0","","","","","","6","","","","","","","","",""
"","","","","","single-stim-button","153","289159","0.0-2.0-25.18-1.18","5e3bb7770e53243ce0376fe1","B2","batch2","","889","tol_toboard","","","","tol_peg_2","889","889","0","[[3,0,0],[2,0],[1]]","19","[[1,0,0],[2,3],[0]]","5","0","","","","","","6","","","","","","","","",""
"","","","","","single-stim-button","154","289727","0.0-2.0-25.19-0.19","5e3bb7770e53243ce0376fe1","B2","batch2","","568","tol_tohand","","","","tol_peg_1","568","568","0","[[0,0,0],[2,0],[1]]","20","[[1,0,0],[2,3],[0]]","5","0","","","","","","6","","","","","","","","",""
"","","","","","single-stim-button","155","290268","0.0-2.0-25.19-1.19","5e3bb7770e53243ce0376fe1","B2","batch2","","541","tol_toboard","","","","tol_peg_2","541","541","0","[[0,0,0],[2,3],[1]]","20","[[1,0,0],[2,3],[0]]","5","0","","","","","","6","","","","","","","","",""
"","","","","","single-stim-button","156","291146","0.0-2.0-25.20-0.20","5e3bb7770e53243ce0376fe1","B2","batch2","","878","tol_tohand","","","","tol_peg_3","878","878","0","[[0,0,0],[2,3],[0]]","21","[[1,0,0],[2,3],[0]]","5","0","","","","","","6","","","","","","","","",""
"","","","","","single-stim-button","157","292225","0.0-2.0-25.20-1.20","5e3bb7770e53243ce0376fe1","B2","batch2","","1079","tol_toboard","","","","tol_peg_1","1079","1079","0","[[1,0,0],[2,3],[0]]","21","[[1,0,0],[2,3],[0]]","5","0","","","","","","6","","","","","","","","",""
"","","","","","poldrack-single-stim","158","293237","0.0-2.0-26.0","5e3bb7770e53243ce0376fe1","B2","batch2","","-1","tol_feedback","","","true","","1000","1000","500","","","","","","-1","none","true","4440","25019","","","","","","","","","",""
"","","","","","html-button-response","159","294207","0.0-2.0-27.0","5e3bb7770e53243ce0376fe1","B2","batch2","","968.7999999523163","tol_trial_num","<div class = centerbox><p class = center-block-text>problem <strong>7</strong> out of 25 problems</p></div>","0","","","","","","","","","","","","","","","","","","","","","","","","",""
"","","","","","single-stim-button","160","299951","0.0-2.0-28.0-0.0","5e3bb7770e53243ce0376fe1","B2","batch2","","5744","tol_tohand","","","","tol_peg_3","5744","5744","0","[[2,1,0],[0,0],[0]]","1","[[1,2,0],[3,0],[0]]","6","0","","","","","","5","","","","","","","","",""
"","","","","","single-stim-button","161","300712","0.0-2.0-28.0-1.0","5e3bb7770e53243ce0376fe1","B2","batch2","","761","tol_toboard","","","","tol_peg_2","761","761","0","[[2,1,0],[3,0],[0]]","1","[[1,2,0],[3,0],[0]]","6","0","","","","","","5","","","","","","","","",""
"","","","","","single-stim-button","162","301430","0.0-2.0-28.1-0.1","5e3bb7770e53243ce0376fe1","B2","batch2","","718","tol_tohand","","","","tol_peg_1","718","718","0","[[2,0,0],[3,0],[0]]","2","[[1,2,0],[3,0],[0]]","6","0","","","","","","5","","","","","","","","",""
"","","","","","single-stim-button","163","302098","0.0-2.0-28.1-1.1","5e3bb7770e53243ce0376fe1","B2","batch2","","667","tol_toboard","","","","tol_peg_3","667","667","0","[[2,0,0],[3,0],[1]]","2","[[1,2,0],[3,0],[0]]","6","0","","","","","","5","","","","","","","","",""
"","","","","","single-stim-button","164","302741","0.0-2.0-28.2-0.2","5e3bb7770e53243ce0376fe1","B2","batch2","","642","tol_tohand","","","","tol_peg_1","642","642","0","[[0,0,0],[3,0],[1]]","3","[[1,2,0],[3,0],[0]]","6","0","","","","","","5","","","","","","","","",""
"","","","","","single-stim-button","165","303280","0.0-2.0-28.2-1.2","5e3bb7770e53243ce0376fe1","B2","batch2","","539","tol_toboard","","","","tol_peg_2","539","539","0","[[0,0,0],[3,2],[1]]","3","[[1,2,0],[3,0],[0]]","6","0","","","","","","5","","","","","","","","",""
"","","","","","single-stim-button","166","303816","0.0-2.0-28.3-0.3","5e3bb7770e53243ce0376fe1","B2","batch2","","535","tol_tohand","","","","tol_peg_3","535","535","0","[[0,0,0],[3,2],[0]]","4","[[1,2,0],[3,0],[0]]","6","0","","","","","","5","","","","","","","","",""
"","","","","","single-stim-button","167","304603","0.0-2.0-28.3-1.3","5e3bb7770e53243ce0376fe1","B2","batch2","","786","tol_toboard","","","","tol_peg_1","786","786","0","[[1,0,0],[3,2],[0]]","4","[[1,2,0],[3,0],[0]]","6","0","","","","","","5","","","","","","","","",""
"","","","","","single-stim-button","168","305086","0.0-2.0-28.4-0.4","5e3bb7770e53243ce0376fe1","B2","batch2","","483","tol_tohand","","","","tol_peg_2","483","483","0","[[1,0,0],[3,0],[0]]","5","[[1,2,0],[3,0],[0]]","6","0","","","","","","5","","","","","","","","",""
"","","","","","single-stim-button","169","305622","0.0-2.0-28.4-1.4","5e3bb7770e53243ce0376fe1","B2","batch2","","536","tol_toboard","","","","tol_peg_1","536","536","0","[[1,2,0],[3,0],[0]]","5","[[1,2,0],[3,0],[0]]","6","0","","","","","","5","","","","","","","","",""
"","","","","","poldrack-single-stim","170","306624","0.0-2.0-29.0","5e3bb7770e53243ce0376fe1","B2","batch2","","-1","tol_feedback","","","true","","1000","1000","500","","","","","","-1","none","true","5744","8122","","","","","","","","","",""
"","","","","","html-button-response","171","307312","0.0-2.0-30.0","5e3bb7770e53243ce0376fe1","B2","batch2","","687.2000000476837","tol_trial_num","<div class = centerbox><p class = center-block-text>problem <strong>8</strong> out of 25 problems</p></div>","0","","","","","","","","","","","","","","","","","","","","","","","","",""
"","","","","","single-stim-button","172","310593","0.0-2.0-31.0-0.0","5e3bb7770e53243ce0376fe1","B2","batch2","","3280","tol_tohand","","","","tol_peg_3","3280","3280","0","[[0,0,0],[2,3],[0]]","1","[[1,2,0],[3,0],[0]]","7","0","","","","","","4","","","","","","","","",""
"","","","","","single-stim-button","173","311503","0.0-2.0-31.0-1.0","5e3bb7770e53243ce0376fe1","B2","batch2","","909","tol_toboard","","","","tol_peg_1","909","909","0","[[1,0,0],[2,3],[0]]","1","[[1,2,0],[3,0],[0]]","7","0","","","","","","4","","","","","","","","",""
"","","","","","single-stim-button","174","312003","0.0-2.0-31.1-0.1","5e3bb7770e53243ce0376fe1","B2","batch2","","499","tol_tohand","","","","tol_peg_2","499","499","0","[[1,0,0],[2,0],[0]]","2","[[1,2,0],[3,0],[0]]","7","0","","","","","","4","","","","","","","","",""
"","","","","","single-stim-button","175","312744","0.0-2.0-31.1-1.1","5e3bb7770e53243ce0376fe1","B2","batch2","","740","tol_toboard","","","","tol_peg_3","740","740","0","[[1,0,0],[2,0],[3]]","2","[[1,2,0],[3,0],[0]]","7","0","","","","","","4","","","","","","","","",""
"","","","","","single-stim-button","176","313102","0.0-2.0-31.2-0.2","5e3bb7770e53243ce0376fe1","B2","batch2","","358","tol_tohand","","","","tol_peg_2","358","358","0","[[1,0,0],[0,0],[3]]","3","[[1,2,0],[3,0],[0]]","7","0","","","","","","4","","","","","","","","",""
"","","","","","single-stim-button","177","313641","0.0-2.0-31.2-1.2","5e3bb7770e53243ce0376fe1","B2","batch2","","538","tol_toboard","","","","tol_peg_1","538","538","0","[[1,2,0],[0,0],[3]]","3","[[1,2,0],[3,0],[0]]","7","0","","","","","","4","","","","","","","","",""
"","","","","","single-stim-button","178","314101","0.0-2.0-31.3-0.3","5e3bb7770e53243ce0376fe1","B2","batch2","","460","tol_tohand","","","","tol_peg_3","460","460","0","[[1,2,0],[0,0],[0]]","4","[[1,2,0],[3,0],[0]]","7","0","","","","","","4","","","","","","","","",""
"","","","","","single-stim-button","179","314548","0.0-2.0-31.3-1.3","5e3bb7770e53243ce0376fe1","B2","batch2","","446","tol_toboard","","","","tol_peg_2","446","446","0","[[1,2,0],[3,0],[0]]","4","[[1,2,0],[3,0],[0]]","7","0","","","","","","4","","","","","","","","",""
"","","","","","poldrack-single-stim","180","315559","0.0-2.0-32.0","5e3bb7770e53243ce0376fe1","B2","batch2","","-1","tol_feedback","","","true","","1000","1000","500","","","","","","-1","none","true","3280","4597","","","","","","","","","",""
"","","","","","html-button-response","181","316278","0.0-2.0-33.0","5e3bb7770e53243ce0376fe1","B2","batch2","","718.4000000953674","tol_trial_num","<div class = centerbox><p class = center-block-text>problem <strong>9</strong> out of 25 problems</p></div>","0","","","","","","","","","","","","","","","","","","","","","","","","",""
"","","","","","single-stim-button","182","325379","0.0-2.0-34.0-0.0","5e3bb7770e53243ce0376fe1","B2","batch2","","9100","tol_tohand","","","","tol_peg_1","9100","9100","0","[[3,0,0],[0,0],[1]]","1","[[2,1,0],[3,0],[0]]","8","0","","","","","","6","","","","","","","","",""
"","","","","","single-stim-button","183","326046","0.0-2.0-34.0-1.0","5e3bb7770e53243ce0376fe1","B2","batch2","","666","tol_toboard","","","","tol_peg_2","666","666","0","[[3,0,0],[2,0],[1]]","1","[[2,1,0],[3,0],[0]]","8","0","","","","","","6","","","","","","","","",""
"","","","","","single-stim-button","184","326624","0.0-2.0-34.1-0.1","5e3bb7770e53243ce0376fe1","B2","batch2","","578","tol_tohand","","","","tol_peg_1","578","578","0","[[0,0,0],[2,0],[1]]","2","[[2,1,0],[3,0],[0]]","8","0","","","","","","6","","","","","","","","",""
"","","","","","single-stim-button","185","327220","0.0-2.0-34.1-1.1","5e3bb7770e53243ce0376fe1","B2","batch2","","594","tol_toboard","","","","tol_peg_2","594","594","0","[[0,0,0],[2,3],[1]]","2","[[2,1,0],[3,0],[0]]","8","0","","","","","","6","","","","","","","","",""
"","","","","","single-stim-button","186","328983","0.0-2.0-34.2-0.2","5e3bb7770e53243ce0376fe1","B2","batch2","","1762","tol_tohand","","","","tol_peg_3","1762","1762","0","[[0,0,0],[2,3],[0]]","3","[[2,1,0],[3,0],[0]]","8","0","","","","","","6","","","","","","","","",""
"","","","","","single-stim-button","187","330681","0.0-2.0-34.2-1.2","5e3bb7770e53243ce0376fe1","B2","batch2","","1698","tol_toboard","","","","tol_peg_1","1698","1698","0","[[1,0,0],[2,3],[0]]","3","[[2,1,0],[3,0],[0]]","8","0","","","","","","6","","","","","","","","",""
"","","","","","single-stim-button","188","335619","0.0-2.0-34.3-0.3","5e3bb7770e53243ce0376fe1","B2","batch2","","4938","tol_tohand","","","","tol_peg_2","4938","4938","0","[[1,0,0],[2,0],[0]]","4","[[2,1,0],[3,0],[0]]","8","0","","","","","","6","","","","","","","","",""
"","","","","","single-stim-button","189","337237","0.0-2.0-34.3-1.3","5e3bb7770e53243ce0376fe1","B2","batch2","","1617","tol_toboard","","","","tol_peg_3","1617","1617","0","[[1,0,0],[2,0],[3]]","4","[[2,1,0],[3,0],[0]]","8","0","","","","","","6","","","","","","","","",""
"","","","","","single-stim-button","190","337809","0.0-2.0-34.4-0.4","5e3bb7770e53243ce0376fe1","B2","batch2","","571","tol_tohand","","","","tol_peg_1","571","571","0","[[0,0,0],[2,0],[3]]","5","[[2,1,0],[3,0],[0]]","8","0","","","","","","6","","","","","","","","",""
"","","","","","single-stim-button","191","338421","0.0-2.0-34.4-1.4","5e3bb7770e53243ce0376fe1","B2","batch2","","611","tol_toboard","","","","tol_peg_2","611","611","0","[[0,0,0],[2,1],[3]]","5","[[2,1,0],[3,0],[0]]","8","0","","","","","","6","","","","","","","","",""
"","","","","","single-stim-button","192","340365","0.0-2.0-34.5-0.5","5e3bb7770e53243ce0376fe1","B2","batch2","","1944","tol_tohand","","","","tol_peg_3","1944","1944","0","[[0,0,0],[2,1],[0]]","6","[[2,1,0],[3,0],[0]]","8","0","","","","","","6","","","","","","","","",""
"","","","","","single-stim-button","193","341187","0.0-2.0-34.5-1.5","5e3bb7770e53243ce0376fe1","B2","batch2","","821","tol_toboard","","","","tol_peg_1","821","821","0","[[3,0,0],[2,1],[0]]","6","[[2,1,0],[3,0],[0]]","8","0","","","","","","6","","","","","","","","",""
"","","","","","single-stim-button","194","343298","0.0-2.0-34.6-0.6","5e3bb7770e53243ce0376fe1","B2","batch2","","2110","tol_tohand","","","","tol_peg_2","2110","2110","0","[[3,0,0],[2,0],[0]]","7","[[2,1,0],[3,0],[0]]","8","0","","","","","","6","","","","","","","","",""
"","","","","","single-stim-button","195","346454","0.0-2.0-34.6-1.6","5e3bb7770e53243ce0376fe1","B2","batch2","","3155","tol_toboard","","","","tol_peg_1","3155","3155","0","[[3,1,0],[2,0],[0]]","7","[[2,1,0],[3,0],[0]]","8","0","","","","","","6","","","","","","","","",""
"","","","","","single-stim-button","196","347056","0.0-2.0-34.7-0.7","5e3bb7770e53243ce0376fe1","B2","batch2","","601","tol_tohand","","","","tol_peg_2","601","601","0","[[3,1,0],[0,0],[0]]","8","[[2,1,0],[3,0],[0]]","8","0","","","","","","6","","","","","","","","",""
"","","","","","single-stim-button","197","347628","0.0-2.0-34.7-1.7","5e3bb7770e53243ce0376fe1","B2","batch2","","571","tol_toboard","","","","tol_peg_3","571","571","0","[[3,1,0],[0,0],[2]]","8","[[2,1,0],[3,0],[0]]","8","0","","","","","","6","","","","","","","","",""
"","","","","","single-stim-button","198","352541","0.0-2.0-34.8-0.8","5e3bb7770e53243ce0376fe1","B2","batch2","","4912","tol_tohand","","","","tol_peg_1","4912","4912","0","[[3,0,0],[0,0],[2]]","9","[[2,1,0],[3,0],[0]]","8","0","","","","","","6","","","","","","","","",""
"","","","","","single-stim-button","199","353299","0.0-2.0-34.8-1.8","5e3bb7770e53243ce0376fe1","B2","batch2","","757","tol_toboard","","","","tol_peg_2","757","757","0","[[3,0,0],[1,0],[2]]","9","[[2,1,0],[3,0],[0]]","8","0","","","","","","6","","","","","","","","",""
"","","","","","single-stim-button","200","354776","0.0-2.0-34.9-0.9","5e3bb7770e53243ce0376fe1","B2","batch2","","1476","tol_tohand","","","","tol_peg_1","1476","1476","0","[[0,0,0],[1,0],[2]]","10","[[2,1,0],[3,0],[0]]","8","0","","","","","","6","","","","","","","","",""
"","","","","","single-stim-button","201","355395","0.0-2.0-34.9-1.9","5e3bb7770e53243ce0376fe1","B2","batch2","","618","tol_toboard","","","","tol_peg_2","618","618","0","[[0,0,0],[1,3],[2]]","10","[[2,1,0],[3,0],[0]]","8","0","","","","","","6","","","","","","","","",""
"","","","","","single-stim-button","202","356079","0.0-2.0-34.10-0.10","5e3bb7770e53243ce0376fe1","B2","batch2","","683","tol_tohand","","","","tol_peg_3","683","683","0","[[0,0,0],[1,3],[0]]","11","[[2,1,0],[3,0],[0]]","8","0","","","","","","6","","","","","","","","",""
"","","","","","single-stim-button","203","356875","0.0-2.0-34.10-1.10","5e3bb7770e53243ce0376fe1","B2","batch2","","795","tol_toboard","","","","tol_peg_1","795","795","0","[[2,0,0],[1,3],[0]]","11","[[2,1,0],[3,0],[0]]","8","0","","","","","","6","","","","","","","","",""
"","","","","","single-stim-button","204","357533","0.0-2.0-34.11-0.11","5e3bb7770e53243ce0376fe1","B2","batch2","","656","tol_tohand","","","","tol_peg_2","656","656","0","[[2,0,0],[1,0],[0]]","12","[[2,1,0],[3,0],[0]]","8","0","","","","","","6","","","","","","","","",""
"","","","","","single-stim-button","205","358169","0.0-2.0-34.11-1.11","5e3bb7770e53243ce0376fe1","B2","batch2","","636","tol_toboard","","","","tol_peg_3","636","636","0","[[2,0,0],[1,0],[3]]","12","[[2,1,0],[3,0],[0]]","8","0","","","","","","6","","","","","","","","",""
"","","","","","single-stim-button","206","358599","0.0-2.0-34.12-0.12","5e3bb7770e53243ce0376fe1","B2","batch2","","428","tol_tohand","","","","tol_peg_2","428","428","0","[[2,0,0],[0,0],[3]]","13","[[2,1,0],[3,0],[0]]","8","0","","","","","","6","","","","","","","","",""
"","","","","","single-stim-button","207","359275","0.0-2.0-34.12-1.12","5e3bb7770e53243ce0376fe1","B2","batch2","","676","tol_toboard","","","","tol_peg_1","676","676","0","[[2,1,0],[0,0],[3]]","13","[[2,1,0],[3,0],[0]]","8","0","","","","","","6","","","","","","","","",""
"","","","","","single-stim-button","208","360003","0.0-2.0-34.13-0.13","5e3bb7770e53243ce0376fe1","B2","batch2","","726","tol_tohand","","","","tol_peg_3","726","726","0","[[2,1,0],[0,0],[0]]","14","[[2,1,0],[3,0],[0]]","8","0","","","","","","6","","","","","","","","",""
"","","","","","single-stim-button","209","360547","0.0-2.0-34.13-1.13","5e3bb7770e53243ce0376fe1","B2","batch2","","544","tol_toboard","","","","tol_peg_2","544","544","0","[[2,1,0],[3,0],[0]]","14","[[2,1,0],[3,0],[0]]","8","0","","","","","","6","","","","","","","","",""
"","","","","","poldrack-single-stim","210","361556","0.0-2.0-35.0","5e3bb7770e53243ce0376fe1","B2","batch2","","-1","tol_feedback","","","true","","1000","1000","500","","","","","","-1","none","true","9100","30485","","","","","","","","","",""
"","","","","","html-button-response","211","362519","0.0-2.0-36.0","5e3bb7770e53243ce0376fe1","B2","batch2","","962.5","tol_trial_num","<div class = centerbox><p class = center-block-text>problem <strong>10</strong> out of 25 problems</p></div>","0","","","","","","","","","","","","","","","","","","","","","","","","",""
"","","","","","single-stim-button","212","368032","0.0-2.0-37.0-0.0","5e3bb7770e53243ce0376fe1","B2","batch2","","5512","tol_tohand","","","","tol_peg_2","5512","5512","0","[[3,0,0],[0,0],[2]]","1","[[3,0,0],[2,1],[0]]","9","0","","","","","","3","","","","","","","","",""
"","","","","","single-stim-button","213","368617","0.0-2.0-37.0-1.0","5e3bb7770e53243ce0376fe1","B2","batch2","","584","tol_toboard","","","","tol_peg_1","584","584","0","[[3,1,0],[0,0],[2]]","1","[[3,0,0],[2,1],[0]]","9","0","","","","","","3","","","","","","","","",""
"","","","","","single-stim-button","214","369090","0.0-2.0-37.1-0.1","5e3bb7770e53243ce0376fe1","B2","batch2","","472","tol_tohand","","","","tol_peg_3","472","472","0","[[3,1,0],[0,0],[0]]","2","[[3,0,0],[2,1],[0]]","9","0","","","","","","3","","","","","","","","",""
"","","","","","single-stim-button","215","369696","0.0-2.0-37.1-1.1","5e3bb7770e53243ce0376fe1","B2","batch2","","605","tol_toboard","","","","tol_peg_2","605","605","0","[[3,1,0],[2,0],[0]]","2","[[3,0,0],[2,1],[0]]","9","0","","","","","","3","","","","","","","","",""
"","","","","","single-stim-button","216","370150","0.0-2.0-37.2-0.2","5e3bb7770e53243ce0376fe1","B2","batch2","","453","tol_tohand","","","","tol_peg_1","453","453","0","[[3,0,0],[2,0],[0]]","3","[[3,0,0],[2,1],[0]]","9","0","","","","","","3","","","","","","","","",""
"","","","","","single-stim-button","217","370686","0.0-2.0-37.2-1.2","5e3bb7770e53243ce0376fe1","B2","batch2","","535","tol_toboard","","","","tol_peg_2","535","535","0","[[3,0,0],[2,1],[0]]","3","[[3,0,0],[2,1],[0]]","9","0","","","","","","3","","","","","","","","",""
"","","","","","poldrack-single-stim","218","371693","0.0-2.0-38.0","5e3bb7770e53243ce0376fe1","B2","batch2","","-1","tol_feedback","","","true","","1000","1000","500","","","","","","-1","none","true","5512","6437","","","","","","","","","",""
"","","","","","html-button-response","219","372479","0.0-2.0-39.0","5e3bb7770e53243ce0376fe1","B2","batch2","","785.6000001430511","tol_trial_num","<div class = centerbox><p class = center-block-text>problem <strong>11</strong> out of 25 problems</p></div>","0","","","","","","","","","","","","","","","","","","","","","","","","",""
"","","","","","single-stim-button","220","376320","0.0-2.0-40.0-0.0","5e3bb7770e53243ce0376fe1","B2","batch2","","3840","tol_tohand","","","","tol_peg_1","3840","3840","0","[[1,0,0],[3,0],[0]]","1","[[2,0,0],[1,3],[0]]","10","0","","","","","","6","","","","","","","","",""
"","","","","","single-stim-button","221","376945","0.0-2.0-40.0-1.0","5e3bb7770e53243ce0376fe1","B2","batch2","","624","tol_toboard","","","","tol_peg_3","624","624","0","[[1,0,0],[3,0],[2]]","1","[[2,0,0],[1,3],[0]]","10","0","","","","","","6","","","","","","","","",""
"","","","","","single-stim-button","222","377473","0.0-2.0-40.1-0.1","5e3bb7770e53243ce0376fe1","B2","batch2","","527","tol_tohand","","","","tol_peg_1","527","527","0","[[0,0,0],[3,0],[2]]","2","[[2,0,0],[1,3],[0]]","10","0","","","","","","6","","","","","","","","",""
"","","","","","single-stim-button","223","377889","0.0-2.0-40.1-1.1","5e3bb7770e53243ce0376fe1","B2","batch2","","416","tol_toboard","","","","tol_peg_2","416","416","0","[[0,0,0],[3,1],[2]]","2","[[2,0,0],[1,3],[0]]","10","0","","","","","","6","","","","","","","","",""
"","","","","","single-stim-button","224","378540","0.0-2.0-40.2-0.2","5e3bb7770e53243ce0376fe1","B2","batch2","","651","tol_tohand","","","","tol_peg_3","651","651","0","[[0,0,0],[3,1],[0]]","3","[[2,0,0],[1,3],[0]]","10","0","","","","","","6","","","","","","","","",""
"","","","","","single-stim-button","225","379264","0.0-2.0-40.2-1.2","5e3bb7770e53243ce0376fe1","B2","batch2","","723","tol_toboard","","","","tol_peg_1","723","723","0","[[2,0,0],[3,1],[0]]","3","[[2,0,0],[1,3],[0]]","10","0","","","","","","6","","","","","","","","",""
"","","","","","single-stim-button","226","379920","0.0-2.0-40.3-0.3","5e3bb7770e53243ce0376fe1","B2","batch2","","655","tol_tohand","","","","tol_peg_2","655","655","0","[[2,0,0],[3,0],[0]]","4","[[2,0,0],[1,3],[0]]","10","0","","","","","","6","","","","","","","","",""
"","","","","","single-stim-button","227","380445","0.0-2.0-40.3-1.3","5e3bb7770e53243ce0376fe1","B2","batch2","","524","tol_toboard","","","","tol_peg_3","524","524","0","[[2,0,0],[3,0],[1]]","4","[[2,0,0],[1,3],[0]]","10","0","","","","","","6","","","","","","","","",""
"","","","","","single-stim-button","228","380832","0.0-2.0-40.4-0.4","5e3bb7770e53243ce0376fe1","B2","batch2","","385","tol_tohand","","","","tol_peg_2","385","385","0","[[2,0,0],[0,0],[1]]","5","[[2,0,0],[1,3],[0]]","10","0","","","","","","6","","","","","","","","",""
"","","","","","single-stim-button","229","381739","0.0-2.0-40.4-1.4","5e3bb7770e53243ce0376fe1","B2","batch2","","907","tol_toboard","","","","tol_peg_1","907","907","0","[[2,3,0],[0,0],[1]]","5","[[2,0,0],[1,3],[0]]","10","0","","","","","","6","","","","","","","","",""
"","","","","","single-stim-button","230","382391","0.0-2.0-40.5-0.5","5e3bb7770e53243ce0376fe1","B2","batch2","","651","tol_tohand","","","","tol_peg_3","651","651","0","[[2,3,0],[0,0],[0]]","6","[[2,0,0],[1,3],[0]]","10","0","","","","","","6","","","","","","","","",""
"","","","","","single-stim-button","231","382837","0.0-2.0-40.5-1.5","5e3bb7770e53243ce0376fe1","B2","batch2","","445","tol_toboard","","","","tol_peg_2","445","445","0","[[2,3,0],[1,0],[0]]","6","[[2,0,0],[1,3],[0]]","10","0","","","","","","6","","","","","","","","",""
"","","","","","single-stim-button","232","383349","0.0-2.0-40.6-0.6","5e3bb7770e53243ce0376fe1","B2","batch2","","511","tol_tohand","","","","tol_peg_1","511","511","0","[[2,0,0],[1,0],[0]]","7","[[2,0,0],[1,3],[0]]","10","0","","","","","","6","","","","","","","","",""
"","","","","","single-stim-button","233","383755","0.0-2.0-40.6-1.6","5e3bb7770e53243ce0376fe1","B2","batch2","","406","tol_toboard","","","","tol_peg_2","406","406","0","[[2,0,0],[1,3],[0]]","7","[[2,0,0],[1,3],[0]]","10","0","","","","","","6","","","","","","","","",""
"","","","","","poldrack-single-stim","234","384763","0.0-2.0-41.0","5e3bb7770e53243ce0376fe1","B2","batch2","","-1","tol_feedback","","","true","","1000","1000","500","","","","","","-1","none","true","3840","7220","","","","","","","","","",""
"","","","","","html-button-response","235","385623","0.0-2.0-42.0","5e3bb7770e53243ce0376fe1","B2","batch2","","859.1000001430511","tol_trial_num","<div class = centerbox><p class = center-block-text>problem <strong>12</strong> out of 25 problems</p></div>","0","","","","","","","","","","","","","","","","","","","","","","","","",""
"","","","","","single-stim-button","236","390445","0.0-2.0-43.0-0.0","5e3bb7770e53243ce0376fe1","B2","batch2","","4821","tol_tohand","","","","tol_peg_1","4821","4821","0","[[1,0,0],[3,0],[0]]","1","[[2,3,0],[0,0],[1]]","11","0","","","","","","4","","","","","","","","",""
"","","","","","single-stim-button","237","391045","0.0-2.0-43.0-1.0","5e3bb7770e53243ce0376fe1","B2","batch2","","599","tol_toboard","","","","tol_peg_2","599","599","0","[[1,0,0],[3,2],[0]]","1","[[2,3,0],[0,0],[1]]","11","0","","","","","","4","","","","","","","","",""
"","","","","","single-stim-button","238","394626","0.0-2.0-43.1-0.1","5e3bb7770e53243ce0376fe1","B2","batch2","","3579","tol_tohand","","","","tol_peg_1","3579","3579","0","[[0,0,0],[3,2],[0]]","2","[[2,3,0],[0,0],[1]]","11","0","","","","","","4","","","","","","","","",""
"","","","","","single-stim-button","239","395379","0.0-2.0-43.1-1.1","5e3bb7770e53243ce0376fe1","B2","batch2","","753","tol_toboard","","","","tol_peg_3","753","753","0","[[0,0,0],[3,2],[1]]","2","[[2,3,0],[0,0],[1]]","11","0","","","","","","4","","","","","","","","",""
"","","","","","single-stim-button","240","395925","0.0-2.0-43.2-0.2","5e3bb7770e53243ce0376fe1","B2","batch2","","546","tol_tohand","","","","tol_peg_2","546","546","0","[[0,0,0],[3,0],[1]]","3","[[2,3,0],[0,0],[1]]","11","0","","","","","","4","","","","","","","","",""
"","","","","","single-stim-button","241","396472","0.0-2.0-43.2-1.2","5e3bb7770e53243ce0376fe1","B2","batch2","","546","tol_toboard","","","","tol_peg_1","546","546","0","[[2,0,0],[3,0],[1]]","3","[[2,3,0],[0,0],[1]]","11","0","","","","","","4","","","","","","","","",""
"","","","","","single-stim-button","242","396934","0.0-2.0-43.3-0.3","5e3bb7770e53243ce0376fe1","B2","batch2","","461","tol_tohand","","","","tol_peg_2","461","461","0","[[2,0,0],[0,0],[1]]","4","[[2,3,0],[0,0],[1]]","11","0","","","","","","4","","","","","","","","",""
"","","","","","single-stim-button","243","397505","0.0-2.0-43.3-1.3","5e3bb7770e53243ce0376fe1","B2","batch2","","571","tol_toboard","","","","tol_peg_1","571","571","0","[[2,3,0],[0,0],[1]]","4","[[2,3,0],[0,0],[1]]","11","0","","","","","","4","","","","","","","","",""
"","","","","","poldrack-single-stim","244","398506","0.0-2.0-44.0","5e3bb7770e53243ce0376fe1","B2","batch2","","-1","tol_feedback","","","true","","1000","1000","500","","","","","","-1","none","true","4821","9407","","","","","","","","","",""
"","","","","","html-button-response","245","399088","0.0-2.0-45.0","5e3bb7770e53243ce0376fe1","B2","batch2","","581.1999998092651","tol_trial_num","<div class = centerbox><p class = center-block-text>problem <strong>13</strong> out of 25 problems</p></div>","0","","","","","","","","","","","","","","","","","","","","","","","","",""
"","","","","","single-stim-button","246","401898","0.0-2.0-46.0-0.0","5e3bb7770e53243ce0376fe1","B2","batch2","","2810","tol_tohand","","","","tol_peg_2","2810","2810","0","[[1,2,0],[0,0],[0]]","1","[[0,0,0],[2,3],[1]]","12","0","","","","","","4","","","","","","","","",""
"","","","","","single-stim-button","247","404782","0.0-2.0-46.0-1.0","5e3bb7770e53243ce0376fe1","B2","batch2","","2884","tol_toboard","","","","tol_peg_3","2884","2884","0","[[1,2,0],[0,0],[3]]","1","[[0,0,0],[2,3],[1]]","12","0","","","","","","4","","","","","","","","",""
"","","","","","single-stim-button","248","405277","0.0-2.0-46.1-0.1","5e3bb7770e53243ce0376fe1","B2","batch2","","494","tol_tohand","","","","tol_peg_1","494","494","0","[[1,0,0],[0,0],[3]]","2","[[0,0,0],[2,3],[1]]","12","0","","","","","","4","","","","","","","","",""
"","","","","","single-stim-button","249","405875","0.0-2.0-46.1-1.1","5e3bb7770e53243ce0376fe1","B2","batch2","","598","tol_toboard","","","","tol_peg_2","598","598","0","[[1,0,0],[2,0],[3]]","2","[[0,0,0],[2,3],[1]]","12","0","","","","","","4","","","","","","","","",""
"","","","","","single-stim-button","250","407955","0.0-2.0-46.2-0.2","5e3bb7770e53243ce0376fe1","B2","batch2","","2080","tol_tohand","","","","tol_peg_1","2080","2080","0","[[0,0,0],[2,0],[3]]","3","[[0,0,0],[2,3],[1]]","12","0","","","","","","4","","","","","","","","",""
"","","","","","single-stim-button","251","408425","0.0-2.0-46.2-1.2","5e3bb7770e53243ce0376fe1","B2","batch2","","470","tol_toboard","","","","tol_peg_2","470","470","0","[[0,0,0],[2,1],[3]]","3","[[0,0,0],[2,3],[1]]","12","0","","","","","","4","","","","","","","","",""
"","","","","","single-stim-button","252","409961","0.0-2.0-46.3-0.3","5e3bb7770e53243ce0376fe1","B2","batch2","","1535","tol_tohand","","","","tol_peg_3","1535","1535","0","[[0,0,0],[2,1],[0]]","4","[[0,0,0],[2,3],[1]]","12","0","","","","","","4","","","","","","","","",""
"","","","","","single-stim-button","253","410593","0.0-2.0-46.3-1.3","5e3bb7770e53243ce0376fe1","B2","batch2","","632","tol_toboard","","","","tol_peg_1","632","632","0","[[3,0,0],[2,1],[0]]","4","[[0,0,0],[2,3],[1]]","12","0","","","","","","4","","","","","","","","",""
"","","","","","single-stim-button","254","410930","0.0-2.0-46.4-0.4","5e3bb7770e53243ce0376fe1","B2","batch2","","337","tol_tohand","","","","tol_peg_2","337","337","0","[[3,0,0],[2,0],[0]]","5","[[0,0,0],[2,3],[1]]","12","0","","","","","","4","","","","","","","","",""
"","","","","","single-stim-button","255","411473","0.0-2.0-46.4-1.4","5e3bb7770e53243ce0376fe1","B2","batch2","","542","tol_toboard","","","","tol_peg_3","542","542","0","[[3,0,0],[2,0],[1]]","5","[[0,0,0],[2,3],[1]]","12","0","","","","","","4","","","","","","","","",""
"","","","","","single-stim-button","256","411984","0.0-2.0-46.5-0.5","5e3bb7770e53243ce0376fe1","B2","batch2","","511","tol_tohand","","","","tol_peg_1","511","511","0","[[0,0,0],[2,0],[1]]","6","[[0,0,0],[2,3],[1]]","12","0","","","","","","4","","","","","","","","",""
"","","","","","single-stim-button","257","412482","0.0-2.0-46.5-1.5","5e3bb7770e53243ce0376fe1","B2","batch2","","496","tol_toboard","","","","tol_peg_2","496","496","0","[[0,0,0],[2,3],[1]]","6","[[0,0,0],[2,3],[1]]","12","0","","","","","","4","","","","","","","","",""
"","","","","","poldrack-single-stim","258","413483","0.0-2.0-47.0","5e3bb7770e53243ce0376fe1","B2","batch2","","-1","tol_feedback","","","true","","1000","1000","500","","","","","","-1","none","true","2810","7767","","","","","","","","","",""
"","","","","","html-button-response","259","417736","0.0-2.0-48.0","5e3bb7770e53243ce0376fe1","B2","batch2","","4252","attention_check","<p class = block-text>How many balls are in your board<br></p>","1","true","","","","","","","","","","","","","","","","","","","","","","","",""
"","","","","","html-button-response","260","418694","0.0-2.0-49.0","5e3bb7770e53243ce0376fe1","B2","batch2","","957","tol_trial_num","<div class = centerbox><p class = center-block-text>problem <strong>14</strong> out of 25 problems</p></div>","0","","","","","","","","","","","","","","","","","","","","","","","","",""
"","","","","","single-stim-button","261","427723","0.0-2.0-50.0-0.0","5e3bb7770e53243ce0376fe1","B2","batch2","","9029","tol_tohand","","","","tol_peg_1","9029","9029","0","[[2,0,0],[3,0],[0]]","1","[[1,2,0],[3,0],[0]]","13","0","","","","","","4","","","","","","","","",""
"","","","","","single-stim-button","262","428660","0.0-2.0-50.0-1.0","5e3bb7770e53243ce0376fe1","B2","batch2","","937","tol_toboard","","","","tol_peg_3","937","937","0","[[2,0,0],[3,0],[1]]","1","[[1,2,0],[3,0],[0]]","13","0","","","","","","4","","","","","","","","",""
"","","","","","single-stim-button","263","429137","0.0-2.0-50.1-0.1","5e3bb7770e53243ce0376fe1","B2","batch2","","476","tol_tohand","","","","tol_peg_1","476","476","0","[[0,0,0],[3,0],[1]]","2","[[1,2,0],[3,0],[0]]","13","0","","","","","","4","","","","","","","","",""
"","","","","","single-stim-button","264","429580","0.0-2.0-50.1-1.1","5e3bb7770e53243ce0376fe1","B2","batch2","","442","tol_toboard","","","","tol_peg_2","442","442","0","[[0,0,0],[3,2],[1]]","2","[[1,2,0],[3,0],[0]]","13","0","","","","","","4","","","","","","","","",""
"","","","","","single-stim-button","265","430267","0.0-2.0-50.2-0.2","5e3bb7770e53243ce0376fe1","B2","batch2","","687","tol_tohand","","","","tol_peg_3","687","687","0","[[0,0,0],[3,2],[0]]","3","[[1,2,0],[3,0],[0]]","13","0","","","","","","4","","","","","","","","",""
"","","","","","single-stim-button","266","430840","0.0-2.0-50.2-1.2","5e3bb7770e53243ce0376fe1","B2","batch2","","573","tol_toboard","","","","tol_peg_1","573","573","0","[[1,0,0],[3,2],[0]]","3","[[1,2,0],[3,0],[0]]","13","0","","","","","","4","","","","","","","","",""
"","","","","","single-stim-button","267","431227","0.0-2.0-50.3-0.3","5e3bb7770e53243ce0376fe1","B2","batch2","","386","tol_tohand","","","","tol_peg_2","386","386","0","[[1,0,0],[3,0],[0]]","4","[[1,2,0],[3,0],[0]]","13","0","","","","","","4","","","","","","","","",""
"","","","","","single-stim-button","268","431747","0.0-2.0-50.3-1.3","5e3bb7770e53243ce0376fe1","B2","batch2","","519","tol_toboard","","","","tol_peg_1","519","519","0","[[1,2,0],[3,0],[0]]","4","[[1,2,0],[3,0],[0]]","13","0","","","","","","4","","","","","","","","",""
"","","","","","poldrack-single-stim","269","432749","0.0-2.0-51.0","5e3bb7770e53243ce0376fe1","B2","batch2","","-1","tol_feedback","","","true","","1000","1000","500","","","","","","-1","none","true","9029","10578","","","","","","","","","",""
"","","","","","html-button-response","270","433361","0.0-2.0-52.0","5e3bb7770e53243ce0376fe1","B2","batch2","","612","tol_trial_num","<div class = centerbox><p class = center-block-text>problem <strong>15</strong> out of 25 problems</p></div>","0","","","","","","","","","","","","","","","","","","","","","","","","",""
"","","","","","single-stim-button","271","439008","0.0-2.0-53.0-0.0","5e3bb7770e53243ce0376fe1","B2","batch2","","5645","tol_tohand","","","","tol_peg_1","5645","5645","0","[[1,0,0],[3,0],[0]]","1","[[2,0,0],[3,0],[1]]","14","0","","","","","","3","","","","","","","","",""
"","","","","","single-stim-button","272","441540","0.0-2.0-53.0-1.0","5e3bb7770e53243ce0376fe1","B2","batch2","","2531","tol_toboard","","","","tol_peg_3","2531","2531","0","[[1,0,0],[3,0],[2]]","1","[[2,0,0],[3,0],[1]]","14","0","","","","","","3","","","","","","","","",""
"","","","","","single-stim-button","273","442119","0.0-2.0-53.1-0.1","5e3bb7770e53243ce0376fe1","B2","batch2","","579","tol_tohand","","","","tol_peg_1","579","579","0","[[0,0,0],[3,0],[2]]","2","[[2,0,0],[3,0],[1]]","14","0","","","","","","3","","","","","","","","",""
"","","","","","single-stim-button","274","442589","0.0-2.0-53.1-1.1","5e3bb7770e53243ce0376fe1","B2","batch2","","469","tol_toboard","","","","tol_peg_2","469","469","0","[[0,0,0],[3,1],[2]]","2","[[2,0,0],[3,0],[1]]","14","0","","","","","","3","","","","","","","","",""
"","","","","","single-stim-button","275","443102","0.0-2.0-53.2-0.2","5e3bb7770e53243ce0376fe1","B2","batch2","","512","tol_tohand","","","","tol_peg_3","512","512","0","[[0,0,0],[3,1],[0]]","3","[[2,0,0],[3,0],[1]]","14","0","","","","","","3","","","","","","","","",""
"","","","","","single-stim-button","276","443825","0.0-2.0-53.2-1.2","5e3bb7770e53243ce0376fe1","B2","batch2","","722","tol_toboard","","","","tol_peg_1","722","722","0","[[2,0,0],[3,1],[0]]","3","[[2,0,0],[3,0],[1]]","14","0","","","","","","3","","","","","","","","",""
"","","","","","single-stim-button","277","444719","0.0-2.0-53.3-0.3","5e3bb7770e53243ce0376fe1","B2","batch2","","894","tol_tohand","","","","tol_peg_2","894","894","0","[[2,0,0],[3,0],[0]]","4","[[2,0,0],[3,0],[1]]","14","0","","","","","","3","","","","","","","","",""
"","","","","","single-stim-button","278","445508","0.0-2.0-53.3-1.3","5e3bb7770e53243ce0376fe1","B2","batch2","","788","tol_toboard","","","","tol_peg_3","788","788","0","[[2,0,0],[3,0],[1]]","4","[[2,0,0],[3,0],[1]]","14","0","","","","","","3","","","","","","","","",""
"","","","","","poldrack-single-stim","279","446510","0.0-2.0-54.0","5e3bb7770e53243ce0376fe1","B2","batch2","","-1","tol_feedback","","","true","","1000","1000","500","","","","","","-1","none","true","5645","7630","","","","","","","","","",""
"","","","","","html-button-response","280","447316","0.0-2.0-55.0","5e3bb7770e53243ce0376fe1","B2","batch2","","806.2000000476837","tol_trial_num","<div class = centerbox><p class = center-block-text>problem <strong>16</strong> out of 25 problems</p></div>","0","","","","","","","","","","","","","","","","","","","","","","","","",""
"","","","","","single-stim-button","281","454105","0.0-2.0-56.0-0.0","5e3bb7770e53243ce0376fe1","B2","batch2","","6787","tol_tohand","","","","tol_peg_2","6787","6787","0","[[0,0,0],[2,0],[1]]","1","[[2,3,0],[1,0],[0]]","15","0","","","","","","7","","","","","","","","",""
"","","","","","single-stim-button","282","455920","0.0-2.0-56.0-1.0","5e3bb7770e53243ce0376fe1","B2","batch2","","1815","tol_toboard","","","","tol_peg_1","1815","1815","0","[[3,0,0],[2,0],[1]]","1","[[2,3,0],[1,0],[0]]","15","0","","","","","","7","","","","","","","","",""
"","","","","","single-stim-button","283","456420","0.0-2.0-56.1-0.1","5e3bb7770e53243ce0376fe1","B2","batch2","","498","tol_tohand","","","","tol_peg_3","498","498","0","[[3,0,0],[2,0],[0]]","2","[[2,3,0],[1,0],[0]]","15","0","","","","","","7","","","","","","","","",""
"","","","","","single-stim-button","284","456900","0.0-2.0-56.1-1.1","5e3bb7770e53243ce0376fe1","B2","batch2","","480","tol_toboard","","","","tol_peg_2","480","480","0","[[3,0,0],[2,1],[0]]","2","[[2,3,0],[1,0],[0]]","15","0","","","","","","7","","","","","","","","",""
"","","","","","single-stim-button","285","457338","0.0-2.0-56.2-0.2","5e3bb7770e53243ce0376fe1","B2","batch2","","438","tol_tohand","","","","tol_peg_1","438","438","0","[[0,0,0],[2,1],[0]]","3","[[2,3,0],[1,0],[0]]","15","0","","","","","","7","","","","","","","","",""
"","","","","","single-stim-button","286","457837","0.0-2.0-56.2-1.2","5e3bb7770e53243ce0376fe1","B2","batch2","","499","tol_toboard","","","","tol_peg_3","499","499","0","[[0,0,0],[2,1],[3]]","3","[[2,3,0],[1,0],[0]]","15","0","","","","","","7","","","","","","","","",""
"","","","","","single-stim-button","287","459538","0.0-2.0-56.3-0.3","5e3bb7770e53243ce0376fe1","B2","batch2","","1699","tol_tohand","","","","tol_peg_2","1699","1699","0","[[0,0,0],[2,0],[3]]","4","[[2,3,0],[1,0],[0]]","15","0","","","","","","7","","","","","","","","",""
"","","","","","single-stim-button","288","460195","0.0-2.0-56.3-1.3","5e3bb7770e53243ce0376fe1","B2","batch2","","657","tol_toboard","","","","tol_peg_1","657","657","0","[[1,0,0],[2,0],[3]]","4","[[2,3,0],[1,0],[0]]","15","0","","","","","","7","","","","","","","","",""
"","","","","","single-stim-button","289","462228","0.0-2.0-56.4-0.4","5e3bb7770e53243ce0376fe1","B2","batch2","","2032","tol_tohand","","","","tol_peg_3","2032","2032","0","[[1,0,0],[2,0],[0]]","5","[[2,3,0],[1,0],[0]]","15","0","","","","","","7","","","","","","","","",""
"","","","","","single-stim-button","290","462774","0.0-2.0-56.4-1.4","5e3bb7770e53243ce0376fe1","B2","batch2","","546","tol_toboard","","","","tol_peg_2","546","546","0","[[1,0,0],[2,3],[0]]","5","[[2,3,0],[1,0],[0]]","15","0","","","","","","7","","","","","","","","",""
"","","","","","single-stim-button","291","466765","0.0-2.0-56.5-0.5","5e3bb7770e53243ce0376fe1","B2","batch2","","3991","tol_tohand","","","","tol_peg_2","3991","3991","0","[[1,0,0],[2,0],[0]]","6","[[2,3,0],[1,0],[0]]","15","0","","","","","","7","","","","","","","","",""
"","","","","","single-stim-button","292","467198","0.0-2.0-56.5-1.5","5e3bb7770e53243ce0376fe1","B2","batch2","","431","tol_toboard","","","","tol_peg_1","431","431","0","[[1,3,0],[2,0],[0]]","6","[[2,3,0],[1,0],[0]]","15","0","","","","","","7","","","","","","","","",""
"","","","","","single-stim-button","293","467592","0.0-2.0-56.6-0.6","5e3bb7770e53243ce0376fe1","B2","batch2","","394","tol_tohand","","","","tol_peg_2","394","394","0","[[1,3,0],[0,0],[0]]","7","[[2,3,0],[1,0],[0]]","15","0","","","","","","7","","","","","","","","",""
"","","","","","single-stim-button","294","468069","0.0-2.0-56.6-1.6","5e3bb7770e53243ce0376fe1","B2","batch2","","476","tol_toboard","","","","tol_peg_3","476","476","0","[[1,3,0],[0,0],[2]]","7","[[2,3,0],[1,0],[0]]","15","0","","","","","","7","","","","","","","","",""
"","","","","","single-stim-button","295","471238","0.0-2.0-56.7-0.7","5e3bb7770e53243ce0376fe1","B2","batch2","","3168","tol_tohand","","","","tol_peg_1","3168","3168","0","[[1,0,0],[0,0],[2]]","8","[[2,3,0],[1,0],[0]]","15","0","","","","","","7","","","","","","","","",""
"","","","","","single-stim-button","296","471861","0.0-2.0-56.7-1.7","5e3bb7770e53243ce0376fe1","B2","batch2","","622","tol_toboard","","","","tol_peg_2","622","622","0","[[1,0,0],[3,0],[2]]","8","[[2,3,0],[1,0],[0]]","15","0","","","","","","7","","","","","","","","",""
"","","","","","single-stim-button","297","472360","0.0-2.0-56.8-0.8","5e3bb7770e53243ce0376fe1","B2","batch2","","498","tol_tohand","","","","tol_peg_1","498","498","0","[[0,0,0],[3,0],[2]]","9","[[2,3,0],[1,0],[0]]","15","0","","","","","","7","","","","","","","","",""
"","","","","","single-stim-button","298","473309","0.0-2.0-56.8-1.8","5e3bb7770e53243ce0376fe1","B2","batch2","","949","tol_toboard","","","","tol_peg_2","949","949","0","[[0,0,0],[3,1],[2]]","9","[[2,3,0],[1,0],[0]]","15","0","","","","","","7","","","","","","","","",""
"","","","","","single-stim-button","299","473747","0.0-2.0-56.9-0.9","5e3bb7770e53243ce0376fe1","B2","batch2","","438","tol_tohand","","","","tol_peg_3","438","438","0","[[0,0,0],[3,1],[0]]","10","[[2,3,0],[1,0],[0]]","15","0","","","","","","7","","","","","","","","",""
"","","","","","single-stim-button","300","474542","0.0-2.0-56.9-1.9","5e3bb7770e53243ce0376fe1","B2","batch2","","795","tol_toboard","","","","tol_peg_1","795","795","0","[[2,0,0],[3,1],[0]]","10","[[2,3,0],[1,0],[0]]","15","0","","","","","","7","","","","","","","","",""
"","","","","","single-stim-button","301","474879","0.0-2.0-56.10-0.10","5e3bb7770e53243ce0376fe1","B2","batch2","","337","tol_tohand","","","","tol_peg_2","337","337","0","[[2,0,0],[3,0],[0]]","11","[[2,3,0],[1,0],[0]]","15","0","","","","","","7","","","","","","","","",""
"","","","","","single-stim-button","302","475472","0.0-2.0-56.10-1.10","5e3bb7770e53243ce0376fe1","B2","batch2","","593","tol_toboard","","","","tol_peg_3","593","593","0","[[2,0,0],[3,0],[1]]","11","[[2,3,0],[1,0],[0]]","15","0","","","","","","7","","","","","","","","",""
"","","","","","single-stim-button","303","475820","0.0-2.0-56.11-0.11","5e3bb7770e53243ce0376fe1","B2","batch2","","348","tol_tohand","","","","tol_peg_2","348","348","0","[[2,0,0],[0,0],[1]]","12","[[2,3,0],[1,0],[0]]","15","0","","","","","","7","","","","","","","","",""
"","","","","","single-stim-button","304","476361","0.0-2.0-56.11-1.11","5e3bb7770e53243ce0376fe1","B2","batch2","","541","tol_toboard","","","","tol_peg_1","541","541","0","[[2,3,0],[0,0],[1]]","12","[[2,3,0],[1,0],[0]]","15","0","","","","","","7","","","","","","","","",""
"","","","","","single-stim-button","305","477763","0.0-2.0-56.12-0.12","5e3bb7770e53243ce0376fe1","B2","batch2","","1402","tol_tohand","","","","tol_peg_3","1402","1402","0","[[2,3,0],[0,0],[0]]","13","[[2,3,0],[1,0],[0]]","15","0","","","","","","7","","","","","","","","",""
"","","","","","single-stim-button","306","478112","0.0-2.0-56.12-1.12","5e3bb7770e53243ce0376fe1","B2","batch2","","349","tol_toboard","","","","tol_peg_2","349","349","0","[[2,3,0],[1,0],[0]]","13","[[2,3,0],[1,0],[0]]","15","0","","","","","","7","","","","","","","","",""
"","","","","","poldrack-single-stim","307","479114","0.0-2.0-57.0","5e3bb7770e53243ce0376fe1","B2","batch2","","-1","tol_feedback","","","true","","1000","1000","500","","","","","","-1","none","true","6787","22030","","","","","","","","","",""
"","","","","","html-button-response","308","479749","0.0-2.0-58.0","5e3bb7770e53243ce0376fe1","B2","batch2","","634.0999999046326","tol_trial_num","<div class = centerbox><p class = center-block-text>problem <strong>17</strong> out of 25 problems</p></div>","0","","","","","","","","","","","","","","","","","","","","","","","","",""
"","","","","","single-stim-button","309","488977","0.0-2.0-59.0-0.0","5e3bb7770e53243ce0376fe1","B2","batch2","","9228","tol_tohand","","","","tol_peg_1","9228","9228","0","[[1,0,0],[3,0],[0]]","1","[[3,1,0],[2,0],[0]]","16","0","","","","","","5","","","","","","","","",""
"","","","","","single-stim-button","310","493336","0.0-2.0-59.0-1.0","5e3bb7770e53243ce0376fe1","B2","batch2","","4359","tol_toboard","","","","tol_peg_1","4359","4359","0","[[1,2,0],[3,0],[0]]","1","[[3,1,0],[2,0],[0]]","16","0","","","","","","5","","","","","","","","",""
"","","","","","single-stim-button","311","494042","0.0-2.0-59.1-0.1","5e3bb7770e53243ce0376fe1","B2","batch2","","706","tol_tohand","","","","tol_peg_2","706","706","0","[[1,2,0],[0,0],[0]]","2","[[3,1,0],[2,0],[0]]","16","0","","","","","","5","","","","","","","","",""
"","","","","","single-stim-button","312","494633","0.0-2.0-59.1-1.1","5e3bb7770e53243ce0376fe1","B2","batch2","","590","tol_toboard","","","","tol_peg_3","590","590","0","[[1,2,0],[0,0],[3]]","2","[[3,1,0],[2,0],[0]]","16","0","","","","","","5","","","","","","","","",""
"","","","","","single-stim-button","313","495328","0.0-2.0-59.2-0.2","5e3bb7770e53243ce0376fe1","B2","batch2","","695","tol_tohand","","","","tol_peg_1","695","695","0","[[1,0,0],[0,0],[3]]","3","[[3,1,0],[2,0],[0]]","16","0","","","","","","5","","","","","","","","",""
"","","","","","single-stim-button","314","496080","0.0-2.0-59.2-1.2","5e3bb7770e53243ce0376fe1","B2","batch2","","752","tol_toboard","","","","tol_peg_2","752","752","0","[[1,0,0],[2,0],[3]]","3","[[3,1,0],[2,0],[0]]","16","0","","","","","","5","","","","","","","","",""
"","","","","","single-stim-button","315","497511","0.0-2.0-59.3-0.3","5e3bb7770e53243ce0376fe1","B2","batch2","","1431","tol_tohand","","","","tol_peg_1","1431","1431","0","[[0,0,0],[2,0],[3]]","4","[[3,1,0],[2,0],[0]]","16","0","","","","","","5","","","","","","","","",""
"","","","","","single-stim-button","316","498081","0.0-2.0-59.3-1.3","5e3bb7770e53243ce0376fe1","B2","batch2","","570","tol_toboard","","","","tol_peg_2","570","570","0","[[0,0,0],[2,1],[3]]","4","[[3,1,0],[2,0],[0]]","16","0","","","","","","5","","","","","","","","",""
"","","","","","single-stim-button","317","498690","0.0-2.0-59.4-0.4","5e3bb7770e53243ce0376fe1","B2","batch2","","609","tol_tohand","","","","tol_peg_3","609","609","0","[[0,0,0],[2,1],[0]]","5","[[3,1,0],[2,0],[0]]","16","0","","","","","","5","","","","","","","","",""
"","","","","","single-stim-button","318","499214","0.0-2.0-59.4-1.4","5e3bb7770e53243ce0376fe1","B2","batch2","","524","tol_toboard","","","","tol_peg_1","524","524","0","[[3,0,0],[2,1],[0]]","5","[[3,1,0],[2,0],[0]]","16","0","","","","","","5","","","","","","","","",""
"","","","","","single-stim-button","319","501332","0.0-2.0-59.5-0.5","5e3bb7770e53243ce0376fe1","B2","batch2","","2117","tol_tohand","","","","tol_peg_2","2117","2117","0","[[3,0,0],[2,0],[0]]","6","[[3,1,0],[2,0],[0]]","16","0","","","","","","5","","","","","","","","",""
"","","","","","single-stim-button","320","501741","0.0-2.0-59.5-1.5","5e3bb7770e53243ce0376fe1","B2","batch2","","409","tol_toboard","","","","tol_peg_1","409","409","0","[[3,1,0],[2,0],[0]]","6","[[3,1,0],[2,0],[0]]","16","0","","","","","","5","","","","","","","","",""
"","","","","","poldrack-single-stim","321","502742","0.0-2.0-60.0","5e3bb7770e53243ce0376fe1","B2","batch2","","-1","tol_feedback","","","true","","1000","1000","500","","","","","","-1","none","true","9228","14786","","","","","","","","","",""
"","","","","","html-button-response","322","503313","0.0-2.0-61.0","5e3bb7770e53243ce0376fe1","B2","batch2","","570.1000001430511","tol_trial_num","<div class = centerbox><p class = center-block-text>problem <strong>18</strong> out of 25 problems</p></div>","0","","","","","","","","","","","","","","","","","","","","","","","","",""
"","","","","","single-stim-button","323","508696","0.0-2.0-62.0-0.0","5e3bb7770e53243ce0376fe1","B2","batch2","","5383","tol_tohand","","","","tol_peg_2","5383","5383","0","[[1,2,0],[0,0],[0]]","1","[[3,0,0],[2,0],[1]]","17","0","","","","","","5","","","","","","","","",""
"","","","","","single-stim-button","324","509193","0.0-2.0-62.0-1.0","5e3bb7770e53243ce0376fe1","B2","batch2","","497","tol_toboard","","","","tol_peg_3","497","497","0","[[1,2,0],[0,0],[3]]","1","[[3,0,0],[2,0],[1]]","17","0","","","","","","5","","","","","","","","",""
"","","","","","single-stim-button","325","510202","0.0-2.0-62.1-0.1","5e3bb7770e53243ce0376fe1","B2","batch2","","1009","tol_tohand","","","","tol_peg_1","1009","1009","0","[[1,0,0],[0,0],[3]]","2","[[3,0,0],[2,0],[1]]","17","0","","","","","","5","","","","","","","","",""
"","","","","","single-stim-button","326","510709","0.0-2.0-62.1-1.1","5e3bb7770e53243ce0376fe1","B2","batch2","","507","tol_toboard","","","","tol_peg_2","507","507","0","[[1,0,0],[2,0],[3]]","2","[[3,0,0],[2,0],[1]]","17","0","","","","","","5","","","","","","","","",""
"","","","","","single-stim-button","327","511609","0.0-2.0-62.2-0.2","5e3bb7770e53243ce0376fe1","B2","batch2","","900","tol_tohand","","","","tol_peg_1","900","900","0","[[0,0,0],[2,0],[3]]","3","[[3,0,0],[2,0],[1]]","17","0","","","","","","5","","","","","","","","",""
"","","","","","single-stim-button","328","512107","0.0-2.0-62.2-1.2","5e3bb7770e53243ce0376fe1","B2","batch2","","497","tol_toboard","","","","tol_peg_2","497","497","0","[[0,0,0],[2,1],[3]]","3","[[3,0,0],[2,0],[1]]","17","0","","","","","","5","","","","","","","","",""
"","","","","","single-stim-button","329","512590","0.0-2.0-62.3-0.3","5e3bb7770e53243ce0376fe1","B2","batch2","","482","tol_tohand","","","","tol_peg_3","482","482","0","[[0,0,0],[2,1],[0]]","4","[[3,0,0],[2,0],[1]]","17","0","","","","","","5","","","","","","","","",""
"","","","","","single-stim-button","330","513287","0.0-2.0-62.3-1.3","5e3bb7770e53243ce0376fe1","B2","batch2","","696","tol_toboard","","","","tol_peg_1","696","696","0","[[3,0,0],[2,1],[0]]","4","[[3,0,0],[2,0],[1]]","17","0","","","","","","5","","","","","","","","",""
"","","","","","single-stim-button","331","514207","0.0-2.0-62.4-0.4","5e3bb7770e53243ce0376fe1","B2","batch2","","920","tol_tohand","","","","tol_peg_2","920","920","0","[[3,0,0],[2,0],[0]]","5","[[3,0,0],[2,0],[1]]","17","0","","","","","","5","","","","","","","","",""
"","","","","","single-stim-button","332","514572","0.0-2.0-62.4-1.4","5e3bb7770e53243ce0376fe1","B2","batch2","","364","tol_toboard","","","","tol_peg_3","364","364","0","[[3,0,0],[2,0],[1]]","5","[[3,0,0],[2,0],[1]]","17","0","","","","","","5","","","","","","","","",""
"","","","","","poldrack-single-stim","333","515573","0.0-2.0-63.0","5e3bb7770e53243ce0376fe1","B2","batch2","","-1","tol_feedback","","","true","","1000","1000","500","","","","","","-1","none","true","5383","8694","","","","","","","","","",""
"","","","","","html-button-response","334","516950","0.0-2.0-64.0","5e3bb7770e53243ce0376fe1","B2","batch2","","1376.2000000476837","tol_trial_num","<div class = centerbox><p class = center-block-text>problem <strong>19</strong> out of 25 problems</p></div>","0","","","","","","","","","","","","","","","","","","","","","","","","",""
"","","","","","single-stim-button","335","527199","0.0-2.0-65.0-0.0","5e3bb7770e53243ce0376fe1","B2","batch2","","10248","tol_tohand","","","","tol_peg_2","10248","10248","0","[[1,2,0],[0,0],[0]]","1","[[0,0,0],[1,2],[3]]","18","0","","","","","","7","","","","","","","","",""
"","","","","","single-stim-button","336","528120","0.0-2.0-65.0-1.0","5e3bb7770e53243ce0376fe1","B2","batch2","","920","tol_toboard","","","","tol_peg_3","920","920","0","[[1,2,0],[0,0],[3]]","1","[[0,0,0],[1,2],[3]]","18","0","","","","","","7","","","","","","","","",""
"","","","","","single-stim-button","337","529041","0.0-2.0-65.1-0.1","5e3bb7770e53243ce0376fe1","B2","batch2","","920","tol_tohand","","","","tol_peg_1","920","920","0","[[1,0,0],[0,0],[3]]","2","[[0,0,0],[1,2],[3]]","18","0","","","","","","7","","","","","","","","",""
"","","","","","single-stim-button","338","529826","0.0-2.0-65.1-1.1","5e3bb7770e53243ce0376fe1","B2","batch2","","784","tol_toboard","","","","tol_peg_2","784","784","0","[[1,0,0],[2,0],[3]]","2","[[0,0,0],[1,2],[3]]","18","0","","","","","","7","","","","","","","","",""
"","","","","","single-stim-button","339","530329","0.0-2.0-65.2-0.2","5e3bb7770e53243ce0376fe1","B2","batch2","","502","tol_tohand","","","","tol_peg_1","502","502","0","[[0,0,0],[2,0],[3]]","3","[[0,0,0],[1,2],[3]]","18","0","","","","","","7","","","","","","","","",""
"","","","","","single-stim-button","340","531351","0.0-2.0-65.2-1.2","5e3bb7770e53243ce0376fe1","B2","batch2","","1021","tol_toboard","","","","tol_peg_2","1021","1021","0","[[0,0,0],[2,1],[3]]","3","[[0,0,0],[1,2],[3]]","18","0","","","","","","7","","","","","","","","",""
"","","","","","single-stim-button","341","531839","0.0-2.0-65.3-0.3","5e3bb7770e53243ce0376fe1","B2","batch2","","487","tol_tohand","","","","tol_peg_3","487","487","0","[[0,0,0],[2,1],[0]]","4","[[0,0,0],[1,2],[3]]","18","0","","","","","","7","","","","","","","","",""
"","","","","","single-stim-button","342","535419","0.0-2.0-65.3-1.3","5e3bb7770e53243ce0376fe1","B2","batch2","","3579","tol_toboard","","","","tol_peg_3","3579","3579","0","[[0,0,0],[2,1],[3]]","4","[[0,0,0],[1,2],[3]]","18","0","","","","","","7","","","","","","","","",""
"","","","","","single-stim-button","343","536643","0.0-2.0-65.4-0.4","5e3bb7770e53243ce0376fe1","B2","batch2","","1223","tol_tohand","","","","tol_peg_2","1223","1223","0","[[0,0,0],[2,0],[3]]","5","[[0,0,0],[1,2],[3]]","18","0","","","","","","7","","","","","","","","",""
"","","","","","single-stim-button","344","538080","0.0-2.0-65.4-1.4","5e3bb7770e53243ce0376fe1","B2","batch2","","1436","tol_toboard","","","","tol_peg_1","1436","1436","0","[[1,0,0],[2,0],[3]]","5","[[0,0,0],[1,2],[3]]","18","0","","","","","","7","","","","","","","","",""
"","","","","","single-stim-button","345","539007","0.0-2.0-65.5-0.5","5e3bb7770e53243ce0376fe1","B2","batch2","","926","tol_tohand","","","","tol_peg_2","926","926","0","[[1,0,0],[0,0],[3]]","6","[[0,0,0],[1,2],[3]]","18","0","","","","","","7","","","","","","","","",""
"","","","","","single-stim-button","346","539998","0.0-2.0-65.5-1.5","5e3bb7770e53243ce0376fe1","B2","batch2","","990","tol_toboard","","","","tol_peg_1","990","990","0","[[1,2,0],[0,0],[3]]","6","[[0,0,0],[1,2],[3]]","18","0","","","","","","7","","","","","","","","",""
"","","","","","single-stim-button","347","540532","0.0-2.0-65.6-0.6","5e3bb7770e53243ce0376fe1","B2","batch2","","533","tol_tohand","","","","tol_peg_3","533","533","0","[[1,2,0],[0,0],[0]]","7","[[0,0,0],[1,2],[3]]","18","0","","","","","","7","","","","","","","","",""
"","","","","","single-stim-button","348","541219","0.0-2.0-65.6-1.6","5e3bb7770e53243ce0376fe1","B2","batch2","","686","tol_toboard","","","","tol_peg_2","686","686","0","[[1,2,0],[3,0],[0]]","7","[[0,0,0],[1,2],[3]]","18","0","","","","","","7","","","","","","","","",""
"","","","","","single-stim-button","349","541864","0.0-2.0-65.7-0.7","5e3bb7770e53243ce0376fe1","B2","batch2","","644","tol_tohand","","","","tol_peg_1","644","644","0","[[1,0,0],[3,0],[0]]","8","[[0,0,0],[1,2],[3]]","18","0","","","","","","7","","","","","","","","",""
"","","","","","single-stim-button","350","542468","0.0-2.0-65.7-1.7","5e3bb7770e53243ce0376fe1","B2","batch2","","603","tol_toboard","","","","tol_peg_3","603","603","0","[[1,0,0],[3,0],[2]]","8","[[0,0,0],[1,2],[3]]","18","0","","","","","","7","","","","","","","","",""
"","","","","","single-stim-button","351","543237","0.0-2.0-65.8-0.8","5e3bb7770e53243ce0376fe1","B2","batch2","","768","tol_tohand","","","","tol_peg_1","768","768","0","[[0,0,0],[3,0],[2]]","9","[[0,0,0],[1,2],[3]]","18","0","","","","","","7","","","","","","","","",""
"","","","","","single-stim-button","352","543749","0.0-2.0-65.8-1.8","5e3bb7770e53243ce0376fe1","B2","batch2","","512","tol_toboard","","","","tol_peg_2","512","512","0","[[0,0,0],[3,1],[2]]","9","[[0,0,0],[1,2],[3]]","18","0","","","","","","7","","","","","","","","",""
"","","","","","single-stim-button","353","544528","0.0-2.0-65.9-0.9","5e3bb7770e53243ce0376fe1","B2","batch2","","778","tol_tohand","","","","tol_peg_3","778","778","0","[[0,0,0],[3,1],[0]]","10","[[0,0,0],[1,2],[3]]","18","0","","","","","","7","","","","","","","","",""
"","","","","","single-stim-button","354","545652","0.0-2.0-65.9-1.9","5e3bb7770e53243ce0376fe1","B2","batch2","","1123","tol_toboard","","","","tol_peg_1","1123","1123","0","[[2,0,0],[3,1],[0]]","10","[[0,0,0],[1,2],[3]]","18","0","","","","","","7","","","","","","","","",""
"","","","","","single-stim-button","355","546716","0.0-2.0-65.10-0.10","5e3bb7770e53243ce0376fe1","B2","batch2","","1063","tol_tohand","","","","tol_peg_2","1063","1063","0","[[2,0,0],[3,0],[0]]","11","[[0,0,0],[1,2],[3]]","18","0","","","","","","7","","","","","","","","",""
"","","","","","single-stim-button","356","547407","0.0-2.0-65.10-1.10","5e3bb7770e53243ce0376fe1","B2","batch2","","690","tol_toboard","","","","tol_peg_3","690","690","0","[[2,0,0],[3,0],[1]]","11","[[0,0,0],[1,2],[3]]","18","0","","","","","","7","","","","","","","","",""
