"success","timeout","failed_images","failed_audio","failed_video","trial_type","trial_index","time_elapsed","internal_node_id","subject_id","study_id","session_id","view_history","rt","stimulus","response","task","correct","answer","item","fiar_detect_rt","fiar_detect_correct","total_correct_fiar_detect","post_trial_gap","choices","spm_correct","spm_rt","mouse_click","stim_duration","block_duration","timing_post_trial","current_position","tol_num_moves_made","tol_target","tol_problem_id","tol_rt","key_press","possible_responses","tol_correct","preplanning","tol_rt_per_trial","tol_min_moves"
"true","false","[]","[]","[]","preload","0","17764","0.0-0.0","5e3b0c1e96942c0564ce3018","C3","batch3","","","","","","","","","","","","","","","","","","","","","","","","","","","","","",""
"true","","","","","fullscreen","1","34175","0.0-1.0-0.0","5e3b0c1e96942c0564ce3018","C3","batch3","","","","","","","","","","","","","","","","","","","","","","","","","","","","","",""
"true","","","","","fullscreen","2","38940","0.0-2.0-0.0","5e3b0c1e96942c0564ce3018","C3","batch3","","","","","","","","","","","","","","","","","","","","","","","","","","","","","",""
"","","","","","instructions","3","60591","0.0-2.0-1.0-0.0","5e3b0c1e96942c0564ce3018","C3","batch3","[{""page_index"":0,""viewing_time"":13702},{""page_index"":1,""viewing_time"":7947.900000095367}]","21650.200000286102","","","","","","","","","","","","","","","","","","","","","","","","","","","",""
"","","","","","html-button-response","4","62297","0.0-2.0-1.0-1.0-0.0","5e3b0c1e96942c0564ce3018","C3","batch3","","1705.4000000953674","<p class=block-text> Let's answer a few questions <br>","0","pattern_enter_quiz","","","","","","","","","","","","","","","","","","","","","","","","",""
"","","","","","html-button-response","5","65147","0.0-2.0-1.0-1.0-1.0","5e3b0c1e96942c0564ce3018","C3","batch3","","2848.699999809265","<p class = block-text>True or False: You will have as much time as you want to make each choice. <br></p>","1","pattern_quiz","true","","","","","","","","","","","","","","","","","","","","","","","",""
"","","","","","html-button-response","6","66619","0.0-2.0-1.0-1.0-2.0","5e3b0c1e96942c0564ce3018","C3","batch3","","1470.7999997138977","<p class = block-text>Correct! You should make your choice <strong> as fast as you can</strong>.</p>","0","pattern_quiz_feedback","","","","","","","","","","","","","","","","","","","","","","","","",""
"","","","","","html-button-response","7","70453","0.0-2.0-1.0-1.0-3.0","5e3b0c1e96942c0564ce3018","C3","batch3","","3833","<p class = block-text>True or False: You will look for 4 pieces in black or white color connected in a row either horizontally, vertically or diagonally. <br></p>","0","pattern_quiz","true","","","","","","","","","","","","","","","","","","","","","","","",""
"","","","","","html-button-response","8","71841","0.0-2.0-1.0-1.0-4.0","5e3b0c1e96942c0564ce3018","C3","batch3","","1387.5","<p class = block-text>Correct! </p>","0","pattern_quiz_feedback","","","","","","","","","","","","","","","","","","","","","","","","",""
"","","","","","html-button-response","9","73653","0.0-2.0-2.0","5e3b0c1e96942c0564ce3018","C3","batch3","","1810.6999998092651","<p class=block-text> Now that you've understood the game, let's do a few practice trials before we start!<br> <br>","0","pattern_enter_practice","","","","","","","","","","","","","","","","","","","","","","","","",""
"","","","","","image-keyboard-response","10","75773","0.0-2.0-3.0-0.0","5e3b0c1e96942c0564ce3018","C3","batch3","","2118","stim/prac_no_18_1.png","j","pattern_practice","true","j","","","","","","","","","","","","","","","","","","","","","","",""
"","","","","","html-keyboard-response","11","76790","0.0-2.0-3.0-1.0","5e3b0c1e96942c0564ce3018","C3","batch3","","null","<p style=""font-size:30px;color:green;"">Correct!</p>","null","pattern_feedback","","","","","","","","","","","","","","","","","","","","","","","","",""
"","","","","","image-keyboard-response","12","78500","0.0-2.0-3.0-0.1","5e3b0c1e96942c0564ce3018","C3","batch3","","1709.0999999046326","stim/prac_no_16_1.png","f","pattern_practice","false","j","","","","","","","","","","","","","","","","","","","","","","",""
"","","","","","html-keyboard-response","13","79528","0.0-2.0-3.0-1.1","5e3b0c1e96942c0564ce3018","C3","batch3","","null","<p style=""font-size:30px;color:red;"">Wrong.</p>","null","pattern_feedback","","","","","","","","","","","","","","","","","","","","","","","","",""
"","","","","","image-keyboard-response","14","81221","0.0-2.0-3.0-0.2","5e3b0c1e96942c0564ce3018","C3","batch3","","1691.5999999046326","stim/prac_yes_20_dia_b1.png","f","pattern_practice","true","f","","","","","","","","","","","","","","","","","","","","","","",""
"","","","","","html-keyboard-response","15","82244","0.0-2.0-3.0-1.2","5e3b0c1e96942c0564ce3018","C3","batch3","","null","<p style=""font-size:30px;color:green;"">Correct!</p>","null","pattern_feedback","","","","","","","","","","","","","","","","","","","","","","","","",""
"","","","","","image-keyboard-response","16","83214","0.0-2.0-3.0-0.3","5e3b0c1e96942c0564ce3018","C3","batch3","","968.3000001907349","stim/prac_yes_16_ver_w1.png","f","pattern_practice","true","f","","","","","","","","","","","","","","","","","","","","","","",""
"","","","","","html-keyboard-response","17","84230","0.0-2.0-3.0-1.3","5e3b0c1e96942c0564ce3018","C3","batch3","","null","<p style=""font-size:30px;color:green;"">Correct!</p>","null","pattern_feedback","","","","","","","","","","","","","","","","","","","","","","","","",""
"","","","","","image-keyboard-response","18","85068","0.0-2.0-3.0-0.4","5e3b0c1e96942c0564ce3018","C3","batch3","","837.7000002861023","stim/prac_yes_18_hor_w1.png","f","pattern_practice","true","f","","","","","","","","","","","","","","","","","","","","","","",""
"","","","","","html-keyboard-response","19","86087","0.0-2.0-3.0-1.4","5e3b0c1e96942c0564ce3018","C3","batch3","","null","<p style=""font-size:30px;color:green;"">Correct!</p>","null","pattern_feedback","","","","","","","","","","","","","","","","","","","","","","","","",""
"","","","","","html-button-response","20","91279","0.0-2.0-4.0","5e3b0c1e96942c0564ce3018","C3","batch3","","5191.39999961853","<p class=block-text> Good job! You are done with practice trials!<br>
        You responded correctly on 80% of the trials.<br>
        Press the button below to start official trials. Now you won't see any feedback about your response</p>","0","pattern_enter_official_trials","","","","","","","","","","","","","","","","","","","","","","","","",""
"","","","","","html-keyboard-response","21","92086","0.0-2.0-5.0-0.0","5e3b0c1e96942c0564ce3018","C3","batch3","","null","<p class=block-text>Trial 1 out of 78</p>","null","pattern_show_trial_num","","","","","","","","","","","","","","","","","","","","","","","","",""
"","","","","","image-keyboard-response","22","93637","0.0-2.0-5.0-1.0","5e3b0c1e96942c0564ce3018","C3","batch3","","1549.1999998092651","stim/no_51_1.png","f","pattern_response","false","j","pattern_31","1549.1999998092651","false","0","","","","","","","","","","","","","","","","","","",""
"","","","","","html-keyboard-response","23","94950","0.0-2.0-5.0-0.1","5e3b0c1e96942c0564ce3018","C3","batch3","","null","<p class=block-text>Trial 2 out of 78</p>","null","pattern_show_trial_num","","","","","","","","","","","","","","","","","","","","","","","","",""
"","","","","","image-keyboard-response","24","95709","0.0-2.0-5.0-1.1","5e3b0c1e96942c0564ce3018","C3","batch3","","758.0999999046326","stim/yes_17_ver_b1_b.png","f","pattern_response","true","f","pattern_46","758.0999999046326","true","1","","","","","","","","","","","","","","","","","","",""
"","","","","","html-keyboard-response","25","97023","0.0-2.0-5.0-0.2","5e3b0c1e96942c0564ce3018","C3","batch3","","null","<p class=block-text>Trial 3 out of 78</p>","null","pattern_show_trial_num","","","","","","","","","","","","","","","","","","","","","","","","",""
"","","","","","image-keyboard-response","26","98060","0.0-2.0-5.0-1.2","5e3b0c1e96942c0564ce3018","C3","batch3","","1037.0999999046326","stim/yes_51_dia_b1.png","f","pattern_response","true","f","pattern_72","1037.0999999046326","true","2","","","","","","","","","","","","","","","","","","",""
"","","","","","html-keyboard-response","27","99390","0.0-2.0-5.0-0.3","5e3b0c1e96942c0564ce3018","C3","batch3","","null","<p class=block-text>Trial 4 out of 78</p>","null","pattern_show_trial_num","","","","","","","","","","","","","","","","","","","","","","","","",""
"","","","","","image-keyboard-response","28","100909","0.0-2.0-5.0-1.3","5e3b0c1e96942c0564ce3018","C3","batch3","","1517.0999999046326","stim/no_28_2.png","j","pattern_response","true","j","pattern_11","1517.0999999046326","true","3","","","","","","","","","","","","","","","","","","",""
"","","","","","html-keyboard-response","29","102227","0.0-2.0-5.0-0.4","5e3b0c1e96942c0564ce3018","C3","batch3","","null","<p class=block-text>Trial 5 out of 78</p>","null","pattern_show_trial_num","","","","","","","","","","","","","","","","","","","","","","","","",""
"","","","","","image-keyboard-response","30","109157","0.0-2.0-5.0-1.4","5e3b0c1e96942c0564ce3018","C3","batch3","","6928.5","stim/no_58_1_w.png","j","pattern_response","true","j","pattern_35","6928.5","true","4","","","","","","","","","","","","","","","","","","",""
"","","","","","html-keyboard-response","31","110472","0.0-2.0-5.0-0.5","5e3b0c1e96942c0564ce3018","C3","batch3","","null","<p class=block-text>Trial 6 out of 78</p>","null","pattern_show_trial_num","","","","","","","","","","","","","","","","","","","","","","","","",""
"","","","","","image-keyboard-response","32","116037","0.0-2.0-5.0-1.5","5e3b0c1e96942c0564ce3018","C3","batch3","","5563.599999904633","stim/no_45_1_w.png","j","pattern_response","true","j","pattern_25","5563.599999904633","true","5","","","","","","","","","","","","","","","","","","",""
"","","","","","html-keyboard-response","33","117349","0.0-2.0-5.0-0.6","5e3b0c1e96942c0564ce3018","C3","batch3","","null","<p class=block-text>Trial 7 out of 78</p>","null","pattern_show_trial_num","","","","","","","","","","","","","","","","","","","","","","","","",""
"","","","","","image-keyboard-response","34","119461","0.0-2.0-5.0-1.6","5e3b0c1e96942c0564ce3018","C3","batch3","","2111.4000000953674","stim/yes_23_ver_b1.png","f","pattern_response","true","f","pattern_48","2111.4000000953674","true","6","","","","","","","","","","","","","","","","","","",""
"","","","","","html-keyboard-response","35","120779","0.0-2.0-5.0-0.7","5e3b0c1e96942c0564ce3018","C3","batch3","","null","<p class=block-text>Trial 8 out of 78</p>","null","pattern_show_trial_num","","","","","","","","","","","","","","","","","","","","","","","","",""
"","","","","","image-keyboard-response","36","123212","0.0-2.0-5.0-1.7","5e3b0c1e96942c0564ce3018","C3","batch3","","2432.0999999046326","stim/yes_26_dia_w2_w.png","f","pattern_response","true","f","pattern_50","2432.0999999046326","true","7","","","","","","","","","","","","","","","","","","",""
"","","","","","html-keyboard-response","37","124531","0.0-2.0-5.0-0.8","5e3b0c1e96942c0564ce3018","C3","batch3","","null","<p class=block-text>Trial 9 out of 78</p>","null","pattern_show_trial_num","","","","","","","","","","","","","","","","","","","","","","","","",""
"","","","","","image-keyboard-response","38","128837","0.0-2.0-5.0-1.8","5e3b0c1e96942c0564ce3018","C3","batch3","","4304.300000190735","stim/yes_44_ver_w1_w.png","j","pattern_response","false","f","pattern_66","4304.300000190735","false","7","","","","","","","","","","","","","","","","","","",""
"","","","","","html-keyboard-response","39","130138","0.0-2.0-5.0-0.9","5e3b0c1e96942c0564ce3018","C3","batch3","","null","<p class=block-text>Trial 10 out of 78</p>","null","pattern_show_trial_num","","","","","","","","","","","","","","","","","","","","","","","","",""
"","","","","","image-keyboard-response","40","131933","0.0-2.0-5.0-1.9","5e3b0c1e96942c0564ce3018","C3","batch3","","1793.8999996185303","stim/no_25_1_b.png","j","pattern_response","true","j","pattern_09","1793.8999996185303","true","8","","","","","","","","","","","","","","","","","","",""
"","","","","","html-keyboard-response","41","133257","0.0-2.0-5.0-0.10","5e3b0c1e96942c0564ce3018","C3","batch3","","null","<p class=block-text>Trial 11 out of 78</p>","null","pattern_show_trial_num","","","","","","","","","","","","","","","","","","","","","","","","",""
"","","","","","image-keyboard-response","42","140605","0.0-2.0-5.0-1.10","5e3b0c1e96942c0564ce3018","C3","batch3","","7346.799999713898","stim/no_67_1.png","j","pattern_response","true","j","pattern_39","7346.799999713898","true","9","","","","","","","","","","","","","","","","","","",""
"","","","","","html-keyboard-response","43","141914","0.0-2.0-5.0-0.11","5e3b0c1e96942c0564ce3018","C3","batch3","","null","<p class=block-text>Trial 12 out of 78</p>","null","pattern_show_trial_num","","","","","","","","","","","","","","","","","","","","","","","","",""
"","","","","","image-keyboard-response","44","142925","0.0-2.0-5.0-1.11","5e3b0c1e96942c0564ce3018","C3","batch3","","1009.6999998092651","stim/yes_70_ver_b1.png","f","pattern_response","true","f","pattern_80","1009.6999998092651","true","10","","","","","","","","","","","","","","","","","","",""
"","","","","","html-keyboard-response","45","144234","0.0-2.0-5.0-0.12","5e3b0c1e96942c0564ce3018","C3","batch3","","null","<p class=block-text>Trial 13 out of 78</p>","null","pattern_show_trial_num","","","","","","","","","","","","","","","","","","","","","","","","",""
"","","","","","image-keyboard-response","46","144909","0.0-2.0-5.0-1.12","5e3b0c1e96942c0564ce3018","C3","batch3","","674.0999999046326","stim/yes_29_hor_b1_b.png","f","pattern_response","true","f","pattern_52","674.0999999046326","true","11","","","","","","","","","","","","","","","","","","",""
"","","","","","html-keyboard-response","47","146219","0.0-2.0-5.0-0.13","5e3b0c1e96942c0564ce3018","C3","batch3","","null","<p class=block-text>Trial 14 out of 78</p>","null","pattern_show_trial_num","","","","","","","","","","","","","","","","","","","","","","","","",""
"","","","","","image-keyboard-response","48","150652","0.0-2.0-5.0-1.13","5e3b0c1e96942c0564ce3018","C3","batch3","","4432.800000190735","stim/no_37_2_w.png","j","pattern_response","true","j","pattern_19","4432.800000190735","true","12","","","","","","","","","","","","","","","","","","",""
"","","","","","html-keyboard-response","49","151955","0.0-2.0-5.0-0.14","5e3b0c1e96942c0564ce3018","C3","batch3","","null","<p class=block-text>Trial 15 out of 78</p>","null","pattern_show_trial_num","","","","","","","","","","","","","","","","","","","","","","","","",""
"","","","","","image-keyboard-response","50","158717","0.0-2.0-5.0-1.14","5e3b0c1e96942c0564ce3018","C3","batch3","","6760.900000095367","stim/yes_63_dia_b1.png","j","pattern_response","false","f","pattern_78","6760.900000095367","false","12","","","","","","","","","","","","","","","","","","",""
"","","","","","html-keyboard-response","51","160019","0.0-2.0-5.0-0.15","5e3b0c1e96942c0564ce3018","C3","batch3","","null","<p class=block-text>Trial 16 out of 78</p>","null","pattern_show_trial_num","","","","","","","","","","","","","","","","","","","","","","","","",""
"","","","","","image-keyboard-response","52","161701","0.0-2.0-5.0-1.15","5e3b0c1e96942c0564ce3018","C3","batch3","","1680.4000000953674","stim/no_22_1_b.png","j","pattern_response","true","j","pattern_07","1680.4000000953674","true","13","","","","","","","","","","","","","","","","","","",""
"","","","","","html-keyboard-response","53","163020","0.0-2.0-5.0-0.16","5e3b0c1e96942c0564ce3018","C3","batch3","","null","<p class=block-text>Trial 17 out of 78</p>","null","pattern_show_trial_num","","","","","","","","","","","","","","","","","","","","","","","","",""
"","","","","","image-keyboard-response","54","166844","0.0-2.0-5.0-1.16","5e3b0c1e96942c0564ce3018","C3","batch3","","3823.199999809265","stim/no_43_2_b.png","j","pattern_response","true","j","pattern_23","3823.199999809265","true","14","","","","","","","","","","","","","","","","","","",""
"","","","","","html-keyboard-response","55","168153","0.0-2.0-5.0-0.17","5e3b0c1e96942c0564ce3018","C3","batch3","","null","<p class=block-text>Trial 18 out of 78</p>","null","pattern_show_trial_num","","","","","","","","","","","","","","","","","","","","","","","","",""
"","","","","","image-keyboard-response","56","171957","0.0-2.0-5.0-1.17","5e3b0c1e96942c0564ce3018","C3","batch3","","3802.5","stim/no_49_2_b.png","j","pattern_response","true","j","pattern_29","3802.5","true","15","","","","","","","","","","","","","","","","","","",""
"","","","","","html-keyboard-response","57","173270","0.0-2.0-5.0-0.18","5e3b0c1e96942c0564ce3018","C3","batch3","","null","<p class=block-text>Trial 19 out of 78</p>","null","pattern_show_trial_num","","","","","","","","","","","","","","","","","","","","","","","","",""
"","","","","","image-keyboard-response","58","174245","0.0-2.0-5.0-1.18","5e3b0c1e96942c0564ce3018","C3","batch3","","973.5999999046326","stim/no_15_1_w.png","j","pattern_response","true","j","pattern_03","973.5999999046326","true","16","","","","","","","","","","","","","","","","","","",""
"","","","","","html-keyboard-response","59","175565","0.0-2.0-5.0-0.19","5e3b0c1e96942c0564ce3018","C3","batch3","","null","<p class=block-text>Trial 20 out of 78</p>","null","pattern_show_trial_num","","","","","","","","","","","","","","","","","","","","","","","","",""
"","","","","","image-keyboard-response","60","178508","0.0-2.0-5.0-1.19","5e3b0c1e96942c0564ce3018","C3","batch3","","2943","stim/no_47_1_b.png","j","pattern_response","true","j","pattern_27","2943","true","17","","","","","","","","","","","","","","","","","","",""
"","","","","","html-keyboard-response","61","179821","0.0-2.0-5.0-0.20","5e3b0c1e96942c0564ce3018","C3","batch3","","null","<p class=block-text>Trial 21 out of 78</p>","null","pattern_show_trial_num","","","","","","","","","","","","","","","","","","","","","","","","",""
"","","","","","image-keyboard-response","62","180613","0.0-2.0-5.0-1.20","5e3b0c1e96942c0564ce3018","C3","batch3","","790.9000000953674","stim/no_12_1.png","j","pattern_response","true","j","pattern_01","790.9000000953674","true","18","","","","","","","","","","","","","","","","","","",""
"","","","","","html-keyboard-response","63","181925","0.0-2.0-5.0-0.21","5e3b0c1e96942c0564ce3018","C3","batch3","","null","<p class=block-text>Trial 22 out of 78</p>","null","pattern_show_trial_num","","","","","","","","","","","","","","","","","","","","","","","","",""
"","","","","","image-keyboard-response","64","185820","0.0-2.0-5.0-1.21","5e3b0c1e96942c0564ce3018","C3","batch3","","3894.0999999046326","stim/no_36_1_b.png","j","pattern_response","true","j","pattern_17","3894.0999999046326","true","19","","","","","","","","","","","","","","","","","","",""
"","","","","","html-keyboard-response","65","187133","0.0-2.0-5.0-0.22","5e3b0c1e96942c0564ce3018","C3","batch3","","null","<p class=block-text>Trial 23 out of 78</p>","null","pattern_show_trial_num","","","","","","","","","","","","","","","","","","","","","","","","",""
"","","","","","image-keyboard-response","66","209564","0.0-2.0-5.0-1.22","5e3b0c1e96942c0564ce3018","C3","batch3","","22429.599999904633","stim/yes_58_dia_w1_w.png","j","pattern_response","false","f","pattern_76","22429.599999904633","false","19","","","","","","","","","","","","","","","","","","",""
"","","","","","html-keyboard-response","67","210874","0.0-2.0-5.0-0.23","5e3b0c1e96942c0564ce3018","C3","batch3","","null","<p class=block-text>Trial 24 out of 78</p>","null","pattern_show_trial_num","","","","","","","","","","","","","","","","","","","","","","","","",""
"","","","","","image-keyboard-response","68","211883","0.0-2.0-5.0-1.23","5e3b0c1e96942c0564ce3018","C3","batch3","","1008","stim/yes_12_hor_w1_w.png","f","pattern_response","true","f","pattern_42","1008","true","20","","","","","","","","","","","","","","","","","","",""
"","","","","","html-keyboard-response","69","213197","0.0-2.0-5.0-0.24","5e3b0c1e96942c0564ce3018","C3","batch3","","null","<p class=block-text>Trial 25 out of 78</p>","null","pattern_show_trial_num","","","","","","","","","","","","","","","","","","","","","","","","",""
"","","","","","image-keyboard-response","70","214036","0.0-2.0-5.0-1.24","5e3b0c1e96942c0564ce3018","C3","batch3","","837.9000000953674","stim/yes_49_hor_w1_b.png","f","pattern_response","true","f","pattern_70","837.9000000953674","true","21","","","","","","","","","","","","","","","","","","",""
"","","","","","html-keyboard-response","71","215341","0.0-2.0-5.0-0.25","5e3b0c1e96942c0564ce3018","C3","batch3","","null","<p class=block-text>Trial 26 out of 78</p>","null","pattern_show_trial_num","","","","","","","","","","","","","","","","","","","","","","","","",""
"","","","","","image-keyboard-response","72","221332","0.0-2.0-5.0-1.25","5e3b0c1e96942c0564ce3018","C3","batch3","","5990.199999809265","stim/no_53_1_b.png","j","pattern_response","true","j","pattern_33","5990.199999809265","true","22","","","","","","","","","","","","","","","","","","",""
"","","","","","html-keyboard-response","73","222649","0.0-2.0-5.0-0.26","5e3b0c1e96942c0564ce3018","C3","batch3","","null","<p class=block-text>Trial 27 out of 78</p>","null","pattern_show_trial_num","","","","","","","","","","","","","","","","","","","","","","","","",""
"","","","","","image-keyboard-response","74","223460","0.0-2.0-5.0-1.26","5e3b0c1e96942c0564ce3018","C3","batch3","","809.6999998092651","stim/yes_15_dia_b1u_b.png","f","pattern_response","true","f","pattern_44","809.6999998092651","true","23","","","","","","","","","","","","","","","","","","",""
"","","","","","html-keyboard-response","75","224774","0.0-2.0-5.0-0.27","5e3b0c1e96942c0564ce3018","C3","batch3","","null","<p class=block-text>Trial 28 out of 78</p>","null","pattern_show_trial_num","","","","","","","","","","","","","","","","","","","","","","","","",""
"","","","","","image-keyboard-response","76","225973","0.0-2.0-5.0-1.27","5e3b0c1e96942c0564ce3018","C3","batch3","","1196.7000002861023","stim/yes_36_ver_w1_w.png","f","pattern_response","true","f","pattern_58","1196.7000002861023","true","24","","","","","","","","","","","","","","","","","","",""
"","","","","","html-keyboard-response","77","227287","0.0-2.0-5.0-0.28","5e3b0c1e96942c0564ce3018","C3","batch3","","null","<p class=block-text>Trial 29 out of 78</p>","null","pattern_show_trial_num","","","","","","","","","","","","","","","","","","","","","","","","",""
"","","","","","image-keyboard-response","78","228213","0.0-2.0-5.0-1.28","5e3b0c1e96942c0564ce3018","C3","batch3","","925","stim/yes_33_dia_w1_w.png","f","pattern_response","true","f","pattern_56","925","true","25","","","","","","","","","","","","","","","","","","",""
"","","","","","html-keyboard-response","79","229537","0.0-2.0-5.0-0.29","5e3b0c1e96942c0564ce3018","C3","batch3","","null","<p class=block-text>Trial 30 out of 78</p>","null","pattern_show_trial_num","","","","","","","","","","","","","","","","","","","","","","","","",""
"","","","","","image-keyboard-response","80","230332","0.0-2.0-5.0-1.29","5e3b0c1e96942c0564ce3018","C3","batch3","","792.5","stim/yes_39_hor_w1_w.png","f","pattern_response","true","f","pattern_62","792.5","true","26","","","","","","","","","","","","","","","","","","",""
"","","","","","html-keyboard-response","81","231656","0.0-2.0-5.0-0.30","5e3b0c1e96942c0564ce3018","C3","batch3","","null","<p class=block-text>Trial 31 out of 78</p>","null","pattern_show_trial_num","","","","","","","","","","","","","","","","","","","","","","","","",""
"","","","","","image-keyboard-response","82","235374","0.0-2.0-5.0-1.30","5e3b0c1e96942c0564ce3018","C3","batch3","","3715.4000000953674","stim/no_33_1_b.png","j","pattern_response","true","j","pattern_15","3715.4000000953674","true","27","","","","","","","","","","","","","","","","","","",""
"","","","","","html-keyboard-response","83","236689","0.0-2.0-5.0-0.31","5e3b0c1e96942c0564ce3018","C3","batch3","","null","<p class=block-text>Trial 32 out of 78</p>","null","pattern_show_trial_num","","","","","","","","","","","","","","","","","","","","","","","","",""
"","","","","","image-keyboard-response","84","237668","0.0-2.0-5.0-1.31","5e3b0c1e96942c0564ce3018","C3","batch3","","977.5999999046326","stim/yes_37_hor_w1_w.png","f","pattern_response","true","f","pattern_60","977.5999999046326","true","28","","","","","","","","","","","","","","","","","","",""
"","","","","","html-keyboard-response","85","238978","0.0-2.0-5.0-0.32","5e3b0c1e96942c0564ce3018","C3","batch3","","null","<p class=block-text>Trial 33 out of 78</p>","null","pattern_show_trial_num","","","","","","","","","","","","","","","","","","","","","","","","",""
"","","","","","image-keyboard-response","86","239781","0.0-2.0-5.0-1.32","5e3b0c1e96942c0564ce3018","C3","batch3","","801.3999996185303","stim/no_18_1_b.png","j","pattern_response","true","j","pattern_05","801.3999996185303","true","29","","","","","","","","","","","","","","","","","","",""
"","","","","","html-keyboard-response","87","241082","0.0-2.0-5.0-0.33","5e3b0c1e96942c0564ce3018","C3","batch3","","null","<p class=block-text>Trial 34 out of 78</p>","null","pattern_show_trial_num","","","","","","","","","","","","","","","","","","","","","","","","",""
"","","","","","image-keyboard-response","88","241925","0.0-2.0-5.0-1.33","5e3b0c1e96942c0564ce3018","C3","batch3","","841.9000000953674","stim/yes_46_ver_b1_b.png","f","pattern_response","true","f","pattern_68","841.9000000953674","true","30","","","","","","","","","","","","","","","","","","",""
"","","","","","html-keyboard-response","89","243242","0.0-2.0-5.0-0.34","5e3b0c1e96942c0564ce3018","C3","batch3","","null","<p class=block-text>Trial 35 out of 78</p>","null","pattern_show_trial_num","","","","","","","","","","","","","","","","","","","","","","","","",""
"","","","","","image-keyboard-response","90","243949","0.0-2.0-5.0-1.34","5e3b0c1e96942c0564ce3018","C3","batch3","","705.5","stim/yes_30_ver_b1_b.png","f","pattern_response","true","f","pattern_54","705.5","true","31","","","","","","","","","","","","","","","","","","",""
"","","","","","html-keyboard-response","91","245258","0.0-2.0-5.0-0.35","5e3b0c1e96942c0564ce3018","C3","batch3","","null","<p class=block-text>Trial 36 out of 78</p>","null","pattern_show_trial_num","","","","","","","","","","","","","","","","","","","","","","","","",""
"","","","","","image-keyboard-response","92","247997","0.0-2.0-5.0-1.35","5e3b0c1e96942c0564ce3018","C3","batch3","","2736.699999809265","stim/no_30_1_b.png","j","pattern_response","true","j","pattern_13","2736.699999809265","true","32","","","","","","","","","","","","","","","","","","",""
"","","","","","html-keyboard-response","93","249302","0.0-2.0-5.0-0.36","5e3b0c1e96942c0564ce3018","C3","batch3","","null","<p class=block-text>Trial 37 out of 78</p>","null","pattern_show_trial_num","","","","","","","","","","","","","","","","","","","","","","","","",""
"","","","","","image-keyboard-response","94","251430","0.0-2.0-5.0-1.36","5e3b0c1e96942c0564ce3018","C3","batch3","","2124.7999997138977","stim/yes_53_ver_b1_b.png","f","pattern_response","true","f","pattern_74","2124.7999997138977","true","33","","","","","","","","","","","","","","","","","","",""
"","","","","","html-keyboard-response","95","252743","0.0-2.0-5.0-0.37","5e3b0c1e96942c0564ce3018","C3","batch3","","null","<p class=block-text>Trial 38 out of 78</p>","null","pattern_show_trial_num","","","","","","","","","","","","","","","","","","","","","","","","",""
"","","","","","image-keyboard-response","96","257293","0.0-2.0-5.0-1.37","5e3b0c1e96942c0564ce3018","C3","batch3","","4545.199999809265","stim/yes_42_dia_w1_w.png","j","pattern_response","false","f","pattern_64","4545.199999809265","false","33","","","","","","","","","","","","","","","","","","",""
"","","","","","html-keyboard-response","97","258606","0.0-2.0-5.0-0.38","5e3b0c1e96942c0564ce3018","C3","batch3","","null","<p class=block-text>Trial 39 out of 78</p>","null","pattern_show_trial_num","","","","","","","","","","","","","","","","","","","","","","","","",""
"","","","","","image-keyboard-response","98","262567","0.0-2.0-5.0-1.38","5e3b0c1e96942c0564ce3018","C3","batch3","","3958","stim/no_39_1_w.png","j","pattern_response","true","j","pattern_21","3958","true","34","","","","","","","","","","","","","","","","","","",""
"","","","","","image-keyboard-response","99","264332","0.0-2.0-6.0","5e3b0c1e96942c0564ce3018","C3","batch3","","1255.5","stim/empty_board.png","j","attention_check","true","j","","","","","500","[""f"",""j""]","","","","","","","","","","","","","","","","",""
"","","","","","html-keyboard-response","100","265143","0.0-2.0-7.0-0.0","5e3b0c1e96942c0564ce3018","C3","batch3","","null","<p class=block-text>Trial 40 out of 78</p>","null","pattern_show_trial_num","","","","","","","","","","","","","","","","","","","","","","","","",""
"","","","","","image-keyboard-response","101","272678","0.0-2.0-7.0-1.0","5e3b0c1e96942c0564ce3018","C3","batch3","","7534.199999809265","stim/no_38_1_b.png","j","pattern_response","true","j","pattern_20","7534.199999809265","true","35","","","","","","","","","","","","","","","","","","",""
"","","","","","html-keyboard-response","102","273981","0.0-2.0-7.0-0.1","5e3b0c1e96942c0564ce3018","C3","batch3","","null","<p class=block-text>Trial 41 out of 78</p>","null","pattern_show_trial_num","","","","","","","","","","","","","","","","","","","","","","","","",""
"","","","","","image-keyboard-response","103","280342","0.0-2.0-7.0-1.1","5e3b0c1e96942c0564ce3018","C3","batch3","","6359.200000286102","stim/no_46_1_b.png","j","pattern_response","true","j","pattern_26","6359.200000286102","true","36","","","","","","","","","","","","","","","","","","",""
"","","","","","html-keyboard-response","104","281653","0.0-2.0-7.0-0.2","5e3b0c1e96942c0564ce3018","C3","batch3","","null","<p class=block-text>Trial 42 out of 78</p>","null","pattern_show_trial_num","","","","","","","","","","","","","","","","","","","","","","","","",""
"","","","","","image-keyboard-response","105","283533","0.0-2.0-7.0-1.2","5e3b0c1e96942c0564ce3018","C3","batch3","","1877","stim/yes_31_hor_b1.png","f","pattern_response","true","f","pattern_55","1877","true","37","","","","","","","","","","","","","","","","","","",""
"","","","","","html-keyboard-response","106","284848","0.0-2.0-7.0-0.3","5e3b0c1e96942c0564ce3018","C3","batch3","","null","<p class=block-text>Trial 43 out of 78</p>","null","pattern_show_trial_num","","","","","","","","","","","","","","","","","","","","","","","","",""
"","","","","","image-keyboard-response","107","292973","0.0-2.0-7.0-1.3","5e3b0c1e96942c0564ce3018","C3","batch3","","8122","stim/no_65_1_b.png","j","pattern_response","true","j","pattern_38","8122","true","38","","","","","","","","","","","","","","","","","","",""
"","","","","","html-keyboard-response","108","294282","0.0-2.0-7.0-0.4","5e3b0c1e96942c0564ce3018","C3","batch3","","null","<p class=block-text>Trial 44 out of 78</p>","null","pattern_show_trial_num","","","","","","","","","","","","","","","","","","","","","","","","",""
"","","","","","image-keyboard-response","109","297797","0.0-2.0-7.0-1.4","5e3b0c1e96942c0564ce3018","C3","batch3","","3511.6000003814697","stim/no_50_1.png","j","pattern_response","true","j","pattern_30","3511.6000003814697","true","39","","","","","","","","","","","","","","","","","","",""
"","","","","","html-keyboard-response","110","299112","0.0-2.0-7.0-0.5","5e3b0c1e96942c0564ce3018","C3","batch3","","null","<p class=block-text>Trial 45 out of 78</p>","null","pattern_show_trial_num","","","","","","","","","","","","","","","","","","","","","","","","",""
"","","","","","image-keyboard-response","111","300670","0.0-2.0-7.0-1.5","5e3b0c1e96942c0564ce3018","C3","batch3","","1554.5999999046326","stim/no_20_1_w.png","j","pattern_response","true","j","pattern_06","1554.5999999046326","true","40","","","","","","","","","","","","","","","","","","",""
"","","","","","html-keyboard-response","112","301976","0.0-2.0-7.0-0.6","5e3b0c1e96942c0564ce3018","C3","batch3","","null","<p class=block-text>Trial 46 out of 78</p>","null","pattern_show_trial_num","","","","","","","","","","","","","","","","","","","","","","","","",""
"","","","","","image-keyboard-response","113","306465","0.0-2.0-7.0-1.6","5e3b0c1e96942c0564ce3018","C3","batch3","","4487.599999904633","stim/yes_37_dia_w1.png","f","pattern_response","true","f","pattern_59","4487.599999904633","true","41","","","","","","","","","","","","","","","","","","",""
"","","","","","html-keyboard-response","114","307767","0.0-2.0-7.0-0.7","5e3b0c1e96942c0564ce3018","C3","batch3","","null","<p class=block-text>Trial 47 out of 78</p>","null","pattern_show_trial_num","","","","","","","","","","","","","","","","","","","","","","","","",""
"","","","","","image-keyboard-response","115","309492","0.0-2.0-7.0-1.7","5e3b0c1e96942c0564ce3018","C3","batch3","","1724.0999999046326","stim/yes_38_hor_b1_b.png","f","pattern_response","true","f","pattern_61","1724.0999999046326","true","42","","","","","","","","","","","","","","","","","","",""
"","","","","","html-keyboard-response","116","310816","0.0-2.0-7.0-0.8","5e3b0c1e96942c0564ce3018","C3","batch3","","null","<p class=block-text>Trial 48 out of 78</p>","null","pattern_show_trial_num","","","","","","","","","","","","","","","","","","","","","","","","",""
"","","","","","image-keyboard-response","117","311492","0.0-2.0-7.0-1.8","5e3b0c1e96942c0564ce3018","C3","batch3","","673.4000000953674","stim/yes_25_hor_b1_b.png","f","pattern_response","true","f","pattern_49","673.4000000953674","true","43","","","","","","","","","","","","","","","","","","",""
"","","","","","html-keyboard-response","118","312807","0.0-2.0-7.0-0.9","5e3b0c1e96942c0564ce3018","C3","batch3","","null","<p class=block-text>Trial 49 out of 78</p>","null","pattern_show_trial_num","","","","","","","","","","","","","","","","","","","","","","","","",""
"","","","","","image-keyboard-response","119","314492","0.0-2.0-7.0-1.9","5e3b0c1e96942c0564ce3018","C3","batch3","","1683.0999999046326","stim/yes_40_dia_b1_b.png","f","pattern_response","true","f","pattern_63","1683.0999999046326","true","44","","","","","","","","","","","","","","","","","","",""
"","","","","","html-keyboard-response","120","315796","0.0-2.0-7.0-0.10","5e3b0c1e96942c0564ce3018","C3","batch3","","null","<p class=block-text>Trial 50 out of 78</p>","null","pattern_show_trial_num","","","","","","","","","","","","","","","","","","","","","","","","",""
"","","","","","image-keyboard-response","121","320686","0.0-2.0-7.0-1.10","5e3b0c1e96942c0564ce3018","C3","batch3","","4888.900000095367","stim/no_36_2_w.png","j","pattern_response","true","j","pattern_18","4888.900000095367","true","45","","","","","","","","","","","","","","","","","","",""
"","","","","","html-keyboard-response","122","321998","0.0-2.0-7.0-0.11","5e3b0c1e96942c0564ce3018","C3","batch3","","null","<p class=block-text>Trial 51 out of 78</p>","null","pattern_show_trial_num","","","","","","","","","","","","","","","","","","","","","","","","",""
"","","","","","image-keyboard-response","123","323061","0.0-2.0-7.0-1.11","5e3b0c1e96942c0564ce3018","C3","batch3","","1061.5","stim/yes_22_ver_w1.png","f","pattern_response","true","f","pattern_47","1061.5","true","46","","","","","","","","","","","","","","","","","","",""
"","","","","","html-keyboard-response","124","324376","0.0-2.0-7.0-0.12","5e3b0c1e96942c0564ce3018","C3","batch3","","null","<p class=block-text>Trial 52 out of 78</p>","null","pattern_show_trial_num","","","","","","","","","","","","","","","","","","","","","","","","",""
"","","","","","image-keyboard-response","125","326324","0.0-2.0-7.0-1.12","5e3b0c1e96942c0564ce3018","C3","batch3","","1946.2000002861023","stim/yes_35_dia_b1.png","f","pattern_response","true","f","pattern_57","1946.2000002861023","true","47","","","","","","","","","","","","","","","","","","",""
"","","","","","html-keyboard-response","126","327639","0.0-2.0-7.0-0.13","5e3b0c1e96942c0564ce3018","C3","batch3","","null","<p class=block-text>Trial 53 out of 78</p>","null","pattern_show_trial_num","","","","","","","","","","","","","","","","","","","","","","","","",""
"","","","","","image-keyboard-response","127","328404","0.0-2.0-7.0-1.13","5e3b0c1e96942c0564ce3018","C3","batch3","","762","stim/yes_28_ver_b1.png","f","pattern_response","true","f","pattern_51","762","true","48","","","","","","","","","","","","","","","","","","",""
"","","","","","html-keyboard-response","128","329714","0.0-2.0-7.0-0.14","5e3b0c1e96942c0564ce3018","C3","batch3","","null","<p class=block-text>Trial 54 out of 78</p>","null","pattern_show_trial_num","","","","","","","","","","","","","","","","","","","","","","","","",""
"","","","","","image-keyboard-response","129","330662","0.0-2.0-7.0-1.14","5e3b0c1e96942c0564ce3018","C3","batch3","","947.2999997138977","stim/yes_55_hor_w1_w.png","f","pattern_response","true","f","pattern_75","947.2999997138977","true","49","","","","","","","","","","","","","","","","","","",""
"","","","","","html-keyboard-response","130","331971","0.0-2.0-7.0-0.15","5e3b0c1e96942c0564ce3018","C3","batch3","","null","<p class=block-text>Trial 55 out of 78</p>","null","pattern_show_trial_num","","","","","","","","","","","","","","","","","","","","","","","","",""
"","","","","","image-keyboard-response","131","332877","0.0-2.0-7.0-1.15","5e3b0c1e96942c0564ce3018","C3","batch3","","904.7000002861023","stim/no_13_2_b.png","j","pattern_response","true","j","pattern_02","904.7000002861023","true","50","","","","","","","","","","","","","","","","","","",""
"","","","","","html-keyboard-response","132","334191","0.0-2.0-7.0-0.16","5e3b0c1e96942c0564ce3018","C3","batch3","","null","<p class=block-text>Trial 56 out of 78</p>","null","pattern_show_trial_num","","","","","","","","","","","","","","","","","","","","","","","","",""
"","","","","","image-keyboard-response","133","338693","0.0-2.0-7.0-1.16","5e3b0c1e96942c0564ce3018","C3","batch3","","4500.400000095367","stim/no_32_1_w.png","j","pattern_response","true","j","pattern_14","4500.400000095367","true","51","","","","","","","","","","","","","","","","","","",""
"","","","","","html-keyboard-response","134","340009","0.0-2.0-7.0-0.17","5e3b0c1e96942c0564ce3018","C3","batch3","","null","<p class=block-text>Trial 57 out of 78</p>","null","pattern_show_trial_num","","","","","","","","","","","","","","","","","","","","","","","","",""
"","","","","","image-keyboard-response","135","344981","0.0-2.0-7.0-1.17","5e3b0c1e96942c0564ce3018","C3","batch3","","4968.300000190735","stim/yes_60_ver_b1_b.png","f","pattern_response","true","f","pattern_77","4968.300000190735","true","52","","","","","","","","","","","","","","","","","","",""
"","","","","","html-keyboard-response","136","346290","0.0-2.0-7.0-0.18","5e3b0c1e96942c0564ce3018","C3","batch3","","null","<p class=block-text>Trial 58 out of 78</p>","null","pattern_show_trial_num","","","","","","","","","","","","","","","","","","","","","","","","",""
"","","","","","image-keyboard-response","137","348157","0.0-2.0-7.0-1.18","5e3b0c1e96942c0564ce3018","C3","batch3","","1863.7000002861023","stim/no_26_1_w.png","j","pattern_response","true","j","pattern_10","1863.7000002861023","true","53","","","","","","","","","","","","","","","","","","",""
"","","","","","html-keyboard-response","138","349474","0.0-2.0-7.0-0.19","5e3b0c1e96942c0564ce3018","C3","batch3","","null","<p class=block-text>Trial 59 out of 78</p>","null","pattern_show_trial_num","","","","","","","","","","","","","","","","","","","","","","","","",""
"","","","","","image-keyboard-response","139","354909","0.0-2.0-7.0-1.19","5e3b0c1e96942c0564ce3018","C3","batch3","","5434","stim/no_62_1_w.png","j","pattern_response","true","j","pattern_36","5434","true","54","","","","","","","","","","","","","","","","","","",""
"","","","","","html-keyboard-response","140","356211","0.0-2.0-7.0-0.20","5e3b0c1e96942c0564ce3018","C3","batch3","","null","<p class=block-text>Trial 60 out of 78</p>","null","pattern_show_trial_num","","","","","","","","","","","","","","","","","","","","","","","","",""
"","","","","","image-keyboard-response","141","359812","0.0-2.0-7.0-1.20","5e3b0c1e96942c0564ce3018","C3","batch3","","3598","stim/no_34_1_b.png","j","pattern_response","true","j","pattern_16","3598","true","55","","","","","","","","","","","","","","","","","","",""
"","","","","","html-keyboard-response","142","361132","0.0-2.0-7.0-0.21","5e3b0c1e96942c0564ce3018","C3","batch3","","null","<p class=block-text>Trial 61 out of 78</p>","null","pattern_show_trial_num","","","","","","","","","","","","","","","","","","","","","","","","",""
"","","","","","image-keyboard-response","143","366405","0.0-2.0-7.0-1.21","5e3b0c1e96942c0564ce3018","C3","batch3","","5271","stim/no_55_1_w.png","j","pattern_response","true","j","pattern_34","5271","true","56","","","","","","","","","","","","","","","","","","",""
"","","","","","html-keyboard-response","144","367713","0.0-2.0-7.0-0.22","5e3b0c1e96942c0564ce3018","C3","batch3","","null","<p class=block-text>Trial 62 out of 78</p>","null","pattern_show_trial_num","","","","","","","","","","","","","","","","","","","","","","","","",""
"","","","","","image-keyboard-response","145","369557","0.0-2.0-7.0-1.22","5e3b0c1e96942c0564ce3018","C3","batch3","","1839.0999999046326","stim/yes_45_hor_b2_b.png","f","pattern_response","true","f","pattern_67","1839.0999999046326","true","57","","","","","","","","","","","","","","","","","","",""
"","","","","","html-keyboard-response","146","370866","0.0-2.0-7.0-0.23","5e3b0c1e96942c0564ce3018","C3","batch3","","null","<p class=block-text>Trial 63 out of 78</p>","null","pattern_show_trial_num","","","","","","","","","","","","","","","","","","","","","","","","",""
"","","","","","image-keyboard-response","147","373772","0.0-2.0-7.0-1.23","5e3b0c1e96942c0564ce3018","C3","batch3","","2904.2999997138977","stim/no_29_1_b.png","j","pattern_response","true","j","pattern_12","2904.2999997138977","true","58","","","","","","","","","","","","","","","","","","",""
"","","","","","html-keyboard-response","148","375100","0.0-2.0-7.0-0.24","5e3b0c1e96942c0564ce3018","C3","batch3","","null","<p class=block-text>Trial 64 out of 78</p>","null","pattern_show_trial_num","","","","","","","","","","","","","","","","","","","","","","","","",""
"","","","","","image-keyboard-response","149","380245","0.0-2.0-7.0-1.24","5e3b0c1e96942c0564ce3018","C3","batch3","","5141.900000095367","stim/no_42_1_w.png","j","pattern_response","true","j","pattern_22","5141.900000095367","true","59","","","","","","","","","","","","","","","","","","",""
"","","","","","html-keyboard-response","150","381554","0.0-2.0-7.0-0.25","5e3b0c1e96942c0564ce3018","C3","batch3","","null","<p class=block-text>Trial 65 out of 78</p>","null","pattern_show_trial_num","","","","","","","","","","","","","","","","","","","","","","","","",""
"","","","","","image-keyboard-response","151","383356","0.0-2.0-7.0-1.25","5e3b0c1e96942c0564ce3018","C3","batch3","","1800.2000002861023","stim/yes_29_ver_w1.png","f","pattern_response","true","f","pattern_53","1800.2000002861023","true","60","","","","","","","","","","","","","","","","","","",""
"","","","","","html-keyboard-response","152","384680","0.0-2.0-7.0-0.26","5e3b0c1e96942c0564ce3018","C3","batch3","","null","<p class=block-text>Trial 66 out of 78</p>","null","pattern_show_trial_num","","","","","","","","","","","","","","","","","","","","","","","","",""
"","","","","","image-keyboard-response","153","385468","0.0-2.0-7.0-1.26","5e3b0c1e96942c0564ce3018","C3","batch3","","784.0999999046326","stim/yes_17_dia_w1.png","f","pattern_response","true","f","pattern_45","784.0999999046326","true","61","","","","","","","","","","","","","","","","","","",""
"","","","","","html-keyboard-response","154","386789","0.0-2.0-7.0-0.27","5e3b0c1e96942c0564ce3018","C3","batch3","","null","<p class=block-text>Trial 67 out of 78</p>","null","pattern_show_trial_num","","","","","","","","","","","","","","","","","","","","","","","","",""
"","","","","","image-keyboard-response","155","394437","0.0-2.0-7.0-1.27","5e3b0c1e96942c0564ce3018","C3","batch3","","7646.199999809265","stim/yes_50_dia_w1.png","f","pattern_response","true","f","pattern_71","7646.199999809265","true","62","","","","","","","","","","","","","","","","","","",""
"","","","","","html-keyboard-response","156","395745","0.0-2.0-7.0-0.28","5e3b0c1e96942c0564ce3018","C3","batch3","","null","<p class=block-text>Trial 68 out of 78</p>","null","pattern_show_trial_num","","","","","","","","","","","","","","","","","","","","","","","","",""
"","","","","","image-keyboard-response","157","398412","0.0-2.0-7.0-1.28","5e3b0c1e96942c0564ce3018","C3","batch3","","2664.0999999046326","stim/yes_48_dia_w1_w.png","f","pattern_response","true","f","pattern_69","2664.0999999046326","true","63","","","","","","","","","","","","","","","","","","",""
"","","","","","html-keyboard-response","158","399728","0.0-2.0-7.0-0.29","5e3b0c1e96942c0564ce3018","C3","batch3","","null","<p class=block-text>Trial 69 out of 78</p>","null","pattern_show_trial_num","","","","","","","","","","","","","","","","","","","","","","","","",""
"","","","","","image-keyboard-response","159","401629","0.0-2.0-7.0-1.29","5e3b0c1e96942c0564ce3018","C3","batch3","","1897","stim/no_17_1_w.png","j","pattern_response","true","j","pattern_04","1897","true","64","","","","","","","","","","","","","","","","","","",""
"","","","","","html-keyboard-response","160","402941","0.0-2.0-7.0-0.30","5e3b0c1e96942c0564ce3018","C3","batch3","","null","<p class=block-text>Trial 70 out of 78</p>","null","pattern_show_trial_num","","","","","","","","","","","","","","","","","","","","","","","","",""
"","","","","","image-keyboard-response","161","404949","0.0-2.0-7.0-1.30","5e3b0c1e96942c0564ce3018","C3","batch3","","2004.9000000953674","stim/yes_52_ver_w1.png","f","pattern_response","true","f","pattern_73","2004.9000000953674","true","65","","","","","","","","","","","","","","","","","","",""
"","","","","","html-keyboard-response","162","406262","0.0-2.0-7.0-0.31","5e3b0c1e96942c0564ce3018","C3","batch3","","null","<p class=block-text>Trial 71 out of 78</p>","null","pattern_show_trial_num","","","","","","","","","","","","","","","","","","","","","","","","",""
"","","","","","image-keyboard-response","163","414788","0.0-2.0-7.0-1.31","5e3b0c1e96942c0564ce3018","C3","batch3","","8523.800000190735","stim/no_48_1_w.png","j","pattern_response","true","j","pattern_28","8523.800000190735","true","66","","","","","","","","","","","","","","","","","","",""
"","","","","","html-keyboard-response","164","416098","0.0-2.0-7.0-0.32","5e3b0c1e96942c0564ce3018","C3","batch3","","null","<p class=block-text>Trial 72 out of 78</p>","null","pattern_show_trial_num","","","","","","","","","","","","","","","","","","","","","","","","",""
"","","","","","image-keyboard-response","165","422604","0.0-2.0-7.0-1.32","5e3b0c1e96942c0564ce3018","C3","batch3","","6501.700000286102","stim/no_52_1.png","j","pattern_response","true","j","pattern_32","6501.700000286102","true","67","","","","","","","","","","","","","","","","","","",""
"","","","","","html-keyboard-response","166","423923","0.0-2.0-7.0-0.33","5e3b0c1e96942c0564ce3018","C3","batch3","","null","<p class=block-text>Trial 73 out of 78</p>","null","pattern_show_trial_num","","","","","","","","","","","","","","","","","","","","","","","","",""
"","","","","","image-keyboard-response","167","425708","0.0-2.0-7.0-1.33","5e3b0c1e96942c0564ce3018","C3","batch3","","1782.0999999046326","stim/yes_43_ver_w1_w.png","f","pattern_response","true","f","pattern_65","1782.0999999046326","true","68","","","","","","","","","","","","","","","","","","",""
"","","","","","html-keyboard-response","168","427021","0.0-2.0-7.0-0.34","5e3b0c1e96942c0564ce3018","C3","batch3","","null","<p class=block-text>Trial 74 out of 78</p>","null","pattern_show_trial_num","","","","","","","","","","","","","","","","","","","","","","","","",""
"","","","","","image-keyboard-response","169","432053","0.0-2.0-7.0-1.34","5e3b0c1e96942c0564ce3018","C3","batch3","","5030","stim/no_44_1.png","j","pattern_response","true","j","pattern_24","5030","true","69","","","","","","","","","","","","","","","","","","",""
"","","","","","html-keyboard-response","170","433378","0.0-2.0-7.0-0.35","5e3b0c1e96942c0564ce3018","C3","batch3","","null","<p class=block-text>Trial 75 out of 78</p>","null","pattern_show_trial_num","","","","","","","","","","","","","","","","","","","","","","","","",""
"","","","","","image-keyboard-response","171","434301","0.0-2.0-7.0-1.35","5e3b0c1e96942c0564ce3018","C3","batch3","","919.5999999046326","stim/yes_14_hor_b1_w.png","f","pattern_response","true","f","pattern_43","919.5999999046326","true","70","","","","","","","","","","","","","","","","","","",""
"","","","","","html-keyboard-response","172","435615","0.0-2.0-7.0-0.36","5e3b0c1e96942c0564ce3018","C3","batch3","","null","<p class=block-text>Trial 76 out of 78</p>","null","pattern_show_trial_num","","","","","","","","","","","","","","","","","","","","","","","","",""
"","","","","","image-keyboard-response","173","444326","0.0-2.0-7.0-1.36","5e3b0c1e96942c0564ce3018","C3","batch3","","8709.5","stim/no_70_2.png","j","pattern_response","true","j","pattern_40","8709.5","true","71","","","","","","","","","","","","","","","","","","",""
"","","","","","html-keyboard-response","174","445637","0.0-2.0-7.0-0.37","5e3b0c1e96942c0564ce3018","C3","batch3","","null","<p class=block-text>Trial 77 out of 78</p>","null","pattern_show_trial_num","","","","","","","","","","","","","","","","","","","","","","","","",""
"","","","","","image-keyboard-response","175","446829","0.0-2.0-7.0-1.37","5e3b0c1e96942c0564ce3018","C3","batch3","","1188.7000002861023","stim/yes_67_hor_b1.png","f","pattern_response","true","f","pattern_79","1188.7000002861023","true","72","","","","","","","","","","","","","","","","","","",""
"","","","","","html-keyboard-response","176","448150","0.0-2.0-7.0-0.38","5e3b0c1e96942c0564ce3018","C3","batch3","","null","<p class=block-text>Trial 78 out of 78</p>","null","pattern_show_trial_num","","","","","","","","","","","","","","","","","","","","","","","","",""
"","","","","","image-keyboard-response","177","452853","0.0-2.0-7.0-1.38","5e3b0c1e96942c0564ce3018","C3","batch3","","4701.300000190735","stim/no_23_1.png","j","pattern_response","true","j","pattern_08","4701.300000190735","true","73","","","","","","","","","","","","","","","","","","",""
"","","","","","html-button-response","178","495985","0.0-2.0-8.0","5e3b0c1e96942c0564ce3018","C3","batch3","","42620.59999990463","<p class = block-text>This concludes the 4-in-a-row detection game.Thank you for your responses!<br>
            You responded correctly on 94% of the trials.<br>
            When you are ready, press ""Continue"" button to continue </p>","0","","","","","","","","","","","","","","","","","","","","","","","","","",""
"true","","","","","fullscreen","179","500693","0.0-3.0-0.0","5e3b0c1e96942c0564ce3018","C3","batch3","","","","","spm_fullscreen","","","","","","","","","","","","","","","","","","","","","","","","",""
"","","","","","html-button-response","180","512430","0.0-3.0-1.0","5e3b0c1e96942c0564ce3018","C3","batch3","","11736","<p class = block-text><b>Instructions</b> <br>This is a widely used intelligence test in research. <br>In this test, a figure with a missing piece will be presented.<br>Below the figure are alternative pieces to complete the figure, only one of which is correct.<br> Different figures might involve different principles for obtaining the missing piece<br>Your job is to select the most logical piece to complete the figure.</p>","0","","","","","","","","","","","","","","","","","","","","","","","","","",""
"","","","","","html-keyboard-response","181","513239","0.0-3.0-2.0-0.0","5e3b0c1e96942c0564ce3018","C3","batch3","","null","<p class=block-text>Trial 1 out of 60</p>","null","spm_show_trial_num","","","","","","","","","","","","","","","","","","","","","","","","",""
"","","","","","image-button-response","182","533151","0.0-3.0-2.0-1.0","5e3b0c1e96942c0564ce3018","C3","batch3","","19906.900000095367","img/question_1_1.jpeg","3","spm_respsonse","1","4","mat_01","","","","","","1","19906.900000095367","","","","","","","","","","","","","","",""
"","","","","","html-keyboard-response","183","534209","0.0-3.0-2.0-0.1","5e3b0c1e96942c0564ce3018","C3","batch3","","null","<p class=block-text>Trial 2 out of 60</p>","null","spm_show_trial_num","","","","","","","","","","","","","","","","","","","","","","","","",""
"","","","","","image-button-response","184","537126","0.0-3.0-2.0-1.1","5e3b0c1e96942c0564ce3018","C3","batch3","","2913","img/question_1_2.jpeg","4","spm_respsonse","1","5","mat_02","","","","","","1","2913","","","","","","","","","","","","","","",""
"","","","","","html-keyboard-response","185","538183","0.0-3.0-2.0-0.2","5e3b0c1e96942c0564ce3018","C3","batch3","","null","<p class=block-text>Trial 3 out of 60</p>","null","spm_show_trial_num","","","","","","","","","","","","","","","","","","","","","","","","",""
"","","","","","image-button-response","186","542514","0.0-3.0-2.0-1.2","5e3b0c1e96942c0564ce3018","C3","batch3","","4329.300000190735","img/question_1_3.jpeg","0","spm_respsonse","1","1","mat_03","","","","","","1","4329.300000190735","","","","","","","","","","","","","","",""
"","","","","","html-keyboard-response","187","543584","0.0-3.0-2.0-0.3","5e3b0c1e96942c0564ce3018","C3","batch3","","null","<p class=block-text>Trial 4 out of 60</p>","null","spm_show_trial_num","","","","","","","","","","","","","","","","","","","","","","","","",""
"","","","","","image-button-response","188","551670","0.0-3.0-2.0-1.3","5e3b0c1e96942c0564ce3018","C3","batch3","","8084.300000190735","img/question_1_4.jpeg","1","spm_respsonse","1","2","mat_04","","","","","","1","8084.300000190735","","","","","","","","","","","","","","",""
"","","","","","html-keyboard-response","189","552731","0.0-3.0-2.0-0.4","5e3b0c1e96942c0564ce3018","C3","batch3","","null","<p class=block-text>Trial 5 out of 60</p>","null","spm_show_trial_num","","","","","","","","","","","","","","","","","","","","","","","","",""
"","","","","","image-button-response","190","558830","0.0-3.0-2.0-1.4","5e3b0c1e96942c0564ce3018","C3","batch3","","6095","img/question_1_5.jpeg","5","spm_respsonse","1","6","mat_05","","","","","","1","6095","","","","","","","","","","","","","","",""
"","","","","","html-keyboard-response","191","559882","0.0-3.0-2.0-0.5","5e3b0c1e96942c0564ce3018","C3","batch3","","null","<p class=block-text>Trial 6 out of 60</p>","null","spm_show_trial_num","","","","","","","","","","","","","","","","","","","","","","","","",""
"","","","","","image-button-response","192","564128","0.0-3.0-2.0-1.5","5e3b0c1e96942c0564ce3018","C3","batch3","","4245.300000190735","img/question_1_6.jpeg","2","spm_respsonse","1","3","mat_06","","","","","","1","4245.300000190735","","","","","","","","","","","","","","",""
"","","","","","html-keyboard-response","193","565194","0.0-3.0-2.0-0.6","5e3b0c1e96942c0564ce3018","C3","batch3","","null","<p class=block-text>Trial 7 out of 60</p>","null","spm_show_trial_num","","","","","","","","","","","","","","","","","","","","","","","","",""
"","","","","","image-button-response","194","568440","0.0-3.0-2.0-1.6","5e3b0c1e96942c0564ce3018","C3","batch3","","3241.9000000953674","img/question_1_7.jpeg","5","spm_respsonse","1","6","mat_07","","","","","","1","3241.9000000953674","","","","","","","","","","","","","","",""
"","","","","","html-keyboard-response","195","569493","0.0-3.0-2.0-0.7","5e3b0c1e96942c0564ce3018","C3","batch3","","null","<p class=block-text>Trial 8 out of 60</p>","null","spm_show_trial_num","","","","","","","","","","","","","","","","","","","","","","","","",""
"","","","","","image-button-response","196","575850","0.0-3.0-2.0-1.7","5e3b0c1e96942c0564ce3018","C3","batch3","","6356","img/question_1_8.jpeg","1","spm_respsonse","1","2","mat_08","","","","","","1","6356","","","","","","","","","","","","","","",""
"","","","","","html-keyboard-response","197","576925","0.0-3.0-2.0-0.8","5e3b0c1e96942c0564ce3018","C3","batch3","","null","<p class=block-text>Trial 9 out of 60</p>","null","spm_show_trial_num","","","","","","","","","","","","","","","","","","","","","","","","",""
"","","","","","image-button-response","198","583472","0.0-3.0-2.0-1.8","5e3b0c1e96942c0564ce3018","C3","batch3","","6545.900000095367","img/question_1_9.jpeg","0","spm_respsonse","1","1","mat_09","","","","","","1","6545.900000095367","","","","","","","","","","","","","","",""
"","","","","","html-keyboard-response","199","584528","0.0-3.0-2.0-0.9","5e3b0c1e96942c0564ce3018","C3","batch3","","null","<p class=block-text>Trial 10 out of 60</p>","null","spm_show_trial_num","","","","","","","","","","","","","","","","","","","","","","","","",""
"","","","","","image-button-response","200","591644","0.0-3.0-2.0-1.9","5e3b0c1e96942c0564ce3018","C3","batch3","","7114.400000095367","img/question_1_10.jpeg","2","spm_respsonse","1","3","mat_10","","","","","","1","7114.400000095367","","","","","","","","","","","","","","",""
"","","","","","html-keyboard-response","201","592710","0.0-3.0-2.0-0.10","5e3b0c1e96942c0564ce3018","C3","batch3","","null","<p class=block-text>Trial 11 out of 60</p>","null","spm_show_trial_num","","","","","","","","","","","","","","","","","","","","","","","","",""
"","","","","","image-button-response","202","606618","0.0-3.0-2.0-1.10","5e3b0c1e96942c0564ce3018","C3","batch3","","13904.400000095367","img/question_1_11.jpeg","3","spm_respsonse","1","4","mat_11","","","","","","1","13904.400000095367","","","","","","","","","","","","","","",""
"","","","","","html-keyboard-response","203","607680","0.0-3.0-2.0-0.11","5e3b0c1e96942c0564ce3018","C3","batch3","","null","<p class=block-text>Trial 12 out of 60</p>","null","spm_show_trial_num","","","","","","","","","","","","","","","","","","","","","","","","",""
"","","","","","image-button-response","204","618612","0.0-3.0-2.0-1.11","5e3b0c1e96942c0564ce3018","C3","batch3","","10929.099999904633","img/question_1_12.jpeg","0","spm_respsonse","0","5","mat_12","","","","","","0","10929.099999904633","","","","","","","","","","","","","","",""
"","","","","","html-keyboard-response","205","619677","0.0-3.0-2.0-0.12","5e3b0c1e96942c0564ce3018","C3","batch3","","null","<p class=block-text>Trial 13 out of 60</p>","null","spm_show_trial_num","","","","","","","","","","","","","","","","","","","","","","","","",""
"","","","","","image-button-response","206","621932","0.0-3.0-2.0-1.12","5e3b0c1e96942c0564ce3018","C3","batch3","","2253.199999809265","img/question_2_1.jpeg","1","spm_respsonse","1","2","mat_13","","","","","","1","2253.199999809265","","","","","","","","","","","","","","",""
"","","","","","html-keyboard-response","207","622985","0.0-3.0-2.0-0.13","5e3b0c1e96942c0564ce3018","C3","batch3","","null","<p class=block-text>Trial 14 out of 60</p>","null","spm_show_trial_num","","","","","","","","","","","","","","","","","","","","","","","","",""
"","","","","","image-button-response","208","631344","0.0-3.0-2.0-1.13","5e3b0c1e96942c0564ce3018","C3","batch3","","8357.599999904633","img/question_2_2.jpeg","5","spm_respsonse","1","6","mat_14","","","","","","1","8357.599999904633","","","","","","","","","","","","","","",""
"","","","","","html-keyboard-response","209","632396","0.0-3.0-2.0-0.14","5e3b0c1e96942c0564ce3018","C3","batch3","","null","<p class=block-text>Trial 15 out of 60</p>","null","spm_show_trial_num","","","","","","","","","","","","","","","","","","","","","","","","",""
"","","","","","image-button-response","210","635440","0.0-3.0-2.0-1.14","5e3b0c1e96942c0564ce3018","C3","batch3","","3042.6000003814697","img/question_2_3.jpeg","0","spm_respsonse","1","1","mat_15","","","","","","1","3042.6000003814697","","","","","","","","","","","","","","",""
"","","","","","html-keyboard-response","211","636492","0.0-3.0-2.0-0.15","5e3b0c1e96942c0564ce3018","C3","batch3","","null","<p class=block-text>Trial 16 out of 60</p>","null","spm_show_trial_num","","","","","","","","","","","","","","","","","","","","","","","","",""
"","","","","","image-button-response","212","641694","0.0-3.0-2.0-1.15","5e3b0c1e96942c0564ce3018","C3","batch3","","5201","img/question_2_4.jpeg","1","spm_respsonse","1","2","mat_16","","","","","","1","5201","","","","","","","","","","","","","","",""
"","","","","","html-keyboard-response","213","642755","0.0-3.0-2.0-0.16","5e3b0c1e96942c0564ce3018","C3","batch3","","null","<p class=block-text>Trial 17 out of 60</p>","null","spm_show_trial_num","","","","","","","","","","","","","","","","","","","","","","","","",""
"","","","","","image-button-response","214","646892","0.0-3.0-2.0-1.16","5e3b0c1e96942c0564ce3018","C3","batch3","","4134.699999809265","img/question_2_5.jpeg","0","spm_respsonse","1","1","mat_17","","","","","","1","4134.699999809265","","","","","","","","","","","","","","",""
"","","","","","html-keyboard-response","215","647960","0.0-3.0-2.0-0.17","5e3b0c1e96942c0564ce3018","C3","batch3","","null","<p class=block-text>Trial 18 out of 60</p>","null","spm_show_trial_num","","","","","","","","","","","","","","","","","","","","","","","","",""
"","","","","","image-button-response","216","652986","0.0-3.0-2.0-1.17","5e3b0c1e96942c0564ce3018","C3","batch3","","5024.200000286102","img/question_2_6.jpeg","2","spm_respsonse","1","3","mat_18","","","","","","1","5024.200000286102","","","","","","","","","","","","","","",""
"","","","","","html-keyboard-response","217","654052","0.0-3.0-2.0-0.18","5e3b0c1e96942c0564ce3018","C3","batch3","","null","<p class=block-text>Trial 19 out of 60</p>","null","spm_show_trial_num","","","","","","","","","","","","","","","","","","","","","","","","",""
"","","","","","image-button-response","218","657730","0.0-3.0-2.0-1.18","5e3b0c1e96942c0564ce3018","C3","batch3","","3675.5999999046326","img/question_2_7.jpeg","4","spm_respsonse","1","5","mat_19","","","","","","1","3675.5999999046326","","","","","","","","","","","","","","",""
"","","","","","html-keyboard-response","219","658783","0.0-3.0-2.0-0.19","5e3b0c1e96942c0564ce3018","C3","batch3","","null","<p class=block-text>Trial 20 out of 60</p>","null","spm_show_trial_num","","","","","","","","","","","","","","","","","","","","","","","","",""
"","","","","","image-button-response","220","663724","0.0-3.0-2.0-1.19","5e3b0c1e96942c0564ce3018","C3","batch3","","4940","img/question_2_8.jpeg","3","spm_respsonse","0","6","mat_20","","","","","","0","4940","","","","","","","","","","","","","","",""
"","","","","","html-keyboard-response","221","664787","0.0-3.0-2.0-0.20","5e3b0c1e96942c0564ce3018","C3","batch3","","null","<p class=block-text>Trial 21 out of 60</p>","null","spm_show_trial_num","","","","","","","","","","","","","","","","","","","","","","","","",""
"","","","","","image-button-response","222","671236","0.0-3.0-2.0-1.20","5e3b0c1e96942c0564ce3018","C3","batch3","","6445.699999809265","img/question_2_9.jpeg","3","spm_respsonse","1","4","mat_21","","","","","","1","6445.699999809265","","","","","","","","","","","","","","",""
"","","","","","html-keyboard-response","223","672289","0.0-3.0-2.0-0.21","5e3b0c1e96942c0564ce3018","C3","batch3","","null","<p class=block-text>Trial 22 out of 60</p>","null","spm_show_trial_num","","","","","","","","","","","","","","","","","","","","","","","","",""
"","","","","","image-button-response","224","676098","0.0-3.0-2.0-1.21","5e3b0c1e96942c0564ce3018","C3","batch3","","3807.5","img/question_2_10.jpeg","2","spm_respsonse","1","3","mat_22","","","","","","1","3807.5","","","","","","","","","","","","","","",""
"","","","","","html-keyboard-response","225","677159","0.0-3.0-2.0-0.22","5e3b0c1e96942c0564ce3018","C3","batch3","","null","<p class=block-text>Trial 23 out of 60</p>","null","spm_show_trial_num","","","","","","","","","","","","","","","","","","","","","","","","",""
"","","","","","image-button-response","226","682501","0.0-3.0-2.0-1.22","5e3b0c1e96942c0564ce3018","C3","batch3","","5339","img/question_2_11.jpeg","3","spm_respsonse","1","4","mat_23","","","","","","1","5339","","","","","","","","","","","","","","",""
"","","","","","html-keyboard-response","227","683553","0.0-3.0-2.0-0.23","5e3b0c1e96942c0564ce3018","C3","batch3","","null","<p class=block-text>Trial 24 out of 60</p>","null","spm_show_trial_num","","","","","","","","","","","","","","","","","","","","","","","","",""
"","","","","","image-button-response","228","702454","0.0-3.0-2.0-1.23","5e3b0c1e96942c0564ce3018","C3","batch3","","18899.699999809265","img/question_2_12.jpeg","4","spm_respsonse","1","5","mat_24","","","","","","1","18899.699999809265","","","","","","","","","","","","","","",""
"","","","","","html-button-response","229","705525","0.0-3.0-3.0","5e3b0c1e96942c0564ce3018","C3","batch3","","2819.5","<p class = block-text>Attention check: Please choose 1<br></p>","0","attention_check","true","","","","","","","","","","","","","","","","","","","","","","","",""
"","","","","","html-keyboard-response","230","706340","0.0-3.0-4.0-0.0","5e3b0c1e96942c0564ce3018","C3","batch3","","null","<p class=block-text>Trial 25 out of 60</p>","null","spm_show_trial_num","","","","","","","","","","","","","","","","","","","","","","","","",""
"","","","","","image-button-response","231","713219","0.0-3.0-4.0-1.0","5e3b0c1e96942c0564ce3018","C3","batch3","","6877.799999713898","img/question_3_1.jpeg","7","spm_respsonse","1","8","mat_25","","","","","","1","6877.799999713898","","","","","","","","","","","","","","",""
"","","","","","html-keyboard-response","232","714272","0.0-3.0-4.0-0.1","5e3b0c1e96942c0564ce3018","C3","batch3","","null","<p class=block-text>Trial 26 out of 60</p>","null","spm_show_trial_num","","","","","","","","","","","","","","","","","","","","","","","","",""
"","","","","","image-button-response","233","726929","0.0-3.0-4.0-1.1","5e3b0c1e96942c0564ce3018","C3","batch3","","12655.400000095367","img/question_3_2.jpeg","1","spm_respsonse","1","2","mat_26","","","","","","1","12655.400000095367","","","","","","","","","","","","","","",""
"","","","","","html-keyboard-response","234","727981","0.0-3.0-4.0-0.2","5e3b0c1e96942c0564ce3018","C3","batch3","","null","<p class=block-text>Trial 27 out of 60</p>","null","spm_show_trial_num","","","","","","","","","","","","","","","","","","","","","","","","",""
"","","","","","image-button-response","235","735463","0.0-3.0-4.0-1.2","5e3b0c1e96942c0564ce3018","C3","batch3","","7477.199999809265","img/question_3_3.jpeg","2","spm_respsonse","1","3","mat_27","","","","","","1","7477.199999809265","","","","","","","","","","","","","","",""
"","","","","","html-keyboard-response","236","736528","0.0-3.0-4.0-0.3","5e3b0c1e96942c0564ce3018","C3","batch3","","null","<p class=block-text>Trial 28 out of 60</p>","null","spm_show_trial_num","","","","","","","","","","","","","","","","","","","","","","","","",""
"","","","","","image-button-response","237","761518","0.0-3.0-4.0-1.3","5e3b0c1e96942c0564ce3018","C3","batch3","","24986.700000286102","img/question_3_4.jpeg","7","spm_respsonse","1","8","mat_28","","","","","","1","24986.700000286102","","","","","","","","","","","","","","",""
"","","","","","html-keyboard-response","238","762570","0.0-3.0-4.0-0.4","5e3b0c1e96942c0564ce3018","C3","batch3","","null","<p class=block-text>Trial 29 out of 60</p>","null","spm_show_trial_num","","","","","","","","","","","","","","","","","","","","","","","","",""
"","","","","","image-button-response","239","773239","0.0-3.0-4.0-1.4","5e3b0c1e96942c0564ce3018","C3","batch3","","10664.700000286102","img/question_3_5.jpeg","6","spm_respsonse","1","7","mat_29","","","","","","1","10664.700000286102","","","","","","","","","","","","","","",""
"","","","","","html-keyboard-response","240","774292","0.0-3.0-4.0-0.5","5e3b0c1e96942c0564ce3018","C3","batch3","","null","<p class=block-text>Trial 30 out of 60</p>","null","spm_show_trial_num","","","","","","","","","","","","","","","","","","","","","","","","",""
"","","","","","image-button-response","241","782104","0.0-3.0-4.0-1.5","5e3b0c1e96942c0564ce3018","C3","batch3","","7811.099999904633","img/question_3_6.jpeg","3","spm_respsonse","1","4","mat_30","","","","","","1","7811.099999904633","","","","","","","","","","","","","","",""
"","","","","","html-keyboard-response","242","783156","0.0-3.0-4.0-0.6","5e3b0c1e96942c0564ce3018","C3","batch3","","null","<p class=block-text>Trial 31 out of 60</p>","null","spm_show_trial_num","","","","","","","","","","","","","","","","","","","","","","","","",""
"","","","","","image-button-response","243","791505","0.0-3.0-4.0-1.6","5e3b0c1e96942c0564ce3018","C3","batch3","","8346.89999961853","img/question_3_7.jpeg","4","spm_respsonse","1","5","mat_31","","","","","","1","8346.89999961853","","","","","","","","","","","","","","",""
"","","","","","html-keyboard-response","244","792568","0.0-3.0-4.0-0.7","5e3b0c1e96942c0564ce3018","C3","batch3","","null","<p class=block-text>Trial 32 out of 60</p>","null","spm_show_trial_num","","","","","","","","","","","","","","","","","","","","","","","","",""
"","","","","","image-button-response","245","841700","0.0-3.0-4.0-1.7","5e3b0c1e96942c0564ce3018","C3","batch3","","49130.2000002861","img/question_3_8.jpeg","5","spm_respsonse","0","1","mat_32","","","","","","0","49130.2000002861","","","","","","","","","","","","","","",""
"","","","","","html-keyboard-response","246","842753","0.0-3.0-4.0-0.8","5e3b0c1e96942c0564ce3018","C3","batch3","","null","<p class=block-text>Trial 33 out of 60</p>","null","spm_show_trial_num","","","","","","","","","","","","","","","","","","","","","","","","",""
"","","","","","image-button-response","247","853944","0.0-3.0-4.0-1.8","5e3b0c1e96942c0564ce3018","C3","batch3","","11186.799999713898","img/question_3_9.jpeg","6","spm_respsonse","1","7","mat_33","","","","","","1","11186.799999713898","","","","","","","","","","","","","","",""
"","","","","","html-keyboard-response","248","854996","0.0-3.0-4.0-0.9","5e3b0c1e96942c0564ce3018","C3","batch3","","null","<p class=block-text>Trial 34 out of 60</p>","null","spm_show_trial_num","","","","","","","","","","","","","","","","","","","","","","","","",""
"","","","","","image-button-response","249","872524","0.0-3.0-4.0-1.9","5e3b0c1e96942c0564ce3018","C3","batch3","","17526.5","img/question_3_10.jpeg","5","spm_respsonse","1","6","mat_34","","","","","","1","17526.5","","","","","","","","","","","","","","",""
"","","","","","html-keyboard-response","250","873586","0.0-3.0-4.0-0.10","5e3b0c1e96942c0564ce3018","C3","batch3","","null","<p class=block-text>Trial 35 out of 60</p>","null","spm_show_trial_num","","","","","","","","","","","","","","","","","","","","","","","","",""
"","","","","","image-button-response","251","904208","0.0-3.0-4.0-1.10","5e3b0c1e96942c0564ce3018","C3","batch3","","30621","img/question_3_11.jpeg","0","spm_respsonse","1","1","mat_35","","","","","","1","30621","","","","","","","","","","","","","","",""
"","","","","","html-keyboard-response","252","905262","0.0-3.0-4.0-0.11","5e3b0c1e96942c0564ce3018","C3","batch3","","null","<p class=block-text>Trial 36 out of 60</p>","null","spm_show_trial_num","","","","","","","","","","","","","","","","","","","","","","","","",""
"","","","","","image-button-response","253","930848","0.0-3.0-4.0-1.11","5e3b0c1e96942c0564ce3018","C3","batch3","","25585","img/question_3_12.jpeg","1","spm_respsonse","1","2","mat_36","","","","","","1","25585","","","","","","","","","","","","","","",""
"","","","","","html-keyboard-response","254","931901","0.0-3.0-4.0-0.12","5e3b0c1e96942c0564ce3018","C3","batch3","","null","<p class=block-text>Trial 37 out of 60</p>","null","spm_show_trial_num","","","","","","","","","","","","","","","","","","","","","","","","",""
"","","","","","image-button-response","255","936388","0.0-3.0-4.0-1.12","5e3b0c1e96942c0564ce3018","C3","batch3","","4485.800000190735","img/question_4_1.jpeg","2","spm_respsonse","1","3","mat_37","","","","","","1","4485.800000190735","","","","","","","","","","","","","","",""
"","","","","","html-keyboard-response","256","937441","0.0-3.0-4.0-0.13","5e3b0c1e96942c0564ce3018","C3","batch3","","null","<p class=block-text>Trial 38 out of 60</p>","null","spm_show_trial_num","","","","","","","","","","","","","","","","","","","","","","","","",""
"","","","","","image-button-response","257","946656","0.0-3.0-4.0-1.13","5e3b0c1e96942c0564ce3018","C3","batch3","","9213.800000190735","img/question_4_2.jpeg","3","spm_respsonse","1","4","mat_38","","","","","","1","9213.800000190735","","","","","","","","","","","","","","",""
"","","","","","html-keyboard-response","258","947711","0.0-3.0-4.0-0.14","5e3b0c1e96942c0564ce3018","C3","batch3","","null","<p class=block-text>Trial 39 out of 60</p>","null","spm_show_trial_num","","","","","","","","","","","","","","","","","","","","","","","","",""
"","","","","","image-button-response","259","956078","0.0-3.0-4.0-1.14","5e3b0c1e96942c0564ce3018","C3","batch3","","8365.200000286102","img/question_4_3.jpeg","2","spm_respsonse","1","3","mat_39","","","","","","1","8365.200000286102","","","","","","","","","","","","","","",""
"","","","","","html-keyboard-response","260","957130","0.0-3.0-4.0-0.15","5e3b0c1e96942c0564ce3018","C3","batch3","","null","<p class=block-text>Trial 40 out of 60</p>","null","spm_show_trial_num","","","","","","","","","","","","","","","","","","","","","","","","",""
"","","","","","image-button-response","261","965260","0.0-3.0-4.0-1.15","5e3b0c1e96942c0564ce3018","C3","batch3","","8128.900000095367","img/question_4_4.jpeg","6","spm_respsonse","1","7","mat_40","","","","","","1","8128.900000095367","","","","","","","","","","","","","","",""
"","","","","","html-keyboard-response","262","966311","0.0-3.0-4.0-0.16","5e3b0c1e96942c0564ce3018","C3","batch3","","null","<p class=block-text>Trial 41 out of 60</p>","null","spm_show_trial_num","","","","","","","","","","","","","","","","","","","","","","","","",""
"","","","","","image-button-response","263","976526","0.0-3.0-4.0-1.16","5e3b0c1e96942c0564ce3018","C3","batch3","","10213","img/question_4_5.jpeg","7","spm_respsonse","1","8","mat_41","","","","","","1","10213","","","","","","","","","","","","","","",""
"","","","","","html-keyboard-response","264","977579","0.0-3.0-4.0-0.17","5e3b0c1e96942c0564ce3018","C3","batch3","","null","<p class=block-text>Trial 42 out of 60</p>","null","spm_show_trial_num","","","","","","","","","","","","","","","","","","","","","","","","",""
"","","","","","image-button-response","265","992348","0.0-3.0-4.0-1.17","5e3b0c1e96942c0564ce3018","C3","batch3","","14764.700000286102","img/question_4_6.jpeg","5","spm_respsonse","1","6","mat_42","","","","","","1","14764.700000286102","","","","","","","","","","","","","","",""
"","","","","","html-keyboard-response","266","993402","0.0-3.0-4.0-0.18","5e3b0c1e96942c0564ce3018","C3","batch3","","null","<p class=block-text>Trial 43 out of 60</p>","null","spm_show_trial_num","","","","","","","","","","","","","","","","","","","","","","","","",""
"","","","","","image-button-response","267","1012322","0.0-3.0-4.0-1.18","5e3b0c1e96942c0564ce3018","C3","batch3","","18918.400000095367","img/question_4_7.jpeg","4","spm_respsonse","1","5","mat_43","","","","","","1","18918.400000095367","","","","","","","","","","","","","","",""
"","","","","","html-keyboard-response","268","1013373","0.0-3.0-4.0-0.19","5e3b0c1e96942c0564ce3018","C3","batch3","","null","<p class=block-text>Trial 44 out of 60</p>","null","spm_show_trial_num","","","","","","","","","","","","","","","","","","","","","","","","",""
"","","","","","image-button-response","269","1020027","0.0-3.0-4.0-1.19","5e3b0c1e96942c0564ce3018","C3","batch3","","6653.700000286102","img/question_4_8.jpeg","4","spm_respsonse","0","4","mat_44","","","","","","0","6653.700000286102","","","","","","","","","","","","","","",""
"","","","","","html-keyboard-response","270","1021079","0.0-3.0-4.0-0.20","5e3b0c1e96942c0564ce3018","C3","batch3","","null","<p class=block-text>Trial 45 out of 60</p>","null","spm_show_trial_num","","","","","","","","","","","","","","","","","","","","","","","","",""
"","","","","","image-button-response","271","1035940","0.0-3.0-4.0-1.20","5e3b0c1e96942c0564ce3018","C3","batch3","","14859.400000095367","img/question_4_9.jpeg","0","spm_respsonse","1","1","mat_45","","","","","","1","14859.400000095367","","","","","","","","","","","","","","",""
"","","","","","html-keyboard-response","272","1037001","0.0-3.0-4.0-0.21","5e3b0c1e96942c0564ce3018","C3","batch3","","null","<p class=block-text>Trial 46 out of 60</p>","null","spm_show_trial_num","","","","","","","","","","","","","","","","","","","","","","","","",""
"","","","","","image-button-response","273","1051906","0.0-3.0-4.0-1.21","5e3b0c1e96942c0564ce3018","C3","batch3","","14904","img/question_4_10.jpeg","1","spm_respsonse","1","2","mat_46","","","","","","1","14904","","","","","","","","","","","","","","",""
"","","","","","html-keyboard-response","274","1052973","0.0-3.0-4.0-0.22","5e3b0c1e96942c0564ce3018","C3","batch3","","null","<p class=block-text>Trial 47 out of 60</p>","null","spm_show_trial_num","","","","","","","","","","","","","","","","","","","","","","","","",""
"","","","","","image-button-response","275","1100708","0.0-3.0-4.0-1.22","5e3b0c1e96942c0564ce3018","C3","batch3","","47731","img/question_4_11.jpeg","4","spm_respsonse","1","5","mat_47","","","","","","1","47731","","","","","","","","","","","","","","",""
"","","","","","html-keyboard-response","276","1101761","0.0-3.0-4.0-0.23","5e3b0c1e96942c0564ce3018","C3","batch3","","null","<p class=block-text>Trial 48 out of 60</p>","null","spm_show_trial_num","","","","","","","","","","","","","","","","","","","","","","","","",""
"","","","","","image-button-response","277","1134098","0.0-3.0-4.0-1.23","5e3b0c1e96942c0564ce3018","C3","batch3","","32333.299999713898","img/question_4_12.jpeg","7","spm_respsonse","0","6","mat_48","","","","","","0","32333.299999713898","","","","","","","","","","","","","","",""
"","","","","","html-keyboard-response","278","1135165","0.0-3.0-4.0-0.24","5e3b0c1e96942c0564ce3018","C3","batch3","","null","<p class=block-text>Trial 49 out of 60</p>","null","spm_show_trial_num","","","","","","","","","","","","","","","","","","","","","","","","",""
"","","","","","image-button-response","279","1142934","0.0-3.0-4.0-1.24","5e3b0c1e96942c0564ce3018","C3","batch3","","7767.099999904633","img/question_5_1.jpeg","6","spm_respsonse","1","7","mat_49","","","","","","1","7767.099999904633","","","","","","","","","","","","","","",""
"","","","","","html-keyboard-response","280","1143998","0.0-3.0-4.0-0.25","5e3b0c1e96942c0564ce3018","C3","batch3","","null","<p class=block-text>Trial 50 out of 60</p>","null","spm_show_trial_num","","","","","","","","","","","","","","","","","","","","","","","","",""
"","","","","","image-button-response","281","1190766","0.0-3.0-4.0-1.25","5e3b0c1e96942c0564ce3018","C3","batch3","","46764.40000009537","img/question_5_2.jpeg","5","spm_respsonse","1","6","mat_50","","","","","","1","46764.40000009537","","","","","","","","","","","","","","",""
"","","","","","html-keyboard-response","282","1191819","0.0-3.0-4.0-0.26","5e3b0c1e96942c0564ce3018","C3","batch3","","null","<p class=block-text>Trial 51 out of 60</p>","null","spm_show_trial_num","","","","","","","","","","","","","","","","","","","","","","","","",""
"","","","","","image-button-response","283","1202596","0.0-3.0-4.0-1.26","5e3b0c1e96942c0564ce3018","C3","batch3","","10772.400000095367","img/question_5_3.jpeg","7","spm_respsonse","1","8","mat_51","","","","","","1","10772.400000095367","","","","","","","","","","","","","","",""
"","","","","","html-keyboard-response","284","1203663","0.0-3.0-4.0-0.27","5e3b0c1e96942c0564ce3018","C3","batch3","","null","<p class=block-text>Trial 52 out of 60</p>","null","spm_show_trial_num","","","","","","","","","","","","","","","","","","","","","","","","",""
"","","","","","image-button-response","285","1212280","0.0-3.0-4.0-1.27","5e3b0c1e96942c0564ce3018","C3","batch3","","8613.400000095367","img/question_5_4.jpeg","1","spm_respsonse","1","2","mat_52","","","","","","1","8613.400000095367","","","","","","","","","","","","","","",""
"","","","","","html-keyboard-response","286","1213332","0.0-3.0-4.0-0.28","5e3b0c1e96942c0564ce3018","C3","batch3","","null","<p class=block-text>Trial 53 out of 60</p>","null","spm_show_trial_num","","","","","","","","","","","","","","","","","","","","","","","","",""
"","","","","","image-button-response","287","1224633","0.0-3.0-4.0-1.28","5e3b0c1e96942c0564ce3018","C3","batch3","","11299.900000095367","img/question_5_5.jpeg","0","spm_respsonse","1","1","mat_53","","","","","","1","11299.900000095367","","","","","","","","","","","","","","",""
"","","","","","html-keyboard-response","288","1225693","0.0-3.0-4.0-0.29","5e3b0c1e96942c0564ce3018","C3","batch3","","null","<p class=block-text>Trial 54 out of 60</p>","null","spm_show_trial_num","","","","","","","","","","","","","","","","","","","","","","","","",""
"","","","","","image-button-response","289","1249469","0.0-3.0-4.0-1.29","5e3b0c1e96942c0564ce3018","C3","batch3","","23773.900000095367","img/question_5_6.jpeg","4","spm_respsonse","1","5","mat_54","","","","","","1","23773.900000095367","","","","","","","","","","","","","","",""
"","","","","","html-keyboard-response","290","1250523","0.0-3.0-4.0-0.30","5e3b0c1e96942c0564ce3018","C3","batch3","","null","<p class=block-text>Trial 55 out of 60</p>","null","spm_show_trial_num","","","","","","","","","","","","","","","","","","","","","","","","",""
"","","","","","image-button-response","291","1293662","0.0-3.0-4.0-1.30","5e3b0c1e96942c0564ce3018","C3","batch3","","43137.5","img/question_5_7.jpeg","4","spm_respsonse","0","1","mat_55","","","","","","0","43137.5","","","","","","","","","","","","","","",""
"","","","","","html-keyboard-response","292","1294722","0.0-3.0-4.0-0.31","5e3b0c1e96942c0564ce3018","C3","batch3","","null","<p class=block-text>Trial 56 out of 60</p>","null","spm_show_trial_num","","","","","","","","","","","","","","","","","","","","","","","","",""
"","","","","","image-button-response","293","1310706","0.0-3.0-4.0-1.31","5e3b0c1e96942c0564ce3018","C3","batch3","","15980.699999809265","img/question_5_8.jpeg","5","spm_respsonse","1","6","mat_56","","","","","","1","15980.699999809265","","","","","","","","","","","","","","",""
"","","","","","html-keyboard-response","294","1311762","0.0-3.0-4.0-0.32","5e3b0c1e96942c0564ce3018","C3","batch3","","null","<p class=block-text>Trial 57 out of 60</p>","null","spm_show_trial_num","","","","","","","","","","","","","","","","","","","","","","","","",""
"","","","","","image-button-response","295","1348584","0.0-3.0-4.0-1.32","5e3b0c1e96942c0564ce3018","C3","batch3","","36821","img/question_5_9.jpeg","3","spm_respsonse","0","3","mat_57","","","","","","0","36821","","","","","","","","","","","","","","",""
"","","","","","html-keyboard-response","296","1349658","0.0-3.0-4.0-0.33","5e3b0c1e96942c0564ce3018","C3","batch3","","null","<p class=block-text>Trial 58 out of 60</p>","null","spm_show_trial_num","","","","","","","","","","","","","","","","","","","","","","","","",""
"","","","","","image-button-response","297","1379142","0.0-3.0-4.0-1.33","5e3b0c1e96942c0564ce3018","C3","batch3","","29480.099999904633","img/question_5_10.jpeg","0","spm_respsonse","0","2","mat_58","","","","","","0","29480.099999904633","","","","","","","","","","","","","","",""
"","","","","","html-keyboard-response","298","1380198","0.0-3.0-4.0-0.34","5e3b0c1e96942c0564ce3018","C3","batch3","","null","<p class=block-text>Trial 59 out of 60</p>","null","spm_show_trial_num","","","","","","","","","","","","","","","","","","","","","","","","",""
"","","","","","image-button-response","299","1444440","0.0-3.0-4.0-1.34","5e3b0c1e96942c0564ce3018","C3","batch3","","64239.09999990463","img/question_5_11.jpeg","6","spm_respsonse","0","4","mat_59","","","","","","0","64239.09999990463","","","","","","","","","","","","","","",""
"","","","","","html-keyboard-response","300","1445491","0.0-3.0-4.0-0.35","5e3b0c1e96942c0564ce3018","C3","batch3","","null","<p class=block-text>Trial 60 out of 60</p>","null","spm_show_trial_num","","","","","","","","","","","","","","","","","","","","","","","","",""
"","","","","","image-button-response","301","1488017","0.0-3.0-4.0-1.35","5e3b0c1e96942c0564ce3018","C3","batch3","","42524.40000009537","img/question_5_12.jpeg","6","spm_respsonse","0","5","mat_60","","","","","","0","42524.40000009537","","","","","","","","","","","","","","",""
"","","","","","html-button-response","302","1491428","0.0-3.0-5.0","5e3b0c1e96942c0564ce3018","C3","batch3","","3157.4000000953674","<p class= block-text>This concludes the Standard Progressive Matrix game. Thank you for your responses!<br> When you are ready, click the button continue</p>","0","spm_goodbye","","","","","","","","","","","","","","","","","","","","","","","","",""
"true","","","","","fullscreen","303","1496169","0.0-4.0-0.0","5e3b0c1e96942c0564ce3018","C3","batch3","","","","","","","","","","","","","","","","","","","","","","","","","","","","","",""
"","","","","","instructions","304","1561883","0.0-4.0-1.0-0.0-0.0","5e3b0c1e96942c0564ce3018","C3","batch3","[{""page_index"":0,""viewing_time"":14626.300000190735},{""page_index"":1,""viewing_time"":7778.299999713898},{""page_index"":2,""viewing_time"":6691.800000190735},{""page_index"":3,""viewing_time"":10268.099999904633},{""page_index"":4,""viewing_time"":11016.200000286102},{""page_index"":5,""viewing_time"":9903.199999809265},{""page_index"":6,""viewing_time"":5430.599999904633}]","65714.7000002861","","","tol-instructions","","","","","","","","","","","","","","","","","","","","","","","","",""
"","","","","","html-button-response","305","1562838","0.0-4.0-1.0-1.0-0.0","5e3b0c1e96942c0564ce3018","C3","batch3","","953.5","<p class=block-text> Let's answer a few questions <br>","0","tol_enter_quiz","","","","","","","","","","","","","","","","","","","","","","","","",""
"","","","","","html-button-response","306","1568095","0.0-4.0-1.0-1.0-1.0","5e3b0c1e96942c0564ce3018","C3","batch3","","5257","<p class = block-text>True or False: You can only move the ball on top of a peg. <br></p>","0","tol_quiz","true","","","","","","","","","","","","","","","","","","","","","","","",""
"","","","","","html-button-response","307","1569101","0.0-4.0-1.0-1.0-2.0","5e3b0c1e96942c0564ce3018","C3","batch3","","1004.7000002861023","<p class = block-text>Correct! You can only move the ball on top of a peg.</p>","0","tol_quiz_feedback","","","","","","","","","","","","","","","","","","","","","","","","",""
"","","","","","html-button-response","308","1572073","0.0-4.0-1.0-1.0-3.0","5e3b0c1e96942c0564ce3018","C3","batch3","","2971.0999999046326","<p class = block-text>True or False: You should try to match your board with the target board with fewest moves possible. <br></p>","0","tol_quiz","true","","","","","","","","","","","","","","","","","","","","","","","",""
"","","","","","html-button-response","309","1572880","0.0-4.0-1.0-1.0-4.0","5e3b0c1e96942c0564ce3018","C3","batch3","","806.6999998092651","<p class = block-text>Correct! </p>","0","tol_quiz_feedback","","","","","","","","","","","","","","","","","","","","","","","","",""
"","","","","","html-button-response","310","1574725","0.0-4.0-2.0","5e3b0c1e96942c0564ce3018","C3","batch3","","1843.6999998092651","<p class=block-text> Now that you've understood the game, let's practice a few easier examples before we start!<br> <br>","0","","","","","","","","","","","","","","","","","","","","","","","","","",""
"","","","","","single-stim-button","311","1578869","0.0-4.0-3.0-0.0","5e3b0c1e96942c0564ce3018","C3","batch3","","4142","","","tol_practice","","","","","","","","","","","tol_peg_2","4142","4142","0","[[1,2,0],[0,0],[0]]","1","[[1,2,0],[0,0],[3]]","practice","4142","","","","","",""
"","","","","","single-stim-button","312","1580040","0.0-4.0-3.0-1.0","5e3b0c1e96942c0564ce3018","C3","batch3","","1171","","","tol_practice","","","","","","","","","","","tol_peg_3","1171","1171","0","[[1,2,0],[0,0],[3]]","1","[[1,2,0],[0,0],[3]]","practice","1171","","","","","",""
"","","","","","poldrack-single-stim","313","1581042","0.0-4.0-4.0","5e3b0c1e96942c0564ce3018","C3","batch3","","-1","","","tol_feedback","true","","","","","","","","","","","1000","1000","500","","","","","","-1","none","true","","0",""
"","","","","","single-stim-button","314","1586311","0.0-4.0-5.0-0.0","5e3b0c1e96942c0564ce3018","C3","batch3","","5269","","","tol_practice","","","","","","","","","","","tol_peg_1","5269","5269","0","[[1,0,0],[3,0],[0]]","2","[[0,0,0],[3,1],[2]]","practice","5269","","","","","",""
"","","","","","single-stim-button","315","1587151","0.0-4.0-5.0-1.0","5e3b0c1e96942c0564ce3018","C3","batch3","","839","","","tol_practice","","","","","","","","","","","tol_peg_3","839","839","0","[[1,0,0],[3,0],[2]]","2","[[0,0,0],[3,1],[2]]","practice","839","","","","","",""
"","","","","","single-stim-button","316","1587877","0.0-4.0-5.1-0.1","5e3b0c1e96942c0564ce3018","C3","batch3","","725","","","tol_practice","","","","","","","","","","","tol_peg_1","725","725","0","[[0,0,0],[3,0],[2]]","3","[[0,0,0],[3,1],[2]]","practice","725","","","","","",""
"","","","","","single-stim-button","317","1588481","0.0-4.0-5.1-1.1","5e3b0c1e96942c0564ce3018","C3","batch3","","603","","","tol_practice","","","","","","","","","","","tol_peg_2","603","603","0","[[0,0,0],[3,1],[2]]","3","[[0,0,0],[3,1],[2]]","practice","603","","","","","",""
"","","","","","poldrack-single-stim","318","1589484","0.0-4.0-6.0","5e3b0c1e96942c0564ce3018","C3","batch3","","-1","","","tol_feedback","true","","","","","","","","","","","1000","1000","500","","","","","","-1","none","true","","0",""
"","","","","","single-stim-button","319","1594139","0.0-4.0-7.0-0.0","5e3b0c1e96942c0564ce3018","C3","batch3","","4655","","","tol_practice","","","","","","","","","","","tol_peg_2","4655","4655","0","[[1,2,0],[0,0],[0]]","4","[[1,0,0],[2,0],[3]]","practice","4655","","","","","",""
"","","","","","single-stim-button","320","1595231","0.0-4.0-7.0-1.0","5e3b0c1e96942c0564ce3018","C3","batch3","","1091","","","tol_practice","","","","","","","","","","","tol_peg_3","1091","1091","0","[[1,2,0],[0,0],[3]]","4","[[1,0,0],[2,0],[3]]","practice","1091","","","","","",""
"","","","","","single-stim-button","321","1595979","0.0-4.0-7.1-0.1","5e3b0c1e96942c0564ce3018","C3","batch3","","747","","","tol_practice","","","","","","","","","","","tol_peg_1","747","747","0","[[1,0,0],[0,0],[3]]","5","[[1,0,0],[2,0],[3]]","practice","747","","","","","",""
"","","","","","single-stim-button","322","1596523","0.0-4.0-7.1-1.1","5e3b0c1e96942c0564ce3018","C3","batch3","","544","","","tol_practice","","","","","","","","","","","tol_peg_2","544","544","0","[[1,0,0],[2,0],[3]]","5","[[1,0,0],[2,0],[3]]","practice","544","","","","","",""
"","","","","","poldrack-single-stim","323","1597525","0.0-4.0-8.0","5e3b0c1e96942c0564ce3018","C3","batch3","","-1","","","tol_feedback","true","","","","","","","","","","","1000","1000","500","","","","","","-1","none","true","","0",""
"","","","","","html-button-response","324","1602111","0.0-4.0-9.0","5e3b0c1e96942c0564ce3018","C3","batch3","","4586","<div class = centerbox><p class = center-block-text>Great job! You are done with practice trials<br>You are about to start official trials.<br> <br> Problem <strong>1</strong> out of 25 problems</p></div>","0","tol_instruction","","","","","","","","","","","","","","","","","","","","","","","","",""
"","","","","","single-stim-button","325","1611192","0.0-4.0-10.0-0.0","5e3b0c1e96942c0564ce3018","C3","batch3","","8073","","","tol_tohand","","","","","","","","","","","tol_peg_1","8073","8073","0","[[1,0,0],[3,0],[0]]","1","[[1,3,0],[2,0],[0]]","0","0","","","","","","3"
"","","","","","single-stim-button","326","1611885","0.0-4.0-10.0-1.0","5e3b0c1e96942c0564ce3018","C3","batch3","","693","","","tol_toboard","","","","","","","","","","","tol_peg_3","693","693","0","[[1,0,0],[3,0],[2]]","1","[[1,3,0],[2,0],[0]]","0","0","","","","","","3"
"","","","","","single-stim-button","327","1612401","0.0-4.0-10.1-0.1","5e3b0c1e96942c0564ce3018","C3","batch3","","515","","","tol_tohand","","","","","","","","","","","tol_peg_2","515","515","0","[[1,0,0],[0,0],[2]]","2","[[1,3,0],[2,0],[0]]","0","0","","","","","","3"
"","","","","","single-stim-button","328","1613206","0.0-4.0-10.1-1.1","5e3b0c1e96942c0564ce3018","C3","batch3","","805","","","tol_toboard","","","","","","","","","","","tol_peg_1","805","805","0","[[1,3,0],[0,0],[2]]","2","[[1,3,0],[2,0],[0]]","0","0","","","","","","3"
"","","","","","single-stim-button","329","1613695","0.0-4.0-10.2-0.2","5e3b0c1e96942c0564ce3018","C3","batch3","","489","","","tol_tohand","","","","","","","","","","","tol_peg_3","489","489","0","[[1,3,0],[0,0],[0]]","3","[[1,3,0],[2,0],[0]]","0","0","","","","","","3"
"","","","","","single-stim-button","330","1614049","0.0-4.0-10.2-1.2","5e3b0c1e96942c0564ce3018","C3","batch3","","353","","","tol_toboard","","","","","","","","","","","tol_peg_2","353","353","0","[[1,3,0],[2,0],[0]]","3","[[1,3,0],[2,0],[0]]","0","0","","","","","","3"
"","","","","","poldrack-single-stim","331","1615052","0.0-4.0-11.0","5e3b0c1e96942c0564ce3018","C3","batch3","","-1","","","tol_feedback","true","","","","","","","","","","","1000","1000","500","","","","","","-1","none","true","8073","9077",""
"","","","","","html-button-response","332","1616083","0.0-4.0-12.0","5e3b0c1e96942c0564ce3018","C3","batch3","","1030.8000001907349","<div class = centerbox><p class = center-block-text>problem <strong>2</strong> out of 25 problems</p></div>","0","tol_trial_num","","","","","","","","","","","","","","","","","","","","","","","","",""
"","","","","","single-stim-button","333","1619762","0.0-4.0-13.0-0.0","5e3b0c1e96942c0564ce3018","C3","batch3","","3679","","","tol_tohand","","","","","","","","","","","tol_peg_1","3679","3679","0","[[1,0,0],[3,0],[0]]","1","[[2,1,3],[0,0],[0]]","1","0","","","","","","5"
"","","","","","single-stim-button","334","1620498","0.0-4.0-13.0-1.0","5e3b0c1e96942c0564ce3018","C3","batch3","","734","","","tol_toboard","","","","","","","","","","","tol_peg_3","734","734","0","[[1,0,0],[3,0],[2]]","1","[[2,1,3],[0,0],[0]]","1","0","","","","","","5"
"","","","","","single-stim-button","335","1621070","0.0-4.0-13.1-0.1","5e3b0c1e96942c0564ce3018","C3","batch3","","571","","","tol_tohand","","","","","","","","","","","tol_peg_2","571","571","0","[[1,0,0],[0,0],[2]]","2","[[2,1,3],[0,0],[0]]","1","0","","","","","","5"
"","","","","","single-stim-button","336","1625536","0.0-4.0-13.1-1.1","5e3b0c1e96942c0564ce3018","C3","batch3","","4465","","","tol_toboard","","","","","","","","","","","tol_peg_2","4465","4465","0","[[1,0,0],[3,0],[2]]","2","[[2,1,3],[0,0],[0]]","1","0","","","","","","5"
"","","","","","single-stim-button","337","1627523","0.0-4.0-13.2-0.2","5e3b0c1e96942c0564ce3018","C3","batch3","","1987","","","tol_tohand","","","","","","","","","","","tol_peg_2","1987","1987","0","[[1,0,0],[0,0],[2]]","3","[[2,1,3],[0,0],[0]]","1","0","","","","","","5"
"","","","","","single-stim-button","338","1632029","0.0-4.0-13.2-1.2","5e3b0c1e96942c0564ce3018","C3","batch3","","4505","","","tol_toboard","","","","","","","","","","","tol_peg_2","4505","4505","0","[[1,0,0],[3,0],[2]]","3","[[2,1,3],[0,0],[0]]","1","0","","","","","","5"
"","","","","","single-stim-button","339","1634425","0.0-4.0-13.3-0.3","5e3b0c1e96942c0564ce3018","C3","batch3","","2396","","","tol_tohand","","","","","","","","","","","tol_peg_3","2396","2396","0","[[1,0,0],[3,0],[0]]","4","[[2,1,3],[0,0],[0]]","1","0","","","","","","5"
"","","","","","single-stim-button","340","1635124","0.0-4.0-13.3-1.3","5e3b0c1e96942c0564ce3018","C3","batch3","","697","","","tol_toboard","","","","","","","","","","","tol_peg_2","697","697","0","[[1,0,0],[3,2],[0]]","4","[[2,1,3],[0,0],[0]]","1","0","","","","","","5"
"","","","","","single-stim-button","341","1635606","0.0-4.0-13.4-0.4","5e3b0c1e96942c0564ce3018","C3","batch3","","482","","","tol_tohand","","","","","","","","","","","tol_peg_1","482","482","0","[[0,0,0],[3,2],[0]]","5","[[2,1,3],[0,0],[0]]","1","0","","","","","","5"
"","","","","","single-stim-button","342","1636397","0.0-4.0-13.4-1.4","5e3b0c1e96942c0564ce3018","C3","batch3","","791","","","tol_toboard","","","","","","","","","","","tol_peg_3","791","791","0","[[0,0,0],[3,2],[1]]","5","[[2,1,3],[0,0],[0]]","1","0","","","","","","5"
"","","","","","single-stim-button","343","1638617","0.0-4.0-13.5-0.5","5e3b0c1e96942c0564ce3018","C3","batch3","","2219","","","tol_tohand","","","","","","","","","","","tol_peg_2","2219","2219","0","[[0,0,0],[3,0],[1]]","6","[[2,1,3],[0,0],[0]]","1","0","","","","","","5"
"","","","","","single-stim-button","344","1639123","0.0-4.0-13.5-1.5","5e3b0c1e96942c0564ce3018","C3","batch3","","506","","","tol_toboard","","","","","","","","","","","tol_peg_1","506","506","0","[[2,0,0],[3,0],[1]]","6","[[2,1,3],[0,0],[0]]","1","0","","","","","","5"
"","","","","","single-stim-button","345","1639887","0.0-4.0-13.6-0.6","5e3b0c1e96942c0564ce3018","C3","batch3","","764","","","tol_tohand","","","","","","","","","","","tol_peg_3","764","764","0","[[2,0,0],[3,0],[0]]","7","[[2,1,3],[0,0],[0]]","1","0","","","","","","5"
"","","","","","single-stim-button","346","1640502","0.0-4.0-13.6-1.6","5e3b0c1e96942c0564ce3018","C3","batch3","","614","","","tol_toboard","","","","","","","","","","","tol_peg_1","614","614","0","[[2,1,0],[3,0],[0]]","7","[[2,1,3],[0,0],[0]]","1","0","","","","","","5"
"","","","","","single-stim-button","347","1641714","0.0-4.0-13.7-0.7","5e3b0c1e96942c0564ce3018","C3","batch3","","1212","","","tol_tohand","","","","","","","","","","","tol_peg_2","1212","1212","0","[[2,1,0],[0,0],[0]]","8","[[2,1,3],[0,0],[0]]","1","0","","","","","","5"
"","","","","","single-stim-button","348","1642365","0.0-4.0-13.7-1.7","5e3b0c1e96942c0564ce3018","C3","batch3","","651","","","tol_toboard","","","","","","","","","","","tol_peg_1","651","651","0","[[2,1,3],[0,0],[0]]","8","[[2,1,3],[0,0],[0]]","1","0","","","","","","5"
