"success","timeout","failed_images","failed_audio","failed_video","trial_type","trial_index","time_elapsed","internal_node_id","subject_id","study_id","session_id","task","rt","stimulus","response","item","answer","correct","spm_correct","spm_rt","view_history","mouse_click","stim_duration","block_duration","timing_post_trial","current_position","tol_num_moves_made","tol_target","tol_problem_id","tol_rt","key_press","possible_responses","tol_correct","preplanning","tol_rt_per_trial","tol_min_moves","fiar_detect_rt","fiar_detect_correct","total_correct_fiar_detect","post_trial_gap","choices"
"true","false","[]","[]","[]","preload","0","1153","0.0-0.0","5e3c1c2e97ffb2000cac32b6","D2","batch4","","","","","","","","","","","","","","","","","","","","","","","","","","","","","",""
"true","","","","","fullscreen","1","6823","0.0-1.0-0.0","5e3c1c2e97ffb2000cac32b6","D2","batch4","","","","","","","","","","","","","","","","","","","","","","","","","","","","","",""
"true","","","","","fullscreen","2","29519","0.0-2.0-0.0","5e3c1c2e97ffb2000cac32b6","D2","batch4","spm_fullscreen","","","","","","","","","","","","","","","","","","","","","","","","","","","","",""
"","","","","","html-button-response","3","36593","0.0-2.0-1.0","5e3c1c2e97ffb2000cac32b6","D2","batch4","","7071.4000000059605","<p class = block-text><b>Instructions</b> <br>This is a widely used intelligence test in research. <br>In this test, a figure with a missing piece will be presented.<br>Below the figure are alternative pieces to complete the figure, only one of which is correct.<br> Different figures might involve different principles for obtaining the missing piece<br>Your job is to select the most logical piece to complete the figure.</p>","0","","","","","","","","","","","","","","","","","","","","","","","","","",""
"","","","","","html-keyboard-response","4","37399","0.0-2.0-2.0-0.0","5e3c1c2e97ffb2000cac32b6","D2","batch4","spm_show_trial_num","null","<p class=block-text>Trial 1 out of 60</p>","null","","","","","","","","","","","","","","","","","","","","","","","","","",""
"","","","","","image-button-response","5","43026","0.0-2.0-2.0-1.0","5e3c1c2e97ffb2000cac32b6","D2","batch4","spm_respsonse","5606.800000011921","img/question_1_1.jpeg","3","mat_01","4","1","1","5606.800000011921","","","","","","","","","","","","","","","","","","","","",""
"","","","","","html-keyboard-response","6","44087","0.0-2.0-2.0-0.1","5e3c1c2e97ffb2000cac32b6","D2","batch4","spm_show_trial_num","null","<p class=block-text>Trial 2 out of 60</p>","null","","","","","","","","","","","","","","","","","","","","","","","","","",""
"","","","","","image-button-response","7","46586","0.0-2.0-2.0-1.1","5e3c1c2e97ffb2000cac32b6","D2","batch4","spm_respsonse","2496.4000000059605","img/question_1_2.jpeg","4","mat_02","5","1","1","2496.4000000059605","","","","","","","","","","","","","","","","","","","","",""
"","","","","","html-keyboard-response","8","47646","0.0-2.0-2.0-0.2","5e3c1c2e97ffb2000cac32b6","D2","batch4","spm_show_trial_num","null","<p class=block-text>Trial 3 out of 60</p>","null","","","","","","","","","","","","","","","","","","","","","","","","","",""
"","","","","","image-button-response","9","50419","0.0-2.0-2.0-1.2","5e3c1c2e97ffb2000cac32b6","D2","batch4","spm_respsonse","2770.300000011921","img/question_1_3.jpeg","0","mat_03","1","1","1","2770.300000011921","","","","","","","","","","","","","","","","","","","","",""
"","","","","","html-keyboard-response","10","51478","0.0-2.0-2.0-0.3","5e3c1c2e97ffb2000cac32b6","D2","batch4","spm_show_trial_num","null","<p class=block-text>Trial 4 out of 60</p>","null","","","","","","","","","","","","","","","","","","","","","","","","","",""
"","","","","","image-button-response","11","53372","0.0-2.0-2.0-1.3","5e3c1c2e97ffb2000cac32b6","D2","batch4","spm_respsonse","1891.0999999940395","img/question_1_4.jpeg","1","mat_04","2","1","1","1891.0999999940395","","","","","","","","","","","","","","","","","","","","",""
"","","","","","html-keyboard-response","12","54438","0.0-2.0-2.0-0.4","5e3c1c2e97ffb2000cac32b6","D2","batch4","spm_show_trial_num","null","<p class=block-text>Trial 5 out of 60</p>","null","","","","","","","","","","","","","","","","","","","","","","","","","",""
"","","","","","image-button-response","13","56804","0.0-2.0-2.0-1.4","5e3c1c2e97ffb2000cac32b6","D2","batch4","spm_respsonse","2363.2999999821186","img/question_1_5.jpeg","5","mat_05","6","1","1","2363.2999999821186","","","","","","","","","","","","","","","","","","","","",""
"","","","","","html-keyboard-response","14","57870","0.0-2.0-2.0-0.5","5e3c1c2e97ffb2000cac32b6","D2","batch4","spm_show_trial_num","null","<p class=block-text>Trial 6 out of 60</p>","null","","","","","","","","","","","","","","","","","","","","","","","","","",""
"","","","","","image-button-response","15","61235","0.0-2.0-2.0-1.5","5e3c1c2e97ffb2000cac32b6","D2","batch4","spm_respsonse","3362.800000011921","img/question_1_6.jpeg","2","mat_06","3","1","1","3362.800000011921","","","","","","","","","","","","","","","","","","","","",""
"","","","","","html-keyboard-response","16","62299","0.0-2.0-2.0-0.6","5e3c1c2e97ffb2000cac32b6","D2","batch4","spm_show_trial_num","null","<p class=block-text>Trial 7 out of 60</p>","null","","","","","","","","","","","","","","","","","","","","","","","","","",""
"","","","","","image-button-response","17","68182","0.0-2.0-2.0-1.6","5e3c1c2e97ffb2000cac32b6","D2","batch4","spm_respsonse","5879.5","img/question_1_7.jpeg","5","mat_07","6","1","1","5879.5","","","","","","","","","","","","","","","","","","","","",""
"","","","","","html-keyboard-response","18","69251","0.0-2.0-2.0-0.7","5e3c1c2e97ffb2000cac32b6","D2","batch4","spm_show_trial_num","null","<p class=block-text>Trial 8 out of 60</p>","null","","","","","","","","","","","","","","","","","","","","","","","","","",""
"","","","","","image-button-response","19","76457","0.0-2.0-2.0-1.7","5e3c1c2e97ffb2000cac32b6","D2","batch4","spm_respsonse","7203","img/question_1_8.jpeg","1","mat_08","2","1","1","7203","","","","","","","","","","","","","","","","","","","","",""
"","","","","","html-keyboard-response","20","77523","0.0-2.0-2.0-0.8","5e3c1c2e97ffb2000cac32b6","D2","batch4","spm_show_trial_num","null","<p class=block-text>Trial 9 out of 60</p>","null","","","","","","","","","","","","","","","","","","","","","","","","","",""
"","","","","","image-button-response","21","83939","0.0-2.0-2.0-1.8","5e3c1c2e97ffb2000cac32b6","D2","batch4","spm_respsonse","6412.5999999940395","img/question_1_9.jpeg","0","mat_09","1","1","1","6412.5999999940395","","","","","","","","","","","","","","","","","","","","",""
"","","","","","html-keyboard-response","22","84998","0.0-2.0-2.0-0.9","5e3c1c2e97ffb2000cac32b6","D2","batch4","spm_show_trial_num","null","<p class=block-text>Trial 10 out of 60</p>","null","","","","","","","","","","","","","","","","","","","","","","","","","",""
"","","","","","image-button-response","23","90712","0.0-2.0-2.0-1.9","5e3c1c2e97ffb2000cac32b6","D2","batch4","spm_respsonse","5646.5999999940395","img/question_1_10.jpeg","2","mat_10","3","1","1","5646.5999999940395","","","","","","","","","","","","","","","","","","","","",""
"","","","","","html-keyboard-response","24","91779","0.0-2.0-2.0-0.10","5e3c1c2e97ffb2000cac32b6","D2","batch4","spm_show_trial_num","null","<p class=block-text>Trial 11 out of 60</p>","null","","","","","","","","","","","","","","","","","","","","","","","","","",""
"","","","","","image-button-response","25","103965","0.0-2.0-2.0-1.10","5e3c1c2e97ffb2000cac32b6","D2","batch4","spm_respsonse","12182.5","img/question_1_11.jpeg","3","mat_11","4","1","1","12182.5","","","","","","","","","","","","","","","","","","","","",""
"","","","","","html-keyboard-response","26","105031","0.0-2.0-2.0-0.11","5e3c1c2e97ffb2000cac32b6","D2","batch4","spm_show_trial_num","null","<p class=block-text>Trial 12 out of 60</p>","null","","","","","","","","","","","","","","","","","","","","","","","","","",""
"","","","","","image-button-response","27","115546","0.0-2.0-2.0-1.11","5e3c1c2e97ffb2000cac32b6","D2","batch4","spm_respsonse","10511.800000011921","img/question_1_12.jpeg","5","mat_12","5","0","0","10511.800000011921","","","","","","","","","","","","","","","","","","","","",""
"","","","","","html-keyboard-response","28","116606","0.0-2.0-2.0-0.12","5e3c1c2e97ffb2000cac32b6","D2","batch4","spm_show_trial_num","null","<p class=block-text>Trial 13 out of 60</p>","null","","","","","","","","","","","","","","","","","","","","","","","","","",""
"","","","","","image-button-response","29","124617","0.0-2.0-2.0-1.12","5e3c1c2e97ffb2000cac32b6","D2","batch4","spm_respsonse","8007.899999976158","img/question_2_1.jpeg","1","mat_13","2","1","1","8007.899999976158","","","","","","","","","","","","","","","","","","","","",""
"","","","","","html-keyboard-response","30","125683","0.0-2.0-2.0-0.13","5e3c1c2e97ffb2000cac32b6","D2","batch4","spm_show_trial_num","null","<p class=block-text>Trial 14 out of 60</p>","null","","","","","","","","","","","","","","","","","","","","","","","","","",""
"","","","","","image-button-response","31","130618","0.0-2.0-2.0-1.13","5e3c1c2e97ffb2000cac32b6","D2","batch4","spm_respsonse","4931.800000011921","img/question_2_2.jpeg","5","mat_14","6","1","1","4931.800000011921","","","","","","","","","","","","","","","","","","","","",""
"","","","","","html-keyboard-response","32","131679","0.0-2.0-2.0-0.14","5e3c1c2e97ffb2000cac32b6","D2","batch4","spm_show_trial_num","null","<p class=block-text>Trial 15 out of 60</p>","null","","","","","","","","","","","","","","","","","","","","","","","","","",""
"","","","","","image-button-response","33","134019","0.0-2.0-2.0-1.14","5e3c1c2e97ffb2000cac32b6","D2","batch4","spm_respsonse","2337","img/question_2_3.jpeg","0","mat_15","1","1","1","2337","","","","","","","","","","","","","","","","","","","","",""
"","","","","","html-keyboard-response","34","135078","0.0-2.0-2.0-0.15","5e3c1c2e97ffb2000cac32b6","D2","batch4","spm_show_trial_num","null","<p class=block-text>Trial 16 out of 60</p>","null","","","","","","","","","","","","","","","","","","","","","","","","","",""
"","","","","","image-button-response","35","140031","0.0-2.0-2.0-1.15","5e3c1c2e97ffb2000cac32b6","D2","batch4","spm_respsonse","4950.199999988079","img/question_2_4.jpeg","1","mat_16","2","1","1","4950.199999988079","","","","","","","","","","","","","","","","","","","","",""
"","","","","","html-keyboard-response","36","141099","0.0-2.0-2.0-0.16","5e3c1c2e97ffb2000cac32b6","D2","batch4","spm_show_trial_num","null","<p class=block-text>Trial 17 out of 60</p>","null","","","","","","","","","","","","","","","","","","","","","","","","","",""
"","","","","","image-button-response","37","150532","0.0-2.0-2.0-1.16","5e3c1c2e97ffb2000cac32b6","D2","batch4","spm_respsonse","9429.699999988079","img/question_2_5.jpeg","0","mat_17","1","1","1","9429.699999988079","","","","","","","","","","","","","","","","","","","","",""
"","","","","","html-keyboard-response","38","151594","0.0-2.0-2.0-0.17","5e3c1c2e97ffb2000cac32b6","D2","batch4","spm_show_trial_num","null","<p class=block-text>Trial 18 out of 60</p>","null","","","","","","","","","","","","","","","","","","","","","","","","","",""
"","","","","","image-button-response","39","156350","0.0-2.0-2.0-1.17","5e3c1c2e97ffb2000cac32b6","D2","batch4","spm_respsonse","4753","img/question_2_6.jpeg","2","mat_18","3","1","1","4753","","","","","","","","","","","","","","","","","","","","",""
"","","","","","html-keyboard-response","40","157419","0.0-2.0-2.0-0.18","5e3c1c2e97ffb2000cac32b6","D2","batch4","spm_show_trial_num","null","<p class=block-text>Trial 19 out of 60</p>","null","","","","","","","","","","","","","","","","","","","","","","","","","",""
"","","","","","image-button-response","41","167789","0.0-2.0-2.0-1.18","5e3c1c2e97ffb2000cac32b6","D2","batch4","spm_respsonse","10366.700000017881","img/question_2_7.jpeg","4","mat_19","5","1","1","10366.700000017881","","","","","","","","","","","","","","","","","","","","",""
"","","","","","html-keyboard-response","42","168854","0.0-2.0-2.0-0.19","5e3c1c2e97ffb2000cac32b6","D2","batch4","spm_show_trial_num","null","<p class=block-text>Trial 20 out of 60</p>","null","","","","","","","","","","","","","","","","","","","","","","","","","",""
"","","","","","image-button-response","43","176022","0.0-2.0-2.0-1.19","5e3c1c2e97ffb2000cac32b6","D2","batch4","spm_respsonse","7165.300000011921","img/question_2_8.jpeg","5","mat_20","6","1","1","7165.300000011921","","","","","","","","","","","","","","","","","","","","",""
"","","","","","html-keyboard-response","44","177086","0.0-2.0-2.0-0.20","5e3c1c2e97ffb2000cac32b6","D2","batch4","spm_show_trial_num","null","<p class=block-text>Trial 21 out of 60</p>","null","","","","","","","","","","","","","","","","","","","","","","","","","",""
"","","","","","image-button-response","45","180722","0.0-2.0-2.0-1.20","5e3c1c2e97ffb2000cac32b6","D2","batch4","spm_respsonse","3632.7999999821186","img/question_2_9.jpeg","3","mat_21","4","1","1","3632.7999999821186","","","","","","","","","","","","","","","","","","","","",""
"","","","","","html-keyboard-response","46","181786","0.0-2.0-2.0-0.21","5e3c1c2e97ffb2000cac32b6","D2","batch4","spm_show_trial_num","null","<p class=block-text>Trial 22 out of 60</p>","null","","","","","","","","","","","","","","","","","","","","","","","","","",""
"","","","","","image-button-response","47","188176","0.0-2.0-2.0-1.21","5e3c1c2e97ffb2000cac32b6","D2","batch4","spm_respsonse","6387.100000023842","img/question_2_10.jpeg","2","mat_22","3","1","1","6387.100000023842","","","","","","","","","","","","","","","","","","","","",""
"","","","","","html-keyboard-response","48","189243","0.0-2.0-2.0-0.22","5e3c1c2e97ffb2000cac32b6","D2","batch4","spm_show_trial_num","null","<p class=block-text>Trial 23 out of 60</p>","null","","","","","","","","","","","","","","","","","","","","","","","","","",""
"","","","","","image-button-response","49","196372","0.0-2.0-2.0-1.22","5e3c1c2e97ffb2000cac32b6","D2","batch4","spm_respsonse","7125.5999999940395","img/question_2_11.jpeg","3","mat_23","4","1","1","7125.5999999940395","","","","","","","","","","","","","","","","","","","","",""
"","","","","","html-keyboard-response","50","197435","0.0-2.0-2.0-0.23","5e3c1c2e97ffb2000cac32b6","D2","batch4","spm_show_trial_num","null","<p class=block-text>Trial 24 out of 60</p>","null","","","","","","","","","","","","","","","","","","","","","","","","","",""
"","","","","","image-button-response","51","252119","0.0-2.0-2.0-1.23","5e3c1c2e97ffb2000cac32b6","D2","batch4","spm_respsonse","54680.70000001788","img/question_2_12.jpeg","4","mat_24","5","1","1","54680.70000001788","","","","","","","","","","","","","","","","","","","","",""
"","","","","","html-button-response","52","254711","0.0-2.0-3.0","5e3c1c2e97ffb2000cac32b6","D2","batch4","attention_check","2329.5","<p class = block-text>Attention check: Please choose 1<br></p>","0","","","true","","","","","","","","","","","","","","","","","","","","","","",""
"","","","","","html-keyboard-response","53","255523","0.0-2.0-4.0-0.0","5e3c1c2e97ffb2000cac32b6","D2","batch4","spm_show_trial_num","null","<p class=block-text>Trial 25 out of 60</p>","null","","","","","","","","","","","","","","","","","","","","","","","","","",""
"","","","","","image-button-response","54","262930","0.0-2.0-4.0-1.0","5e3c1c2e97ffb2000cac32b6","D2","batch4","spm_respsonse","7403.699999988079","img/question_3_1.jpeg","7","mat_25","8","1","1","7403.699999988079","","","","","","","","","","","","","","","","","","","","",""
"","","","","","html-keyboard-response","55","263991","0.0-2.0-4.0-0.1","5e3c1c2e97ffb2000cac32b6","D2","batch4","spm_show_trial_num","null","<p class=block-text>Trial 26 out of 60</p>","null","","","","","","","","","","","","","","","","","","","","","","","","","",""
"","","","","","image-button-response","56","274832","0.0-2.0-4.0-1.1","5e3c1c2e97ffb2000cac32b6","D2","batch4","spm_respsonse","10837.59999999404","img/question_3_2.jpeg","1","mat_26","2","1","1","10837.59999999404","","","","","","","","","","","","","","","","","","","","",""
"","","","","","html-keyboard-response","57","275896","0.0-2.0-4.0-0.2","5e3c1c2e97ffb2000cac32b6","D2","batch4","spm_show_trial_num","null","<p class=block-text>Trial 27 out of 60</p>","null","","","","","","","","","","","","","","","","","","","","","","","","","",""
"","","","","","image-button-response","58","283613","0.0-2.0-4.0-1.2","5e3c1c2e97ffb2000cac32b6","D2","batch4","spm_respsonse","7713.9000000059605","img/question_3_3.jpeg","2","mat_27","3","1","1","7713.9000000059605","","","","","","","","","","","","","","","","","","","","",""
"","","","","","html-keyboard-response","59","284679","0.0-2.0-4.0-0.3","5e3c1c2e97ffb2000cac32b6","D2","batch4","spm_show_trial_num","null","<p class=block-text>Trial 28 out of 60</p>","null","","","","","","","","","","","","","","","","","","","","","","","","","",""
"","","","","","image-button-response","60","291129","0.0-2.0-4.0-1.3","5e3c1c2e97ffb2000cac32b6","D2","batch4","spm_respsonse","6446.199999988079","img/question_3_4.jpeg","2","mat_28","8","0","0","6446.199999988079","","","","","","","","","","","","","","","","","","","","",""
"","","","","","html-keyboard-response","61","292191","0.0-2.0-4.0-0.4","5e3c1c2e97ffb2000cac32b6","D2","batch4","spm_show_trial_num","null","<p class=block-text>Trial 29 out of 60</p>","null","","","","","","","","","","","","","","","","","","","","","","","","","",""
"","","","","","image-button-response","62","303829","0.0-2.0-4.0-1.4","5e3c1c2e97ffb2000cac32b6","D2","batch4","spm_respsonse","11635","img/question_3_5.jpeg","6","mat_29","7","1","1","11635","","","","","","","","","","","","","","","","","","","","",""
"","","","","","html-keyboard-response","63","304899","0.0-2.0-4.0-0.5","5e3c1c2e97ffb2000cac32b6","D2","batch4","spm_show_trial_num","null","<p class=block-text>Trial 30 out of 60</p>","null","","","","","","","","","","","","","","","","","","","","","","","","","",""
"","","","","","image-button-response","64","312391","0.0-2.0-4.0-1.5","5e3c1c2e97ffb2000cac32b6","D2","batch4","spm_respsonse","7488.0999999940395","img/question_3_6.jpeg","0","mat_30","4","0","0","7488.0999999940395","","","","","","","","","","","","","","","","","","","","",""
"","","","","","html-keyboard-response","65","313451","0.0-2.0-4.0-0.6","5e3c1c2e97ffb2000cac32b6","D2","batch4","spm_show_trial_num","null","<p class=block-text>Trial 31 out of 60</p>","null","","","","","","","","","","","","","","","","","","","","","","","","","",""
"","","","","","image-button-response","66","321786","0.0-2.0-4.0-1.6","5e3c1c2e97ffb2000cac32b6","D2","batch4","spm_respsonse","8332","img/question_3_7.jpeg","4","mat_31","5","1","1","8332","","","","","","","","","","","","","","","","","","","","",""
"","","","","","html-keyboard-response","67","322851","0.0-2.0-4.0-0.7","5e3c1c2e97ffb2000cac32b6","D2","batch4","spm_show_trial_num","null","<p class=block-text>Trial 32 out of 60</p>","null","","","","","","","","","","","","","","","","","","","","","","","","","",""
"","","","","","image-button-response","68","363170","0.0-2.0-4.0-1.7","5e3c1c2e97ffb2000cac32b6","D2","batch4","spm_respsonse","40315.60000002384","img/question_3_8.jpeg","4","mat_32","1","0","0","40315.60000002384","","","","","","","","","","","","","","","","","","","","",""
"","","","","","html-keyboard-response","69","364235","0.0-2.0-4.0-0.8","5e3c1c2e97ffb2000cac32b6","D2","batch4","spm_show_trial_num","null","<p class=block-text>Trial 33 out of 60</p>","null","","","","","","","","","","","","","","","","","","","","","","","","","",""
"","","","","","image-button-response","70","370686","0.0-2.0-4.0-1.8","5e3c1c2e97ffb2000cac32b6","D2","batch4","spm_respsonse","6447.799999982119","img/question_3_9.jpeg","6","mat_33","7","1","1","6447.799999982119","","","","","","","","","","","","","","","","","","","","",""
"","","","","","html-keyboard-response","71","371751","0.0-2.0-4.0-0.9","5e3c1c2e97ffb2000cac32b6","D2","batch4","spm_show_trial_num","null","<p class=block-text>Trial 34 out of 60</p>","null","","","","","","","","","","","","","","","","","","","","","","","","","",""
"","","","","","image-button-response","72","397085","0.0-2.0-4.0-1.9","5e3c1c2e97ffb2000cac32b6","D2","batch4","spm_respsonse","25331.59999999404","img/question_3_10.jpeg","5","mat_34","6","1","1","25331.59999999404","","","","","","","","","","","","","","","","","","","","",""
"","","","","","html-keyboard-response","73","398155","0.0-2.0-4.0-0.10","5e3c1c2e97ffb2000cac32b6","D2","batch4","spm_show_trial_num","null","<p class=block-text>Trial 35 out of 60</p>","null","","","","","","","","","","","","","","","","","","","","","","","","","",""
"","","","","","image-button-response","74","408772","0.0-2.0-4.0-1.10","5e3c1c2e97ffb2000cac32b6","D2","batch4","spm_respsonse","10613.799999982119","img/question_3_11.jpeg","4","mat_35","1","0","0","10613.799999982119","","","","","","","","","","","","","","","","","","","","",""
"","","","","","html-keyboard-response","75","409839","0.0-2.0-4.0-0.11","5e3c1c2e97ffb2000cac32b6","D2","batch4","spm_show_trial_num","null","<p class=block-text>Trial 36 out of 60</p>","null","","","","","","","","","","","","","","","","","","","","","","","","","",""
"","","","","","image-button-response","76","426744","0.0-2.0-4.0-1.11","5e3c1c2e97ffb2000cac32b6","D2","batch4","spm_respsonse","16901","img/question_3_12.jpeg","2","mat_36","2","0","0","16901","","","","","","","","","","","","","","","","","","","","",""
"","","","","","html-keyboard-response","77","427804","0.0-2.0-4.0-0.12","5e3c1c2e97ffb2000cac32b6","D2","batch4","spm_show_trial_num","null","<p class=block-text>Trial 37 out of 60</p>","null","","","","","","","","","","","","","","","","","","","","","","","","","",""
"","","","","","image-button-response","78","430712","0.0-2.0-4.0-1.12","5e3c1c2e97ffb2000cac32b6","D2","batch4","spm_respsonse","2905.199999988079","img/question_4_1.jpeg","2","mat_37","3","1","1","2905.199999988079","","","","","","","","","","","","","","","","","","","","",""
"","","","","","html-keyboard-response","79","431779","0.0-2.0-4.0-0.13","5e3c1c2e97ffb2000cac32b6","D2","batch4","spm_show_trial_num","null","<p class=block-text>Trial 38 out of 60</p>","null","","","","","","","","","","","","","","","","","","","","","","","","","",""
"","","","","","image-button-response","80","443738","0.0-2.0-4.0-1.13","5e3c1c2e97ffb2000cac32b6","D2","batch4","spm_respsonse","11955.100000023842","img/question_4_2.jpeg","3","mat_38","4","1","1","11955.100000023842","","","","","","","","","","","","","","","","","","","","",""
"","","","","","html-keyboard-response","81","444792","0.0-2.0-4.0-0.14","5e3c1c2e97ffb2000cac32b6","D2","batch4","spm_show_trial_num","null","<p class=block-text>Trial 39 out of 60</p>","null","","","","","","","","","","","","","","","","","","","","","","","","","",""
"","","","","","image-button-response","82","452808","0.0-2.0-4.0-1.14","5e3c1c2e97ffb2000cac32b6","D2","batch4","spm_respsonse","8012.899999976158","img/question_4_3.jpeg","2","mat_39","3","1","1","8012.899999976158","","","","","","","","","","","","","","","","","","","","",""
"","","","","","html-keyboard-response","83","453876","0.0-2.0-4.0-0.15","5e3c1c2e97ffb2000cac32b6","D2","batch4","spm_show_trial_num","null","<p class=block-text>Trial 40 out of 60</p>","null","","","","","","","","","","","","","","","","","","","","","","","","","",""
"","","","","","image-button-response","84","465678","0.0-2.0-4.0-1.15","5e3c1c2e97ffb2000cac32b6","D2","batch4","spm_respsonse","11799.699999988079","img/question_4_4.jpeg","6","mat_40","7","1","1","11799.699999988079","","","","","","","","","","","","","","","","","","","","",""
"","","","","","html-keyboard-response","85","466744","0.0-2.0-4.0-0.16","5e3c1c2e97ffb2000cac32b6","D2","batch4","spm_show_trial_num","null","<p class=block-text>Trial 41 out of 60</p>","null","","","","","","","","","","","","","","","","","","","","","","","","","",""
"","","","","","image-button-response","86","472438","0.0-2.0-4.0-1.16","5e3c1c2e97ffb2000cac32b6","D2","batch4","spm_respsonse","5691.199999988079","img/question_4_5.jpeg","7","mat_41","8","1","1","5691.199999988079","","","","","","","","","","","","","","","","","","","","",""
"","","","","","html-keyboard-response","87","473507","0.0-2.0-4.0-0.17","5e3c1c2e97ffb2000cac32b6","D2","batch4","spm_show_trial_num","null","<p class=block-text>Trial 42 out of 60</p>","null","","","","","","","","","","","","","","","","","","","","","","","","","",""
"","","","","","image-button-response","88","480702","0.0-2.0-4.0-1.17","5e3c1c2e97ffb2000cac32b6","D2","batch4","spm_respsonse","7191.300000011921","img/question_4_6.jpeg","5","mat_42","6","1","1","7191.300000011921","","","","","","","","","","","","","","","","","","","","",""
"","","","","","html-keyboard-response","89","481772","0.0-2.0-4.0-0.18","5e3c1c2e97ffb2000cac32b6","D2","batch4","spm_show_trial_num","null","<p class=block-text>Trial 43 out of 60</p>","null","","","","","","","","","","","","","","","","","","","","","","","","","",""
"","","","","","image-button-response","90","486421","0.0-2.0-4.0-1.18","5e3c1c2e97ffb2000cac32b6","D2","batch4","spm_respsonse","4646.699999988079","img/question_4_7.jpeg","1","mat_43","5","0","0","4646.699999988079","","","","","","","","","","","","","","","","","","","","",""
"","","","","","html-keyboard-response","91","487492","0.0-2.0-4.0-0.19","5e3c1c2e97ffb2000cac32b6","D2","batch4","spm_show_trial_num","null","<p class=block-text>Trial 44 out of 60</p>","null","","","","","","","","","","","","","","","","","","","","","","","","","",""
"","","","","","image-button-response","92","503995","0.0-2.0-4.0-1.19","5e3c1c2e97ffb2000cac32b6","D2","batch4","spm_respsonse","16500.40000000596","img/question_4_8.jpeg","4","mat_44","4","0","0","16500.40000000596","","","","","","","","","","","","","","","","","","","","",""
"","","","","","html-keyboard-response","93","505060","0.0-2.0-4.0-0.20","5e3c1c2e97ffb2000cac32b6","D2","batch4","spm_show_trial_num","null","<p class=block-text>Trial 45 out of 60</p>","null","","","","","","","","","","","","","","","","","","","","","","","","","",""
"","","","","","image-button-response","94","516997","0.0-2.0-4.0-1.20","5e3c1c2e97ffb2000cac32b6","D2","batch4","spm_respsonse","11934.399999976158","img/question_4_9.jpeg","0","mat_45","1","1","1","11934.399999976158","","","","","","","","","","","","","","","","","","","","",""
"","","","","","html-keyboard-response","95","518068","0.0-2.0-4.0-0.21","5e3c1c2e97ffb2000cac32b6","D2","batch4","spm_show_trial_num","null","<p class=block-text>Trial 46 out of 60</p>","null","","","","","","","","","","","","","","","","","","","","","","","","","",""
"","","","","","image-button-response","96","533146","0.0-2.0-4.0-1.21","5e3c1c2e97ffb2000cac32b6","D2","batch4","spm_respsonse","15074.799999982119","img/question_4_10.jpeg","1","mat_46","2","1","1","15074.799999982119","","","","","","","","","","","","","","","","","","","","",""
"","","","","","html-keyboard-response","97","534212","0.0-2.0-4.0-0.22","5e3c1c2e97ffb2000cac32b6","D2","batch4","spm_show_trial_num","null","<p class=block-text>Trial 47 out of 60</p>","null","","","","","","","","","","","","","","","","","","","","","","","","","",""
"","","","","","image-button-response","98","553095","0.0-2.0-4.0-1.22","5e3c1c2e97ffb2000cac32b6","D2","batch4","spm_respsonse","18880.69999998808","img/question_4_11.jpeg","2","mat_47","5","0","0","18880.69999998808","","","","","","","","","","","","","","","","","","","","",""
"","","","","","html-keyboard-response","99","554164","0.0-2.0-4.0-0.23","5e3c1c2e97ffb2000cac32b6","D2","batch4","spm_show_trial_num","null","<p class=block-text>Trial 48 out of 60</p>","null","","","","","","","","","","","","","","","","","","","","","","","","","",""
"","","","","","image-button-response","100","591485","0.0-2.0-4.0-1.23","5e3c1c2e97ffb2000cac32b6","D2","batch4","spm_respsonse","37317.90000000596","img/question_4_12.jpeg","7","mat_48","6","0","0","37317.90000000596","","","","","","","","","","","","","","","","","","","","",""
"","","","","","html-keyboard-response","101","592556","0.0-2.0-4.0-0.24","5e3c1c2e97ffb2000cac32b6","D2","batch4","spm_show_trial_num","null","<p class=block-text>Trial 49 out of 60</p>","null","","","","","","","","","","","","","","","","","","","","","","","","","",""
"","","","","","image-button-response","102","603069","0.0-2.0-4.0-1.24","5e3c1c2e97ffb2000cac32b6","D2","batch4","spm_respsonse","10511.300000011921","img/question_5_1.jpeg","6","mat_49","7","1","1","10511.300000011921","","","","","","","","","","","","","","","","","","","","",""
"","","","","","html-keyboard-response","103","604139","0.0-2.0-4.0-0.25","5e3c1c2e97ffb2000cac32b6","D2","batch4","spm_show_trial_num","null","<p class=block-text>Trial 50 out of 60</p>","null","","","","","","","","","","","","","","","","","","","","","","","","","",""
"","","","","","image-button-response","104","634304","0.0-2.0-4.0-1.25","5e3c1c2e97ffb2000cac32b6","D2","batch4","spm_respsonse","30161.40000000596","img/question_5_2.jpeg","2","mat_50","6","0","0","30161.40000000596","","","","","","","","","","","","","","","","","","","","",""
"","","","","","html-keyboard-response","105","635372","0.0-2.0-4.0-0.26","5e3c1c2e97ffb2000cac32b6","D2","batch4","spm_show_trial_num","null","<p class=block-text>Trial 51 out of 60</p>","null","","","","","","","","","","","","","","","","","","","","","","","","","",""
"","","","","","image-button-response","106","647585","0.0-2.0-4.0-1.26","5e3c1c2e97ffb2000cac32b6","D2","batch4","spm_respsonse","12210.09999999404","img/question_5_3.jpeg","7","mat_51","8","1","1","12210.09999999404","","","","","","","","","","","","","","","","","","","","",""
"","","","","","html-keyboard-response","107","648652","0.0-2.0-4.0-0.27","5e3c1c2e97ffb2000cac32b6","D2","batch4","spm_show_trial_num","null","<p class=block-text>Trial 52 out of 60</p>","null","","","","","","","","","","","","","","","","","","","","","","","","","",""
"","","","","","image-button-response","108","669667","0.0-2.0-4.0-1.27","5e3c1c2e97ffb2000cac32b6","D2","batch4","spm_respsonse","21012.59999999404","img/question_5_4.jpeg","2","mat_52","2","0","0","21012.59999999404","","","","","","","","","","","","","","","","","","","","",""
"","","","","","html-keyboard-response","109","670732","0.0-2.0-4.0-0.28","5e3c1c2e97ffb2000cac32b6","D2","batch4","spm_show_trial_num","null","<p class=block-text>Trial 53 out of 60</p>","null","","","","","","","","","","","","","","","","","","","","","","","","","",""
"","","","","","image-button-response","110","691206","0.0-2.0-4.0-1.28","5e3c1c2e97ffb2000cac32b6","D2","batch4","spm_respsonse","20471.69999998808","img/question_5_5.jpeg","0","mat_53","1","1","1","20471.69999998808","","","","","","","","","","","","","","","","","","","","",""
"","","","","","html-keyboard-response","111","692271","0.0-2.0-4.0-0.29","5e3c1c2e97ffb2000cac32b6","D2","batch4","spm_show_trial_num","null","<p class=block-text>Trial 54 out of 60</p>","null","","","","","","","","","","","","","","","","","","","","","","","","","",""
"","","","","","image-button-response","112","701967","0.0-2.0-4.0-1.29","5e3c1c2e97ffb2000cac32b6","D2","batch4","spm_respsonse","9692.40000000596","img/question_5_6.jpeg","1","mat_54","5","0","0","9692.40000000596","","","","","","","","","","","","","","","","","","","","",""
"","","","","","html-keyboard-response","113","703036","0.0-2.0-4.0-0.30","5e3c1c2e97ffb2000cac32b6","D2","batch4","spm_show_trial_num","null","<p class=block-text>Trial 55 out of 60</p>","null","","","","","","","","","","","","","","","","","","","","","","","","","",""
"","","","","","image-button-response","114","709719","0.0-2.0-4.0-1.30","5e3c1c2e97ffb2000cac32b6","D2","batch4","spm_respsonse","6680.5","img/question_5_7.jpeg","3","mat_55","1","0","0","6680.5","","","","","","","","","","","","","","","","","","","","",""
"","","","","","html-keyboard-response","115","710788","0.0-2.0-4.0-0.31","5e3c1c2e97ffb2000cac32b6","D2","batch4","spm_show_trial_num","null","<p class=block-text>Trial 56 out of 60</p>","null","","","","","","","","","","","","","","","","","","","","","","","","","",""
"","","","","","image-button-response","116","723792","0.0-2.0-4.0-1.31","5e3c1c2e97ffb2000cac32b6","D2","batch4","spm_respsonse","13001.399999976158","img/question_5_8.jpeg","0","mat_56","6","0","0","13001.399999976158","","","","","","","","","","","","","","","","","","","","",""
"","","","","","html-keyboard-response","117","724855","0.0-2.0-4.0-0.32","5e3c1c2e97ffb2000cac32b6","D2","batch4","spm_show_trial_num","null","<p class=block-text>Trial 57 out of 60</p>","null","","","","","","","","","","","","","","","","","","","","","","","","","",""
"","","","","","image-button-response","118","749741","0.0-2.0-4.0-1.32","5e3c1c2e97ffb2000cac32b6","D2","batch4","spm_respsonse","24882.5","img/question_5_9.jpeg","4","mat_57","3","0","0","24882.5","","","","","","","","","","","","","","","","","","","","",""
"","","","","","html-keyboard-response","119","750809","0.0-2.0-4.0-0.33","5e3c1c2e97ffb2000cac32b6","D2","batch4","spm_show_trial_num","null","<p class=block-text>Trial 58 out of 60</p>","null","","","","","","","","","","","","","","","","","","","","","","","","","",""
"","","","","","image-button-response","120","775510","0.0-2.0-4.0-1.33","5e3c1c2e97ffb2000cac32b6","D2","batch4","spm_respsonse","24698.20000001788","img/question_5_10.jpeg","6","mat_58","2","0","0","24698.20000001788","","","","","","","","","","","","","","","","","","","","",""
"","","","","","html-keyboard-response","121","776580","0.0-2.0-4.0-0.34","5e3c1c2e97ffb2000cac32b6","D2","batch4","spm_show_trial_num","null","<p class=block-text>Trial 59 out of 60</p>","null","","","","","","","","","","","","","","","","","","","","","","","","","",""
"","","","","","image-button-response","122","785248","0.0-2.0-4.0-1.34","5e3c1c2e97ffb2000cac32b6","D2","batch4","spm_respsonse","8665.40000000596","img/question_5_11.jpeg","6","mat_59","4","0","0","8665.40000000596","","","","","","","","","","","","","","","","","","","","",""
"","","","","","html-keyboard-response","123","786313","0.0-2.0-4.0-0.35","5e3c1c2e97ffb2000cac32b6","D2","batch4","spm_show_trial_num","null","<p class=block-text>Trial 60 out of 60</p>","null","","","","","","","","","","","","","","","","","","","","","","","","","",""
"","","","","","image-button-response","124","798435","0.0-2.0-4.0-1.35","5e3c1c2e97ffb2000cac32b6","D2","batch4","spm_respsonse","12118.699999988079","img/question_5_12.jpeg","2","mat_60","5","0","0","12118.699999988079","","","","","","","","","","","","","","","","","","","","",""
"","","","","","html-button-response","125","801189","0.0-2.0-5.0","5e3c1c2e97ffb2000cac32b6","D2","batch4","spm_goodbye","2495.9000000059605","<p class= block-text>This concludes the Standard Progressive Matrix game. Thank you for your responses!<br> When you are ready, click the button continue</p>","0","","","","","","","","","","","","","","","","","","","","","","","","","",""
"true","","","","","fullscreen","126","874000","0.0-3.0-0.0","5e3c1c2e97ffb2000cac32b6","D2","batch4","","","","","","","","","","","","","","","","","","","","","","","","","","","","","",""
"","","","","","instructions","127","923183","0.0-3.0-1.0-0.0-0.0","5e3c1c2e97ffb2000cac32b6","D2","batch4","tol-instructions","49154.80000001192","","","","","","","","[{""page_index"":0,""viewing_time"":18120.100000023842},{""page_index"":1,""viewing_time"":2832.0999999940395},{""page_index"":2,""viewing_time"":4691.799999982119},{""page_index"":3,""viewing_time"":6296.600000023842},{""page_index"":4,""viewing_time"":6140.199999988079},{""page_index"":5,""viewing_time"":9536.09999999404},{""page_index"":6,""viewing_time"":1537.4000000059605}]","","","","","","","","","","","","","","","","","","","",""
"","","","","","html-button-response","128","924024","0.0-3.0-1.0-1.0-0.0","5e3c1c2e97ffb2000cac32b6","D2","batch4","tol_enter_quiz","839.7000000178814","<p class=block-text> Let's answer a few questions <br>","0","","","","","","","","","","","","","","","","","","","","","","","","","",""
"","","","","","html-button-response","129","926407","0.0-3.0-1.0-1.0-1.0","5e3c1c2e97ffb2000cac32b6","D2","batch4","tol_quiz","2378.5999999940395","<p class = block-text>True or False: You can only move the ball on top of a peg. <br></p>","0","","","true","","","","","","","","","","","","","","","","","","","","","","",""
"","","","","","html-button-response","130","927568","0.0-3.0-1.0-1.0-2.0","5e3c1c2e97ffb2000cac32b6","D2","batch4","tol_quiz_feedback","1158.2999999821186","<p class = block-text>Correct! You can only move the ball on top of a peg.</p>","0","","","","","","","","","","","","","","","","","","","","","","","","","",""
"","","","","","html-button-response","131","929482","0.0-3.0-1.0-1.0-3.0","5e3c1c2e97ffb2000cac32b6","D2","batch4","tol_quiz","1912.4000000059605","<p class = block-text>True or False: You should try to match your board with the target board with fewest moves possible. <br></p>","0","","","true","","","","","","","","","","","","","","","","","","","","","","",""
"","","","","","html-button-response","132","930095","0.0-3.0-1.0-1.0-4.0","5e3c1c2e97ffb2000cac32b6","D2","batch4","tol_quiz_feedback","611.0999999940395","<p class = block-text>Correct! </p>","0","","","","","","","","","","","","","","","","","","","","","","","","","",""
"","","","","","html-button-response","133","931184","0.0-3.0-2.0","5e3c1c2e97ffb2000cac32b6","D2","batch4","","1085.7999999821186","<p class=block-text> Now that you've understood the game, let's practice a few easier examples before we start!<br> <br>","0","","","","","","","","","","","","","","","","","","","","","","","","","",""
"","","","","","single-stim-button","134","933071","0.0-3.0-3.0-0.0","5e3c1c2e97ffb2000cac32b6","D2","batch4","tol_practice","1884","","","","","","","","","tol_peg_2","1884","1884","0","[[1,2,0],[0,0],[0]]","1","[[1,2,0],[0,0],[3]]","practice","1884","","","","","","","","","","",""
"","","","","","single-stim-button","135","934155","0.0-3.0-3.0-1.0","5e3c1c2e97ffb2000cac32b6","D2","batch4","tol_practice","1082","","","","","","","","","tol_peg_3","1082","1082","0","[[1,2,0],[0,0],[3]]","1","[[1,2,0],[0,0],[3]]","practice","1082","","","","","","","","","","",""
"","","","","","poldrack-single-stim","136","935167","0.0-3.0-4.0","5e3c1c2e97ffb2000cac32b6","D2","batch4","tol_feedback","-1","","","","","true","","","","","1000","1000","500","","","","","","-1","none","true","","0","","","","","",""
"","","","","","single-stim-button","137","939796","0.0-3.0-5.0-0.0","5e3c1c2e97ffb2000cac32b6","D2","batch4","tol_practice","4628","","","","","","","","","tol_peg_1","4628","4628","0","[[1,0,0],[3,0],[0]]","2","[[0,0,0],[3,1],[2]]","practice","4628","","","","","","","","","","",""
"","","","","","single-stim-button","138","941714","0.0-3.0-5.0-1.0","5e3c1c2e97ffb2000cac32b6","D2","batch4","tol_practice","1916","","","","","","","","","tol_peg_2","1916","1916","0","[[1,0,0],[3,2],[0]]","2","[[0,0,0],[3,1],[2]]","practice","1916","","","","","","","","","","",""
"","","","","","single-stim-button","139","942995","0.0-3.0-5.1-0.1","5e3c1c2e97ffb2000cac32b6","D2","batch4","tol_practice","1280","","","","","","","","","tol_peg_2","1280","1280","0","[[1,0,0],[3,0],[0]]","3","[[0,0,0],[3,1],[2]]","practice","1280","","","","","","","","","","",""
"","","","","","single-stim-button","140","944833","0.0-3.0-5.1-1.1","5e3c1c2e97ffb2000cac32b6","D2","batch4","tol_practice","1836","","","","","","","","","tol_peg_3","1836","1836","0","[[1,0,0],[3,0],[2]]","3","[[0,0,0],[3,1],[2]]","practice","1836","","","","","","","","","","",""
"","","","","","single-stim-button","141","949952","0.0-3.0-5.2-0.2","5e3c1c2e97ffb2000cac32b6","D2","batch4","tol_practice","5119","","","","","","","","","tol_peg_1","5119","5119","0","[[0,0,0],[3,0],[2]]","4","[[0,0,0],[3,1],[2]]","practice","5119","","","","","","","","","","",""
"","","","","","single-stim-button","142","952690","0.0-3.0-5.2-1.2","5e3c1c2e97ffb2000cac32b6","D2","batch4","tol_practice","2737","","","","","","","","","tol_peg_2","2737","2737","0","[[0,0,0],[3,1],[2]]","4","[[0,0,0],[3,1],[2]]","practice","2737","","","","","","","","","","",""
"","","","","","poldrack-single-stim","143","953703","0.0-3.0-6.0","5e3c1c2e97ffb2000cac32b6","D2","batch4","tol_feedback","-1","","","","","true","","","","","1000","1000","500","","","","","","-1","none","true","","0","","","","","",""
"","","","","","single-stim-button","144","957366","0.0-3.0-7.0-0.0","5e3c1c2e97ffb2000cac32b6","D2","batch4","tol_practice","3662","","","","","","","","","tol_peg_2","3662","3662","0","[[1,2,0],[0,0],[0]]","5","[[1,0,0],[2,0],[3]]","practice","3662","","","","","","","","","","",""
"","","","","","single-stim-button","145","958947","0.0-3.0-7.0-1.0","5e3c1c2e97ffb2000cac32b6","D2","batch4","tol_practice","1579","","","","","","","","","tol_peg_3","1579","1579","0","[[1,2,0],[0,0],[3]]","5","[[1,0,0],[2,0],[3]]","practice","1579","","","","","","","","","","",""
"","","","","","single-stim-button","146","959820","0.0-3.0-7.1-0.1","5e3c1c2e97ffb2000cac32b6","D2","batch4","tol_practice","873","","","","","","","","","tol_peg_1","873","873","0","[[1,0,0],[0,0],[3]]","6","[[1,0,0],[2,0],[3]]","practice","873","","","","","","","","","","",""
"","","","","","single-stim-button","147","960973","0.0-3.0-7.1-1.1","5e3c1c2e97ffb2000cac32b6","D2","batch4","tol_practice","1152","","","","","","","","","tol_peg_2","1152","1152","0","[[1,0,0],[2,0],[3]]","6","[[1,0,0],[2,0],[3]]","practice","1152","","","","","","","","","","",""
"","","","","","poldrack-single-stim","148","961984","0.0-3.0-8.0","5e3c1c2e97ffb2000cac32b6","D2","batch4","tol_feedback","-1","","","","","true","","","","","1000","1000","500","","","","","","-1","none","true","","0","","","","","",""
"","","","","","html-button-response","149","963579","0.0-3.0-9.0","5e3c1c2e97ffb2000cac32b6","D2","batch4","tol_instruction","1593.0999999940395","<div class = centerbox><p class = center-block-text>Great job! You are done with practice trials<br>You are about to start official trials.<br> <br> Problem <strong>1</strong> out of 25 problems</p></div>","0","","","","","","","","","","","","","","","","","","","","","","","","","",""
"","","","","","single-stim-button","150","977017","0.0-3.0-10.0-0.0","5e3c1c2e97ffb2000cac32b6","D2","batch4","tol_tohand","12430","","","","","","","","","tol_peg_2","12430","12430","0","[[1,2,0],[0,0],[0]]","1","[[1,3,0],[2,0],[0]]","0","0","","","","","","3","","","","",""
"","","","","","single-stim-button","151","978779","0.0-3.0-10.0-1.0","5e3c1c2e97ffb2000cac32b6","D2","batch4","tol_toboard","1762","","","","","","","","","tol_peg_3","1762","1762","0","[[1,2,0],[0,0],[3]]","1","[[1,3,0],[2,0],[0]]","0","0","","","","","","3","","","","",""
"","","","","","single-stim-button","152","979912","0.0-3.0-10.1-0.1","5e3c1c2e97ffb2000cac32b6","D2","batch4","tol_tohand","1132","","","","","","","","","tol_peg_1","1132","1132","0","[[1,0,0],[0,0],[3]]","2","[[1,3,0],[2,0],[0]]","0","0","","","","","","3","","","","",""
"","","","","","single-stim-button","153","980993","0.0-3.0-10.1-1.1","5e3c1c2e97ffb2000cac32b6","D2","batch4","tol_toboard","1080","","","","","","","","","tol_peg_2","1080","1080","0","[[1,0,0],[2,0],[3]]","2","[[1,3,0],[2,0],[0]]","0","0","","","","","","3","","","","",""
"","","","","","single-stim-button","154","981762","0.0-3.0-10.2-0.2","5e3c1c2e97ffb2000cac32b6","D2","batch4","tol_tohand","767","","","","","","","","","tol_peg_3","767","767","0","[[1,0,0],[2,0],[0]]","3","[[1,3,0],[2,0],[0]]","0","0","","","","","","3","","","","",""
"","","","","","single-stim-button","155","982563","0.0-3.0-10.2-1.2","5e3c1c2e97ffb2000cac32b6","D2","batch4","tol_toboard","800","","","","","","","","","tol_peg_1","800","800","0","[[1,3,0],[2,0],[0]]","3","[[1,3,0],[2,0],[0]]","0","0","","","","","","3","","","","",""
"","","","","","poldrack-single-stim","156","983577","0.0-3.0-11.0","5e3c1c2e97ffb2000cac32b6","D2","batch4","tol_feedback","-1","","","","","true","","","","","1000","1000","500","","","","","","-1","none","true","12430","14329","","","","","",""
"","","","","","html-button-response","157","984808","0.0-3.0-12.0","5e3c1c2e97ffb2000cac32b6","D2","batch4","tol_trial_num","1229.7000000178814","<div class = centerbox><p class = center-block-text>problem <strong>2</strong> out of 25 problems</p></div>","0","","","","","","","","","","","","","","","","","","","","","","","","","",""
"","","","","","single-stim-button","158","1030379","0.0-3.0-13.0-0.0","5e3c1c2e97ffb2000cac32b6","D2","batch4","tol_tohand","45569","","","","","","","","","tol_peg_1","45569","45569","0","[[1,0,0],[3,0],[0]]","1","[[2,1,3],[0,0],[0]]","1","0","","","","","","5","","","","",""
"","","","","","single-stim-button","159","1037922","0.0-3.0-13.0-1.0","5e3c1c2e97ffb2000cac32b6","D2","batch4","tol_toboard","7541","","","","","","","","","tol_peg_1","7541","7541","0","[[1,2,0],[3,0],[0]]","1","[[2,1,3],[0,0],[0]]","1","0","","","","","","5","","","","",""
"","","","","","single-stim-button","160","1040712","0.0-3.0-13.1-0.1","5e3c1c2e97ffb2000cac32b6","D2","batch4","tol_tohand","2789","","","","","","","","","tol_peg_2","2789","2789","0","[[1,2,0],[0,0],[0]]","2","[[2,1,3],[0,0],[0]]","1","0","","","","","","5","","","","",""
"","","","","","single-stim-button","161","1041986","0.0-3.0-13.1-1.1","5e3c1c2e97ffb2000cac32b6","D2","batch4","tol_toboard","1272","","","","","","","","","tol_peg_3","1272","1272","0","[[1,2,0],[0,0],[3]]","2","[[2,1,3],[0,0],[0]]","1","0","","","","","","5","","","","",""
"","","","","","single-stim-button","162","1043323","0.0-3.0-13.2-0.2","5e3c1c2e97ffb2000cac32b6","D2","batch4","tol_tohand","1336","","","","","","","","","tol_peg_1","1336","1336","0","[[1,0,0],[0,0],[3]]","3","[[2,1,3],[0,0],[0]]","1","0","","","","","","5","","","","",""
"","","","","","single-stim-button","163","1044276","0.0-3.0-13.2-1.2","5e3c1c2e97ffb2000cac32b6","D2","batch4","tol_toboard","952","","","","","","","","","tol_peg_2","952","952","0","[[1,0,0],[2,0],[3]]","3","[[2,1,3],[0,0],[0]]","1","0","","","","","","5","","","","",""
"","","","","","single-stim-button","164","1065491","0.0-3.0-13.3-0.3","5e3c1c2e97ffb2000cac32b6","D2","batch4","tol_tohand","21215","","","","","","","","","tol_peg_3","21215","21215","0","[[1,0,0],[2,0],[0]]","4","[[2,1,3],[0,0],[0]]","1","0","","","","","","5","","","","",""
"","","","","","single-stim-button","165","1066368","0.0-3.0-13.3-1.3","5e3c1c2e97ffb2000cac32b6","D2","batch4","tol_toboard","876","","","","","","","","","tol_peg_2","876","876","0","[[1,0,0],[2,3],[0]]","4","[[2,1,3],[0,0],[0]]","1","0","","","","","","5","","","","",""
"","","","","","single-stim-button","166","1067097","0.0-3.0-13.4-0.4","5e3c1c2e97ffb2000cac32b6","D2","batch4","tol_tohand","727","","","","","","","","","tol_peg_1","727","727","0","[[0,0,0],[2,3],[0]]","5","[[2,1,3],[0,0],[0]]","1","0","","","","","","5","","","","",""
"","","","","","single-stim-button","167","1068049","0.0-3.0-13.4-1.4","5e3c1c2e97ffb2000cac32b6","D2","batch4","tol_toboard","952","","","","","","","","","tol_peg_3","952","952","0","[[0,0,0],[2,3],[1]]","5","[[2,1,3],[0,0],[0]]","1","0","","","","","","5","","","","",""
"","","","","","single-stim-button","168","1076012","0.0-3.0-13.5-0.5","5e3c1c2e97ffb2000cac32b6","D2","batch4","tol_tohand","7962","","","","","","","","","tol_peg_2","7962","7962","0","[[0,0,0],[2,0],[1]]","6","[[2,1,3],[0,0],[0]]","1","0","","","","","","5","","","","",""
"","","","","","single-stim-button","169","1077089","0.0-3.0-13.5-1.5","5e3c1c2e97ffb2000cac32b6","D2","batch4","tol_toboard","1076","","","","","","","","","tol_peg_1","1076","1076","0","[[3,0,0],[2,0],[1]]","6","[[2,1,3],[0,0],[0]]","1","0","","","","","","5","","","","",""
"","","","","","single-stim-button","170","1078442","0.0-3.0-13.6-0.6","5e3c1c2e97ffb2000cac32b6","D2","batch4","tol_tohand","1352","","","","","","","","","tol_peg_3","1352","1352","0","[[3,0,0],[2,0],[0]]","7","[[2,1,3],[0,0],[0]]","1","0","","","","","","5","","","","",""
"","","","","","single-stim-button","171","1081620","0.0-3.0-13.6-1.6","5e3c1c2e97ffb2000cac32b6","D2","batch4","tol_toboard","3176","","","","","","","","","tol_peg_2","3176","3176","0","[[3,0,0],[2,1],[0]]","7","[[2,1,3],[0,0],[0]]","1","0","","","","","","5","","","","",""
"","","","","","single-stim-button","172","1082256","0.0-3.0-13.7-0.7","5e3c1c2e97ffb2000cac32b6","D2","batch4","tol_tohand","635","","","","","","","","","tol_peg_1","635","635","0","[[0,0,0],[2,1],[0]]","8","[[2,1,3],[0,0],[0]]","1","0","","","","","","5","","","","",""
"","","","","","single-stim-button","173","1083114","0.0-3.0-13.7-1.7","5e3c1c2e97ffb2000cac32b6","D2","batch4","tol_toboard","856","","","","","","","","","tol_peg_3","856","856","0","[[0,0,0],[2,1],[3]]","8","[[2,1,3],[0,0],[0]]","1","0","","","","","","5","","","","",""
"","","","","","single-stim-button","174","1086660","0.0-3.0-13.8-0.8","5e3c1c2e97ffb2000cac32b6","D2","batch4","tol_tohand","3546","","","","","","","","","tol_peg_2","3546","3546","0","[[0,0,0],[2,0],[3]]","9","[[2,1,3],[0,0],[0]]","1","0","","","","","","5","","","","",""
"","","","","","single-stim-button","175","1088802","0.0-3.0-13.8-1.8","5e3c1c2e97ffb2000cac32b6","D2","batch4","tol_toboard","2140","","","","","","","","","tol_peg_1","2140","2140","0","[[1,0,0],[2,0],[3]]","9","[[2,1,3],[0,0],[0]]","1","0","","","","","","5","","","","",""
"","","","","","single-stim-button","176","1089922","0.0-3.0-13.9-0.9","5e3c1c2e97ffb2000cac32b6","D2","batch4","tol_tohand","1120","","","","","","","","","tol_peg_2","1120","1120","0","[[1,0,0],[0,0],[3]]","10","[[2,1,3],[0,0],[0]]","1","0","","","","","","5","","","","",""
"","","","","","single-stim-button","177","1092617","0.0-3.0-13.9-1.9","5e3c1c2e97ffb2000cac32b6","D2","batch4","tol_toboard","2693","","","","","","","","","tol_peg_1","2693","2693","0","[[1,2,0],[0,0],[3]]","10","[[2,1,3],[0,0],[0]]","1","0","","","","","","5","","","","",""
"","","","","","single-stim-button","178","1093985","0.0-3.0-13.10-0.10","5e3c1c2e97ffb2000cac32b6","D2","batch4","tol_tohand","1368","","","","","","","","","tol_peg_3","1368","1368","0","[[1,2,0],[0,0],[0]]","11","[[2,1,3],[0,0],[0]]","1","0","","","","","","5","","","","",""
"","","","","","single-stim-button","179","1094850","0.0-3.0-13.10-1.10","5e3c1c2e97ffb2000cac32b6","D2","batch4","tol_toboard","864","","","","","","","","","tol_peg_1","864","864","0","[[1,2,3],[0,0],[0]]","11","[[2,1,3],[0,0],[0]]","1","0","","","","","","5","","","","",""
"","","","","","single-stim-button","180","1113754","0.0-3.0-13.11-0.11","5e3c1c2e97ffb2000cac32b6","D2","batch4","tol_tohand","18903","","","","","","","","","tol_peg_1","18903","18903","0","[[1,2,0],[0,0],[0]]","12","[[2,1,3],[0,0],[0]]","1","0","","","","","","5","","","","",""
"","","","","","single-stim-button","181","1114523","0.0-3.0-13.11-1.11","5e3c1c2e97ffb2000cac32b6","D2","batch4","tol_toboard","768","","","","","","","","","tol_peg_2","768","768","0","[[1,2,0],[3,0],[0]]","12","[[2,1,3],[0,0],[0]]","1","0","","","","","","5","","","","",""
"","","","","","single-stim-button","182","1115156","0.0-3.0-13.12-0.12","5e3c1c2e97ffb2000cac32b6","D2","batch4","tol_tohand","631","","","","","","","","","tol_peg_1","631","631","0","[[1,0,0],[3,0],[0]]","13","[[2,1,3],[0,0],[0]]","1","0","","","","","","5","","","","",""
"","","","","","single-stim-button","183","1115765","0.0-3.0-13.12-1.12","5e3c1c2e97ffb2000cac32b6","D2","batch4","tol_toboard","608","","","","","","","","","tol_peg_2","608","608","0","[[1,0,0],[3,2],[0]]","13","[[2,1,3],[0,0],[0]]","1","0","","","","","","5","","","","",""
"","","","","","single-stim-button","184","1116361","0.0-3.0-13.13-0.13","5e3c1c2e97ffb2000cac32b6","D2","batch4","tol_tohand","596","","","","","","","","","tol_peg_1","596","596","0","[[0,0,0],[3,2],[0]]","14","[[2,1,3],[0,0],[0]]","1","0","","","","","","5","","","","",""
"","","","","","single-stim-button","185","1117081","0.0-3.0-13.13-1.13","5e3c1c2e97ffb2000cac32b6","D2","batch4","tol_toboard","719","","","","","","","","","tol_peg_3","719","719","0","[[0,0,0],[3,2],[1]]","14","[[2,1,3],[0,0],[0]]","1","0","","","","","","5","","","","",""
"","","","","","single-stim-button","186","1118467","0.0-3.0-13.14-0.14","5e3c1c2e97ffb2000cac32b6","D2","batch4","tol_tohand","1385","","","","","","","","","tol_peg_2","1385","1385","0","[[0,0,0],[3,0],[1]]","15","[[2,1,3],[0,0],[0]]","1","0","","","","","","5","","","","",""
"","","","","","single-stim-button","187","1119380","0.0-3.0-13.14-1.14","5e3c1c2e97ffb2000cac32b6","D2","batch4","tol_toboard","912","","","","","","","","","tol_peg_1","912","912","0","[[2,0,0],[3,0],[1]]","15","[[2,1,3],[0,0],[0]]","1","0","","","","","","5","","","","",""
"","","","","","single-stim-button","188","1120124","0.0-3.0-13.15-0.15","5e3c1c2e97ffb2000cac32b6","D2","batch4","tol_tohand","742","","","","","","","","","tol_peg_3","742","742","0","[[2,0,0],[3,0],[0]]","16","[[2,1,3],[0,0],[0]]","1","0","","","","","","5","","","","",""
"","","","","","single-stim-button","189","1120897","0.0-3.0-13.15-1.15","5e3c1c2e97ffb2000cac32b6","D2","batch4","tol_toboard","773","","","","","","","","","tol_peg_1","773","773","0","[[2,1,0],[3,0],[0]]","16","[[2,1,3],[0,0],[0]]","1","0","","","","","","5","","","","",""
"","","","","","single-stim-button","190","1121482","0.0-3.0-13.16-0.16","5e3c1c2e97ffb2000cac32b6","D2","batch4","tol_tohand","584","","","","","","","","","tol_peg_2","584","584","0","[[2,1,0],[0,0],[0]]","17","[[2,1,3],[0,0],[0]]","1","0","","","","","","5","","","","",""
"","","","","","single-stim-button","191","1122179","0.0-3.0-13.16-1.16","5e3c1c2e97ffb2000cac32b6","D2","batch4","tol_toboard","695","","","","","","","","","tol_peg_1","695","695","0","[[2,1,3],[0,0],[0]]","17","[[2,1,3],[0,0],[0]]","1","0","","","","","","5","","","","",""
"","","","","","poldrack-single-stim","192","1123182","0.0-3.0-14.0","5e3c1c2e97ffb2000cac32b6","D2","batch4","tol_feedback","-1","","","","","true","","","","","1000","1000","500","","","","","","-1","none","true","45569","110460","","","","","",""
"","","","","","html-button-response","193","1124108","0.0-3.0-15.0","5e3c1c2e97ffb2000cac32b6","D2","batch4","tol_trial_num","924.5","<div class = centerbox><p class = center-block-text>problem <strong>3</strong> out of 25 problems</p></div>","0","","","","","","","","","","","","","","","","","","","","","","","","","",""
"","","","","","single-stim-button","194","1137950","0.0-3.0-16.0-0.0","5e3c1c2e97ffb2000cac32b6","D2","batch4","tol_tohand","13841","","","","","","","","","tol_peg_1","13841","13841","0","[[2,0,0],[0,0],[1]]","1","[[1,2,0],[3,0],[0]]","2","0","","","","","","4","","","","",""
"","","","","","single-stim-button","195","1138583","0.0-3.0-16.0-1.0","5e3c1c2e97ffb2000cac32b6","D2","batch4","tol_toboard","631","","","","","","","","","tol_peg_2","631","631","0","[[2,0,0],[3,0],[1]]","1","[[1,2,0],[3,0],[0]]","2","0","","","","","","4","","","","",""
"","","","","","single-stim-button","196","1139608","0.0-3.0-16.1-0.1","5e3c1c2e97ffb2000cac32b6","D2","batch4","tol_tohand","1024","","","","","","","","","tol_peg_1","1024","1024","0","[[0,0,0],[3,0],[1]]","2","[[1,2,0],[3,0],[0]]","2","0","","","","","","4","","","","",""
"","","","","","single-stim-button","197","1140545","0.0-3.0-16.1-1.1","5e3c1c2e97ffb2000cac32b6","D2","batch4","tol_toboard","935","","","","","","","","","tol_peg_2","935","935","0","[[0,0,0],[3,2],[1]]","2","[[1,2,0],[3,0],[0]]","2","0","","","","","","4","","","","",""
"","","","","","single-stim-button","198","1141065","0.0-3.0-16.2-0.2","5e3c1c2e97ffb2000cac32b6","D2","batch4","tol_tohand","520","","","","","","","","","tol_peg_3","520","520","0","[[0,0,0],[3,2],[0]]","3","[[1,2,0],[3,0],[0]]","2","0","","","","","","4","","","","",""
"","","","","","single-stim-button","199","1141930","0.0-3.0-16.2-1.2","5e3c1c2e97ffb2000cac32b6","D2","batch4","tol_toboard","863","","","","","","","","","tol_peg_1","863","863","0","[[1,0,0],[3,2],[0]]","3","[[1,2,0],[3,0],[0]]","2","0","","","","","","4","","","","",""
"","","","","","single-stim-button","200","1142422","0.0-3.0-16.3-0.3","5e3c1c2e97ffb2000cac32b6","D2","batch4","tol_tohand","492","","","","","","","","","tol_peg_2","492","492","0","[[1,0,0],[3,0],[0]]","4","[[1,2,0],[3,0],[0]]","2","0","","","","","","4","","","","",""
"","","","","","single-stim-button","201","1143191","0.0-3.0-16.3-1.3","5e3c1c2e97ffb2000cac32b6","D2","batch4","tol_toboard","768","","","","","","","","","tol_peg_1","768","768","0","[[1,2,0],[3,0],[0]]","4","[[1,2,0],[3,0],[0]]","2","0","","","","","","4","","","","",""
"","","","","","poldrack-single-stim","202","1144200","0.0-3.0-17.0","5e3c1c2e97ffb2000cac32b6","D2","batch4","tol_feedback","-1","","","","","true","","","","","1000","1000","500","","","","","","-1","none","true","13841","15877","","","","","",""
"","","","","","html-button-response","203","1145113","0.0-3.0-18.0","5e3c1c2e97ffb2000cac32b6","D2","batch4","tol_trial_num","912.4000000059605","<div class = centerbox><p class = center-block-text>problem <strong>4</strong> out of 25 problems</p></div>","0","","","","","","","","","","","","","","","","","","","","","","","","","",""
"","","","","","single-stim-button","204","1149772","0.0-3.0-19.0-0.0","5e3c1c2e97ffb2000cac32b6","D2","batch4","tol_tohand","4657","","","","","","","","","tol_peg_2","4657","4657","0","[[3,0,0],[2,0],[0]]","1","[[3,0,0],[1,0],[2]]","3","0","","","","","","3","","","","",""
"","","","","","single-stim-button","205","1151125","0.0-3.0-19.0-1.0","5e3c1c2e97ffb2000cac32b6","D2","batch4","tol_toboard","1352","","","","","","","","","tol_peg_1","1352","1352","0","[[3,1,0],[2,0],[0]]","1","[[3,0,0],[1,0],[2]]","3","0","","","","","","3","","","","",""
"","","","","","single-stim-button","206","1151738","0.0-3.0-19.1-0.1","5e3c1c2e97ffb2000cac32b6","D2","batch4","tol_tohand","611","","","","","","","","","tol_peg_2","611","611","0","[[3,1,0],[0,0],[0]]","2","[[3,0,0],[1,0],[2]]","3","0","","","","","","3","","","","",""
"","","","","","single-stim-button","207","1152555","0.0-3.0-19.1-1.1","5e3c1c2e97ffb2000cac32b6","D2","batch4","tol_toboard","816","","","","","","","","","tol_peg_3","816","816","0","[[3,1,0],[0,0],[2]]","2","[[3,0,0],[1,0],[2]]","3","0","","","","","","3","","","","",""
"","","","","","single-stim-button","208","1153203","0.0-3.0-19.2-0.2","5e3c1c2e97ffb2000cac32b6","D2","batch4","tol_tohand","648","","","","","","","","","tol_peg_1","648","648","0","[[3,0,0],[0,0],[2]]","3","[[3,0,0],[1,0],[2]]","3","0","","","","","","3","","","","",""
"","","","","","single-stim-button","209","1153956","0.0-3.0-19.2-1.2","5e3c1c2e97ffb2000cac32b6","D2","batch4","tol_toboard","751","","","","","","","","","tol_peg_2","751","751","0","[[3,0,0],[1,0],[2]]","3","[[3,0,0],[1,0],[2]]","3","0","","","","","","3","","","","",""
"","","","","","poldrack-single-stim","210","1154966","0.0-3.0-20.0","5e3c1c2e97ffb2000cac32b6","D2","batch4","tol_feedback","-1","","","","","true","","","","","1000","1000","500","","","","","","-1","none","true","4657","5916","","","","","",""
"","","","","","html-button-response","211","1155778","0.0-3.0-21.0","5e3c1c2e97ffb2000cac32b6","D2","batch4","tol_trial_num","810.9000000059605","<div class = centerbox><p class = center-block-text>problem <strong>5</strong> out of 25 problems</p></div>","0","","","","","","","","","","","","","","","","","","","","","","","","","",""
"","","","","","single-stim-button","212","1164989","0.0-3.0-22.0-0.0","5e3c1c2e97ffb2000cac32b6","D2","batch4","tol_tohand","9210","","","","","","","","","tol_peg_3","9210","9210","0","[[1,0,0],[2,0],[0]]","1","[[0,0,0],[1,2],[3]]","4","0","","","","","","7","","","","",""
"","","","","","single-stim-button","213","1165742","0.0-3.0-22.0-1.0","5e3c1c2e97ffb2000cac32b6","D2","batch4","tol_toboard","752","","","","","","","","","tol_peg_1","752","752","0","[[1,3,0],[2,0],[0]]","1","[[0,0,0],[1,2],[3]]","4","0","","","","","","7","","","","",""
"","","","","","single-stim-button","214","1166615","0.0-3.0-22.1-0.1","5e3c1c2e97ffb2000cac32b6","D2","batch4","tol_tohand","871","","","","","","","","","tol_peg_2","871","871","0","[[1,3,0],[0,0],[0]]","2","[[0,0,0],[1,2],[3]]","4","0","","","","","","7","","","","",""
"","","","","","single-stim-button","215","1168473","0.0-3.0-22.1-1.1","5e3c1c2e97ffb2000cac32b6","D2","batch4","tol_toboard","1857","","","","","","","","","tol_peg_3","1857","1857","0","[[1,3,0],[0,0],[2]]","2","[[0,0,0],[1,2],[3]]","4","0","","","","","","7","","","","",""
"","","","","","single-stim-button","216","1171856","0.0-3.0-22.2-0.2","5e3c1c2e97ffb2000cac32b6","D2","batch4","tol_tohand","3383","","","","","","","","","tol_peg_1","3383","3383","0","[[1,0,0],[0,0],[2]]","3","[[0,0,0],[1,2],[3]]","4","0","","","","","","7","","","","",""
"","","","","","single-stim-button","217","1172553","0.0-3.0-22.2-1.2","5e3c1c2e97ffb2000cac32b6","D2","batch4","tol_toboard","695","","","","","","","","","tol_peg_2","695","695","0","[[1,0,0],[3,0],[2]]","3","[[0,0,0],[1,2],[3]]","4","0","","","","","","7","","","","",""
"","","","","","single-stim-button","218","1177114","0.0-3.0-22.3-0.3","5e3c1c2e97ffb2000cac32b6","D2","batch4","tol_tohand","4560","","","","","","","","","tol_peg_3","4560","4560","0","[[1,0,0],[3,0],[0]]","4","[[0,0,0],[1,2],[3]]","4","0","","","","","","7","","","","",""
"","","","","","single-stim-button","219","1182839","0.0-3.0-22.3-1.3","5e3c1c2e97ffb2000cac32b6","D2","batch4","tol_toboard","5725","","","","","","","","","tol_peg_2","5725","5725","0","[[1,0,0],[3,2],[0]]","4","[[0,0,0],[1,2],[3]]","4","0","","","","","","7","","","","",""
"","","","","","single-stim-button","220","1183857","0.0-3.0-22.4-0.4","5e3c1c2e97ffb2000cac32b6","D2","batch4","tol_tohand","1016","","","","","","","","","tol_peg_1","1016","1016","0","[[0,0,0],[3,2],[0]]","5","[[0,0,0],[1,2],[3]]","4","0","","","","","","7","","","","",""
"","","","","","single-stim-button","221","1184954","0.0-3.0-22.4-1.4","5e3c1c2e97ffb2000cac32b6","D2","batch4","tol_toboard","1096","","","","","","","","","tol_peg_3","1096","1096","0","[[0,0,0],[3,2],[1]]","5","[[0,0,0],[1,2],[3]]","4","0","","","","","","7","","","","",""
"","","","","","single-stim-button","222","1187465","0.0-3.0-22.5-0.5","5e3c1c2e97ffb2000cac32b6","D2","batch4","tol_tohand","2509","","","","","","","","","tol_peg_2","2509","2509","0","[[0,0,0],[3,0],[1]]","6","[[0,0,0],[1,2],[3]]","4","0","","","","","","7","","","","",""
"","","","","","single-stim-button","223","1188442","0.0-3.0-22.5-1.5","5e3c1c2e97ffb2000cac32b6","D2","batch4","tol_toboard","976","","","","","","","","","tol_peg_1","976","976","0","[[2,0,0],[3,0],[1]]","6","[[0,0,0],[1,2],[3]]","4","0","","","","","","7","","","","",""
"","","","","","single-stim-button","224","1189251","0.0-3.0-22.6-0.6","5e3c1c2e97ffb2000cac32b6","D2","batch4","tol_tohand","808","","","","","","","","","tol_peg_2","808","808","0","[[2,0,0],[0,0],[1]]","7","[[0,0,0],[1,2],[3]]","4","0","","","","","","7","","","","",""
"","","","","","single-stim-button","225","1190107","0.0-3.0-22.6-1.6","5e3c1c2e97ffb2000cac32b6","D2","batch4","tol_toboard","855","","","","","","","","","tol_peg_1","855","855","0","[[2,3,0],[0,0],[1]]","7","[[0,0,0],[1,2],[3]]","4","0","","","","","","7","","","","",""
"","","","","","single-stim-button","226","1191100","0.0-3.0-22.7-0.7","5e3c1c2e97ffb2000cac32b6","D2","batch4","tol_tohand","993","","","","","","","","","tol_peg_3","993","993","0","[[2,3,0],[0,0],[0]]","8","[[0,0,0],[1,2],[3]]","4","0","","","","","","7","","","","",""
"","","","","","single-stim-button","227","1192218","0.0-3.0-22.7-1.7","5e3c1c2e97ffb2000cac32b6","D2","batch4","tol_toboard","1116","","","","","","","","","tol_peg_2","1116","1116","0","[[2,3,0],[1,0],[0]]","8","[[0,0,0],[1,2],[3]]","4","0","","","","","","7","","","","",""
"","","","","","single-stim-button","228","1193195","0.0-3.0-22.8-0.8","5e3c1c2e97ffb2000cac32b6","D2","batch4","tol_tohand","977","","","","","","","","","tol_peg_1","977","977","0","[[2,0,0],[1,0],[0]]","9","[[0,0,0],[1,2],[3]]","4","0","","","","","","7","","","","",""
"","","","","","single-stim-button","229","1194100","0.0-3.0-22.8-1.8","5e3c1c2e97ffb2000cac32b6","D2","batch4","tol_toboard","904","","","","","","","","","tol_peg_3","904","904","0","[[2,0,0],[1,0],[3]]","9","[[0,0,0],[1,2],[3]]","4","0","","","","","","7","","","","",""
"","","","","","single-stim-button","230","1194933","0.0-3.0-22.9-0.9","5e3c1c2e97ffb2000cac32b6","D2","batch4","tol_tohand","833","","","","","","","","","tol_peg_1","833","833","0","[[0,0,0],[1,0],[3]]","10","[[0,0,0],[1,2],[3]]","4","0","","","","","","7","","","","",""
"","","","","","single-stim-button","231","1195718","0.0-3.0-22.9-1.9","5e3c1c2e97ffb2000cac32b6","D2","batch4","tol_toboard","783","","","","","","","","","tol_peg_2","783","783","0","[[0,0,0],[1,2],[3]]","10","[[0,0,0],[1,2],[3]]","4","0","","","","","","7","","","","",""
"","","","","","poldrack-single-stim","232","1196725","0.0-3.0-23.0","5e3c1c2e97ffb2000cac32b6","D2","batch4","tol_feedback","-1","","","","","true","","","","","1000","1000","500","","","","","","-1","none","true","9210","25160","","","","","",""
"","","","","","html-button-response","233","1198020","0.0-3.0-24.0","5e3c1c2e97ffb2000cac32b6","D2","batch4","tol_trial_num","1294.2999999821186","<div class = centerbox><p class = center-block-text>problem <strong>6</strong> out of 25 problems</p></div>","0","","","","","","","","","","","","","","","","","","","","","","","","","",""
"","","","","","single-stim-button","234","1210273","0.0-3.0-25.0-0.0","5e3c1c2e97ffb2000cac32b6","D2","batch4","tol_tohand","12252","","","","","","","","","tol_peg_2","12252","12252","0","[[0,0,0],[1,0],[3]]","1","[[1,0,0],[2,3],[0]]","5","0","","","","","","6","","","","",""
"","","","","","single-stim-button","235","1211038","0.0-3.0-25.0-1.0","5e3c1c2e97ffb2000cac32b6","D2","batch4","tol_toboard","763","","","","","","","","","tol_peg_1","763","763","0","[[2,0,0],[1,0],[3]]","1","[[1,0,0],[2,3],[0]]","5","0","","","","","","6","","","","",""
"","","","","","single-stim-button","236","1219902","0.0-3.0-25.1-0.1","5e3c1c2e97ffb2000cac32b6","D2","batch4","tol_tohand","8864","","","","","","","","","tol_peg_3","8864","8864","0","[[2,0,0],[1,0],[0]]","2","[[1,0,0],[2,3],[0]]","5","0","","","","","","6","","","","",""
"","","","","","single-stim-button","237","1220852","0.0-3.0-25.1-1.1","5e3c1c2e97ffb2000cac32b6","D2","batch4","tol_toboard","948","","","","","","","","","tol_peg_1","948","948","0","[[2,3,0],[1,0],[0]]","2","[[1,0,0],[2,3],[0]]","5","0","","","","","","6","","","","",""
"","","","","","single-stim-button","238","1222013","0.0-3.0-25.2-0.2","5e3c1c2e97ffb2000cac32b6","D2","batch4","tol_tohand","1160","","","","","","","","","tol_peg_2","1160","1160","0","[[2,3,0],[0,0],[0]]","3","[[1,0,0],[2,3],[0]]","5","0","","","","","","6","","","","",""
"","","","","","single-stim-button","239","1223967","0.0-3.0-25.2-1.2","5e3c1c2e97ffb2000cac32b6","D2","batch4","tol_toboard","1953","","","","","","","","","tol_peg_3","1953","1953","0","[[2,3,0],[0,0],[1]]","3","[[1,0,0],[2,3],[0]]","5","0","","","","","","6","","","","",""
"","","","","","single-stim-button","240","1226196","0.0-3.0-25.3-0.3","5e3c1c2e97ffb2000cac32b6","D2","batch4","tol_tohand","2228","","","","","","","","","tol_peg_1","2228","2228","0","[[2,0,0],[0,0],[1]]","4","[[1,0,0],[2,3],[0]]","5","0","","","","","","6","","","","",""
"","","","","","single-stim-button","241","1226901","0.0-3.0-25.3-1.3","5e3c1c2e97ffb2000cac32b6","D2","batch4","tol_toboard","704","","","","","","","","","tol_peg_2","704","704","0","[[2,0,0],[3,0],[1]]","4","[[1,0,0],[2,3],[0]]","5","0","","","","","","6","","","","",""
"","","","","","single-stim-button","242","1227589","0.0-3.0-25.4-0.4","5e3c1c2e97ffb2000cac32b6","D2","batch4","tol_tohand","687","","","","","","","","","tol_peg_1","687","687","0","[[0,0,0],[3,0],[1]]","5","[[1,0,0],[2,3],[0]]","5","0","","","","","","6","","","","",""
"","","","","","single-stim-button","243","1228310","0.0-3.0-25.4-1.4","5e3c1c2e97ffb2000cac32b6","D2","batch4","tol_toboard","720","","","","","","","","","tol_peg_2","720","720","0","[[0,0,0],[3,2],[1]]","5","[[1,0,0],[2,3],[0]]","5","0","","","","","","6","","","","",""
"","","","","","single-stim-button","244","1229755","0.0-3.0-25.5-0.5","5e3c1c2e97ffb2000cac32b6","D2","batch4","tol_tohand","1444","","","","","","","","","tol_peg_3","1444","1444","0","[[0,0,0],[3,2],[0]]","6","[[1,0,0],[2,3],[0]]","5","0","","","","","","6","","","","",""
"","","","","","single-stim-button","245","1230732","0.0-3.0-25.5-1.5","5e3c1c2e97ffb2000cac32b6","D2","batch4","tol_toboard","975","","","","","","","","","tol_peg_1","975","975","0","[[1,0,0],[3,2],[0]]","6","[[1,0,0],[2,3],[0]]","5","0","","","","","","6","","","","",""
"","","","","","single-stim-button","246","1232173","0.0-3.0-25.6-0.6","5e3c1c2e97ffb2000cac32b6","D2","batch4","tol_tohand","1439","","","","","","","","","tol_peg_2","1439","1439","0","[[1,0,0],[3,0],[0]]","7","[[1,0,0],[2,3],[0]]","5","0","","","","","","6","","","","",""
"","","","","","single-stim-button","247","1232829","0.0-3.0-25.6-1.6","5e3c1c2e97ffb2000cac32b6","D2","batch4","tol_toboard","655","","","","","","","","","tol_peg_1","655","655","0","[[1,2,0],[3,0],[0]]","7","[[1,0,0],[2,3],[0]]","5","0","","","","","","6","","","","",""
"","","","","","single-stim-button","248","1233762","0.0-3.0-25.7-0.7","5e3c1c2e97ffb2000cac32b6","D2","batch4","tol_tohand","932","","","","","","","","","tol_peg_2","932","932","0","[[1,2,0],[0,0],[0]]","8","[[1,0,0],[2,3],[0]]","5","0","","","","","","6","","","","",""
"","","","","","single-stim-button","249","1234859","0.0-3.0-25.7-1.7","5e3c1c2e97ffb2000cac32b6","D2","batch4","tol_toboard","1096","","","","","","","","","tol_peg_1","1096","1096","0","[[1,2,3],[0,0],[0]]","8","[[1,0,0],[2,3],[0]]","5","0","","","","","","6","","","","",""
"","","","","","single-stim-button","250","1235916","0.0-3.0-25.8-0.8","5e3c1c2e97ffb2000cac32b6","D2","batch4","tol_tohand","1056","","","","","","","","","tol_peg_1","1056","1056","0","[[1,2,0],[0,0],[0]]","9","[[1,0,0],[2,3],[0]]","5","0","","","","","","6","","","","",""
"","","","","","single-stim-button","251","1236524","0.0-3.0-25.8-1.8","5e3c1c2e97ffb2000cac32b6","D2","batch4","tol_toboard","607","","","","","","","","","tol_peg_3","607","607","0","[[1,2,0],[0,0],[3]]","9","[[1,0,0],[2,3],[0]]","5","0","","","","","","6","","","","",""
"","","","","","single-stim-button","252","1237197","0.0-3.0-25.9-0.9","5e3c1c2e97ffb2000cac32b6","D2","batch4","tol_tohand","672","","","","","","","","","tol_peg_1","672","672","0","[[1,0,0],[0,0],[3]]","10","[[1,0,0],[2,3],[0]]","5","0","","","","","","6","","","","",""
"","","","","","single-stim-button","253","1237769","0.0-3.0-25.9-1.9","5e3c1c2e97ffb2000cac32b6","D2","batch4","tol_toboard","571","","","","","","","","","tol_peg_2","571","571","0","[[1,0,0],[2,0],[3]]","10","[[1,0,0],[2,3],[0]]","5","0","","","","","","6","","","","",""
"","","","","","single-stim-button","254","1238338","0.0-3.0-25.10-0.10","5e3c1c2e97ffb2000cac32b6","D2","batch4","tol_tohand","567","","","","","","","","","tol_peg_3","567","567","0","[[1,0,0],[2,0],[0]]","11","[[1,0,0],[2,3],[0]]","5","0","","","","","","6","","","","",""
"","","","","","single-stim-button","255","1238986","0.0-3.0-25.10-1.10","5e3c1c2e97ffb2000cac32b6","D2","batch4","tol_toboard","648","","","","","","","","","tol_peg_2","648","648","0","[[1,0,0],[2,3],[0]]","11","[[1,0,0],[2,3],[0]]","5","0","","","","","","6","","","","",""
"","","","","","poldrack-single-stim","256","1239994","0.0-3.0-26.0","5e3c1c2e97ffb2000cac32b6","D2","batch4","tol_feedback","-1","","","","","true","","","","","1000","1000","500","","","","","","-1","none","true","12252","31301","","","","","",""
"","","","","","html-button-response","257","1240844","0.0-3.0-27.0","5e3c1c2e97ffb2000cac32b6","D2","batch4","tol_trial_num","849.0999999940395","<div class = centerbox><p class = center-block-text>problem <strong>7</strong> out of 25 problems</p></div>","0","","","","","","","","","","","","","","","","","","","","","","","","","",""
"","","","","","single-stim-button","258","1245654","0.0-3.0-28.0-0.0","5e3c1c2e97ffb2000cac32b6","D2","batch4","tol_tohand","4808","","","","","","","","","tol_peg_1","4808","4808","0","[[2,0,0],[0,0],[3]]","1","[[1,2,0],[3,0],[0]]","6","0","","","","","","5","","","","",""
"","","","","","single-stim-button","259","1246819","0.0-3.0-28.0-1.0","5e3c1c2e97ffb2000cac32b6","D2","batch4","tol_toboard","1164","","","","","","","","","tol_peg_2","1164","1164","0","[[2,0,0],[1,0],[3]]","1","[[1,2,0],[3,0],[0]]","6","0","","","","","","5","","","","",""
"","","","","","single-stim-button","260","1247419","0.0-3.0-28.1-0.1","5e3c1c2e97ffb2000cac32b6","D2","batch4","tol_tohand","600","","","","","","","","","tol_peg_1","600","600","0","[[0,0,0],[1,0],[3]]","2","[[1,2,0],[3,0],[0]]","6","0","","","","","","5","","","","",""
"","","","","","single-stim-button","261","1248380","0.0-3.0-28.1-1.1","5e3c1c2e97ffb2000cac32b6","D2","batch4","tol_toboard","960","","","","","","","","","tol_peg_2","960","960","0","[[0,0,0],[1,2],[3]]","2","[[1,2,0],[3,0],[0]]","6","0","","","","","","5","","","","",""
"","","","","","single-stim-button","262","1249013","0.0-3.0-28.2-0.2","5e3c1c2e97ffb2000cac32b6","D2","batch4","tol_tohand","631","","","","","","","","","tol_peg_2","631","631","0","[[0,0,0],[1,0],[3]]","3","[[1,2,0],[3,0],[0]]","6","0","","","","","","5","","","","",""
"","","","","","single-stim-button","263","1249717","0.0-3.0-28.2-1.2","5e3c1c2e97ffb2000cac32b6","D2","batch4","tol_toboard","704","","","","","","","","","tol_peg_1","704","704","0","[[2,0,0],[1,0],[3]]","3","[[1,2,0],[3,0],[0]]","6","0","","","","","","5","","","","",""
"","","","","","single-stim-button","264","1251419","0.0-3.0-28.3-0.3","5e3c1c2e97ffb2000cac32b6","D2","batch4","tol_tohand","1701","","","","","","","","","tol_peg_1","1701","1701","0","[[0,0,0],[1,0],[3]]","4","[[1,2,0],[3,0],[0]]","6","0","","","","","","5","","","","",""
"","","","","","single-stim-button","265","1254870","0.0-3.0-28.3-1.3","5e3c1c2e97ffb2000cac32b6","D2","batch4","tol_toboard","3450","","","","","","","","","tol_peg_1","3450","3450","0","[[2,0,0],[1,0],[3]]","4","[[1,2,0],[3,0],[0]]","6","0","","","","","","5","","","","",""
"","","","","","single-stim-button","266","1255623","0.0-3.0-28.4-0.4","5e3c1c2e97ffb2000cac32b6","D2","batch4","tol_tohand","752","","","","","","","","","tol_peg_2","752","752","0","[[2,0,0],[0,0],[3]]","5","[[1,2,0],[3,0],[0]]","6","0","","","","","","5","","","","",""
"","","","","","single-stim-button","267","1258694","0.0-3.0-28.4-1.4","5e3c1c2e97ffb2000cac32b6","D2","batch4","tol_toboard","3069","","","","","","","","","tol_peg_1","3069","3069","0","[[2,1,0],[0,0],[3]]","5","[[1,2,0],[3,0],[0]]","6","0","","","","","","5","","","","",""
"","","","","","single-stim-button","268","1259391","0.0-3.0-28.5-0.5","5e3c1c2e97ffb2000cac32b6","D2","batch4","tol_tohand","695","","","","","","","","","tol_peg_3","695","695","0","[[2,1,0],[0,0],[0]]","6","[[1,2,0],[3,0],[0]]","6","0","","","","","","5","","","","",""
"","","","","","single-stim-button","269","1260223","0.0-3.0-28.5-1.5","5e3c1c2e97ffb2000cac32b6","D2","batch4","tol_toboard","832","","","","","","","","","tol_peg_2","832","832","0","[[2,1,0],[3,0],[0]]","6","[[1,2,0],[3,0],[0]]","6","0","","","","","","5","","","","",""
"","","","","","single-stim-button","270","1261188","0.0-3.0-28.6-0.6","5e3c1c2e97ffb2000cac32b6","D2","batch4","tol_tohand","964","","","","","","","","","tol_peg_1","964","964","0","[[2,0,0],[3,0],[0]]","7","[[1,2,0],[3,0],[0]]","6","0","","","","","","5","","","","",""
"","","","","","single-stim-button","271","1261949","0.0-3.0-28.6-1.6","5e3c1c2e97ffb2000cac32b6","D2","batch4","tol_toboard","760","","","","","","","","","tol_peg_3","760","760","0","[[2,0,0],[3,0],[1]]","7","[[1,2,0],[3,0],[0]]","6","0","","","","","","5","","","","",""
"","","","","","single-stim-button","272","1262830","0.0-3.0-28.7-0.7","5e3c1c2e97ffb2000cac32b6","D2","batch4","tol_tohand","880","","","","","","","","","tol_peg_1","880","880","0","[[0,0,0],[3,0],[1]]","8","[[1,2,0],[3,0],[0]]","6","0","","","","","","5","","","","",""
"","","","","","single-stim-button","273","1263527","0.0-3.0-28.7-1.7","5e3c1c2e97ffb2000cac32b6","D2","batch4","tol_toboard","695","","","","","","","","","tol_peg_2","695","695","0","[[0,0,0],[3,2],[1]]","8","[[1,2,0],[3,0],[0]]","6","0","","","","","","5","","","","",""
"","","","","","single-stim-button","274","1264368","0.0-3.0-28.8-0.8","5e3c1c2e97ffb2000cac32b6","D2","batch4","tol_tohand","839","","","","","","","","","tol_peg_3","839","839","0","[[0,0,0],[3,2],[0]]","9","[[1,2,0],[3,0],[0]]","6","0","","","","","","5","","","","",""
"","","","","","single-stim-button","275","1265341","0.0-3.0-28.8-1.8","5e3c1c2e97ffb2000cac32b6","D2","batch4","tol_toboard","972","","","","","","","","","tol_peg_1","972","972","0","[[1,0,0],[3,2],[0]]","9","[[1,2,0],[3,0],[0]]","6","0","","","","","","5","","","","",""
"","","","","","single-stim-button","276","1266814","0.0-3.0-28.9-0.9","5e3c1c2e97ffb2000cac32b6","D2","batch4","tol_tohand","1472","","","","","","","","","tol_peg_2","1472","1472","0","[[1,0,0],[3,0],[0]]","10","[[1,2,0],[3,0],[0]]","6","0","","","","","","5","","","","",""
"","","","","","single-stim-button","277","1267503","0.0-3.0-28.9-1.9","5e3c1c2e97ffb2000cac32b6","D2","batch4","tol_toboard","687","","","","","","","","","tol_peg_1","687","687","0","[[1,2,0],[3,0],[0]]","10","[[1,2,0],[3,0],[0]]","6","0","","","","","","5","","","","",""
"","","","","","poldrack-single-stim","278","1268514","0.0-3.0-29.0","5e3c1c2e97ffb2000cac32b6","D2","batch4","tol_feedback","-1","","","","","true","","","","","1000","1000","500","","","","","","-1","none","true","4808","13342","","","","","",""
"","","","","","html-button-response","279","1269645","0.0-3.0-30.0","5e3c1c2e97ffb2000cac32b6","D2","batch4","tol_trial_num","1129.800000011921","<div class = centerbox><p class = center-block-text>problem <strong>8</strong> out of 25 problems</p></div>","0","","","","","","","","","","","","","","","","","","","","","","","","","",""
"","","","","","single-stim-button","280","1273544","0.0-3.0-31.0-0.0","5e3c1c2e97ffb2000cac32b6","D2","batch4","tol_tohand","3899","","","","","","","","","tol_peg_3","3899","3899","0","[[0,0,0],[2,3],[0]]","1","[[1,2,0],[3,0],[0]]","7","0","","","","","","4","","","","",""
"","","","","","single-stim-button","281","1274361","0.0-3.0-31.0-1.0","5e3c1c2e97ffb2000cac32b6","D2","batch4","tol_toboard","816","","","","","","","","","tol_peg_1","816","816","0","[[1,0,0],[2,3],[0]]","1","[[1,2,0],[3,0],[0]]","7","0","","","","","","4","","","","",""
"","","","","","single-stim-button","282","1275594","0.0-3.0-31.1-0.1","5e3c1c2e97ffb2000cac32b6","D2","batch4","tol_tohand","1232","","","","","","","","","tol_peg_2","1232","1232","0","[[1,0,0],[2,0],[0]]","2","[[1,2,0],[3,0],[0]]","7","0","","","","","","4","","","","",""
"","","","","","single-stim-button","283","1276411","0.0-3.0-31.1-1.1","5e3c1c2e97ffb2000cac32b6","D2","batch4","tol_toboard","815","","","","","","","","","tol_peg_3","815","815","0","[[1,0,0],[2,0],[3]]","2","[[1,2,0],[3,0],[0]]","7","0","","","","","","4","","","","",""
"","","","","","single-stim-button","284","1276943","0.0-3.0-31.2-0.2","5e3c1c2e97ffb2000cac32b6","D2","batch4","tol_tohand","531","","","","","","","","","tol_peg_2","531","531","0","[[1,0,0],[0,0],[3]]","3","[[1,2,0],[3,0],[0]]","7","0","","","","","","4","","","","",""
"","","","","","single-stim-button","285","1277680","0.0-3.0-31.2-1.2","5e3c1c2e97ffb2000cac32b6","D2","batch4","tol_toboard","736","","","","","","","","","tol_peg_1","736","736","0","[[1,2,0],[0,0],[3]]","3","[[1,2,0],[3,0],[0]]","7","0","","","","","","4","","","","",""
"","","","","","single-stim-button","286","1278233","0.0-3.0-31.3-0.3","5e3c1c2e97ffb2000cac32b6","D2","batch4","tol_tohand","551","","","","","","","","","tol_peg_3","551","551","0","[[1,2,0],[0,0],[0]]","4","[[1,2,0],[3,0],[0]]","7","0","","","","","","4","","","","",""
"","","","","","single-stim-button","287","1278865","0.0-3.0-31.3-1.3","5e3c1c2e97ffb2000cac32b6","D2","batch4","tol_toboard","632","","","","","","","","","tol_peg_2","632","632","0","[[1,2,0],[3,0],[0]]","4","[[1,2,0],[3,0],[0]]","7","0","","","","","","4","","","","",""
"","","","","","poldrack-single-stim","288","1279871","0.0-3.0-32.0","5e3c1c2e97ffb2000cac32b6","D2","batch4","tol_feedback","-1","","","","","true","","","","","1000","1000","500","","","","","","-1","none","true","3899","6213","","","","","",""
"","","","","","html-button-response","289","1280682","0.0-3.0-33.0","5e3c1c2e97ffb2000cac32b6","D2","batch4","tol_trial_num","808.9000000059605","<div class = centerbox><p class = center-block-text>problem <strong>9</strong> out of 25 problems</p></div>","0","","","","","","","","","","","","","","","","","","","","","","","","","",""
"","","","","","single-stim-button","290","1294717","0.0-3.0-34.0-0.0","5e3c1c2e97ffb2000cac32b6","D2","batch4","tol_tohand","14034","","","","","","","","","tol_peg_3","14034","14034","0","[[3,2,0],[0,0],[0]]","1","[[2,1,0],[3,0],[0]]","8","0","","","","","","6","","","","",""
"","","","","","single-stim-button","291","1295334","0.0-3.0-34.0-1.0","5e3c1c2e97ffb2000cac32b6","D2","batch4","tol_toboard","615","","","","","","","","","tol_peg_2","615","615","0","[[3,2,0],[1,0],[0]]","1","[[2,1,0],[3,0],[0]]","8","0","","","","","","6","","","","",""
"","","","","","single-stim-button","292","1295878","0.0-3.0-34.1-0.1","5e3c1c2e97ffb2000cac32b6","D2","batch4","tol_tohand","543","","","","","","","","","tol_peg_1","543","543","0","[[3,0,0],[1,0],[0]]","2","[[2,1,0],[3,0],[0]]","8","0","","","","","","6","","","","",""
"","","","","","single-stim-button","293","1296559","0.0-3.0-34.1-1.1","5e3c1c2e97ffb2000cac32b6","D2","batch4","tol_toboard","681","","","","","","","","","tol_peg_2","681","681","0","[[3,0,0],[1,2],[0]]","2","[[2,1,0],[3,0],[0]]","8","0","","","","","","6","","","","",""
"","","","","","single-stim-button","294","1297216","0.0-3.0-34.2-0.2","5e3c1c2e97ffb2000cac32b6","D2","batch4","tol_tohand","656","","","","","","","","","tol_peg_1","656","656","0","[[0,0,0],[1,2],[0]]","3","[[2,1,0],[3,0],[0]]","8","0","","","","","","6","","","","",""
"","","","","","single-stim-button","295","1302129","0.0-3.0-34.2-1.2","5e3c1c2e97ffb2000cac32b6","D2","batch4","tol_toboard","4912","","","","","","","","","tol_peg_1","4912","4912","0","[[3,0,0],[1,2],[0]]","3","[[2,1,0],[3,0],[0]]","8","0","","","","","","6","","","","",""
"","","","","","single-stim-button","296","1302738","0.0-3.0-34.3-0.3","5e3c1c2e97ffb2000cac32b6","D2","batch4","tol_tohand","607","","","","","","","","","tol_peg_2","607","607","0","[[3,0,0],[1,0],[0]]","4","[[2,1,0],[3,0],[0]]","8","0","","","","","","6","","","","",""
"","","","","","single-stim-button","297","1303430","0.0-3.0-34.3-1.3","5e3c1c2e97ffb2000cac32b6","D2","batch4","tol_toboard","692","","","","","","","","","tol_peg_3","692","692","0","[[3,0,0],[1,0],[2]]","4","[[2,1,0],[3,0],[0]]","8","0","","","","","","6","","","","",""
"","","","","","single-stim-button","298","1304087","0.0-3.0-34.4-0.4","5e3c1c2e97ffb2000cac32b6","D2","batch4","tol_tohand","656","","","","","","","","","tol_peg_1","656","656","0","[[0,0,0],[1,0],[2]]","5","[[2,1,0],[3,0],[0]]","8","0","","","","","","6","","","","",""
"","","","","","single-stim-button","299","1304728","0.0-3.0-34.4-1.4","5e3c1c2e97ffb2000cac32b6","D2","batch4","tol_toboard","639","","","","","","","","","tol_peg_2","639","639","0","[[0,0,0],[1,3],[2]]","5","[[2,1,0],[3,0],[0]]","8","0","","","","","","6","","","","",""
"","","","","","single-stim-button","300","1305344","0.0-3.0-34.5-0.5","5e3c1c2e97ffb2000cac32b6","D2","batch4","tol_tohand","616","","","","","","","","","tol_peg_3","616","616","0","[[0,0,0],[1,3],[0]]","6","[[2,1,0],[3,0],[0]]","8","0","","","","","","6","","","","",""
"","","","","","single-stim-button","301","1306049","0.0-3.0-34.5-1.5","5e3c1c2e97ffb2000cac32b6","D2","batch4","tol_toboard","704","","","","","","","","","tol_peg_1","704","704","0","[[2,0,0],[1,3],[0]]","6","[[2,1,0],[3,0],[0]]","8","0","","","","","","6","","","","",""
"","","","","","single-stim-button","302","1306714","0.0-3.0-34.6-0.6","5e3c1c2e97ffb2000cac32b6","D2","batch4","tol_tohand","663","","","","","","","","","tol_peg_2","663","663","0","[[2,0,0],[1,0],[0]]","7","[[2,1,0],[3,0],[0]]","8","0","","","","","","6","","","","",""
"","","","","","single-stim-button","303","1307446","0.0-3.0-34.6-1.6","5e3c1c2e97ffb2000cac32b6","D2","batch4","tol_toboard","732","","","","","","","","","tol_peg_3","732","732","0","[[2,0,0],[1,0],[3]]","7","[[2,1,0],[3,0],[0]]","8","0","","","","","","6","","","","",""
"","","","","","single-stim-button","304","1307958","0.0-3.0-34.7-0.7","5e3c1c2e97ffb2000cac32b6","D2","batch4","tol_tohand","511","","","","","","","","","tol_peg_2","511","511","0","[[2,0,0],[0,0],[3]]","8","[[2,1,0],[3,0],[0]]","8","0","","","","","","6","","","","",""
"","","","","","single-stim-button","305","1308503","0.0-3.0-34.7-1.7","5e3c1c2e97ffb2000cac32b6","D2","batch4","tol_toboard","544","","","","","","","","","tol_peg_1","544","544","0","[[2,1,0],[0,0],[3]]","8","[[2,1,0],[3,0],[0]]","8","0","","","","","","6","","","","",""
"","","","","","single-stim-button","306","1309223","0.0-3.0-34.8-0.8","5e3c1c2e97ffb2000cac32b6","D2","batch4","tol_tohand","719","","","","","","","","","tol_peg_3","719","719","0","[[2,1,0],[0,0],[0]]","9","[[2,1,0],[3,0],[0]]","8","0","","","","","","6","","","","",""
"","","","","","single-stim-button","307","1309832","0.0-3.0-34.8-1.8","5e3c1c2e97ffb2000cac32b6","D2","batch4","tol_toboard","608","","","","","","","","","tol_peg_2","608","608","0","[[2,1,0],[3,0],[0]]","9","[[2,1,0],[3,0],[0]]","8","0","","","","","","6","","","","",""
"","","","","","poldrack-single-stim","308","1310839","0.0-3.0-35.0","5e3c1c2e97ffb2000cac32b6","D2","batch4","tol_feedback","-1","","","","","true","","","","","1000","1000","500","","","","","","-1","none","true","14034","19005","","","","","",""
"","","","","","html-button-response","309","1311562","0.0-3.0-36.0","5e3c1c2e97ffb2000cac32b6","D2","batch4","tol_trial_num","721.8000000119209","<div class = centerbox><p class = center-block-text>problem <strong>10</strong> out of 25 problems</p></div>","0","","","","","","","","","","","","","","","","","","","","","","","","","",""
"","","","","","single-stim-button","310","1315311","0.0-3.0-37.0-0.0","5e3c1c2e97ffb2000cac32b6","D2","batch4","tol_tohand","3748","","","","","","","","","tol_peg_2","3748","3748","0","[[3,0,0],[0,0],[2]]","1","[[3,0,0],[2,1],[0]]","9","0","","","","","","3","","","","",""
"","","","","","single-stim-button","311","1315840","0.0-3.0-37.0-1.0","5e3c1c2e97ffb2000cac32b6","D2","batch4","tol_toboard","527","","","","","","","","","tol_peg_1","527","527","0","[[3,1,0],[0,0],[2]]","1","[[3,0,0],[2,1],[0]]","9","0","","","","","","3","","","","",""
"","","","","","single-stim-button","312","1316428","0.0-3.0-37.1-0.1","5e3c1c2e97ffb2000cac32b6","D2","batch4","tol_tohand","587","","","","","","","","","tol_peg_3","587","587","0","[[3,1,0],[0,0],[0]]","2","[[3,0,0],[2,1],[0]]","9","0","","","","","","3","","","","",""
"","","","","","single-stim-button","313","1317085","0.0-3.0-37.1-1.1","5e3c1c2e97ffb2000cac32b6","D2","batch4","tol_toboard","655","","","","","","","","","tol_peg_2","655","655","0","[[3,1,0],[2,0],[0]]","2","[[3,0,0],[2,1],[0]]","9","0","","","","","","3","","","","",""
"","","","","","single-stim-button","314","1317621","0.0-3.0-37.2-0.2","5e3c1c2e97ffb2000cac32b6","D2","batch4","tol_tohand","536","","","","","","","","","tol_peg_1","536","536","0","[[3,0,0],[2,0],[0]]","3","[[3,0,0],[2,1],[0]]","9","0","","","","","","3","","","","",""
"","","","","","single-stim-button","315","1318302","0.0-3.0-37.2-1.2","5e3c1c2e97ffb2000cac32b6","D2","batch4","tol_toboard","680","","","","","","","","","tol_peg_2","680","680","0","[[3,0,0],[2,1],[0]]","3","[[3,0,0],[2,1],[0]]","9","0","","","","","","3","","","","",""
"","","","","","poldrack-single-stim","316","1319314","0.0-3.0-38.0","5e3c1c2e97ffb2000cac32b6","D2","batch4","tol_feedback","-1","","","","","true","","","","","1000","1000","500","","","","","","-1","none","true","3748","4871","","","","","",""
"","","","","","html-button-response","317","1319959","0.0-3.0-39.0","5e3c1c2e97ffb2000cac32b6","D2","batch4","tol_trial_num","644.3999999761581","<div class = centerbox><p class = center-block-text>problem <strong>11</strong> out of 25 problems</p></div>","0","","","","","","","","","","","","","","","","","","","","","","","","","",""
"","","","","","single-stim-button","318","1327785","0.0-3.0-40.0-0.0","5e3c1c2e97ffb2000cac32b6","D2","batch4","tol_tohand","7824","","","","","","","","","tol_peg_2","7824","7824","0","[[1,2,0],[0,0],[0]]","1","[[2,0,0],[1,3],[0]]","10","0","","","","","","6","","","","",""
"","","","","","single-stim-button","319","1328409","0.0-3.0-40.0-1.0","5e3c1c2e97ffb2000cac32b6","D2","batch4","tol_toboard","623","","","","","","","","","tol_peg_3","623","623","0","[[1,2,0],[0,0],[3]]","1","[[2,0,0],[1,3],[0]]","10","0","","","","","","6","","","","",""
"","","","","","single-stim-button","320","1329118","0.0-3.0-40.1-0.1","5e3c1c2e97ffb2000cac32b6","D2","batch4","tol_tohand","707","","","","","","","","","tol_peg_1","707","707","0","[[1,0,0],[0,0],[3]]","2","[[2,0,0],[1,3],[0]]","10","0","","","","","","6","","","","",""
"","","","","","single-stim-button","321","1332585","0.0-3.0-40.1-1.1","5e3c1c2e97ffb2000cac32b6","D2","batch4","tol_toboard","3466","","","","","","","","","tol_peg_2","3466","3466","0","[[1,0,0],[2,0],[3]]","2","[[2,0,0],[1,3],[0]]","10","0","","","","","","6","","","","",""
"","","","","","single-stim-button","322","1334142","0.0-3.0-40.2-0.2","5e3c1c2e97ffb2000cac32b6","D2","batch4","tol_tohand","1556","","","","","","","","","tol_peg_1","1556","1556","0","[[0,0,0],[2,0],[3]]","3","[[2,0,0],[1,3],[0]]","10","0","","","","","","6","","","","",""
"","","","","","single-stim-button","323","1338178","0.0-3.0-40.2-1.2","5e3c1c2e97ffb2000cac32b6","D2","batch4","tol_toboard","4034","","","","","","","","","tol_peg_2","4034","4034","0","[[0,0,0],[2,1],[3]]","3","[[2,0,0],[1,3],[0]]","10","0","","","","","","6","","","","",""
"","","","","","single-stim-button","324","1338902","0.0-3.0-40.3-0.3","5e3c1c2e97ffb2000cac32b6","D2","batch4","tol_tohand","724","","","","","","","","","tol_peg_3","724","724","0","[[0,0,0],[2,1],[0]]","4","[[2,0,0],[1,3],[0]]","10","0","","","","","","6","","","","",""
"","","","","","single-stim-button","325","1339583","0.0-3.0-40.3-1.3","5e3c1c2e97ffb2000cac32b6","D2","batch4","tol_toboard","679","","","","","","","","","tol_peg_1","679","679","0","[[3,0,0],[2,1],[0]]","4","[[2,0,0],[1,3],[0]]","10","0","","","","","","6","","","","",""
"","","","","","single-stim-button","326","1340272","0.0-3.0-40.4-0.4","5e3c1c2e97ffb2000cac32b6","D2","batch4","tol_tohand","687","","","","","","","","","tol_peg_2","687","687","0","[[3,0,0],[2,0],[0]]","5","[[2,0,0],[1,3],[0]]","10","0","","","","","","6","","","","",""
"","","","","","single-stim-button","327","1341304","0.0-3.0-40.4-1.4","5e3c1c2e97ffb2000cac32b6","D2","batch4","tol_toboard","1032","","","","","","","","","tol_peg_3","1032","1032","0","[[3,0,0],[2,0],[1]]","5","[[2,0,0],[1,3],[0]]","10","0","","","","","","6","","","","",""
"","","","","","single-stim-button","328","1342353","0.0-3.0-40.5-0.5","5e3c1c2e97ffb2000cac32b6","D2","batch4","tol_tohand","1048","","","","","","","","","tol_peg_2","1048","1048","0","[[3,0,0],[0,0],[1]]","6","[[2,0,0],[1,3],[0]]","10","0","","","","","","6","","","","",""
"","","","","","single-stim-button","329","1343061","0.0-3.0-40.5-1.5","5e3c1c2e97ffb2000cac32b6","D2","batch4","tol_toboard","707","","","","","","","","","tol_peg_1","707","707","0","[[3,2,0],[0,0],[1]]","6","[[2,0,0],[1,3],[0]]","10","0","","","","","","6","","","","",""
"","","","","","single-stim-button","330","1360344","0.0-3.0-40.6-0.6","5e3c1c2e97ffb2000cac32b6","D2","batch4","tol_tohand","17282","","","","","","","","","tol_peg_3","17282","17282","0","[[3,2,0],[0,0],[0]]","7","[[2,0,0],[1,3],[0]]","10","0","","","","","","6","","","","",""
"","","","","","single-stim-button","331","1360993","0.0-3.0-40.6-1.6","5e3c1c2e97ffb2000cac32b6","D2","batch4","tol_toboard","648","","","","","","","","","tol_peg_2","648","648","0","[[3,2,0],[1,0],[0]]","7","[[2,0,0],[1,3],[0]]","10","0","","","","","","6","","","","",""
"","","","","","single-stim-button","332","1361530","0.0-3.0-40.7-0.7","5e3c1c2e97ffb2000cac32b6","D2","batch4","tol_tohand","535","","","","","","","","","tol_peg_1","535","535","0","[[3,0,0],[1,0],[0]]","8","[[2,0,0],[1,3],[0]]","10","0","","","","","","6","","","","",""
"","","","","","single-stim-button","333","1362963","0.0-3.0-40.7-1.7","5e3c1c2e97ffb2000cac32b6","D2","batch4","tol_toboard","1433","","","","","","","","","tol_peg_3","1433","1433","0","[[3,0,0],[1,0],[2]]","8","[[2,0,0],[1,3],[0]]","10","0","","","","","","6","","","","",""
"","","","","","single-stim-button","334","1363864","0.0-3.0-40.8-0.8","5e3c1c2e97ffb2000cac32b6","D2","batch4","tol_tohand","900","","","","","","","","","tol_peg_1","900","900","0","[[0,0,0],[1,0],[2]]","9","[[2,0,0],[1,3],[0]]","10","0","","","","","","6","","","","",""
"","","","","","single-stim-button","335","1364713","0.0-3.0-40.8-1.8","5e3c1c2e97ffb2000cac32b6","D2","batch4","tol_toboard","848","","","","","","","","","tol_peg_2","848","848","0","[[0,0,0],[1,3],[2]]","9","[[2,0,0],[1,3],[0]]","10","0","","","","","","6","","","","",""
"","","","","","single-stim-button","336","1365185","0.0-3.0-40.9-0.9","5e3c1c2e97ffb2000cac32b6","D2","batch4","tol_tohand","471","","","","","","","","","tol_peg_3","471","471","0","[[0,0,0],[1,3],[0]]","10","[[2,0,0],[1,3],[0]]","10","0","","","","","","6","","","","",""
"","","","","","single-stim-button","337","1365914","0.0-3.0-40.9-1.9","5e3c1c2e97ffb2000cac32b6","D2","batch4","tol_toboard","729","","","","","","","","","tol_peg_1","729","729","0","[[2,0,0],[1,3],[0]]","10","[[2,0,0],[1,3],[0]]","10","0","","","","","","6","","","","",""
"","","","","","poldrack-single-stim","338","1366922","0.0-3.0-41.0","5e3c1c2e97ffb2000cac32b6","D2","batch4","tol_feedback","-1","","","","","true","","","","","1000","1000","500","","","","","","-1","none","true","7824","31734","","","","","",""
"","","","","","html-button-response","339","1367492","0.0-3.0-42.0","5e3c1c2e97ffb2000cac32b6","D2","batch4","tol_trial_num","568.7999999821186","<div class = centerbox><p class = center-block-text>problem <strong>12</strong> out of 25 problems</p></div>","0","","","","","","","","","","","","","","","","","","","","","","","","","",""
"","","","","","single-stim-button","340","1375807","0.0-3.0-43.0-0.0","5e3c1c2e97ffb2000cac32b6","D2","batch4","tol_tohand","8314","","","","","","","","","tol_peg_1","8314","8314","0","[[1,0,0],[3,0],[0]]","1","[[2,3,0],[0,0],[1]]","11","0","","","","","","4","","","","",""
"","","","","","single-stim-button","341","1376388","0.0-3.0-43.0-1.0","5e3c1c2e97ffb2000cac32b6","D2","batch4","tol_toboard","580","","","","","","","","","tol_peg_2","580","580","0","[[1,0,0],[3,2],[0]]","1","[[2,3,0],[0,0],[1]]","11","0","","","","","","4","","","","",""
"","","","","","single-stim-button","342","1376941","0.0-3.0-43.1-0.1","5e3c1c2e97ffb2000cac32b6","D2","batch4","tol_tohand","551","","","","","","","","","tol_peg_1","551","551","0","[[0,0,0],[3,2],[0]]","2","[[2,3,0],[0,0],[1]]","11","0","","","","","","4","","","","",""
"","","","","","single-stim-button","343","1377685","0.0-3.0-43.1-1.1","5e3c1c2e97ffb2000cac32b6","D2","batch4","tol_toboard","744","","","","","","","","","tol_peg_3","744","744","0","[[0,0,0],[3,2],[1]]","2","[[2,3,0],[0,0],[1]]","11","0","","","","","","4","","","","",""
"","","","","","single-stim-button","344","1378310","0.0-3.0-43.2-0.2","5e3c1c2e97ffb2000cac32b6","D2","batch4","tol_tohand","624","","","","","","","","","tol_peg_2","624","624","0","[[0,0,0],[3,0],[1]]","3","[[2,3,0],[0,0],[1]]","11","0","","","","","","4","","","","",""
"","","","","","single-stim-button","345","1378919","0.0-3.0-43.2-1.2","5e3c1c2e97ffb2000cac32b6","D2","batch4","tol_toboard","607","","","","","","","","","tol_peg_1","607","607","0","[[2,0,0],[3,0],[1]]","3","[[2,3,0],[0,0],[1]]","11","0","","","","","","4","","","","",""
"","","","","","single-stim-button","346","1379407","0.0-3.0-43.3-0.3","5e3c1c2e97ffb2000cac32b6","D2","batch4","tol_tohand","488","","","","","","","","","tol_peg_2","488","488","0","[[2,0,0],[0,0],[1]]","4","[[2,3,0],[0,0],[1]]","11","0","","","","","","4","","","","",""
"","","","","","single-stim-button","347","1380064","0.0-3.0-43.3-1.3","5e3c1c2e97ffb2000cac32b6","D2","batch4","tol_toboard","656","","","","","","","","","tol_peg_1","656","656","0","[[2,3,0],[0,0],[1]]","4","[[2,3,0],[0,0],[1]]","11","0","","","","","","4","","","","",""
"","","","","","poldrack-single-stim","348","1381068","0.0-3.0-44.0","5e3c1c2e97ffb2000cac32b6","D2","batch4","tol_feedback","-1","","","","","true","","","","","1000","1000","500","","","","","","-1","none","true","8314","9977","","","","","",""
"","","","","","html-button-response","349","1381613","0.0-3.0-45.0","5e3c1c2e97ffb2000cac32b6","D2","batch4","tol_trial_num","543.9000000059605","<div class = centerbox><p class = center-block-text>problem <strong>13</strong> out of 25 problems</p></div>","0","","","","","","","","","","","","","","","","","","","","","","","","","",""
"","","","","","single-stim-button","350","1386134","0.0-3.0-46.0-0.0","5e3c1c2e97ffb2000cac32b6","D2","batch4","tol_tohand","4520","","","","","","","","","tol_peg_2","4520","4520","0","[[1,2,0],[0,0],[0]]","1","[[0,0,0],[2,3],[1]]","12","0","","","","","","4","","","","",""
"","","","","","single-stim-button","351","1386807","0.0-3.0-46.0-1.0","5e3c1c2e97ffb2000cac32b6","D2","batch4","tol_toboard","671","","","","","","","","","tol_peg_3","671","671","0","[[1,2,0],[0,0],[3]]","1","[[0,0,0],[2,3],[1]]","12","0","","","","","","4","","","","",""
"","","","","","single-stim-button","352","1387560","0.0-3.0-46.1-0.1","5e3c1c2e97ffb2000cac32b6","D2","batch4","tol_tohand","751","","","","","","","","","tol_peg_1","751","751","0","[[1,0,0],[0,0],[3]]","2","[[0,0,0],[2,3],[1]]","12","0","","","","","","4","","","","",""
"","","","","","single-stim-button","353","1388208","0.0-3.0-46.1-1.1","5e3c1c2e97ffb2000cac32b6","D2","batch4","tol_toboard","648","","","","","","","","","tol_peg_2","648","648","0","[[1,0,0],[2,0],[3]]","2","[[0,0,0],[2,3],[1]]","12","0","","","","","","4","","","","",""
"","","","","","single-stim-button","354","1389029","0.0-3.0-46.2-0.2","5e3c1c2e97ffb2000cac32b6","D2","batch4","tol_tohand","820","","","","","","","","","tol_peg_3","820","820","0","[[1,0,0],[2,0],[0]]","3","[[0,0,0],[2,3],[1]]","12","0","","","","","","4","","","","",""
