"success","timeout","failed_images","failed_audio","failed_video","trial_type","trial_index","time_elapsed","internal_node_id","subject_id","study_id","session_id","task","rt","stimulus","response","item","answer","correct","spm_correct","spm_rt","view_history","mouse_click","stim_duration","block_duration","timing_post_trial","current_position","tol_num_moves_made","tol_target","tol_problem_id","tol_rt","key_press","possible_responses","tol_correct","preplanning","tol_rt_per_trial","tol_min_moves","fiar_detect_rt","fiar_detect_correct","total_correct_fiar_detect","post_trial_gap","choices"
"true","false","[]","[]","[]","preload","0","4195","0.0-0.0","5e3e01d5194a5607f3335fa3","F1","batch6","","","","","","","","","","","","","","","","","","","","","","","","","","","","","",""
"true","","","","","fullscreen","1","24524","0.0-1.0-0.0","5e3e01d5194a5607f3335fa3","F1","batch6","","","","","","","","","","","","","","","","","","","","","","","","","","","","","",""
"true","","","","","fullscreen","2","29076","0.0-2.0-0.0","5e3e01d5194a5607f3335fa3","F1","batch6","spm_fullscreen","","","","","","","","","","","","","","","","","","","","","","","","","","","","",""
"","","","","","html-button-response","3","40280","0.0-2.0-1.0","5e3e01d5194a5607f3335fa3","F1","batch6","","11203","<p class = block-text><b>Instructions</b> <br>This is a widely used intelligence test in research. <br>In this test, a figure with a missing piece will be presented.<br>Below the figure are alternative pieces to complete the figure, only one of which is correct.<br> Different figures might involve different principles for obtaining the missing piece<br>Your job is to select the most logical piece to complete the figure.</p>","0","","","","","","","","","","","","","","","","","","","","","","","","","",""
"","","","","","html-keyboard-response","4","41083","0.0-2.0-2.0-0.0","5e3e01d5194a5607f3335fa3","F1","batch6","spm_show_trial_num","null","<p class=block-text>Trial 1 out of 60</p>","null","","","","","","","","","","","","","","","","","","","","","","","","","",""
"","","","","","image-button-response","5","73113","0.0-2.0-2.0-1.0","5e3e01d5194a5607f3335fa3","F1","batch6","spm_respsonse","32027","img/question_1_1.jpeg","3","mat_01","4","1","1","32027","","","","","","","","","","","","","","","","","","","","",""
"","","","","","html-keyboard-response","6","74179","0.0-2.0-2.0-0.1","5e3e01d5194a5607f3335fa3","F1","batch6","spm_show_trial_num","null","<p class=block-text>Trial 2 out of 60</p>","null","","","","","","","","","","","","","","","","","","","","","","","","","",""
"","","","","","image-button-response","7","76218","0.0-2.0-2.0-1.1","5e3e01d5194a5607f3335fa3","F1","batch6","spm_respsonse","2036","img/question_1_2.jpeg","4","mat_02","5","1","1","2036","","","","","","","","","","","","","","","","","","","","",""
"","","","","","html-keyboard-response","8","77286","0.0-2.0-2.0-0.2","5e3e01d5194a5607f3335fa3","F1","batch6","spm_show_trial_num","null","<p class=block-text>Trial 3 out of 60</p>","null","","","","","","","","","","","","","","","","","","","","","","","","","",""
"","","","","","image-button-response","9","80904","0.0-2.0-2.0-1.2","5e3e01d5194a5607f3335fa3","F1","batch6","spm_respsonse","3614","img/question_1_3.jpeg","0","mat_03","1","1","1","3614","","","","","","","","","","","","","","","","","","","","",""
"","","","","","html-keyboard-response","10","81970","0.0-2.0-2.0-0.3","5e3e01d5194a5607f3335fa3","F1","batch6","spm_show_trial_num","null","<p class=block-text>Trial 4 out of 60</p>","null","","","","","","","","","","","","","","","","","","","","","","","","","",""
"","","","","","image-button-response","11","85600","0.0-2.0-2.0-1.3","5e3e01d5194a5607f3335fa3","F1","batch6","spm_respsonse","3630","img/question_1_4.jpeg","1","mat_04","2","1","1","3630","","","","","","","","","","","","","","","","","","","","",""
"","","","","","html-keyboard-response","12","86657","0.0-2.0-2.0-0.4","5e3e01d5194a5607f3335fa3","F1","batch6","spm_show_trial_num","null","<p class=block-text>Trial 5 out of 60</p>","null","","","","","","","","","","","","","","","","","","","","","","","","","",""
"","","","","","image-button-response","13","90545","0.0-2.0-2.0-1.4","5e3e01d5194a5607f3335fa3","F1","batch6","spm_respsonse","3886","img/question_1_5.jpeg","5","mat_05","6","1","1","3886","","","","","","","","","","","","","","","","","","","","",""
"","","","","","html-keyboard-response","14","91621","0.0-2.0-2.0-0.5","5e3e01d5194a5607f3335fa3","F1","batch6","spm_show_trial_num","null","<p class=block-text>Trial 6 out of 60</p>","null","","","","","","","","","","","","","","","","","","","","","","","","","",""
"","","","","","image-button-response","15","94895","0.0-2.0-2.0-1.5","5e3e01d5194a5607f3335fa3","F1","batch6","spm_respsonse","3267","img/question_1_6.jpeg","2","mat_06","3","1","1","3267","","","","","","","","","","","","","","","","","","","","",""
"","","","","","html-keyboard-response","16","95959","0.0-2.0-2.0-0.6","5e3e01d5194a5607f3335fa3","F1","batch6","spm_show_trial_num","null","<p class=block-text>Trial 7 out of 60</p>","null","","","","","","","","","","","","","","","","","","","","","","","","","",""
"","","","","","image-button-response","17","100488","0.0-2.0-2.0-1.6","5e3e01d5194a5607f3335fa3","F1","batch6","spm_respsonse","4524","img/question_1_7.jpeg","5","mat_07","6","1","1","4524","","","","","","","","","","","","","","","","","","","","",""
"","","","","","html-keyboard-response","18","101552","0.0-2.0-2.0-0.7","5e3e01d5194a5607f3335fa3","F1","batch6","spm_show_trial_num","null","<p class=block-text>Trial 8 out of 60</p>","null","","","","","","","","","","","","","","","","","","","","","","","","","",""
"","","","","","image-button-response","19","110377","0.0-2.0-2.0-1.7","5e3e01d5194a5607f3335fa3","F1","batch6","spm_respsonse","8823","img/question_1_8.jpeg","1","mat_08","2","1","1","8823","","","","","","","","","","","","","","","","","","","","",""
"","","","","","html-keyboard-response","20","111440","0.0-2.0-2.0-0.8","5e3e01d5194a5607f3335fa3","F1","batch6","spm_show_trial_num","null","<p class=block-text>Trial 9 out of 60</p>","null","","","","","","","","","","","","","","","","","","","","","","","","","",""
"","","","","","image-button-response","21","116385","0.0-2.0-2.0-1.8","5e3e01d5194a5607f3335fa3","F1","batch6","spm_respsonse","4940","img/question_1_9.jpeg","0","mat_09","1","1","1","4940","","","","","","","","","","","","","","","","","","","","",""
"","","","","","html-keyboard-response","22","117439","0.0-2.0-2.0-0.9","5e3e01d5194a5607f3335fa3","F1","batch6","spm_show_trial_num","null","<p class=block-text>Trial 10 out of 60</p>","null","","","","","","","","","","","","","","","","","","","","","","","","","",""
"","","","","","image-button-response","23","127480","0.0-2.0-2.0-1.9","5e3e01d5194a5607f3335fa3","F1","batch6","spm_respsonse","10036","img/question_1_10.jpeg","2","mat_10","3","1","1","10036","","","","","","","","","","","","","","","","","","","","",""
"","","","","","html-keyboard-response","24","128547","0.0-2.0-2.0-0.10","5e3e01d5194a5607f3335fa3","F1","batch6","spm_show_trial_num","null","<p class=block-text>Trial 11 out of 60</p>","null","","","","","","","","","","","","","","","","","","","","","","","","","",""
"","","","","","image-button-response","25","137272","0.0-2.0-2.0-1.10","5e3e01d5194a5607f3335fa3","F1","batch6","spm_respsonse","8720","img/question_1_11.jpeg","3","mat_11","4","1","1","8720","","","","","","","","","","","","","","","","","","","","",""
"","","","","","html-keyboard-response","26","138339","0.0-2.0-2.0-0.11","5e3e01d5194a5607f3335fa3","F1","batch6","spm_show_trial_num","null","<p class=block-text>Trial 12 out of 60</p>","null","","","","","","","","","","","","","","","","","","","","","","","","","",""
"","","","","","image-button-response","27","148591","0.0-2.0-2.0-1.11","5e3e01d5194a5607f3335fa3","F1","batch6","spm_respsonse","10250","img/question_1_12.jpeg","4","mat_12","5","1","1","10250","","","","","","","","","","","","","","","","","","","","",""
"","","","","","html-keyboard-response","28","149647","0.0-2.0-2.0-0.12","5e3e01d5194a5607f3335fa3","F1","batch6","spm_show_trial_num","null","<p class=block-text>Trial 13 out of 60</p>","null","","","","","","","","","","","","","","","","","","","","","","","","","",""
"","","","","","image-button-response","29","152320","0.0-2.0-2.0-1.12","5e3e01d5194a5607f3335fa3","F1","batch6","spm_respsonse","2669","img/question_2_1.jpeg","1","mat_13","2","1","1","2669","","","","","","","","","","","","","","","","","","","","",""
"","","","","","html-keyboard-response","30","153380","0.0-2.0-2.0-0.13","5e3e01d5194a5607f3335fa3","F1","batch6","spm_show_trial_num","null","<p class=block-text>Trial 14 out of 60</p>","null","","","","","","","","","","","","","","","","","","","","","","","","","",""
"","","","","","image-button-response","31","158784","0.0-2.0-2.0-1.13","5e3e01d5194a5607f3335fa3","F1","batch6","spm_respsonse","5401","img/question_2_2.jpeg","5","mat_14","6","1","1","5401","","","","","","","","","","","","","","","","","","","","",""
"","","","","","html-keyboard-response","32","159843","0.0-2.0-2.0-0.14","5e3e01d5194a5607f3335fa3","F1","batch6","spm_show_trial_num","null","<p class=block-text>Trial 15 out of 60</p>","null","","","","","","","","","","","","","","","","","","","","","","","","","",""
"","","","","","image-button-response","33","163257","0.0-2.0-2.0-1.14","5e3e01d5194a5607f3335fa3","F1","batch6","spm_respsonse","3407","img/question_2_3.jpeg","0","mat_15","1","1","1","3407","","","","","","","","","","","","","","","","","","","","",""
"","","","","","html-keyboard-response","34","164326","0.0-2.0-2.0-0.15","5e3e01d5194a5607f3335fa3","F1","batch6","spm_show_trial_num","null","<p class=block-text>Trial 16 out of 60</p>","null","","","","","","","","","","","","","","","","","","","","","","","","","",""
"","","","","","image-button-response","35","168552","0.0-2.0-2.0-1.15","5e3e01d5194a5607f3335fa3","F1","batch6","spm_respsonse","4221","img/question_2_4.jpeg","1","mat_16","2","1","1","4221","","","","","","","","","","","","","","","","","","","","",""
"","","","","","html-keyboard-response","36","169606","0.0-2.0-2.0-0.16","5e3e01d5194a5607f3335fa3","F1","batch6","spm_show_trial_num","null","<p class=block-text>Trial 17 out of 60</p>","null","","","","","","","","","","","","","","","","","","","","","","","","","",""
"","","","","","image-button-response","37","173872","0.0-2.0-2.0-1.16","5e3e01d5194a5607f3335fa3","F1","batch6","spm_respsonse","4263","img/question_2_5.jpeg","0","mat_17","1","1","1","4263","","","","","","","","","","","","","","","","","","","","",""
"","","","","","html-keyboard-response","38","174940","0.0-2.0-2.0-0.17","5e3e01d5194a5607f3335fa3","F1","batch6","spm_show_trial_num","null","<p class=block-text>Trial 18 out of 60</p>","null","","","","","","","","","","","","","","","","","","","","","","","","","",""
"","","","","","image-button-response","39","181641","0.0-2.0-2.0-1.17","5e3e01d5194a5607f3335fa3","F1","batch6","spm_respsonse","6695","img/question_2_6.jpeg","2","mat_18","3","1","1","6695","","","","","","","","","","","","","","","","","","","","",""
"","","","","","html-keyboard-response","40","182712","0.0-2.0-2.0-0.18","5e3e01d5194a5607f3335fa3","F1","batch6","spm_show_trial_num","null","<p class=block-text>Trial 19 out of 60</p>","null","","","","","","","","","","","","","","","","","","","","","","","","","",""
"","","","","","image-button-response","41","187376","0.0-2.0-2.0-1.18","5e3e01d5194a5607f3335fa3","F1","batch6","spm_respsonse","4660","img/question_2_7.jpeg","4","mat_19","5","1","1","4660","","","","","","","","","","","","","","","","","","","","",""
"","","","","","html-keyboard-response","42","188445","0.0-2.0-2.0-0.19","5e3e01d5194a5607f3335fa3","F1","batch6","spm_show_trial_num","null","<p class=block-text>Trial 20 out of 60</p>","null","","","","","","","","","","","","","","","","","","","","","","","","","",""
"","","","","","image-button-response","43","192376","0.0-2.0-2.0-1.19","5e3e01d5194a5607f3335fa3","F1","batch6","spm_respsonse","3926","img/question_2_8.jpeg","5","mat_20","6","1","1","3926","","","","","","","","","","","","","","","","","","","","",""
"","","","","","html-keyboard-response","44","193454","0.0-2.0-2.0-0.20","5e3e01d5194a5607f3335fa3","F1","batch6","spm_show_trial_num","null","<p class=block-text>Trial 21 out of 60</p>","null","","","","","","","","","","","","","","","","","","","","","","","","","",""
"","","","","","image-button-response","45","199464","0.0-2.0-2.0-1.20","5e3e01d5194a5607f3335fa3","F1","batch6","spm_respsonse","6003","img/question_2_9.jpeg","3","mat_21","4","1","1","6003","","","","","","","","","","","","","","","","","","","","",""
"","","","","","html-keyboard-response","46","200529","0.0-2.0-2.0-0.21","5e3e01d5194a5607f3335fa3","F1","batch6","spm_show_trial_num","null","<p class=block-text>Trial 22 out of 60</p>","null","","","","","","","","","","","","","","","","","","","","","","","","","",""
"","","","","","image-button-response","47","207896","0.0-2.0-2.0-1.21","5e3e01d5194a5607f3335fa3","F1","batch6","spm_respsonse","7363","img/question_2_10.jpeg","2","mat_22","3","1","1","7363","","","","","","","","","","","","","","","","","","","","",""
"","","","","","html-keyboard-response","48","208976","0.0-2.0-2.0-0.22","5e3e01d5194a5607f3335fa3","F1","batch6","spm_show_trial_num","null","<p class=block-text>Trial 23 out of 60</p>","null","","","","","","","","","","","","","","","","","","","","","","","","","",""
"","","","","","image-button-response","49","213736","0.0-2.0-2.0-1.22","5e3e01d5194a5607f3335fa3","F1","batch6","spm_respsonse","4753","img/question_2_11.jpeg","3","mat_23","4","1","1","4753","","","","","","","","","","","","","","","","","","","","",""
"","","","","","html-keyboard-response","50","214811","0.0-2.0-2.0-0.23","5e3e01d5194a5607f3335fa3","F1","batch6","spm_show_trial_num","null","<p class=block-text>Trial 24 out of 60</p>","null","","","","","","","","","","","","","","","","","","","","","","","","","",""
"","","","","","image-button-response","51","225233","0.0-2.0-2.0-1.23","5e3e01d5194a5607f3335fa3","F1","batch6","spm_respsonse","10418","img/question_2_12.jpeg","4","mat_24","5","1","1","10418","","","","","","","","","","","","","","","","","","","","",""
"","","","","","html-button-response","52","228160","0.0-2.0-3.0","5e3e01d5194a5607f3335fa3","F1","batch6","attention_check","2653","<p class = block-text>Attention check: Please choose 1<br></p>","0","","","true","","","","","","","","","","","","","","","","","","","","","","",""
"","","","","","html-keyboard-response","53","228964","0.0-2.0-4.0-0.0","5e3e01d5194a5607f3335fa3","F1","batch6","spm_show_trial_num","null","<p class=block-text>Trial 25 out of 60</p>","null","","","","","","","","","","","","","","","","","","","","","","","","","",""
"","","","","","image-button-response","54","235375","0.0-2.0-4.0-1.0","5e3e01d5194a5607f3335fa3","F1","batch6","spm_respsonse","6408","img/question_3_1.jpeg","7","mat_25","8","1","1","6408","","","","","","","","","","","","","","","","","","","","",""
"","","","","","html-keyboard-response","55","236445","0.0-2.0-4.0-0.1","5e3e01d5194a5607f3335fa3","F1","batch6","spm_show_trial_num","null","<p class=block-text>Trial 26 out of 60</p>","null","","","","","","","","","","","","","","","","","","","","","","","","","",""
"","","","","","image-button-response","56","246454","0.0-2.0-4.0-1.1","5e3e01d5194a5607f3335fa3","F1","batch6","spm_respsonse","10001","img/question_3_2.jpeg","1","mat_26","2","1","1","10001","","","","","","","","","","","","","","","","","","","","",""
"","","","","","html-keyboard-response","57","247508","0.0-2.0-4.0-0.2","5e3e01d5194a5607f3335fa3","F1","batch6","spm_show_trial_num","null","<p class=block-text>Trial 27 out of 60</p>","null","","","","","","","","","","","","","","","","","","","","","","","","","",""
"","","","","","image-button-response","58","254072","0.0-2.0-4.0-1.2","5e3e01d5194a5607f3335fa3","F1","batch6","spm_respsonse","6556","img/question_3_3.jpeg","2","mat_27","3","1","1","6556","","","","","","","","","","","","","","","","","","","","",""
"","","","","","html-keyboard-response","59","255134","0.0-2.0-4.0-0.3","5e3e01d5194a5607f3335fa3","F1","batch6","spm_show_trial_num","null","<p class=block-text>Trial 28 out of 60</p>","null","","","","","","","","","","","","","","","","","","","","","","","","","",""
"","","","","","image-button-response","60","268969","0.0-2.0-4.0-1.3","5e3e01d5194a5607f3335fa3","F1","batch6","spm_respsonse","13831","img/question_3_4.jpeg","7","mat_28","8","1","1","13831","","","","","","","","","","","","","","","","","","","","",""
"","","","","","html-keyboard-response","61","270022","0.0-2.0-4.0-0.4","5e3e01d5194a5607f3335fa3","F1","batch6","spm_show_trial_num","null","<p class=block-text>Trial 29 out of 60</p>","null","","","","","","","","","","","","","","","","","","","","","","","","","",""
"","","","","","image-button-response","62","281479","0.0-2.0-4.0-1.4","5e3e01d5194a5607f3335fa3","F1","batch6","spm_respsonse","11449","img/question_3_5.jpeg","6","mat_29","7","1","1","11449","","","","","","","","","","","","","","","","","","","","",""
"","","","","","html-keyboard-response","63","282540","0.0-2.0-4.0-0.5","5e3e01d5194a5607f3335fa3","F1","batch6","spm_show_trial_num","null","<p class=block-text>Trial 30 out of 60</p>","null","","","","","","","","","","","","","","","","","","","","","","","","","",""
"","","","","","image-button-response","64","289912","0.0-2.0-4.0-1.5","5e3e01d5194a5607f3335fa3","F1","batch6","spm_respsonse","7370","img/question_3_6.jpeg","3","mat_30","4","1","1","7370","","","","","","","","","","","","","","","","","","","","",""
"","","","","","html-keyboard-response","65","290980","0.0-2.0-4.0-0.6","5e3e01d5194a5607f3335fa3","F1","batch6","spm_show_trial_num","null","<p class=block-text>Trial 31 out of 60</p>","null","","","","","","","","","","","","","","","","","","","","","","","","","",""
"","","","","","image-button-response","66","298689","0.0-2.0-4.0-1.6","5e3e01d5194a5607f3335fa3","F1","batch6","spm_respsonse","7701","img/question_3_7.jpeg","4","mat_31","5","1","1","7701","","","","","","","","","","","","","","","","","","","","",""
"","","","","","html-keyboard-response","67","299743","0.0-2.0-4.0-0.7","5e3e01d5194a5607f3335fa3","F1","batch6","spm_show_trial_num","null","<p class=block-text>Trial 32 out of 60</p>","null","","","","","","","","","","","","","","","","","","","","","","","","","",""
"","","","","","image-button-response","68","324344","0.0-2.0-4.0-1.7","5e3e01d5194a5607f3335fa3","F1","batch6","spm_respsonse","24593","img/question_3_8.jpeg","0","mat_32","1","1","1","24593","","","","","","","","","","","","","","","","","","","","",""
"","","","","","html-keyboard-response","69","325400","0.0-2.0-4.0-0.8","5e3e01d5194a5607f3335fa3","F1","batch6","spm_show_trial_num","null","<p class=block-text>Trial 33 out of 60</p>","null","","","","","","","","","","","","","","","","","","","","","","","","","",""
"","","","","","image-button-response","70","333689","0.0-2.0-4.0-1.8","5e3e01d5194a5607f3335fa3","F1","batch6","spm_respsonse","8287","img/question_3_9.jpeg","6","mat_33","7","1","1","8287","","","","","","","","","","","","","","","","","","","","",""
"","","","","","html-keyboard-response","71","334743","0.0-2.0-4.0-0.9","5e3e01d5194a5607f3335fa3","F1","batch6","spm_show_trial_num","null","<p class=block-text>Trial 34 out of 60</p>","null","","","","","","","","","","","","","","","","","","","","","","","","","",""
"","","","","","image-button-response","72","351176","0.0-2.0-4.0-1.9","5e3e01d5194a5607f3335fa3","F1","batch6","spm_respsonse","16429","img/question_3_10.jpeg","5","mat_34","6","1","1","16429","","","","","","","","","","","","","","","","","","","","",""
"","","","","","html-keyboard-response","73","352247","0.0-2.0-4.0-0.10","5e3e01d5194a5607f3335fa3","F1","batch6","spm_show_trial_num","null","<p class=block-text>Trial 35 out of 60</p>","null","","","","","","","","","","","","","","","","","","","","","","","","","",""
"","","","","","image-button-response","74","364864","0.0-2.0-4.0-1.10","5e3e01d5194a5607f3335fa3","F1","batch6","spm_respsonse","12614","img/question_3_11.jpeg","0","mat_35","1","1","1","12614","","","","","","","","","","","","","","","","","","","","",""
"","","","","","html-keyboard-response","75","365924","0.0-2.0-4.0-0.11","5e3e01d5194a5607f3335fa3","F1","batch6","spm_show_trial_num","null","<p class=block-text>Trial 36 out of 60</p>","null","","","","","","","","","","","","","","","","","","","","","","","","","",""
"","","","","","image-button-response","76","375592","0.0-2.0-4.0-1.11","5e3e01d5194a5607f3335fa3","F1","batch6","spm_respsonse","9664","img/question_3_12.jpeg","1","mat_36","2","1","1","9664","","","","","","","","","","","","","","","","","","","","",""
"","","","","","html-keyboard-response","77","376662","0.0-2.0-4.0-0.12","5e3e01d5194a5607f3335fa3","F1","batch6","spm_show_trial_num","null","<p class=block-text>Trial 37 out of 60</p>","null","","","","","","","","","","","","","","","","","","","","","","","","","",""
"","","","","","image-button-response","78","379458","0.0-2.0-4.0-1.12","5e3e01d5194a5607f3335fa3","F1","batch6","spm_respsonse","2787","img/question_4_1.jpeg","2","mat_37","3","1","1","2787","","","","","","","","","","","","","","","","","","","","",""
"","","","","","html-keyboard-response","79","380513","0.0-2.0-4.0-0.13","5e3e01d5194a5607f3335fa3","F1","batch6","spm_show_trial_num","null","<p class=block-text>Trial 38 out of 60</p>","null","","","","","","","","","","","","","","","","","","","","","","","","","",""
"","","","","","image-button-response","80","390248","0.0-2.0-4.0-1.13","5e3e01d5194a5607f3335fa3","F1","batch6","spm_respsonse","9729","img/question_4_2.jpeg","3","mat_38","4","1","1","9729","","","","","","","","","","","","","","","","","","","","",""
"","","","","","html-keyboard-response","81","391321","0.0-2.0-4.0-0.14","5e3e01d5194a5607f3335fa3","F1","batch6","spm_show_trial_num","null","<p class=block-text>Trial 39 out of 60</p>","null","","","","","","","","","","","","","","","","","","","","","","","","","",""
"","","","","","image-button-response","82","398880","0.0-2.0-4.0-1.14","5e3e01d5194a5607f3335fa3","F1","batch6","spm_respsonse","7551","img/question_4_3.jpeg","2","mat_39","3","1","1","7551","","","","","","","","","","","","","","","","","","","","",""
"","","","","","html-keyboard-response","83","399941","0.0-2.0-4.0-0.15","5e3e01d5194a5607f3335fa3","F1","batch6","spm_show_trial_num","null","<p class=block-text>Trial 40 out of 60</p>","null","","","","","","","","","","","","","","","","","","","","","","","","","",""
"","","","","","image-button-response","84","405887","0.0-2.0-4.0-1.15","5e3e01d5194a5607f3335fa3","F1","batch6","spm_respsonse","5941","img/question_4_4.jpeg","6","mat_40","7","1","1","5941","","","","","","","","","","","","","","","","","","","","",""
"","","","","","html-keyboard-response","85","406946","0.0-2.0-4.0-0.16","5e3e01d5194a5607f3335fa3","F1","batch6","spm_show_trial_num","null","<p class=block-text>Trial 41 out of 60</p>","null","","","","","","","","","","","","","","","","","","","","","","","","","",""
"","","","","","image-button-response","86","419408","0.0-2.0-4.0-1.16","5e3e01d5194a5607f3335fa3","F1","batch6","spm_respsonse","12457","img/question_4_5.jpeg","7","mat_41","8","1","1","12457","","","","","","","","","","","","","","","","","","","","",""
"","","","","","html-keyboard-response","87","420467","0.0-2.0-4.0-0.17","5e3e01d5194a5607f3335fa3","F1","batch6","spm_show_trial_num","null","<p class=block-text>Trial 42 out of 60</p>","null","","","","","","","","","","","","","","","","","","","","","","","","","",""
"","","","","","image-button-response","88","432071","0.0-2.0-4.0-1.17","5e3e01d5194a5607f3335fa3","F1","batch6","spm_respsonse","11600","img/question_4_6.jpeg","5","mat_42","6","1","1","11600","","","","","","","","","","","","","","","","","","","","",""
"","","","","","html-keyboard-response","89","433130","0.0-2.0-4.0-0.18","5e3e01d5194a5607f3335fa3","F1","batch6","spm_show_trial_num","null","<p class=block-text>Trial 43 out of 60</p>","null","","","","","","","","","","","","","","","","","","","","","","","","","",""
"","","","","","image-button-response","90","442320","0.0-2.0-4.0-1.18","5e3e01d5194a5607f3335fa3","F1","batch6","spm_respsonse","9187","img/question_4_7.jpeg","4","mat_43","5","1","1","9187","","","","","","","","","","","","","","","","","","","","",""
"","","","","","html-keyboard-response","91","443380","0.0-2.0-4.0-0.19","5e3e01d5194a5607f3335fa3","F1","batch6","spm_show_trial_num","null","<p class=block-text>Trial 44 out of 60</p>","null","","","","","","","","","","","","","","","","","","","","","","","","","",""
"","","","","","image-button-response","92","453720","0.0-2.0-4.0-1.19","5e3e01d5194a5607f3335fa3","F1","batch6","spm_respsonse","10337","img/question_4_8.jpeg","3","mat_44","4","1","1","10337","","","","","","","","","","","","","","","","","","","","",""
"","","","","","html-keyboard-response","93","454786","0.0-2.0-4.0-0.20","5e3e01d5194a5607f3335fa3","F1","batch6","spm_show_trial_num","null","<p class=block-text>Trial 45 out of 60</p>","null","","","","","","","","","","","","","","","","","","","","","","","","","",""
"","","","","","image-button-response","94","472825","0.0-2.0-4.0-1.20","5e3e01d5194a5607f3335fa3","F1","batch6","spm_respsonse","18033","img/question_4_9.jpeg","0","mat_45","1","1","1","18033","","","","","","","","","","","","","","","","","","","","",""
"","","","","","html-keyboard-response","95","473877","0.0-2.0-4.0-0.21","5e3e01d5194a5607f3335fa3","F1","batch6","spm_show_trial_num","null","<p class=block-text>Trial 46 out of 60</p>","null","","","","","","","","","","","","","","","","","","","","","","","","","",""
"","","","","","image-button-response","96","499935","0.0-2.0-4.0-1.21","5e3e01d5194a5607f3335fa3","F1","batch6","spm_respsonse","26055","img/question_4_10.jpeg","1","mat_46","2","1","1","26055","","","","","","","","","","","","","","","","","","","","",""
"","","","","","html-keyboard-response","97","500994","0.0-2.0-4.0-0.22","5e3e01d5194a5607f3335fa3","F1","batch6","spm_show_trial_num","null","<p class=block-text>Trial 47 out of 60</p>","null","","","","","","","","","","","","","","","","","","","","","","","","","",""
"","","","","","image-button-response","98","606304","0.0-2.0-4.0-1.22","5e3e01d5194a5607f3335fa3","F1","batch6","spm_respsonse","105308","img/question_4_11.jpeg","4","mat_47","5","1","1","105308","","","","","","","","","","","","","","","","","","","","",""
"","","","","","html-keyboard-response","99","607361","0.0-2.0-4.0-0.23","5e3e01d5194a5607f3335fa3","F1","batch6","spm_show_trial_num","null","<p class=block-text>Trial 48 out of 60</p>","null","","","","","","","","","","","","","","","","","","","","","","","","","",""
"","","","","","image-button-response","100","654463","0.0-2.0-4.0-1.23","5e3e01d5194a5607f3335fa3","F1","batch6","spm_respsonse","47098","img/question_4_12.jpeg","5","mat_48","6","1","1","47098","","","","","","","","","","","","","","","","","","","","",""
"","","","","","html-keyboard-response","101","655524","0.0-2.0-4.0-0.24","5e3e01d5194a5607f3335fa3","F1","batch6","spm_show_trial_num","null","<p class=block-text>Trial 49 out of 60</p>","null","","","","","","","","","","","","","","","","","","","","","","","","","",""
"","","","","","image-button-response","102","670006","0.0-2.0-4.0-1.24","5e3e01d5194a5607f3335fa3","F1","batch6","spm_respsonse","14481","img/question_5_1.jpeg","6","mat_49","7","1","1","14481","","","","","","","","","","","","","","","","","","","","",""
"","","","","","html-keyboard-response","103","671062","0.0-2.0-4.0-0.25","5e3e01d5194a5607f3335fa3","F1","batch6","spm_show_trial_num","null","<p class=block-text>Trial 50 out of 60</p>","null","","","","","","","","","","","","","","","","","","","","","","","","","",""
"","","","","","image-button-response","104","685521","0.0-2.0-4.0-1.25","5e3e01d5194a5607f3335fa3","F1","batch6","spm_respsonse","14454","img/question_5_2.jpeg","5","mat_50","6","1","1","14454","","","","","","","","","","","","","","","","","","","","",""
"","","","","","html-keyboard-response","105","686580","0.0-2.0-4.0-0.26","5e3e01d5194a5607f3335fa3","F1","batch6","spm_show_trial_num","null","<p class=block-text>Trial 51 out of 60</p>","null","","","","","","","","","","","","","","","","","","","","","","","","","",""
"","","","","","image-button-response","106","705360","0.0-2.0-4.0-1.26","5e3e01d5194a5607f3335fa3","F1","batch6","spm_respsonse","18778","img/question_5_3.jpeg","7","mat_51","8","1","1","18778","","","","","","","","","","","","","","","","","","","","",""
"","","","","","html-keyboard-response","107","706416","0.0-2.0-4.0-0.27","5e3e01d5194a5607f3335fa3","F1","batch6","spm_show_trial_num","null","<p class=block-text>Trial 52 out of 60</p>","null","","","","","","","","","","","","","","","","","","","","","","","","","",""
"","","","","","image-button-response","108","718441","0.0-2.0-4.0-1.27","5e3e01d5194a5607f3335fa3","F1","batch6","spm_respsonse","12023","img/question_5_4.jpeg","1","mat_52","2","1","1","12023","","","","","","","","","","","","","","","","","","","","",""
"","","","","","html-keyboard-response","109","719503","0.0-2.0-4.0-0.28","5e3e01d5194a5607f3335fa3","F1","batch6","spm_show_trial_num","null","<p class=block-text>Trial 53 out of 60</p>","null","","","","","","","","","","","","","","","","","","","","","","","","","",""
"","","","","","image-button-response","110","725990","0.0-2.0-4.0-1.28","5e3e01d5194a5607f3335fa3","F1","batch6","spm_respsonse","6484","img/question_5_5.jpeg","0","mat_53","1","1","1","6484","","","","","","","","","","","","","","","","","","","","",""
"","","","","","html-keyboard-response","111","727045","0.0-2.0-4.0-0.29","5e3e01d5194a5607f3335fa3","F1","batch6","spm_show_trial_num","null","<p class=block-text>Trial 54 out of 60</p>","null","","","","","","","","","","","","","","","","","","","","","","","","","",""
"","","","","","image-button-response","112","746833","0.0-2.0-4.0-1.29","5e3e01d5194a5607f3335fa3","F1","batch6","spm_respsonse","19785","img/question_5_6.jpeg","4","mat_54","5","1","1","19785","","","","","","","","","","","","","","","","","","","","",""
"","","","","","html-keyboard-response","113","747889","0.0-2.0-4.0-0.30","5e3e01d5194a5607f3335fa3","F1","batch6","spm_show_trial_num","null","<p class=block-text>Trial 55 out of 60</p>","null","","","","","","","","","","","","","","","","","","","","","","","","","",""
"","","","","","image-button-response","114","765207","0.0-2.0-4.0-1.30","5e3e01d5194a5607f3335fa3","F1","batch6","spm_respsonse","17317","img/question_5_7.jpeg","0","mat_55","1","1","1","17317","","","","","","","","","","","","","","","","","","","","",""
"","","","","","html-keyboard-response","115","766266","0.0-2.0-4.0-0.31","5e3e01d5194a5607f3335fa3","F1","batch6","spm_show_trial_num","null","<p class=block-text>Trial 56 out of 60</p>","null","","","","","","","","","","","","","","","","","","","","","","","","","",""
"","","","","","image-button-response","116","820941","0.0-2.0-4.0-1.31","5e3e01d5194a5607f3335fa3","F1","batch6","spm_respsonse","54674","img/question_5_8.jpeg","5","mat_56","6","1","1","54674","","","","","","","","","","","","","","","","","","","","",""
"","","","","","html-keyboard-response","117","822002","0.0-2.0-4.0-0.32","5e3e01d5194a5607f3335fa3","F1","batch6","spm_show_trial_num","null","<p class=block-text>Trial 57 out of 60</p>","null","","","","","","","","","","","","","","","","","","","","","","","","","",""
"","","","","","image-button-response","118","916646","0.0-2.0-4.0-1.32","5e3e01d5194a5607f3335fa3","F1","batch6","spm_respsonse","94642","img/question_5_9.jpeg","7","mat_57","3","0","0","94642","","","","","","","","","","","","","","","","","","","","",""
"","","","","","html-keyboard-response","119","917705","0.0-2.0-4.0-0.33","5e3e01d5194a5607f3335fa3","F1","batch6","spm_show_trial_num","null","<p class=block-text>Trial 58 out of 60</p>","null","","","","","","","","","","","","","","","","","","","","","","","","","",""
"","","","","","image-button-response","120","977326","0.0-2.0-4.0-1.33","5e3e01d5194a5607f3335fa3","F1","batch6","spm_respsonse","59616","img/question_5_10.jpeg","1","mat_58","2","1","1","59616","","","","","","","","","","","","","","","","","","","","",""
"","","","","","html-keyboard-response","121","978399","0.0-2.0-4.0-0.34","5e3e01d5194a5607f3335fa3","F1","batch6","spm_show_trial_num","null","<p class=block-text>Trial 59 out of 60</p>","null","","","","","","","","","","","","","","","","","","","","","","","","","",""
"","","","","","image-button-response","122","1045862","0.0-2.0-4.0-1.34","5e3e01d5194a5607f3335fa3","F1","batch6","spm_respsonse","67461","img/question_5_11.jpeg","3","mat_59","4","1","1","67461","","","","","","","","","","","","","","","","","","","","",""
"","","","","","html-keyboard-response","123","1046926","0.0-2.0-4.0-0.35","5e3e01d5194a5607f3335fa3","F1","batch6","spm_show_trial_num","null","<p class=block-text>Trial 60 out of 60</p>","null","","","","","","","","","","","","","","","","","","","","","","","","","",""
"","","","","","image-button-response","124","1136447","0.0-2.0-4.0-1.35","5e3e01d5194a5607f3335fa3","F1","batch6","spm_respsonse","89518","img/question_5_12.jpeg","0","mat_60","5","0","0","89518","","","","","","","","","","","","","","","","","","","","",""
"","","","","","html-button-response","125","1140431","0.0-2.0-5.0","5e3e01d5194a5607f3335fa3","F1","batch6","spm_goodbye","3718","<p class= block-text>This concludes the Standard Progressive Matrix game. Thank you for your responses!<br> When you are ready, click the button continue</p>","0","","","","","","","","","","","","","","","","","","","","","","","","","",""
"true","","","","","fullscreen","126","1143735","0.0-3.0-0.0","5e3e01d5194a5607f3335fa3","F1","batch6","","","","","","","","","","","","","","","","","","","","","","","","","","","","","",""
"","","","","","instructions","127","1210088","0.0-3.0-1.0-0.0-0.0","5e3e01d5194a5607f3335fa3","F1","batch6","tol-instructions","66351","","","","","","","","[{""page_index"":0,""viewing_time"":15567},{""page_index"":1,""viewing_time"":4479},{""page_index"":2,""viewing_time"":4151},{""page_index"":3,""viewing_time"":8417},{""page_index"":4,""viewing_time"":13944},{""page_index"":5,""viewing_time"":15848},{""page_index"":6,""viewing_time"":3945}]","","","","","","","","","","","","","","","","","","","",""
"","","","","","html-button-response","128","1211359","0.0-3.0-1.0-1.0-0.0","5e3e01d5194a5607f3335fa3","F1","batch6","tol_enter_quiz","1270","<p class=block-text> Let's answer a few questions <br>","0","","","","","","","","","","","","","","","","","","","","","","","","","",""
"","","","","","html-button-response","129","1220319","0.0-3.0-1.0-1.0-1.0","5e3e01d5194a5607f3335fa3","F1","batch6","tol_quiz","8958","<p class = block-text>True or False: You can only move the ball on top of a peg. <br></p>","0","","","true","","","","","","","","","","","","","","","","","","","","","","",""
"","","","","","html-button-response","130","1222311","0.0-3.0-1.0-1.0-2.0","5e3e01d5194a5607f3335fa3","F1","batch6","tol_quiz_feedback","1990","<p class = block-text>Correct! You can only move the ball on top of a peg.</p>","0","","","","","","","","","","","","","","","","","","","","","","","","","",""
"","","","","","html-button-response","131","1226006","0.0-3.0-1.0-1.0-3.0","5e3e01d5194a5607f3335fa3","F1","batch6","tol_quiz","3695","<p class = block-text>True or False: You should try to match your board with the target board with fewest moves possible. <br></p>","0","","","true","","","","","","","","","","","","","","","","","","","","","","",""
"","","","","","html-button-response","132","1226806","0.0-3.0-1.0-1.0-4.0","5e3e01d5194a5607f3335fa3","F1","batch6","tol_quiz_feedback","801","<p class = block-text>Correct! </p>","0","","","","","","","","","","","","","","","","","","","","","","","","","",""
"","","","","","html-button-response","133","1229280","0.0-3.0-2.0","5e3e01d5194a5607f3335fa3","F1","batch6","","2473","<p class=block-text> Now that you've understood the game, let's practice a few easier examples before we start!<br> <br>","0","","","","","","","","","","","","","","","","","","","","","","","","","",""
"","","","","","single-stim-button","134","1232809","0.0-3.0-3.0-0.0","5e3e01d5194a5607f3335fa3","F1","batch6","tol_practice","3528","","","","","","","","","tol_peg_2","3528","3528","0","[[1,2,0],[0,0],[0]]","1","[[1,2,0],[0,0],[3]]","practice","3528","","","","","","","","","","",""
"","","","","","single-stim-button","135","1235639","0.0-3.0-3.0-1.0","5e3e01d5194a5607f3335fa3","F1","batch6","tol_practice","2829","","","","","","","","","tol_peg_3","2829","2829","0","[[1,2,0],[0,0],[3]]","1","[[1,2,0],[0,0],[3]]","practice","2829","","","","","","","","","","",""
"","","","","","poldrack-single-stim","136","1236641","0.0-3.0-4.0","5e3e01d5194a5607f3335fa3","F1","batch6","tol_feedback","-1","","","","","true","","","","","1000","1000","500","","","","","","-1","none","true","","0","","","","","",""
"","","","","","single-stim-button","137","1240999","0.0-3.0-5.0-0.0","5e3e01d5194a5607f3335fa3","F1","batch6","tol_practice","4357","","","","","","","","","tol_peg_1","4357","4357","0","[[1,0,0],[3,0],[0]]","2","[[0,0,0],[3,1],[2]]","practice","4357","","","","","","","","","","",""
"","","","","","single-stim-button","138","1241823","0.0-3.0-5.0-1.0","5e3e01d5194a5607f3335fa3","F1","batch6","tol_practice","824","","","","","","","","","tol_peg_3","824","824","0","[[1,0,0],[3,0],[2]]","2","[[0,0,0],[3,1],[2]]","practice","824","","","","","","","","","","",""
"","","","","","single-stim-button","139","1242543","0.0-3.0-5.1-0.1","5e3e01d5194a5607f3335fa3","F1","batch6","tol_practice","718","","","","","","","","","tol_peg_1","718","718","0","[[0,0,0],[3,0],[2]]","3","[[0,0,0],[3,1],[2]]","practice","718","","","","","","","","","","",""
"","","","","","single-stim-button","140","1243151","0.0-3.0-5.1-1.1","5e3e01d5194a5607f3335fa3","F1","batch6","tol_practice","607","","","","","","","","","tol_peg_2","607","607","0","[[0,0,0],[3,1],[2]]","3","[[0,0,0],[3,1],[2]]","practice","607","","","","","","","","","","",""
"","","","","","poldrack-single-stim","141","1244159","0.0-3.0-6.0","5e3e01d5194a5607f3335fa3","F1","batch6","tol_feedback","-1","","","","","true","","","","","1000","1000","500","","","","","","-1","none","true","","0","","","","","",""
"","","","","","single-stim-button","142","1246687","0.0-3.0-7.0-0.0","5e3e01d5194a5607f3335fa3","F1","batch6","tol_practice","2528","","","","","","","","","tol_peg_2","2528","2528","0","[[1,2,0],[0,0],[0]]","4","[[1,0,0],[2,0],[3]]","practice","2528","","","","","","","","","","",""
"","","","","","single-stim-button","143","1247488","0.0-3.0-7.0-1.0","5e3e01d5194a5607f3335fa3","F1","batch6","tol_practice","801","","","","","","","","","tol_peg_3","801","801","0","[[1,2,0],[0,0],[3]]","4","[[1,0,0],[2,0],[3]]","practice","801","","","","","","","","","","",""
"","","","","","single-stim-button","144","1248095","0.0-3.0-7.1-0.1","5e3e01d5194a5607f3335fa3","F1","batch6","tol_practice","606","","","","","","","","","tol_peg_1","606","606","0","[[1,0,0],[0,0],[3]]","5","[[1,0,0],[2,0],[3]]","practice","606","","","","","","","","","","",""
"","","","","","single-stim-button","145","1248646","0.0-3.0-7.1-1.1","5e3e01d5194a5607f3335fa3","F1","batch6","tol_practice","551","","","","","","","","","tol_peg_2","551","551","0","[[1,0,0],[2,0],[3]]","5","[[1,0,0],[2,0],[3]]","practice","551","","","","","","","","","","",""
"","","","","","poldrack-single-stim","146","1249656","0.0-3.0-8.0","5e3e01d5194a5607f3335fa3","F1","batch6","tol_feedback","-1","","","","","true","","","","","1000","1000","500","","","","","","-1","none","true","","0","","","","","",""
"","","","","","html-button-response","147","1254055","0.0-3.0-9.0","5e3e01d5194a5607f3335fa3","F1","batch6","tol_instruction","4398","<div class = centerbox><p class = center-block-text>Great job! You are done with practice trials<br>You are about to start official trials.<br> <br> Problem <strong>1</strong> out of 25 problems</p></div>","0","","","","","","","","","","","","","","","","","","","","","","","","","",""
"","","","","","single-stim-button","148","1258486","0.0-3.0-10.0-0.0","5e3e01d5194a5607f3335fa3","F1","batch6","tol_tohand","3425","","","","","","","","","tol_peg_1","3425","3425","0","[[1,0,0],[3,0],[0]]","1","[[1,3,0],[2,0],[0]]","0","0","","","","","","3","","","","",""
"","","","","","single-stim-button","149","1259519","0.0-3.0-10.0-1.0","5e3e01d5194a5607f3335fa3","F1","batch6","tol_toboard","1033","","","","","","","","","tol_peg_3","1033","1033","0","[[1,0,0],[3,0],[2]]","1","[[1,3,0],[2,0],[0]]","0","0","","","","","","3","","","","",""
"","","","","","single-stim-button","150","1260174","0.0-3.0-10.1-0.1","5e3e01d5194a5607f3335fa3","F1","batch6","tol_tohand","654","","","","","","","","","tol_peg_2","654","654","0","[[1,0,0],[0,0],[2]]","2","[[1,3,0],[2,0],[0]]","0","0","","","","","","3","","","","",""
"","","","","","single-stim-button","151","1260879","0.0-3.0-10.1-1.1","5e3e01d5194a5607f3335fa3","F1","batch6","tol_toboard","705","","","","","","","","","tol_peg_1","705","705","0","[[1,3,0],[0,0],[2]]","2","[[1,3,0],[2,0],[0]]","0","0","","","","","","3","","","","",""
"","","","","","single-stim-button","152","1261560","0.0-3.0-10.2-0.2","5e3e01d5194a5607f3335fa3","F1","batch6","tol_tohand","681","","","","","","","","","tol_peg_3","681","681","0","[[1,3,0],[0,0],[0]]","3","[[1,3,0],[2,0],[0]]","0","0","","","","","","3","","","","",""
"","","","","","single-stim-button","153","1262232","0.0-3.0-10.2-1.2","5e3e01d5194a5607f3335fa3","F1","batch6","tol_toboard","671","","","","","","","","","tol_peg_2","671","671","0","[[1,3,0],[2,0],[0]]","3","[[1,3,0],[2,0],[0]]","0","0","","","","","","3","","","","",""
"","","","","","poldrack-single-stim","154","1263245","0.0-3.0-11.0","5e3e01d5194a5607f3335fa3","F1","batch6","tol_feedback","-1","","","","","true","","","","","1000","1000","500","","","","","","-1","none","true","3425","4760","","","","","",""
"","","","","","html-button-response","155","1264157","0.0-3.0-12.0","5e3e01d5194a5607f3335fa3","F1","batch6","tol_trial_num","912","<div class = centerbox><p class = center-block-text>problem <strong>2</strong> out of 25 problems</p></div>","0","","","","","","","","","","","","","","","","","","","","","","","","","",""
"","","","","","single-stim-button","156","1271471","0.0-3.0-13.0-0.0","5e3e01d5194a5607f3335fa3","F1","batch6","tol_tohand","7312","","","","","","","","","tol_peg_1","7312","7312","0","[[1,0,0],[3,0],[0]]","1","[[2,1,3],[0,0],[0]]","1","0","","","","","","5","","","","",""
"","","","","","single-stim-button","157","1272023","0.0-3.0-13.0-1.0","5e3e01d5194a5607f3335fa3","F1","batch6","tol_toboard","551","","","","","","","","","tol_peg_2","551","551","0","[[1,0,0],[3,2],[0]]","1","[[2,1,3],[0,0],[0]]","1","0","","","","","","5","","","","",""
"","","","","","single-stim-button","158","1272689","0.0-3.0-13.1-0.1","5e3e01d5194a5607f3335fa3","F1","batch6","tol_tohand","665","","","","","","","","","tol_peg_1","665","665","0","[[0,0,0],[3,2],[0]]","2","[[2,1,3],[0,0],[0]]","1","0","","","","","","5","","","","",""
"","","","","","single-stim-button","159","1273350","0.0-3.0-13.1-1.1","5e3e01d5194a5607f3335fa3","F1","batch6","tol_toboard","661","","","","","","","","","tol_peg_3","661","661","0","[[0,0,0],[3,2],[1]]","2","[[2,1,3],[0,0],[0]]","1","0","","","","","","5","","","","",""
"","","","","","single-stim-button","160","1274127","0.0-3.0-13.2-0.2","5e3e01d5194a5607f3335fa3","F1","batch6","tol_tohand","776","","","","","","","","","tol_peg_2","776","776","0","[[0,0,0],[3,0],[1]]","3","[[2,1,3],[0,0],[0]]","1","0","","","","","","5","","","","",""
"","","","","","single-stim-button","161","1274726","0.0-3.0-13.2-1.2","5e3e01d5194a5607f3335fa3","F1","batch6","tol_toboard","599","","","","","","","","","tol_peg_1","599","599","0","[[2,0,0],[3,0],[1]]","3","[[2,1,3],[0,0],[0]]","1","0","","","","","","5","","","","",""
"","","","","","single-stim-button","162","1275304","0.0-3.0-13.3-0.3","5e3e01d5194a5607f3335fa3","F1","batch6","tol_tohand","577","","","","","","","","","tol_peg_2","577","577","0","[[2,0,0],[0,0],[1]]","4","[[2,1,3],[0,0],[0]]","1","0","","","","","","5","","","","",""
"","","","","","single-stim-button","163","1275847","0.0-3.0-13.3-1.3","5e3e01d5194a5607f3335fa3","F1","batch6","tol_toboard","543","","","","","","","","","tol_peg_1","543","543","0","[[2,3,0],[0,0],[1]]","4","[[2,1,3],[0,0],[0]]","1","0","","","","","","5","","","","",""
"","","","","","single-stim-button","164","1276463","0.0-3.0-13.4-0.4","5e3e01d5194a5607f3335fa3","F1","batch6","tol_tohand","616","","","","","","","","","tol_peg_3","616","616","0","[[2,3,0],[0,0],[0]]","5","[[2,1,3],[0,0],[0]]","1","0","","","","","","5","","","","",""
"","","","","","single-stim-button","165","1277144","0.0-3.0-13.4-1.4","5e3e01d5194a5607f3335fa3","F1","batch6","tol_toboard","680","","","","","","","","","tol_peg_1","680","680","0","[[2,3,1],[0,0],[0]]","5","[[2,1,3],[0,0],[0]]","1","0","","","","","","5","","","","",""
"","","","","","single-stim-button","166","1280024","0.0-3.0-13.5-0.5","5e3e01d5194a5607f3335fa3","F1","batch6","tol_tohand","2880","","","","","","","","","tol_peg_1","2880","2880","0","[[2,3,0],[0,0],[0]]","6","[[2,1,3],[0,0],[0]]","1","0","","","","","","5","","","","",""
"","","","","","single-stim-button","167","1280629","0.0-3.0-13.5-1.5","5e3e01d5194a5607f3335fa3","F1","batch6","tol_toboard","605","","","","","","","","","tol_peg_2","605","605","0","[[2,3,0],[1,0],[0]]","6","[[2,1,3],[0,0],[0]]","1","0","","","","","","5","","","","",""
"","","","","","single-stim-button","168","1281239","0.0-3.0-13.6-0.6","5e3e01d5194a5607f3335fa3","F1","batch6","tol_tohand","609","","","","","","","","","tol_peg_1","609","609","0","[[2,0,0],[1,0],[0]]","7","[[2,1,3],[0,0],[0]]","1","0","","","","","","5","","","","",""
"","","","","","single-stim-button","169","1281934","0.0-3.0-13.6-1.6","5e3e01d5194a5607f3335fa3","F1","batch6","tol_toboard","695","","","","","","","","","tol_peg_3","695","695","0","[[2,0,0],[1,0],[3]]","7","[[2,1,3],[0,0],[0]]","1","0","","","","","","5","","","","",""
"","","","","","single-stim-button","170","1282583","0.0-3.0-13.7-0.7","5e3e01d5194a5607f3335fa3","F1","batch6","tol_tohand","648","","","","","","","","","tol_peg_2","648","648","0","[[2,0,0],[0,0],[3]]","8","[[2,1,3],[0,0],[0]]","1","0","","","","","","5","","","","",""
"","","","","","single-stim-button","171","1283127","0.0-3.0-13.7-1.7","5e3e01d5194a5607f3335fa3","F1","batch6","tol_toboard","544","","","","","","","","","tol_peg_1","544","544","0","[[2,1,0],[0,0],[3]]","8","[[2,1,3],[0,0],[0]]","1","0","","","","","","5","","","","",""
"","","","","","single-stim-button","172","1283639","0.0-3.0-13.8-0.8","5e3e01d5194a5607f3335fa3","F1","batch6","tol_tohand","511","","","","","","","","","tol_peg_3","511","511","0","[[2,1,0],[0,0],[0]]","9","[[2,1,3],[0,0],[0]]","1","0","","","","","","5","","","","",""
"","","","","","single-stim-button","173","1284247","0.0-3.0-13.8-1.8","5e3e01d5194a5607f3335fa3","F1","batch6","tol_toboard","608","","","","","","","","","tol_peg_1","608","608","0","[[2,1,3],[0,0],[0]]","9","[[2,1,3],[0,0],[0]]","1","0","","","","","","5","","","","",""
"","","","","","poldrack-single-stim","174","1285261","0.0-3.0-14.0","5e3e01d5194a5607f3335fa3","F1","batch6","tol_feedback","-1","","","","","true","","","","","1000","1000","500","","","","","","-1","none","true","7312","14594","","","","","",""
"","","","","","html-button-response","175","1288200","0.0-3.0-15.0","5e3e01d5194a5607f3335fa3","F1","batch6","tol_trial_num","2937","<div class = centerbox><p class = center-block-text>problem <strong>3</strong> out of 25 problems</p></div>","0","","","","","","","","","","","","","","","","","","","","","","","","","",""
"","","","","","single-stim-button","176","1291081","0.0-3.0-16.0-0.0","5e3e01d5194a5607f3335fa3","F1","batch6","tol_tohand","2880","","","","","","","","","tol_peg_1","2880","2880","0","[[2,0,0],[0,0],[1]]","1","[[1,2,0],[3,0],[0]]","2","0","","","","","","4","","","","",""
"","","","","","single-stim-button","177","1291717","0.0-3.0-16.0-1.0","5e3e01d5194a5607f3335fa3","F1","batch6","tol_toboard","636","","","","","","","","","tol_peg_2","636","636","0","[[2,0,0],[3,0],[1]]","1","[[1,2,0],[3,0],[0]]","2","0","","","","","","4","","","","",""
"","","","","","single-stim-button","178","1292221","0.0-3.0-16.1-0.1","5e3e01d5194a5607f3335fa3","F1","batch6","tol_tohand","503","","","","","","","","","tol_peg_1","503","503","0","[[0,0,0],[3,0],[1]]","2","[[1,2,0],[3,0],[0]]","2","0","","","","","","4","","","","",""
"","","","","","single-stim-button","179","1292800","0.0-3.0-16.1-1.1","5e3e01d5194a5607f3335fa3","F1","batch6","tol_toboard","578","","","","","","","","","tol_peg_2","578","578","0","[[0,0,0],[3,2],[1]]","2","[[1,2,0],[3,0],[0]]","2","0","","","","","","4","","","","",""
"","","","","","single-stim-button","180","1293246","0.0-3.0-16.2-0.2","5e3e01d5194a5607f3335fa3","F1","batch6","tol_tohand","446","","","","","","","","","tol_peg_3","446","446","0","[[0,0,0],[3,2],[0]]","3","[[1,2,0],[3,0],[0]]","2","0","","","","","","4","","","","",""
"","","","","","single-stim-button","181","1293918","0.0-3.0-16.2-1.2","5e3e01d5194a5607f3335fa3","F1","batch6","tol_toboard","671","","","","","","","","","tol_peg_1","671","671","0","[[1,0,0],[3,2],[0]]","3","[[1,2,0],[3,0],[0]]","2","0","","","","","","4","","","","",""
"","","","","","single-stim-button","182","1294424","0.0-3.0-16.3-0.3","5e3e01d5194a5607f3335fa3","F1","batch6","tol_tohand","506","","","","","","","","","tol_peg_2","506","506","0","[[1,0,0],[3,0],[0]]","4","[[1,2,0],[3,0],[0]]","2","0","","","","","","4","","","","",""
"","","","","","single-stim-button","183","1295030","0.0-3.0-16.3-1.3","5e3e01d5194a5607f3335fa3","F1","batch6","tol_toboard","606","","","","","","","","","tol_peg_1","606","606","0","[[1,2,0],[3,0],[0]]","4","[[1,2,0],[3,0],[0]]","2","0","","","","","","4","","","","",""
"","","","","","poldrack-single-stim","184","1296043","0.0-3.0-17.0","5e3e01d5194a5607f3335fa3","F1","batch6","tol_feedback","-1","","","","","true","","","","","1000","1000","500","","","","","","-1","none","true","2880","4335","","","","","",""
"","","","","","html-button-response","185","1296982","0.0-3.0-18.0","5e3e01d5194a5607f3335fa3","F1","batch6","tol_trial_num","939","<div class = centerbox><p class = center-block-text>problem <strong>4</strong> out of 25 problems</p></div>","0","","","","","","","","","","","","","","","","","","","","","","","","","",""
"","","","","","single-stim-button","186","1300838","0.0-3.0-19.0-0.0","5e3e01d5194a5607f3335fa3","F1","batch6","tol_tohand","3855","","","","","","","","","tol_peg_2","3855","3855","0","[[3,0,0],[2,0],[0]]","1","[[3,0,0],[1,0],[2]]","3","0","","","","","","3","","","","",""
"","","","","","single-stim-button","187","1301774","0.0-3.0-19.0-1.0","5e3e01d5194a5607f3335fa3","F1","batch6","tol_toboard","935","","","","","","","","","tol_peg_1","935","935","0","[[3,1,0],[2,0],[0]]","1","[[3,0,0],[1,0],[2]]","3","0","","","","","","3","","","","",""
"","","","","","single-stim-button","188","1302281","0.0-3.0-19.1-0.1","5e3e01d5194a5607f3335fa3","F1","batch6","tol_tohand","505","","","","","","","","","tol_peg_2","505","505","0","[[3,1,0],[0,0],[0]]","2","[[3,0,0],[1,0],[2]]","3","0","","","","","","3","","","","",""
"","","","","","single-stim-button","189","1302759","0.0-3.0-19.1-1.1","5e3e01d5194a5607f3335fa3","F1","batch6","tol_toboard","478","","","","","","","","","tol_peg_3","478","478","0","[[3,1,0],[0,0],[2]]","2","[[3,0,0],[1,0],[2]]","3","0","","","","","","3","","","","",""
"","","","","","single-stim-button","190","1303305","0.0-3.0-19.2-0.2","5e3e01d5194a5607f3335fa3","F1","batch6","tol_tohand","544","","","","","","","","","tol_peg_1","544","544","0","[[3,0,0],[0,0],[2]]","3","[[3,0,0],[1,0],[2]]","3","0","","","","","","3","","","","",""
"","","","","","single-stim-button","191","1303847","0.0-3.0-19.2-1.2","5e3e01d5194a5607f3335fa3","F1","batch6","tol_toboard","541","","","","","","","","","tol_peg_2","541","541","0","[[3,0,0],[1,0],[2]]","3","[[3,0,0],[1,0],[2]]","3","0","","","","","","3","","","","",""
"","","","","","poldrack-single-stim","192","1304860","0.0-3.0-20.0","5e3e01d5194a5607f3335fa3","F1","batch6","tol_feedback","-1","","","","","true","","","","","1000","1000","500","","","","","","-1","none","true","3855","4904","","","","","",""
"","","","","","html-button-response","193","1305855","0.0-3.0-21.0","5e3e01d5194a5607f3335fa3","F1","batch6","tol_trial_num","994","<div class = centerbox><p class = center-block-text>problem <strong>5</strong> out of 25 problems</p></div>","0","","","","","","","","","","","","","","","","","","","","","","","","","",""
"","","","","","single-stim-button","194","1312255","0.0-3.0-22.0-0.0","5e3e01d5194a5607f3335fa3","F1","batch6","tol_tohand","6399","","","","","","","","","tol_peg_2","6399","6399","0","[[1,0,0],[0,0],[3]]","1","[[0,0,0],[1,2],[3]]","4","0","","","","","","7","","","","",""
"","","","","","single-stim-button","195","1316376","0.0-3.0-22.0-1.0","5e3e01d5194a5607f3335fa3","F1","batch6","tol_toboard","4120","","","","","","","","","tol_peg_2","4120","4120","0","[[1,0,0],[2,0],[3]]","1","[[0,0,0],[1,2],[3]]","4","0","","","","","","7","","","","",""
"","","","","","single-stim-button","196","1328487","0.0-3.0-22.1-0.1","5e3e01d5194a5607f3335fa3","F1","batch6","tol_tohand","12111","","","","","","","","","tol_peg_3","12111","12111","0","[[1,0,0],[2,0],[0]]","2","[[0,0,0],[1,2],[3]]","4","0","","","","","","7","","","","",""
"","","","","","single-stim-button","197","1329199","0.0-3.0-22.1-1.1","5e3e01d5194a5607f3335fa3","F1","batch6","tol_toboard","712","","","","","","","","","tol_peg_1","712","712","0","[[1,3,0],[2,0],[0]]","2","[[0,0,0],[1,2],[3]]","4","0","","","","","","7","","","","",""
"","","","","","single-stim-button","198","1329800","0.0-3.0-22.2-0.2","5e3e01d5194a5607f3335fa3","F1","batch6","tol_tohand","600","","","","","","","","","tol_peg_2","600","600","0","[[1,3,0],[0,0],[0]]","3","[[0,0,0],[1,2],[3]]","4","0","","","","","","7","","","","",""
"","","","","","single-stim-button","199","1330416","0.0-3.0-22.2-1.2","5e3e01d5194a5607f3335fa3","F1","batch6","tol_toboard","615","","","","","","","","","tol_peg_3","615","615","0","[[1,3,0],[0,0],[2]]","3","[[0,0,0],[1,2],[3]]","4","0","","","","","","7","","","","",""
"","","","","","single-stim-button","200","1334928","0.0-3.0-22.3-0.3","5e3e01d5194a5607f3335fa3","F1","batch6","tol_tohand","4512","","","","","","","","","tol_peg_1","4512","4512","0","[[1,0,0],[0,0],[2]]","4","[[0,0,0],[1,2],[3]]","4","0","","","","","","7","","","","",""
"","","","","","single-stim-button","201","1336287","0.0-3.0-22.3-1.3","5e3e01d5194a5607f3335fa3","F1","batch6","tol_toboard","1359","","","","","","","","","tol_peg_1","1359","1359","0","[[1,3,0],[0,0],[2]]","4","[[0,0,0],[1,2],[3]]","4","0","","","","","","7","","","","",""
"","","","","","single-stim-button","202","1339686","0.0-3.0-22.4-0.4","5e3e01d5194a5607f3335fa3","F1","batch6","tol_tohand","3398","","","","","","","","","tol_peg_1","3398","3398","0","[[1,0,0],[0,0],[2]]","5","[[0,0,0],[1,2],[3]]","4","0","","","","","","7","","","","",""
"","","","","","single-stim-button","203","1340271","0.0-3.0-22.4-1.4","5e3e01d5194a5607f3335fa3","F1","batch6","tol_toboard","585","","","","","","","","","tol_peg_2","585","585","0","[[1,0,0],[3,0],[2]]","5","[[0,0,0],[1,2],[3]]","4","0","","","","","","7","","","","",""
"","","","","","single-stim-button","204","1345046","0.0-3.0-22.5-0.5","5e3e01d5194a5607f3335fa3","F1","batch6","tol_tohand","4775","","","","","","","","","tol_peg_3","4775","4775","0","[[1,0,0],[3,0],[0]]","6","[[0,0,0],[1,2],[3]]","4","0","","","","","","7","","","","",""
"","","","","","single-stim-button","205","1345638","0.0-3.0-22.5-1.5","5e3e01d5194a5607f3335fa3","F1","batch6","tol_toboard","592","","","","","","","","","tol_peg_2","592","592","0","[[1,0,0],[3,2],[0]]","6","[[0,0,0],[1,2],[3]]","4","0","","","","","","7","","","","",""
"","","","","","single-stim-button","206","1346576","0.0-3.0-22.6-0.6","5e3e01d5194a5607f3335fa3","F1","batch6","tol_tohand","938","","","","","","","","","tol_peg_1","938","938","0","[[0,0,0],[3,2],[0]]","7","[[0,0,0],[1,2],[3]]","4","0","","","","","","7","","","","",""
"","","","","","single-stim-button","207","1347087","0.0-3.0-22.6-1.6","5e3e01d5194a5607f3335fa3","F1","batch6","tol_toboard","511","","","","","","","","","tol_peg_3","511","511","0","[[0,0,0],[3,2],[1]]","7","[[0,0,0],[1,2],[3]]","4","0","","","","","","7","","","","",""
"","","","","","single-stim-button","208","1347568","0.0-3.0-22.7-0.7","5e3e01d5194a5607f3335fa3","F1","batch6","tol_tohand","481","","","","","","","","","tol_peg_2","481","481","0","[[0,0,0],[3,0],[1]]","8","[[0,0,0],[1,2],[3]]","4","0","","","","","","7","","","","",""
"","","","","","single-stim-button","209","1349710","0.0-3.0-22.7-1.7","5e3e01d5194a5607f3335fa3","F1","batch6","tol_toboard","2142","","","","","","","","","tol_peg_1","2142","2142","0","[[2,0,0],[3,0],[1]]","8","[[0,0,0],[1,2],[3]]","4","0","","","","","","7","","","","",""
"","","","","","single-stim-button","210","1350390","0.0-3.0-22.8-0.8","5e3e01d5194a5607f3335fa3","F1","batch6","tol_tohand","678","","","","","","","","","tol_peg_2","678","678","0","[[2,0,0],[0,0],[1]]","9","[[0,0,0],[1,2],[3]]","4","0","","","","","","7","","","","",""
"","","","","","single-stim-button","211","1350838","0.0-3.0-22.8-1.8","5e3e01d5194a5607f3335fa3","F1","batch6","tol_toboard","448","","","","","","","","","tol_peg_1","448","448","0","[[2,3,0],[0,0],[1]]","9","[[0,0,0],[1,2],[3]]","4","0","","","","","","7","","","","",""
"","","","","","single-stim-button","212","1351334","0.0-3.0-22.9-0.9","5e3e01d5194a5607f3335fa3","F1","batch6","tol_tohand","494","","","","","","","","","tol_peg_3","494","494","0","[[2,3,0],[0,0],[0]]","10","[[0,0,0],[1,2],[3]]","4","0","","","","","","7","","","","",""
"","","","","","single-stim-button","213","1351848","0.0-3.0-22.9-1.9","5e3e01d5194a5607f3335fa3","F1","batch6","tol_toboard","513","","","","","","","","","tol_peg_2","513","513","0","[[2,3,0],[1,0],[0]]","10","[[0,0,0],[1,2],[3]]","4","0","","","","","","7","","","","",""
"","","","","","single-stim-button","214","1352640","0.0-3.0-22.10-0.10","5e3e01d5194a5607f3335fa3","F1","batch6","tol_tohand","792","","","","","","","","","tol_peg_1","792","792","0","[[2,0,0],[1,0],[0]]","11","[[0,0,0],[1,2],[3]]","4","0","","","","","","7","","","","",""
"","","","","","single-stim-button","215","1353215","0.0-3.0-22.10-1.10","5e3e01d5194a5607f3335fa3","F1","batch6","tol_toboard","575","","","","","","","","","tol_peg_3","575","575","0","[[2,0,0],[1,0],[3]]","11","[[0,0,0],[1,2],[3]]","4","0","","","","","","7","","","","",""
"","","","","","single-stim-button","216","1353770","0.0-3.0-22.11-0.11","5e3e01d5194a5607f3335fa3","F1","batch6","tol_tohand","554","","","","","","","","","tol_peg_1","554","554","0","[[0,0,0],[1,0],[3]]","12","[[0,0,0],[1,2],[3]]","4","0","","","","","","7","","","","",""
"","","","","","single-stim-button","217","1354177","0.0-3.0-22.11-1.11","5e3e01d5194a5607f3335fa3","F1","batch6","tol_toboard","407","","","","","","","","","tol_peg_2","407","407","0","[[0,0,0],[1,2],[3]]","12","[[0,0,0],[1,2],[3]]","4","0","","","","","","7","","","","",""
"","","","","","poldrack-single-stim","218","1355191","0.0-3.0-23.0","5e3e01d5194a5607f3335fa3","F1","batch6","tol_feedback","-1","","","","","true","","","","","1000","1000","500","","","","","","-1","none","true","6399","35732","","","","","",""
"","","","","","html-button-response","219","1356141","0.0-3.0-24.0","5e3e01d5194a5607f3335fa3","F1","batch6","tol_trial_num","951","<div class = centerbox><p class = center-block-text>problem <strong>6</strong> out of 25 problems</p></div>","0","","","","","","","","","","","","","","","","","","","","","","","","","",""
"","","","","","single-stim-button","220","1367367","0.0-3.0-25.0-0.0","5e3e01d5194a5607f3335fa3","F1","batch6","tol_tohand","11224","","","","","","","","","tol_peg_3","11224","11224","0","[[0,0,0],[1,2],[0]]","1","[[1,0,0],[2,3],[0]]","5","0","","","","","","6","","","","",""
"","","","","","single-stim-button","221","1368014","0.0-3.0-25.0-1.0","5e3e01d5194a5607f3335fa3","F1","batch6","tol_toboard","646","","","","","","","","","tol_peg_1","646","646","0","[[3,0,0],[1,2],[0]]","1","[[1,0,0],[2,3],[0]]","5","0","","","","","","6","","","","",""
"","","","","","single-stim-button","222","1376272","0.0-3.0-25.1-0.1","5e3e01d5194a5607f3335fa3","F1","batch6","tol_tohand","8258","","","","","","","","","tol_peg_2","8258","8258","0","[[3,0,0],[1,0],[0]]","2","[[1,0,0],[2,3],[0]]","5","0","","","","","","6","","","","",""
"","","","","","single-stim-button","223","1376839","0.0-3.0-25.1-1.1","5e3e01d5194a5607f3335fa3","F1","batch6","tol_toboard","566","","","","","","","","","tol_peg_3","566","566","0","[[3,0,0],[1,0],[2]]","2","[[1,0,0],[2,3],[0]]","5","0","","","","","","6","","","","",""
"","","","","","single-stim-button","224","1377335","0.0-3.0-25.2-0.2","5e3e01d5194a5607f3335fa3","F1","batch6","tol_tohand","495","","","","","","","","","tol_peg_2","495","495","0","[[3,0,0],[0,0],[2]]","3","[[1,0,0],[2,3],[0]]","5","0","","","","","","6","","","","",""
"","","","","","single-stim-button","225","1377861","0.0-3.0-25.2-1.2","5e3e01d5194a5607f3335fa3","F1","batch6","tol_toboard","526","","","","","","","","","tol_peg_1","526","526","0","[[3,1,0],[0,0],[2]]","3","[[1,0,0],[2,3],[0]]","5","0","","","","","","6","","","","",""
"","","","","","single-stim-button","226","1378442","0.0-3.0-25.3-0.3","5e3e01d5194a5607f3335fa3","F1","batch6","tol_tohand","580","","","","","","","","","tol_peg_3","580","580","0","[[3,1,0],[0,0],[0]]","4","[[1,0,0],[2,3],[0]]","5","0","","","","","","6","","","","",""
"","","","","","single-stim-button","227","1379032","0.0-3.0-25.3-1.3","5e3e01d5194a5607f3335fa3","F1","batch6","tol_toboard","589","","","","","","","","","tol_peg_2","589","589","0","[[3,1,0],[2,0],[0]]","4","[[1,0,0],[2,3],[0]]","5","0","","","","","","6","","","","",""
"","","","","","single-stim-button","228","1379798","0.0-3.0-25.4-0.4","5e3e01d5194a5607f3335fa3","F1","batch6","tol_tohand","765","","","","","","","","","tol_peg_1","765","765","0","[[3,0,0],[2,0],[0]]","5","[[1,0,0],[2,3],[0]]","5","0","","","","","","6","","","","",""
"","","","","","single-stim-button","229","1380335","0.0-3.0-25.4-1.4","5e3e01d5194a5607f3335fa3","F1","batch6","tol_toboard","537","","","","","","","","","tol_peg_2","537","537","0","[[3,0,0],[2,1],[0]]","5","[[1,0,0],[2,3],[0]]","5","0","","","","","","6","","","","",""
"","","","","","single-stim-button","230","1381407","0.0-3.0-25.5-0.5","5e3e01d5194a5607f3335fa3","F1","batch6","tol_tohand","1072","","","","","","","","","tol_peg_1","1072","1072","0","[[0,0,0],[2,1],[0]]","6","[[1,0,0],[2,3],[0]]","5","0","","","","","","6","","","","",""
"","","","","","single-stim-button","231","1382182","0.0-3.0-25.5-1.5","5e3e01d5194a5607f3335fa3","F1","batch6","tol_toboard","775","","","","","","","","","tol_peg_3","775","775","0","[[0,0,0],[2,1],[3]]","6","[[1,0,0],[2,3],[0]]","5","0","","","","","","6","","","","",""
"","","","","","single-stim-button","232","1382743","0.0-3.0-25.6-0.6","5e3e01d5194a5607f3335fa3","F1","batch6","tol_tohand","561","","","","","","","","","tol_peg_2","561","561","0","[[0,0,0],[2,0],[3]]","7","[[1,0,0],[2,3],[0]]","5","0","","","","","","6","","","","",""
"","","","","","single-stim-button","233","1383167","0.0-3.0-25.6-1.6","5e3e01d5194a5607f3335fa3","F1","batch6","tol_toboard","422","","","","","","","","","tol_peg_1","422","422","0","[[1,0,0],[2,0],[3]]","7","[[1,0,0],[2,3],[0]]","5","0","","","","","","6","","","","",""
"","","","","","single-stim-button","234","1385423","0.0-3.0-25.7-0.7","5e3e01d5194a5607f3335fa3","F1","batch6","tol_tohand","2255","","","","","","","","","tol_peg_3","2255","2255","0","[[1,0,0],[2,0],[0]]","8","[[1,0,0],[2,3],[0]]","5","0","","","","","","6","","","","",""
"","","","","","single-stim-button","235","1385837","0.0-3.0-25.7-1.7","5e3e01d5194a5607f3335fa3","F1","batch6","tol_toboard","414","","","","","","","","","tol_peg_2","414","414","0","[[1,0,0],[2,3],[0]]","8","[[1,0,0],[2,3],[0]]","5","0","","","","","","6","","","","",""
"","","","","","poldrack-single-stim","236","1386850","0.0-3.0-26.0","5e3e01d5194a5607f3335fa3","F1","batch6","tol_feedback","-1","","","","","true","","","","","1000","1000","500","","","","","","-1","none","true","11224","25210","","","","","",""
"","","","","","html-button-response","237","1387567","0.0-3.0-27.0","5e3e01d5194a5607f3335fa3","F1","batch6","tol_trial_num","714","<div class = centerbox><p class = center-block-text>problem <strong>7</strong> out of 25 problems</p></div>","0","","","","","","","","","","","","","","","","","","","","","","","","","",""
"","","","","","single-stim-button","238","1395256","0.0-3.0-28.0-0.0","5e3e01d5194a5607f3335fa3","F1","batch6","tol_tohand","7688","","","","","","","","","tol_peg_3","7688","7688","0","[[2,1,0],[0,0],[0]]","1","[[1,2,0],[3,0],[0]]","6","0","","","","","","5","","","","",""
"","","","","","single-stim-button","239","1395760","0.0-3.0-28.0-1.0","5e3e01d5194a5607f3335fa3","F1","batch6","tol_toboard","503","","","","","","","","","tol_peg_2","503","503","0","[[2,1,0],[3,0],[0]]","1","[[1,2,0],[3,0],[0]]","6","0","","","","","","5","","","","",""
"","","","","","single-stim-button","240","1397143","0.0-3.0-28.1-0.1","5e3e01d5194a5607f3335fa3","F1","batch6","tol_tohand","1383","","","","","","","","","tol_peg_1","1383","1383","0","[[2,0,0],[3,0],[0]]","2","[[1,2,0],[3,0],[0]]","6","0","","","","","","5","","","","",""
"","","","","","single-stim-button","241","1398614","0.0-3.0-28.1-1.1","5e3e01d5194a5607f3335fa3","F1","batch6","tol_toboard","1471","","","","","","","","","tol_peg_2","1471","1471","0","[[2,0,0],[3,1],[0]]","2","[[1,2,0],[3,0],[0]]","6","0","","","","","","5","","","","",""
"","","","","","single-stim-button","242","1399120","0.0-3.0-28.2-0.2","5e3e01d5194a5607f3335fa3","F1","batch6","tol_tohand","505","","","","","","","","","tol_peg_1","505","505","0","[[0,0,0],[3,1],[0]]","3","[[1,2,0],[3,0],[0]]","6","0","","","","","","5","","","","",""
"","","","","","single-stim-button","243","1399599","0.0-3.0-28.2-1.2","5e3e01d5194a5607f3335fa3","F1","batch6","tol_toboard","478","","","","","","","","","tol_peg_3","478","478","0","[[0,0,0],[3,1],[2]]","3","[[1,2,0],[3,0],[0]]","6","0","","","","","","5","","","","",""
"","","","","","single-stim-button","244","1400232","0.0-3.0-28.3-0.3","5e3e01d5194a5607f3335fa3","F1","batch6","tol_tohand","633","","","","","","","","","tol_peg_2","633","633","0","[[0,0,0],[3,0],[2]]","4","[[1,2,0],[3,0],[0]]","6","0","","","","","","5","","","","",""
"","","","","","single-stim-button","245","1400776","0.0-3.0-28.3-1.3","5e3e01d5194a5607f3335fa3","F1","batch6","tol_toboard","544","","","","","","","","","tol_peg_1","544","544","0","[[1,0,0],[3,0],[2]]","4","[[1,2,0],[3,0],[0]]","6","0","","","","","","5","","","","",""
"","","","","","single-stim-button","246","1401310","0.0-3.0-28.4-0.4","5e3e01d5194a5607f3335fa3","F1","batch6","tol_tohand","532","","","","","","","","","tol_peg_3","532","532","0","[[1,0,0],[3,0],[0]]","5","[[1,2,0],[3,0],[0]]","6","0","","","","","","5","","","","",""
"","","","","","single-stim-button","247","1401942","0.0-3.0-28.4-1.4","5e3e01d5194a5607f3335fa3","F1","batch6","tol_toboard","632","","","","","","","","","tol_peg_1","632","632","0","[[1,2,0],[3,0],[0]]","5","[[1,2,0],[3,0],[0]]","6","0","","","","","","5","","","","",""
"","","","","","poldrack-single-stim","248","1402952","0.0-3.0-29.0","5e3e01d5194a5607f3335fa3","F1","batch6","tol_feedback","-1","","","","","true","","","","","1000","1000","500","","","","","","-1","none","true","7688","10741","","","","","",""
"","","","","","html-button-response","249","1403912","0.0-3.0-30.0","5e3e01d5194a5607f3335fa3","F1","batch6","tol_trial_num","959","<div class = centerbox><p class = center-block-text>problem <strong>8</strong> out of 25 problems</p></div>","0","","","","","","","","","","","","","","","","","","","","","","","","","",""
"","","","","","single-stim-button","250","1408222","0.0-3.0-31.0-0.0","5e3e01d5194a5607f3335fa3","F1","batch6","tol_tohand","4310","","","","","","","","","tol_peg_3","4310","4310","0","[[0,0,0],[2,3],[0]]","1","[[1,2,0],[3,0],[0]]","7","0","","","","","","4","","","","",""
"","","","","","single-stim-button","251","1409182","0.0-3.0-31.0-1.0","5e3e01d5194a5607f3335fa3","F1","batch6","tol_toboard","960","","","","","","","","","tol_peg_1","960","960","0","[[1,0,0],[2,3],[0]]","1","[[1,2,0],[3,0],[0]]","7","0","","","","","","4","","","","",""
"","","","","","single-stim-button","252","1409944","0.0-3.0-31.1-0.1","5e3e01d5194a5607f3335fa3","F1","batch6","tol_tohand","762","","","","","","","","","tol_peg_2","762","762","0","[[1,0,0],[2,0],[0]]","2","[[1,2,0],[3,0],[0]]","7","0","","","","","","4","","","","",""
"","","","","","single-stim-button","253","1410703","0.0-3.0-31.1-1.1","5e3e01d5194a5607f3335fa3","F1","batch6","tol_toboard","758","","","","","","","","","tol_peg_3","758","758","0","[[1,0,0],[2,0],[3]]","2","[[1,2,0],[3,0],[0]]","7","0","","","","","","4","","","","",""
"","","","","","single-stim-button","254","1411142","0.0-3.0-31.2-0.2","5e3e01d5194a5607f3335fa3","F1","batch6","tol_tohand","438","","","","","","","","","tol_peg_2","438","438","0","[[1,0,0],[0,0],[3]]","3","[[1,2,0],[3,0],[0]]","7","0","","","","","","4","","","","",""
"","","","","","single-stim-button","255","1411705","0.0-3.0-31.2-1.2","5e3e01d5194a5607f3335fa3","F1","batch6","tol_toboard","563","","","","","","","","","tol_peg_1","563","563","0","[[1,2,0],[0,0],[3]]","3","[[1,2,0],[3,0],[0]]","7","0","","","","","","4","","","","",""
"","","","","","single-stim-button","256","1412295","0.0-3.0-31.3-0.3","5e3e01d5194a5607f3335fa3","F1","batch6","tol_tohand","589","","","","","","","","","tol_peg_3","589","589","0","[[1,2,0],[0,0],[0]]","4","[[1,2,0],[3,0],[0]]","7","0","","","","","","4","","","","",""
"","","","","","single-stim-button","257","1412743","0.0-3.0-31.3-1.3","5e3e01d5194a5607f3335fa3","F1","batch6","tol_toboard","447","","","","","","","","","tol_peg_2","447","447","0","[[1,2,0],[3,0],[0]]","4","[[1,2,0],[3,0],[0]]","7","0","","","","","","4","","","","",""
"","","","","","poldrack-single-stim","258","1413747","0.0-3.0-32.0","5e3e01d5194a5607f3335fa3","F1","batch6","tol_feedback","-1","","","","","true","","","","","1000","1000","500","","","","","","-1","none","true","4310","6099","","","","","",""
"","","","","","html-button-response","259","1414350","0.0-3.0-33.0","5e3e01d5194a5607f3335fa3","F1","batch6","tol_trial_num","602","<div class = centerbox><p class = center-block-text>problem <strong>9</strong> out of 25 problems</p></div>","0","","","","","","","","","","","","","","","","","","","","","","","","","",""
"","","","","","single-stim-button","260","1426238","0.0-3.0-34.0-0.0","5e3e01d5194a5607f3335fa3","F1","batch6","tol_tohand","11887","","","","","","","","","tol_peg_3","11887","11887","0","[[3,2,0],[0,0],[0]]","1","[[2,1,0],[3,0],[0]]","8","0","","","","","","6","","","","",""
"","","","","","single-stim-button","261","1426895","0.0-3.0-34.0-1.0","5e3e01d5194a5607f3335fa3","F1","batch6","tol_toboard","657","","","","","","","","","tol_peg_2","657","657","0","[[3,2,0],[1,0],[0]]","1","[[2,1,0],[3,0],[0]]","8","0","","","","","","6","","","","",""
"","","","","","single-stim-button","262","1428342","0.0-3.0-34.1-0.1","5e3e01d5194a5607f3335fa3","F1","batch6","tol_tohand","1446","","","","","","","","","tol_peg_1","1446","1446","0","[[3,0,0],[1,0],[0]]","2","[[2,1,0],[3,0],[0]]","8","0","","","","","","6","","","","",""
"","","","","","single-stim-button","263","1428840","0.0-3.0-34.1-1.1","5e3e01d5194a5607f3335fa3","F1","batch6","tol_toboard","498","","","","","","","","","tol_peg_2","498","498","0","[[3,0,0],[1,2],[0]]","2","[[2,1,0],[3,0],[0]]","8","0","","","","","","6","","","","",""
"","","","","","single-stim-button","264","1429265","0.0-3.0-34.2-0.2","5e3e01d5194a5607f3335fa3","F1","batch6","tol_tohand","425","","","","","","","","","tol_peg_1","425","425","0","[[0,0,0],[1,2],[0]]","3","[[2,1,0],[3,0],[0]]","8","0","","","","","","6","","","","",""
"","","","","","single-stim-button","265","1429775","0.0-3.0-34.2-1.2","5e3e01d5194a5607f3335fa3","F1","batch6","tol_toboard","510","","","","","","","","","tol_peg_3","510","510","0","[[0,0,0],[1,2],[3]]","3","[[2,1,0],[3,0],[0]]","8","0","","","","","","6","","","","",""
"","","","","","single-stim-button","266","1430263","0.0-3.0-34.3-0.3","5e3e01d5194a5607f3335fa3","F1","batch6","tol_tohand","488","","","","","","","","","tol_peg_2","488","488","0","[[0,0,0],[1,0],[3]]","4","[[2,1,0],[3,0],[0]]","8","0","","","","","","6","","","","",""
"","","","","","single-stim-button","267","1430830","0.0-3.0-34.3-1.3","5e3e01d5194a5607f3335fa3","F1","batch6","tol_toboard","566","","","","","","","","","tol_peg_1","566","566","0","[[2,0,0],[1,0],[3]]","4","[[2,1,0],[3,0],[0]]","8","0","","","","","","6","","","","",""
"","","","","","single-stim-button","268","1431589","0.0-3.0-34.4-0.4","5e3e01d5194a5607f3335fa3","F1","batch6","tol_tohand","758","","","","","","","","","tol_peg_2","758","758","0","[[2,0,0],[0,0],[3]]","5","[[2,1,0],[3,0],[0]]","8","0","","","","","","6","","","","",""
"","","","","","single-stim-button","269","1432079","0.0-3.0-34.4-1.4","5e3e01d5194a5607f3335fa3","F1","batch6","tol_toboard","490","","","","","","","","","tol_peg_1","490","490","0","[[2,1,0],[0,0],[3]]","5","[[2,1,0],[3,0],[0]]","8","0","","","","","","6","","","","",""
"","","","","","single-stim-button","270","1433582","0.0-3.0-34.5-0.5","5e3e01d5194a5607f3335fa3","F1","batch6","tol_tohand","1502","","","","","","","","","tol_peg_3","1502","1502","0","[[2,1,0],[0,0],[0]]","6","[[2,1,0],[3,0],[0]]","8","0","","","","","","6","","","","",""
"","","","","","single-stim-button","271","1434125","0.0-3.0-34.5-1.5","5e3e01d5194a5607f3335fa3","F1","batch6","tol_toboard","542","","","","","","","","","tol_peg_2","542","542","0","[[2,1,0],[3,0],[0]]","6","[[2,1,0],[3,0],[0]]","8","0","","","","","","6","","","","",""
"","","","","","poldrack-single-stim","272","1435139","0.0-3.0-35.0","5e3e01d5194a5607f3335fa3","F1","batch6","tol_feedback","-1","","","","","true","","","","","1000","1000","500","","","","","","-1","none","true","11887","16506","","","","","",""
"","","","","","html-button-response","273","1435798","0.0-3.0-36.0","5e3e01d5194a5607f3335fa3","F1","batch6","tol_trial_num","657","<div class = centerbox><p class = center-block-text>problem <strong>10</strong> out of 25 problems</p></div>","0","","","","","","","","","","","","","","","","","","","","","","","","","",""
"","","","","","single-stim-button","274","1440144","0.0-3.0-37.0-0.0","5e3e01d5194a5607f3335fa3","F1","batch6","tol_tohand","4346","","","","","","","","","tol_peg_2","4346","4346","0","[[3,0,0],[0,0],[2]]","1","[[3,0,0],[2,1],[0]]","9","0","","","","","","3","","","","",""
"","","","","","single-stim-button","275","1440839","0.0-3.0-37.0-1.0","5e3e01d5194a5607f3335fa3","F1","batch6","tol_toboard","694","","","","","","","","","tol_peg_1","694","694","0","[[3,1,0],[0,0],[2]]","1","[[3,0,0],[2,1],[0]]","9","0","","","","","","3","","","","",""
"","","","","","single-stim-button","276","1441391","0.0-3.0-37.1-0.1","5e3e01d5194a5607f3335fa3","F1","batch6","tol_tohand","550","","","","","","","","","tol_peg_3","550","550","0","[[3,1,0],[0,0],[0]]","2","[[3,0,0],[2,1],[0]]","9","0","","","","","","3","","","","",""
"","","","","","single-stim-button","277","1442038","0.0-3.0-37.1-1.1","5e3e01d5194a5607f3335fa3","F1","batch6","tol_toboard","647","","","","","","","","","tol_peg_2","647","647","0","[[3,1,0],[2,0],[0]]","2","[[3,0,0],[2,1],[0]]","9","0","","","","","","3","","","","",""
"","","","","","single-stim-button","278","1442536","0.0-3.0-37.2-0.2","5e3e01d5194a5607f3335fa3","F1","batch6","tol_tohand","496","","","","","","","","","tol_peg_1","496","496","0","[[3,0,0],[2,0],[0]]","3","[[3,0,0],[2,1],[0]]","9","0","","","","","","3","","","","",""
"","","","","","single-stim-button","279","1443015","0.0-3.0-37.2-1.2","5e3e01d5194a5607f3335fa3","F1","batch6","tol_toboard","479","","","","","","","","","tol_peg_2","479","479","0","[[3,0,0],[2,1],[0]]","3","[[3,0,0],[2,1],[0]]","9","0","","","","","","3","","","","",""
"","","","","","poldrack-single-stim","280","1444032","0.0-3.0-38.0","5e3e01d5194a5607f3335fa3","F1","batch6","tol_feedback","-1","","","","","true","","","","","1000","1000","500","","","","","","-1","none","true","4346","5392","","","","","",""
"","","","","","html-button-response","281","1444686","0.0-3.0-39.0","5e3e01d5194a5607f3335fa3","F1","batch6","tol_trial_num","653","<div class = centerbox><p class = center-block-text>problem <strong>11</strong> out of 25 problems</p></div>","0","","","","","","","","","","","","","","","","","","","","","","","","","",""
"","","","","","single-stim-button","282","1454191","0.0-3.0-40.0-0.0","5e3e01d5194a5607f3335fa3","F1","batch6","tol_tohand","9504","","","","","","","","","tol_peg_1","9504","9504","0","[[1,0,0],[3,0],[0]]","1","[[2,0,0],[1,3],[0]]","10","0","","","","","","6","","","","",""
"","","","","","single-stim-button","283","1457015","0.0-3.0-40.0-1.0","5e3e01d5194a5607f3335fa3","F1","batch6","tol_toboard","2824","","","","","","","","","tol_peg_2","2824","2824","0","[[1,0,0],[3,2],[0]]","1","[[2,0,0],[1,3],[0]]","10","0","","","","","","6","","","","",""
"","","","","","single-stim-button","284","1457495","0.0-3.0-40.1-0.1","5e3e01d5194a5607f3335fa3","F1","batch6","tol_tohand","480","","","","","","","","","tol_peg_1","480","480","0","[[0,0,0],[3,2],[0]]","2","[[2,0,0],[1,3],[0]]","10","0","","","","","","6","","","","",""
"","","","","","single-stim-button","285","1458000","0.0-3.0-40.1-1.1","5e3e01d5194a5607f3335fa3","F1","batch6","tol_toboard","505","","","","","","","","","tol_peg_3","505","505","0","[[0,0,0],[3,2],[1]]","2","[[2,0,0],[1,3],[0]]","10","0","","","","","","6","","","","",""
"","","","","","single-stim-button","286","1458519","0.0-3.0-40.2-0.2","5e3e01d5194a5607f3335fa3","F1","batch6","tol_tohand","518","","","","","","","","","tol_peg_2","518","518","0","[[0,0,0],[3,0],[1]]","3","[[2,0,0],[1,3],[0]]","10","0","","","","","","6","","","","",""
"","","","","","single-stim-button","287","1459023","0.0-3.0-40.2-1.2","5e3e01d5194a5607f3335fa3","F1","batch6","tol_toboard","504","","","","","","","","","tol_peg_1","504","504","0","[[2,0,0],[3,0],[1]]","3","[[2,0,0],[1,3],[0]]","10","0","","","","","","6","","","","",""
"","","","","","single-stim-button","288","1460038","0.0-3.0-40.3-0.3","5e3e01d5194a5607f3335fa3","F1","batch6","tol_tohand","1015","","","","","","","","","tol_peg_2","1015","1015","0","[[2,0,0],[0,0],[1]]","4","[[2,0,0],[1,3],[0]]","10","0","","","","","","6","","","","",""
"","","","","","single-stim-button","289","1460647","0.0-3.0-40.3-1.3","5e3e01d5194a5607f3335fa3","F1","batch6","tol_toboard","609","","","","","","","","","tol_peg_1","609","609","0","[[2,3,0],[0,0],[1]]","4","[[2,0,0],[1,3],[0]]","10","0","","","","","","6","","","","",""
"","","","","","single-stim-button","290","1461199","0.0-3.0-40.4-0.4","5e3e01d5194a5607f3335fa3","F1","batch6","tol_tohand","552","","","","","","","","","tol_peg_3","552","552","0","[[2,3,0],[0,0],[0]]","5","[[2,0,0],[1,3],[0]]","10","0","","","","","","6","","","","",""
"","","","","","single-stim-button","291","1461782","0.0-3.0-40.4-1.4","5e3e01d5194a5607f3335fa3","F1","batch6","tol_toboard","583","","","","","","","","","tol_peg_2","583","583","0","[[2,3,0],[1,0],[0]]","5","[[2,0,0],[1,3],[0]]","10","0","","","","","","6","","","","",""
"","","","","","single-stim-button","292","1462246","0.0-3.0-40.5-0.5","5e3e01d5194a5607f3335fa3","F1","batch6","tol_tohand","464","","","","","","","","","tol_peg_1","464","464","0","[[2,0,0],[1,0],[0]]","6","[[2,0,0],[1,3],[0]]","10","0","","","","","","6","","","","",""
"","","","","","single-stim-button","293","1462768","0.0-3.0-40.5-1.5","5e3e01d5194a5607f3335fa3","F1","batch6","tol_toboard","520","","","","","","","","","tol_peg_2","520","520","0","[[2,0,0],[1,3],[0]]","6","[[2,0,0],[1,3],[0]]","10","0","","","","","","6","","","","",""
"","","","","","poldrack-single-stim","294","1463786","0.0-3.0-41.0","5e3e01d5194a5607f3335fa3","F1","batch6","tol_feedback","-1","","","","","true","","","","","1000","1000","500","","","","","","-1","none","true","9504","12533","","","","","",""
"","","","","","html-button-response","295","1464270","0.0-3.0-42.0","5e3e01d5194a5607f3335fa3","F1","batch6","tol_trial_num","483","<div class = centerbox><p class = center-block-text>problem <strong>12</strong> out of 25 problems</p></div>","0","","","","","","","","","","","","","","","","","","","","","","","","","",""
"","","","","","single-stim-button","296","1468038","0.0-3.0-43.0-0.0","5e3e01d5194a5607f3335fa3","F1","batch6","tol_tohand","3768","","","","","","","","","tol_peg_1","3768","3768","0","[[1,0,0],[3,0],[0]]","1","[[2,3,0],[0,0],[1]]","11","0","","","","","","4","","","","",""
"","","","","","single-stim-button","297","1468614","0.0-3.0-43.0-1.0","5e3e01d5194a5607f3335fa3","F1","batch6","tol_toboard","576","","","","","","","","","tol_peg_2","576","576","0","[[1,0,0],[3,2],[0]]","1","[[2,3,0],[0,0],[1]]","11","0","","","","","","4","","","","",""
"","","","","","single-stim-button","298","1469101","0.0-3.0-43.1-0.1","5e3e01d5194a5607f3335fa3","F1","batch6","tol_tohand","487","","","","","","","","","tol_peg_1","487","487","0","[[0,0,0],[3,2],[0]]","2","[[2,3,0],[0,0],[1]]","11","0","","","","","","4","","","","",""
"","","","","","single-stim-button","299","1472134","0.0-3.0-43.1-1.1","5e3e01d5194a5607f3335fa3","F1","batch6","tol_toboard","3032","","","","","","","","","tol_peg_1","3032","3032","0","[[1,0,0],[3,2],[0]]","2","[[2,3,0],[0,0],[1]]","11","0","","","","","","4","","","","",""
"","","","","","single-stim-button","300","1472599","0.0-3.0-43.2-0.2","5e3e01d5194a5607f3335fa3","F1","batch6","tol_tohand","464","","","","","","","","","tol_peg_2","464","464","0","[[1,0,0],[3,0],[0]]","3","[[2,3,0],[0,0],[1]]","11","0","","","","","","4","","","","",""
"","","","","","single-stim-button","301","1473071","0.0-3.0-43.2-1.2","5e3e01d5194a5607f3335fa3","F1","batch6","tol_toboard","472","","","","","","","","","tol_peg_3","472","472","0","[[1,0,0],[3,0],[2]]","3","[[2,3,0],[0,0],[1]]","11","0","","","","","","4","","","","",""
"","","","","","single-stim-button","302","1473808","0.0-3.0-43.3-0.3","5e3e01d5194a5607f3335fa3","F1","batch6","tol_tohand","736","","","","","","","","","tol_peg_1","736","736","0","[[0,0,0],[3,0],[2]]","4","[[2,3,0],[0,0],[1]]","11","0","","","","","","4","","","","",""
"","","","","","single-stim-button","303","1474222","0.0-3.0-43.3-1.3","5e3e01d5194a5607f3335fa3","F1","batch6","tol_toboard","414","","","","","","","","","tol_peg_2","414","414","0","[[0,0,0],[3,1],[2]]","4","[[2,3,0],[0,0],[1]]","11","0","","","","","","4","","","","",""
"","","","","","single-stim-button","304","1474863","0.0-3.0-43.4-0.4","5e3e01d5194a5607f3335fa3","F1","batch6","tol_tohand","641","","","","","","","","","tol_peg_3","641","641","0","[[0,0,0],[3,1],[0]]","5","[[2,3,0],[0,0],[1]]","11","0","","","","","","4","","","","",""
"","","","","","single-stim-button","305","1475527","0.0-3.0-43.4-1.4","5e3e01d5194a5607f3335fa3","F1","batch6","tol_toboard","664","","","","","","","","","tol_peg_1","664","664","0","[[2,0,0],[3,1],[0]]","5","[[2,3,0],[0,0],[1]]","11","0","","","","","","4","","","","",""
"","","","","","single-stim-button","306","1476262","0.0-3.0-43.5-0.5","5e3e01d5194a5607f3335fa3","F1","batch6","tol_tohand","735","","","","","","","","","tol_peg_2","735","735","0","[[2,0,0],[3,0],[0]]","6","[[2,3,0],[0,0],[1]]","11","0","","","","","","4","","","","",""
"","","","","","single-stim-button","307","1476711","0.0-3.0-43.5-1.5","5e3e01d5194a5607f3335fa3","F1","batch6","tol_toboard","449","","","","","","","","","tol_peg_3","449","449","0","[[2,0,0],[3,0],[1]]","6","[[2,3,0],[0,0],[1]]","11","0","","","","","","4","","","","",""
"","","","","","single-stim-button","308","1477177","0.0-3.0-43.6-0.6","5e3e01d5194a5607f3335fa3","F1","batch6","tol_tohand","464","","","","","","","","","tol_peg_2","464","464","0","[[2,0,0],[0,0],[1]]","7","[[2,3,0],[0,0],[1]]","11","0","","","","","","4","","","","",""
"","","","","","single-stim-button","309","1477622","0.0-3.0-43.6-1.6","5e3e01d5194a5607f3335fa3","F1","batch6","tol_toboard","445","","","","","","","","","tol_peg_1","445","445","0","[[2,3,0],[0,0],[1]]","7","[[2,3,0],[0,0],[1]]","11","0","","","","","","4","","","","",""
"","","","","","poldrack-single-stim","310","1478624","0.0-3.0-44.0","5e3e01d5194a5607f3335fa3","F1","batch6","tol_feedback","-1","","","","","true","","","","","1000","1000","500","","","","","","-1","none","true","3768","7295","","","","","",""
"","","","","","html-button-response","311","1479422","0.0-3.0-45.0","5e3e01d5194a5607f3335fa3","F1","batch6","tol_trial_num","798","<div class = centerbox><p class = center-block-text>problem <strong>13</strong> out of 25 problems</p></div>","0","","","","","","","","","","","","","","","","","","","","","","","","","",""
"","","","","","single-stim-button","312","1486534","0.0-3.0-46.0-0.0","5e3e01d5194a5607f3335fa3","F1","batch6","tol_tohand","7112","","","","","","","","","tol_peg_2","7112","7112","0","[[1,2,0],[0,0],[0]]","1","[[0,0,0],[2,3],[1]]","12","0","","","","","","4","","","","",""
"","","","","","single-stim-button","313","1487009","0.0-3.0-46.0-1.0","5e3e01d5194a5607f3335fa3","F1","batch6","tol_toboard","475","","","","","","","","","tol_peg_3","475","475","0","[[1,2,0],[0,0],[3]]","1","[[0,0,0],[2,3],[1]]","12","0","","","","","","4","","","","",""
"","","","","","single-stim-button","314","1487449","0.0-3.0-46.1-0.1","5e3e01d5194a5607f3335fa3","F1","batch6","tol_tohand","439","","","","","","","","","tol_peg_1","439","439","0","[[1,0,0],[0,0],[3]]","2","[[0,0,0],[2,3],[1]]","12","0","","","","","","4","","","","",""
"","","","","","single-stim-button","315","1487886","0.0-3.0-46.1-1.1","5e3e01d5194a5607f3335fa3","F1","batch6","tol_toboard","437","","","","","","","","","tol_peg_2","437","437","0","[[1,0,0],[2,0],[3]]","2","[[0,0,0],[2,3],[1]]","12","0","","","","","","4","","","","",""
"","","","","","single-stim-button","316","1488382","0.0-3.0-46.2-0.2","5e3e01d5194a5607f3335fa3","F1","batch6","tol_tohand","496","","","","","","","","","tol_peg_3","496","496","0","[[1,0,0],[2,0],[0]]","3","[[0,0,0],[2,3],[1]]","12","0","","","","","","4","","","","",""
"","","","","","single-stim-button","317","1488839","0.0-3.0-46.2-1.2","5e3e01d5194a5607f3335fa3","F1","batch6","tol_toboard","456","","","","","","","","","tol_peg_2","456","456","0","[[1,0,0],[2,3],[0]]","3","[[0,0,0],[2,3],[1]]","12","0","","","","","","4","","","","",""
"","","","","","single-stim-button","318","1489358","0.0-3.0-46.3-0.3","5e3e01d5194a5607f3335fa3","F1","batch6","tol_tohand","519","","","","","","","","","tol_peg_1","519","519","0","[[0,0,0],[2,3],[0]]","4","[[0,0,0],[2,3],[1]]","12","0","","","","","","4","","","","",""
"","","","","","single-stim-button","319","1489838","0.0-3.0-46.3-1.3","5e3e01d5194a5607f3335fa3","F1","batch6","tol_toboard","479","","","","","","","","","tol_peg_3","479","479","0","[[0,0,0],[2,3],[1]]","4","[[0,0,0],[2,3],[1]]","12","0","","","","","","4","","","","",""
"","","","","","poldrack-single-stim","320","1490845","0.0-3.0-47.0","5e3e01d5194a5607f3335fa3","F1","batch6","tol_feedback","-1","","","","","true","","","","","1000","1000","500","","","","","","-1","none","true","7112","8566","","","","","",""
"","","","","","html-button-response","321","1495424","0.0-3.0-48.0","5e3e01d5194a5607f3335fa3","F1","batch6","attention_check","4578","<p class = block-text>How many balls are in your board<br></p>","1","","","true","","","","","","","","","","","","","","","","","","","","","","",""
"","","","","","html-button-response","322","1496431","0.0-3.0-49.0","5e3e01d5194a5607f3335fa3","F1","batch6","tol_trial_num","1006","<div class = centerbox><p class = center-block-text>problem <strong>14</strong> out of 25 problems</p></div>","0","","","","","","","","","","","","","","","","","","","","","","","","","",""
"","","","","","single-stim-button","323","1501000","0.0-3.0-50.0-0.0","5e3e01d5194a5607f3335fa3","F1","batch6","tol_tohand","4568","","","","","","","","","tol_peg_1","4568","4568","0","[[2,0,0],[3,0],[0]]","1","[[1,2,0],[3,0],[0]]","13","0","","","","","","4","","","","",""
"","","","","","single-stim-button","324","1501518","0.0-3.0-50.0-1.0","5e3e01d5194a5607f3335fa3","F1","batch6","tol_toboard","518","","","","","","","","","tol_peg_2","518","518","0","[[2,0,0],[3,1],[0]]","1","[[1,2,0],[3,0],[0]]","13","0","","","","","","4","","","","",""
"","","","","","single-stim-button","325","1502063","0.0-3.0-50.1-0.1","5e3e01d5194a5607f3335fa3","F1","batch6","tol_tohand","543","","","","","","","","","tol_peg_1","543","543","0","[[0,0,0],[3,1],[0]]","2","[[1,2,0],[3,0],[0]]","13","0","","","","","","4","","","","",""
"","","","","","single-stim-button","326","1502630","0.0-3.0-50.1-1.1","5e3e01d5194a5607f3335fa3","F1","batch6","tol_toboard","567","","","","","","","","","tol_peg_3","567","567","0","[[0,0,0],[3,1],[2]]","2","[[1,2,0],[3,0],[0]]","13","0","","","","","","4","","","","",""
"","","","","","single-stim-button","327","1503158","0.0-3.0-50.2-0.2","5e3e01d5194a5607f3335fa3","F1","batch6","tol_tohand","527","","","","","","","","","tol_peg_2","527","527","0","[[0,0,0],[3,0],[2]]","3","[[1,2,0],[3,0],[0]]","13","0","","","","","","4","","","","",""
"","","","","","single-stim-button","328","1503592","0.0-3.0-50.2-1.2","5e3e01d5194a5607f3335fa3","F1","batch6","tol_toboard","433","","","","","","","","","tol_peg_1","433","433","0","[[1,0,0],[3,0],[2]]","3","[[1,2,0],[3,0],[0]]","13","0","","","","","","4","","","","",""
"","","","","","single-stim-button","329","1503901","0.0-3.0-50.3-0.3","5e3e01d5194a5607f3335fa3","F1","batch6","tol_tohand","309","","","","","","","","","tol_peg_1","309","309","0","[[0,0,0],[3,0],[2]]","4","[[1,2,0],[3,0],[0]]","13","0","","","","","","4","","","","",""
"","","","","","single-stim-button","330","1504781","0.0-3.0-50.3-1.3","5e3e01d5194a5607f3335fa3","F1","batch6","tol_toboard","880","","","","","","","","","tol_peg_1","880","880","0","[[1,0,0],[3,0],[2]]","4","[[1,2,0],[3,0],[0]]","13","0","","","","","","4","","","","",""
"","","","","","single-stim-button","331","1505566","0.0-3.0-50.4-0.4","5e3e01d5194a5607f3335fa3","F1","batch6","tol_tohand","784","","","","","","","","","tol_peg_3","784","784","0","[[1,0,0],[3,0],[0]]","5","[[1,2,0],[3,0],[0]]","13","0","","","","","","4","","","","",""
"","","","","","single-stim-button","332","1506127","0.0-3.0-50.4-1.4","5e3e01d5194a5607f3335fa3","F1","batch6","tol_toboard","561","","","","","","","","","tol_peg_1","561","561","0","[[1,2,0],[3,0],[0]]","5","[[1,2,0],[3,0],[0]]","13","0","","","","","","4","","","","",""
"","","","","","poldrack-single-stim","333","1507129","0.0-3.0-51.0","5e3e01d5194a5607f3335fa3","F1","batch6","tol_feedback","-1","","","","","true","","","","","1000","1000","500","","","","","","-1","none","true","4568","6731","","","","","",""
"","","","","","html-button-response","334","1507941","0.0-3.0-52.0","5e3e01d5194a5607f3335fa3","F1","batch6","tol_trial_num","810","<div class = centerbox><p class = center-block-text>problem <strong>15</strong> out of 25 problems</p></div>","0","","","","","","","","","","","","","","","","","","","","","","","","","",""
"","","","","","single-stim-button","335","1510607","0.0-3.0-53.0-0.0","5e3e01d5194a5607f3335fa3","F1","batch6","tol_tohand","2666","","","","","","","","","tol_peg_1","2666","2666","0","[[1,0,0],[3,0],[0]]","1","[[2,0,0],[3,0],[1]]","14","0","","","","","","3","","","","",""
"","","","","","single-stim-button","336","1511062","0.0-3.0-53.0-1.0","5e3e01d5194a5607f3335fa3","F1","batch6","tol_toboard","455","","","","","","","","","tol_peg_2","455","455","0","[[1,0,0],[3,2],[0]]","1","[[2,0,0],[3,0],[1]]","14","0","","","","","","3","","","","",""
"","","","","","single-stim-button","337","1511622","0.0-3.0-53.1-0.1","5e3e01d5194a5607f3335fa3","F1","batch6","tol_tohand","559","","","","","","","","","tol_peg_1","559","559","0","[[0,0,0],[3,2],[0]]","2","[[2,0,0],[3,0],[1]]","14","0","","","","","","3","","","","",""
"","","","","","single-stim-button","338","1512293","0.0-3.0-53.1-1.1","5e3e01d5194a5607f3335fa3","F1","batch6","tol_toboard","671","","","","","","","","","tol_peg_3","671","671","0","[[0,0,0],[3,2],[1]]","2","[[2,0,0],[3,0],[1]]","14","0","","","","","","3","","","","",""
"","","","","","single-stim-button","339","1512920","0.0-3.0-53.2-0.2","5e3e01d5194a5607f3335fa3","F1","batch6","tol_tohand","626","","","","","","","","","tol_peg_2","626","626","0","[[0,0,0],[3,0],[1]]","3","[[2,0,0],[3,0],[1]]","14","0","","","","","","3","","","","",""
"","","","","","single-stim-button","340","1513367","0.0-3.0-53.2-1.2","5e3e01d5194a5607f3335fa3","F1","batch6","tol_toboard","447","","","","","","","","","tol_peg_1","447","447","0","[[2,0,0],[3,0],[1]]","3","[[2,0,0],[3,0],[1]]","14","0","","","","","","3","","","","",""
"","","","","","poldrack-single-stim","341","1514373","0.0-3.0-54.0","5e3e01d5194a5607f3335fa3","F1","batch6","tol_feedback","-1","","","","","true","","","","","1000","1000","500","","","","","","-1","none","true","2666","3851","","","","","",""
"","","","","","html-button-response","342","1515077","0.0-3.0-55.0","5e3e01d5194a5607f3335fa3","F1","batch6","tol_trial_num","702","<div class = centerbox><p class = center-block-text>problem <strong>16</strong> out of 25 problems</p></div>","0","","","","","","","","","","","","","","","","","","","","","","","","","",""
"","","","","","single-stim-button","343","1519671","0.0-3.0-56.0-0.0","5e3e01d5194a5607f3335fa3","F1","batch6","tol_tohand","4594","","","","","","","","","tol_peg_3","4594","4594","0","[[0,0,0],[2,3],[0]]","1","[[2,3,0],[1,0],[0]]","15","0","","","","","","7","","","","",""
"","","","","","single-stim-button","344","1520263","0.0-3.0-56.0-1.0","5e3e01d5194a5607f3335fa3","F1","batch6","tol_toboard","590","","","","","","","","","tol_peg_1","590","590","0","[[1,0,0],[2,3],[0]]","1","[[2,3,0],[1,0],[0]]","15","0","","","","","","7","","","","",""
"","","","","","single-stim-button","345","1520784","0.0-3.0-56.1-0.1","5e3e01d5194a5607f3335fa3","F1","batch6","tol_tohand","520","","","","","","","","","tol_peg_2","520","520","0","[[1,0,0],[2,0],[0]]","2","[[2,3,0],[1,0],[0]]","15","0","","","","","","7","","","","",""
"","","","","","single-stim-button","346","1521320","0.0-3.0-56.1-1.1","5e3e01d5194a5607f3335fa3","F1","batch6","tol_toboard","535","","","","","","","","","tol_peg_3","535","535","0","[[1,0,0],[2,0],[3]]","2","[[2,3,0],[1,0],[0]]","15","0","","","","","","7","","","","",""
"","","","","","single-stim-button","347","1526286","0.0-3.0-56.2-0.2","5e3e01d5194a5607f3335fa3","F1","batch6","tol_tohand","4966","","","","","","","","","tol_peg_3","4966","4966","0","[[1,0,0],[2,0],[0]]","3","[[2,3,0],[1,0],[0]]","15","0","","","","","","7","","","","",""
"","","","","","single-stim-button","348","1526847","0.0-3.0-56.2-1.2","5e3e01d5194a5607f3335fa3","F1","batch6","tol_toboard","561","","","","","","","","","tol_peg_1","561","561","0","[[1,3,0],[2,0],[0]]","3","[[2,3,0],[1,0],[0]]","15","0","","","","","","7","","","","",""
"","","","","","single-stim-button","349","1527951","0.0-3.0-56.3-0.3","5e3e01d5194a5607f3335fa3","F1","batch6","tol_tohand","1104","","","","","","","","","tol_peg_2","1104","1104","0","[[1,3,0],[0,0],[0]]","4","[[2,3,0],[1,0],[0]]","15","0","","","","","","7","","","","",""
"","","","","","single-stim-button","350","1528495","0.0-3.0-56.3-1.3","5e3e01d5194a5607f3335fa3","F1","batch6","tol_toboard","543","","","","","","","","","tol_peg_3","543","543","0","[[1,3,0],[0,0],[2]]","4","[[2,3,0],[1,0],[0]]","15","0","","","","","","7","","","","",""
"","","","","","single-stim-button","351","1529342","0.0-3.0-56.4-0.4","5e3e01d5194a5607f3335fa3","F1","batch6","tol_tohand","846","","","","","","","","","tol_peg_1","846","846","0","[[1,0,0],[0,0],[2]]","5","[[2,3,0],[1,0],[0]]","15","0","","","","","","7","","","","",""
"","","","","","single-stim-button","352","1530597","0.0-3.0-56.4-1.4","5e3e01d5194a5607f3335fa3","F1","batch6","tol_toboard","1255","","","","","","","","","tol_peg_2","1255","1255","0","[[1,0,0],[3,0],[2]]","5","[[2,3,0],[1,0],[0]]","15","0","","","","","","7","","","","",""
"","","","","","single-stim-button","353","1531919","0.0-3.0-56.5-0.5","5e3e01d5194a5607f3335fa3","F1","batch6","tol_tohand","1321","","","","","","","","","tol_peg_1","1321","1321","0","[[0,0,0],[3,0],[2]]","6","[[2,3,0],[1,0],[0]]","15","0","","","","","","7","","","","",""
"","","","","","single-stim-button","354","1532463","0.0-3.0-56.5-1.5","5e3e01d5194a5607f3335fa3","F1","batch6","tol_toboard","544","","","","","","","","","tol_peg_2","544","544","0","[[0,0,0],[3,1],[2]]","6","[[2,3,0],[1,0],[0]]","15","0","","","","","","7","","","","",""
"","","","","","single-stim-button","355","1533007","0.0-3.0-56.6-0.6","5e3e01d5194a5607f3335fa3","F1","batch6","tol_tohand","544","","","","","","","","","tol_peg_3","544","544","0","[[0,0,0],[3,1],[0]]","7","[[2,3,0],[1,0],[0]]","15","0","","","","","","7","","","","",""
"","","","","","single-stim-button","356","1533512","0.0-3.0-56.6-1.6","5e3e01d5194a5607f3335fa3","F1","batch6","tol_toboard","503","","","","","","","","","tol_peg_1","503","503","0","[[2,0,0],[3,1],[0]]","7","[[2,3,0],[1,0],[0]]","15","0","","","","","","7","","","","",""
"","","","","","single-stim-button","357","1534189","0.0-3.0-56.7-0.7","5e3e01d5194a5607f3335fa3","F1","batch6","tol_tohand","677","","","","","","","","","tol_peg_2","677","677","0","[[2,0,0],[3,0],[0]]","8","[[2,3,0],[1,0],[0]]","15","0","","","","","","7","","","","",""
"","","","","","single-stim-button","358","1534677","0.0-3.0-56.7-1.7","5e3e01d5194a5607f3335fa3","F1","batch6","tol_toboard","488","","","","","","","","","tol_peg_3","488","488","0","[[2,0,0],[3,0],[1]]","8","[[2,3,0],[1,0],[0]]","15","0","","","","","","7","","","","",""
"","","","","","single-stim-button","359","1535303","0.0-3.0-56.8-0.8","5e3e01d5194a5607f3335fa3","F1","batch6","tol_tohand","625","","","","","","","","","tol_peg_2","625","625","0","[[2,0,0],[0,0],[1]]","9","[[2,3,0],[1,0],[0]]","15","0","","","","","","7","","","","",""
"","","","","","single-stim-button","360","1535846","0.0-3.0-56.8-1.8","5e3e01d5194a5607f3335fa3","F1","batch6","tol_toboard","543","","","","","","","","","tol_peg_1","543","543","0","[[2,3,0],[0,0],[1]]","9","[[2,3,0],[1,0],[0]]","15","0","","","","","","7","","","","",""
