"success","timeout","failed_images","failed_audio","failed_video","trial_type","trial_index","time_elapsed","internal_node_id","subject_id","study_id","session_id","view_history","rt","stimulus","response","task","correct","answer","item","fiar_detect_rt","fiar_detect_correct","total_correct_fiar_detect","post_trial_gap","choices","spm_correct","spm_rt","mouse_click","stim_duration","block_duration","timing_post_trial","current_position","tol_num_moves_made","tol_target","tol_problem_id","tol_rt","key_press","possible_responses","tol_correct","preplanning","tol_rt_per_trial","tol_min_moves"
"true","false","[]","[]","[]","preload","0","37814","0.0-0.0","5e4465013f75e52fc82f7096","C3","batch3","","","","","","","","","","","","","","","","","","","","","","","","","","","","","",""
"true","","","","","fullscreen","1","49324","0.0-1.0-0.0","5e4465013f75e52fc82f7096","C3","batch3","","","","","","","","","","","","","","","","","","","","","","","","","","","","","",""
"true","","","","","fullscreen","2","53700","0.0-2.0-0.0","5e4465013f75e52fc82f7096","C3","batch3","","","","","","","","","","","","","","","","","","","","","","","","","","","","","",""
"","","","","","instructions","3","72979","0.0-2.0-1.0-0.0","5e4465013f75e52fc82f7096","C3","batch3","[{""page_index"":0,""viewing_time"":10643.699999988079},{""page_index"":1,""viewing_time"":8634.899999976158}]","19278.799999952316","","","","","","","","","","","","","","","","","","","","","","","","","","","",""
"","","","","","html-button-response","4","83209","0.0-2.0-1.0-1.0-0.0","5e4465013f75e52fc82f7096","C3","batch3","","10228.699999988079","<p class=block-text> Let's answer a few questions <br>","0","pattern_enter_quiz","","","","","","","","","","","","","","","","","","","","","","","","",""
"","","","","","html-button-response","5","86749","0.0-2.0-1.0-1.0-1.0","5e4465013f75e52fc82f7096","C3","batch3","","3539","<p class = block-text>True or False: You will have as much time as you want to make each choice. <br></p>","1","pattern_quiz","true","","","","","","","","","","","","","","","","","","","","","","","",""
"","","","","","html-button-response","6","88221","0.0-2.0-1.0-1.0-2.0","5e4465013f75e52fc82f7096","C3","batch3","","1471.5999999642372","<p class = block-text>Correct! You should make your choice <strong> as fast as you can</strong>.</p>","0","pattern_quiz_feedback","","","","","","","","","","","","","","","","","","","","","","","","",""
"","","","","","html-button-response","7","93377","0.0-2.0-1.0-1.0-3.0","5e4465013f75e52fc82f7096","C3","batch3","","5156.199999988079","<p class = block-text>True or False: You will look for 4 pieces in black or white color connected in a row either horizontally, vertically or diagonally. <br></p>","0","pattern_quiz","true","","","","","","","","","","","","","","","","","","","","","","","",""
"","","","","","html-button-response","8","94826","0.0-2.0-1.0-1.0-4.0","5e4465013f75e52fc82f7096","C3","batch3","","1447.2000000476837","<p class = block-text>Correct! </p>","0","pattern_quiz_feedback","","","","","","","","","","","","","","","","","","","","","","","","",""
"","","","","","html-button-response","9","96796","0.0-2.0-2.0","5e4465013f75e52fc82f7096","C3","batch3","","1969.1000000238419","<p class=block-text> Now that you've understood the game, let's do a few practice trials before we start!<br> <br>","0","pattern_enter_practice","","","","","","","","","","","","","","","","","","","","","","","","",""
"","","","","","image-keyboard-response","10","101386","0.0-2.0-3.0-0.0","5e4465013f75e52fc82f7096","C3","batch3","","4589.300000011921","stim/prac_no_18_1.png","j","pattern_practice","true","j","","","","","","","","","","","","","","","","","","","","","","",""
"","","","","","html-keyboard-response","11","102393","0.0-2.0-3.0-1.0","5e4465013f75e52fc82f7096","C3","batch3","","null","<p style=""font-size:30px;color:green;"">Correct!</p>","null","pattern_feedback","","","","","","","","","","","","","","","","","","","","","","","","",""
"","","","","","image-keyboard-response","12","103740","0.0-2.0-3.0-0.1","5e4465013f75e52fc82f7096","C3","batch3","","1346.800000011921","stim/prac_no_16_1.png","j","pattern_practice","true","j","","","","","","","","","","","","","","","","","","","","","","",""
"","","","","","html-keyboard-response","13","104748","0.0-2.0-3.0-1.1","5e4465013f75e52fc82f7096","C3","batch3","","null","<p style=""font-size:30px;color:green;"">Correct!</p>","null","pattern_feedback","","","","","","","","","","","","","","","","","","","","","","","","",""
"","","","","","image-keyboard-response","14","105512","0.0-2.0-3.0-0.2","5e4465013f75e52fc82f7096","C3","batch3","","763.7000000476837","stim/prac_yes_16_ver_w1.png","f","pattern_practice","true","f","","","","","","","","","","","","","","","","","","","","","","",""
"","","","","","html-keyboard-response","15","106517","0.0-2.0-3.0-1.2","5e4465013f75e52fc82f7096","C3","batch3","","null","<p style=""font-size:30px;color:green;"">Correct!</p>","null","pattern_feedback","","","","","","","","","","","","","","","","","","","","","","","","",""
"","","","","","image-keyboard-response","16","107378","0.0-2.0-3.0-0.3","5e4465013f75e52fc82f7096","C3","batch3","","859.8999999761581","stim/prac_yes_18_hor_w1.png","f","pattern_practice","true","f","","","","","","","","","","","","","","","","","","","","","","",""
"","","","","","html-keyboard-response","17","108380","0.0-2.0-3.0-1.3","5e4465013f75e52fc82f7096","C3","batch3","","null","<p style=""font-size:30px;color:green;"">Correct!</p>","null","pattern_feedback","","","","","","","","","","","","","","","","","","","","","","","","",""
"","","","","","image-keyboard-response","18","109317","0.0-2.0-3.0-0.4","5e4465013f75e52fc82f7096","C3","batch3","","935.8000000119209","stim/prac_yes_20_dia_b1.png","f","pattern_practice","true","f","","","","","","","","","","","","","","","","","","","","","","",""
"","","","","","html-keyboard-response","19","110325","0.0-2.0-3.0-1.4","5e4465013f75e52fc82f7096","C3","batch3","","null","<p style=""font-size:30px;color:green;"">Correct!</p>","null","pattern_feedback","","","","","","","","","","","","","","","","","","","","","","","","",""
"","","","","","html-button-response","20","115078","0.0-2.0-4.0","5e4465013f75e52fc82f7096","C3","batch3","","4752.199999988079","<p class=block-text> Good job! You are done with practice trials!<br>
        You responded correctly on 100% of the trials.<br>
        Press the button below to start official trials. Now you won't see any feedback about your response</p>","0","pattern_enter_official_trials","","","","","","","","","","","","","","","","","","","","","","","","",""
"","","","","","html-keyboard-response","21","115881","0.0-2.0-5.0-0.0","5e4465013f75e52fc82f7096","C3","batch3","","null","<p class=block-text>Trial 1 out of 78</p>","null","pattern_show_trial_num","","","","","","","","","","","","","","","","","","","","","","","","",""
"","","","","","image-keyboard-response","22","116813","0.0-2.0-5.0-1.0","5e4465013f75e52fc82f7096","C3","batch3","","930.9000000357628","stim/no_58_1_w.png","j","pattern_response","true","j","pattern_35","930.9000000357628","true","1","","","","","","","","","","","","","","","","","","",""
"","","","","","html-keyboard-response","23","118120","0.0-2.0-5.0-0.1","5e4465013f75e52fc82f7096","C3","batch3","","null","<p class=block-text>Trial 2 out of 78</p>","null","pattern_show_trial_num","","","","","","","","","","","","","","","","","","","","","","","","",""
"","","","","","image-keyboard-response","24","119062","0.0-2.0-5.0-1.1","5e4465013f75e52fc82f7096","C3","batch3","","940.8000000119209","stim/yes_33_dia_w1_w.png","j","pattern_response","false","f","pattern_56","940.8000000119209","false","1","","","","","","","","","","","","","","","","","","",""
"","","","","","html-keyboard-response","25","120368","0.0-2.0-5.0-0.2","5e4465013f75e52fc82f7096","C3","batch3","","null","<p class=block-text>Trial 3 out of 78</p>","null","pattern_show_trial_num","","","","","","","","","","","","","","","","","","","","","","","","",""
"","","","","","image-keyboard-response","26","121568","0.0-2.0-5.0-1.2","5e4465013f75e52fc82f7096","C3","batch3","","1199.199999988079","stim/no_53_1_b.png","f","pattern_response","false","j","pattern_33","1199.199999988079","false","1","","","","","","","","","","","","","","","","","","",""
"","","","","","html-keyboard-response","27","122876","0.0-2.0-5.0-0.3","5e4465013f75e52fc82f7096","C3","batch3","","null","<p class=block-text>Trial 4 out of 78</p>","null","pattern_show_trial_num","","","","","","","","","","","","","","","","","","","","","","","","",""
"","","","","","image-keyboard-response","28","123810","0.0-2.0-5.0-1.3","5e4465013f75e52fc82f7096","C3","batch3","","933.6000000238419","stim/no_22_1_b.png","j","pattern_response","true","j","pattern_07","933.6000000238419","true","2","","","","","","","","","","","","","","","","","","",""
"","","","","","html-keyboard-response","29","125113","0.0-2.0-5.0-0.4","5e4465013f75e52fc82f7096","C3","batch3","","null","<p class=block-text>Trial 5 out of 78</p>","null","pattern_show_trial_num","","","","","","","","","","","","","","","","","","","","","","","","",""
"","","","","","image-keyboard-response","30","126284","0.0-2.0-5.0-1.4","5e4465013f75e52fc82f7096","C3","batch3","","1170.3999999761581","stim/yes_26_dia_w2_w.png","f","pattern_response","true","f","pattern_50","1170.3999999761581","true","3","","","","","","","","","","","","","","","","","","",""
"","","","","","html-keyboard-response","31","127589","0.0-2.0-5.0-0.5","5e4465013f75e52fc82f7096","C3","batch3","","null","<p class=block-text>Trial 6 out of 78</p>","null","pattern_show_trial_num","","","","","","","","","","","","","","","","","","","","","","","","",""
"","","","","","image-keyboard-response","32","128472","0.0-2.0-5.0-1.5","5e4465013f75e52fc82f7096","C3","batch3","","882.5","stim/no_51_1.png","f","pattern_response","false","j","pattern_31","882.5","false","3","","","","","","","","","","","","","","","","","","",""
"","","","","","html-keyboard-response","33","129777","0.0-2.0-5.0-0.6","5e4465013f75e52fc82f7096","C3","batch3","","null","<p class=block-text>Trial 7 out of 78</p>","null","pattern_show_trial_num","","","","","","","","","","","","","","","","","","","","","","","","",""
"","","","","","image-keyboard-response","34","130807","0.0-2.0-5.0-1.6","5e4465013f75e52fc82f7096","C3","batch3","","1029.800000011921","stim/no_45_1_w.png","f","pattern_response","false","j","pattern_25","1029.800000011921","false","3","","","","","","","","","","","","","","","","","","",""
"","","","","","html-keyboard-response","35","132112","0.0-2.0-5.0-0.7","5e4465013f75e52fc82f7096","C3","batch3","","null","<p class=block-text>Trial 8 out of 78</p>","null","pattern_show_trial_num","","","","","","","","","","","","","","","","","","","","","","","","",""
"","","","","","image-keyboard-response","36","133269","0.0-2.0-5.0-1.7","5e4465013f75e52fc82f7096","C3","batch3","","1156.199999988079","stim/no_25_1_b.png","j","pattern_response","true","j","pattern_09","1156.199999988079","true","4","","","","","","","","","","","","","","","","","","",""
"","","","","","html-keyboard-response","37","134576","0.0-2.0-5.0-0.8","5e4465013f75e52fc82f7096","C3","batch3","","null","<p class=block-text>Trial 9 out of 78</p>","null","pattern_show_trial_num","","","","","","","","","","","","","","","","","","","","","","","","",""
"","","","","","image-keyboard-response","38","135690","0.0-2.0-5.0-1.8","5e4465013f75e52fc82f7096","C3","batch3","","1112.7999999523163","stim/yes_30_ver_b1_b.png","f","pattern_response","true","f","pattern_54","1112.7999999523163","true","5","","","","","","","","","","","","","","","","","","",""
"","","","","","html-keyboard-response","39","136996","0.0-2.0-5.0-0.9","5e4465013f75e52fc82f7096","C3","batch3","","null","<p class=block-text>Trial 10 out of 78</p>","null","pattern_show_trial_num","","","","","","","","","","","","","","","","","","","","","","","","",""
"","","","","","image-keyboard-response","40","137709","0.0-2.0-5.0-1.9","5e4465013f75e52fc82f7096","C3","batch3","","712.3000000119209","stim/yes_37_hor_w1_w.png","f","pattern_response","true","f","pattern_60","712.3000000119209","true","6","","","","","","","","","","","","","","","","","","",""
"","","","","","html-keyboard-response","41","139016","0.0-2.0-5.0-0.10","5e4465013f75e52fc82f7096","C3","batch3","","null","<p class=block-text>Trial 11 out of 78</p>","null","pattern_show_trial_num","","","","","","","","","","","","","","","","","","","","","","","","",""
"","","","","","image-keyboard-response","42","139537","0.0-2.0-5.0-1.10","5e4465013f75e52fc82f7096","C3","batch3","","520.3999999761581","stim/yes_12_hor_w1_w.png","f","pattern_response","true","f","pattern_42","520.3999999761581","true","7","","","","","","","","","","","","","","","","","","",""
"","","","","","html-keyboard-response","43","140844","0.0-2.0-5.0-0.11","5e4465013f75e52fc82f7096","C3","batch3","","null","<p class=block-text>Trial 12 out of 78</p>","null","pattern_show_trial_num","","","","","","","","","","","","","","","","","","","","","","","","",""
"","","","","","image-keyboard-response","44","141859","0.0-2.0-5.0-1.11","5e4465013f75e52fc82f7096","C3","batch3","","1014.2999999523163","stim/no_28_2.png","j","pattern_response","true","j","pattern_11","1014.2999999523163","true","8","","","","","","","","","","","","","","","","","","",""
"","","","","","html-keyboard-response","45","143164","0.0-2.0-5.0-0.12","5e4465013f75e52fc82f7096","C3","batch3","","null","<p class=block-text>Trial 13 out of 78</p>","null","pattern_show_trial_num","","","","","","","","","","","","","","","","","","","","","","","","",""
"","","","","","image-keyboard-response","46","144667","0.0-2.0-5.0-1.12","5e4465013f75e52fc82f7096","C3","batch3","","1502.2999999523163","stim/no_39_1_w.png","f","pattern_response","false","j","pattern_21","1502.2999999523163","false","8","","","","","","","","","","","","","","","","","","",""
"","","","","","html-keyboard-response","47","145969","0.0-2.0-5.0-0.13","5e4465013f75e52fc82f7096","C3","batch3","","null","<p class=block-text>Trial 14 out of 78</p>","null","pattern_show_trial_num","","","","","","","","","","","","","","","","","","","","","","","","",""
"","","","","","image-keyboard-response","48","147452","0.0-2.0-5.0-1.13","5e4465013f75e52fc82f7096","C3","batch3","","1482.300000011921","stim/no_47_1_b.png","j","pattern_response","true","j","pattern_27","1482.300000011921","true","9","","","","","","","","","","","","","","","","","","",""
"","","","","","html-keyboard-response","49","148757","0.0-2.0-5.0-0.14","5e4465013f75e52fc82f7096","C3","batch3","","null","<p class=block-text>Trial 15 out of 78</p>","null","pattern_show_trial_num","","","","","","","","","","","","","","","","","","","","","","","","",""
"","","","","","image-keyboard-response","50","150282","0.0-2.0-5.0-1.14","5e4465013f75e52fc82f7096","C3","batch3","","1525.300000011921","stim/yes_53_ver_b1_b.png","j","pattern_response","false","f","pattern_74","1525.300000011921","false","9","","","","","","","","","","","","","","","","","","",""
"","","","","","html-keyboard-response","51","151589","0.0-2.0-5.0-0.15","5e4465013f75e52fc82f7096","C3","batch3","","null","<p class=block-text>Trial 16 out of 78</p>","null","pattern_show_trial_num","","","","","","","","","","","","","","","","","","","","","","","","",""
"","","","","","image-keyboard-response","52","152787","0.0-2.0-5.0-1.15","5e4465013f75e52fc82f7096","C3","batch3","","1197.1000000238419","stim/no_33_1_b.png","j","pattern_response","true","j","pattern_15","1197.1000000238419","true","10","","","","","","","","","","","","","","","","","","",""
"","","","","","html-keyboard-response","53","154092","0.0-2.0-5.0-0.16","5e4465013f75e52fc82f7096","C3","batch3","","null","<p class=block-text>Trial 17 out of 78</p>","null","pattern_show_trial_num","","","","","","","","","","","","","","","","","","","","","","","","",""
"","","","","","image-keyboard-response","54","154863","0.0-2.0-5.0-1.16","5e4465013f75e52fc82f7096","C3","batch3","","770.1000000238419","stim/yes_15_dia_b1u_b.png","f","pattern_response","true","f","pattern_44","770.1000000238419","true","11","","","","","","","","","","","","","","","","","","",""
"","","","","","html-keyboard-response","55","156169","0.0-2.0-5.0-0.17","5e4465013f75e52fc82f7096","C3","batch3","","null","<p class=block-text>Trial 18 out of 78</p>","null","pattern_show_trial_num","","","","","","","","","","","","","","","","","","","","","","","","",""
"","","","","","image-keyboard-response","56","157249","0.0-2.0-5.0-1.17","5e4465013f75e52fc82f7096","C3","batch3","","1079.199999988079","stim/yes_58_dia_w1_w.png","f","pattern_response","true","f","pattern_76","1079.199999988079","true","12","","","","","","","","","","","","","","","","","","",""
"","","","","","html-keyboard-response","57","158552","0.0-2.0-5.0-0.18","5e4465013f75e52fc82f7096","C3","batch3","","null","<p class=block-text>Trial 19 out of 78</p>","null","pattern_show_trial_num","","","","","","","","","","","","","","","","","","","","","","","","",""
"","","","","","image-keyboard-response","58","160382","0.0-2.0-5.0-1.18","5e4465013f75e52fc82f7096","C3","batch3","","1828.9000000357628","stim/yes_70_ver_b1.png","f","pattern_response","true","f","pattern_80","1828.9000000357628","true","13","","","","","","","","","","","","","","","","","","",""
"","","","","","html-keyboard-response","59","161689","0.0-2.0-5.0-0.19","5e4465013f75e52fc82f7096","C3","batch3","","null","<p class=block-text>Trial 20 out of 78</p>","null","pattern_show_trial_num","","","","","","","","","","","","","","","","","","","","","","","","",""
"","","","","","image-keyboard-response","60","163740","0.0-2.0-5.0-1.19","5e4465013f75e52fc82f7096","C3","batch3","","2050","stim/no_49_2_b.png","j","pattern_response","true","j","pattern_29","2050","true","14","","","","","","","","","","","","","","","","","","",""
"","","","","","html-keyboard-response","61","165044","0.0-2.0-5.0-0.20","5e4465013f75e52fc82f7096","C3","batch3","","null","<p class=block-text>Trial 21 out of 78</p>","null","pattern_show_trial_num","","","","","","","","","","","","","","","","","","","","","","","","",""
"","","","","","image-keyboard-response","62","166582","0.0-2.0-5.0-1.20","5e4465013f75e52fc82f7096","C3","batch3","","1537.1000000238419","stim/yes_46_ver_b1_b.png","f","pattern_response","true","f","pattern_68","1537.1000000238419","true","15","","","","","","","","","","","","","","","","","","",""
"","","","","","html-keyboard-response","63","167885","0.0-2.0-5.0-0.21","5e4465013f75e52fc82f7096","C3","batch3","","null","<p class=block-text>Trial 22 out of 78</p>","null","pattern_show_trial_num","","","","","","","","","","","","","","","","","","","","","","","","",""
"","","","","","image-keyboard-response","64","169451","0.0-2.0-5.0-1.21","5e4465013f75e52fc82f7096","C3","batch3","","1565.5999999642372","stim/yes_42_dia_w1_w.png","j","pattern_response","false","f","pattern_64","1565.5999999642372","false","15","","","","","","","","","","","","","","","","","","",""
"","","","","","html-keyboard-response","65","170757","0.0-2.0-5.0-0.22","5e4465013f75e52fc82f7096","C3","batch3","","null","<p class=block-text>Trial 23 out of 78</p>","null","pattern_show_trial_num","","","","","","","","","","","","","","","","","","","","","","","","",""
"","","","","","image-keyboard-response","66","171855","0.0-2.0-5.0-1.22","5e4465013f75e52fc82f7096","C3","batch3","","1098.300000011921","stim/no_36_1_b.png","f","pattern_response","false","j","pattern_17","1098.300000011921","false","15","","","","","","","","","","","","","","","","","","",""
"","","","","","html-keyboard-response","67","173156","0.0-2.0-5.0-0.23","5e4465013f75e52fc82f7096","C3","batch3","","null","<p class=block-text>Trial 24 out of 78</p>","null","pattern_show_trial_num","","","","","","","","","","","","","","","","","","","","","","","","",""
"","","","","","image-keyboard-response","68","175031","0.0-2.0-5.0-1.23","5e4465013f75e52fc82f7096","C3","batch3","","1873.8999999761581","stim/no_67_1.png","j","pattern_response","true","j","pattern_39","1873.8999999761581","true","16","","","","","","","","","","","","","","","","","","",""
"","","","","","html-keyboard-response","69","176336","0.0-2.0-5.0-0.24","5e4465013f75e52fc82f7096","C3","batch3","","null","<p class=block-text>Trial 25 out of 78</p>","null","pattern_show_trial_num","","","","","","","","","","","","","","","","","","","","","","","","",""
"","","","","","image-keyboard-response","70","177832","0.0-2.0-5.0-1.24","5e4465013f75e52fc82f7096","C3","batch3","","1494.699999988079","stim/no_43_2_b.png","j","pattern_response","true","j","pattern_23","1494.699999988079","true","17","","","","","","","","","","","","","","","","","","",""
"","","","","","html-keyboard-response","71","179136","0.0-2.0-5.0-0.25","5e4465013f75e52fc82f7096","C3","batch3","","null","<p class=block-text>Trial 26 out of 78</p>","null","pattern_show_trial_num","","","","","","","","","","","","","","","","","","","","","","","","",""
"","","","","","image-keyboard-response","72","180170","0.0-2.0-5.0-1.25","5e4465013f75e52fc82f7096","C3","batch3","","1033","stim/yes_49_hor_w1_b.png","f","pattern_response","true","f","pattern_70","1033","true","18","","","","","","","","","","","","","","","","","","",""
"","","","","","html-keyboard-response","73","181476","0.0-2.0-5.0-0.26","5e4465013f75e52fc82f7096","C3","batch3","","null","<p class=block-text>Trial 27 out of 78</p>","null","pattern_show_trial_num","","","","","","","","","","","","","","","","","","","","","","","","",""
"","","","","","image-keyboard-response","74","182204","0.0-2.0-5.0-1.26","5e4465013f75e52fc82f7096","C3","batch3","","726.2999999523163","stim/yes_39_hor_w1_w.png","f","pattern_response","true","f","pattern_62","726.2999999523163","true","19","","","","","","","","","","","","","","","","","","",""
"","","","","","html-keyboard-response","75","183508","0.0-2.0-5.0-0.27","5e4465013f75e52fc82f7096","C3","batch3","","null","<p class=block-text>Trial 28 out of 78</p>","null","pattern_show_trial_num","","","","","","","","","","","","","","","","","","","","","","","","",""
"","","","","","image-keyboard-response","76","184742","0.0-2.0-5.0-1.27","5e4465013f75e52fc82f7096","C3","batch3","","1233","stim/no_37_2_w.png","j","pattern_response","true","j","pattern_19","1233","true","20","","","","","","","","","","","","","","","","","","",""
"","","","","","html-keyboard-response","77","186044","0.0-2.0-5.0-0.28","5e4465013f75e52fc82f7096","C3","batch3","","null","<p class=block-text>Trial 29 out of 78</p>","null","pattern_show_trial_num","","","","","","","","","","","","","","","","","","","","","","","","",""
"","","","","","image-keyboard-response","78","187414","0.0-2.0-5.0-1.28","5e4465013f75e52fc82f7096","C3","batch3","","1368.800000011921","stim/yes_51_dia_b1.png","f","pattern_response","true","f","pattern_72","1368.800000011921","true","21","","","","","","","","","","","","","","","","","","",""
"","","","","","html-keyboard-response","79","188717","0.0-2.0-5.0-0.29","5e4465013f75e52fc82f7096","C3","batch3","","null","<p class=block-text>Trial 30 out of 78</p>","null","pattern_show_trial_num","","","","","","","","","","","","","","","","","","","","","","","","",""
"","","","","","image-keyboard-response","80","189744","0.0-2.0-5.0-1.29","5e4465013f75e52fc82f7096","C3","batch3","","1026.7999999523163","stim/no_15_1_w.png","j","pattern_response","true","j","pattern_03","1026.7999999523163","true","22","","","","","","","","","","","","","","","","","","",""
"","","","","","html-keyboard-response","81","191048","0.0-2.0-5.0-0.30","5e4465013f75e52fc82f7096","C3","batch3","","null","<p class=block-text>Trial 31 out of 78</p>","null","pattern_show_trial_num","","","","","","","","","","","","","","","","","","","","","","","","",""
"","","","","","image-keyboard-response","82","197082","0.0-2.0-5.0-1.30","5e4465013f75e52fc82f7096","C3","batch3","","6033.399999976158","stim/no_12_1.png","j","pattern_response","true","j","pattern_01","6033.399999976158","true","23","","","","","","","","","","","","","","","","","","",""
"","","","","","html-keyboard-response","83","198388","0.0-2.0-5.0-0.31","5e4465013f75e52fc82f7096","C3","batch3","","null","<p class=block-text>Trial 32 out of 78</p>","null","pattern_show_trial_num","","","","","","","","","","","","","","","","","","","","","","","","",""
"","","","","","image-keyboard-response","84","199941","0.0-2.0-5.0-1.31","5e4465013f75e52fc82f7096","C3","batch3","","1551.9000000357628","stim/no_18_1_b.png","j","pattern_response","true","j","pattern_05","1551.9000000357628","true","24","","","","","","","","","","","","","","","","","","",""
"","","","","","html-keyboard-response","85","201248","0.0-2.0-5.0-0.32","5e4465013f75e52fc82f7096","C3","batch3","","null","<p class=block-text>Trial 33 out of 78</p>","null","pattern_show_trial_num","","","","","","","","","","","","","","","","","","","","","","","","",""
"","","","","","image-keyboard-response","86","202052","0.0-2.0-5.0-1.32","5e4465013f75e52fc82f7096","C3","batch3","","803.6999999880791","stim/yes_29_hor_b1_b.png","f","pattern_response","true","f","pattern_52","803.6999999880791","true","25","","","","","","","","","","","","","","","","","","",""
"","","","","","html-keyboard-response","87","203360","0.0-2.0-5.0-0.33","5e4465013f75e52fc82f7096","C3","batch3","","null","<p class=block-text>Trial 34 out of 78</p>","null","pattern_show_trial_num","","","","","","","","","","","","","","","","","","","","","","","","",""
"","","","","","image-keyboard-response","88","204675","0.0-2.0-5.0-1.33","5e4465013f75e52fc82f7096","C3","batch3","","1314.0999999642372","stim/yes_44_ver_w1_w.png","j","pattern_response","false","f","pattern_66","1314.0999999642372","false","25","","","","","","","","","","","","","","","","","","",""
"","","","","","html-keyboard-response","89","205980","0.0-2.0-5.0-0.34","5e4465013f75e52fc82f7096","C3","batch3","","null","<p class=block-text>Trial 35 out of 78</p>","null","pattern_show_trial_num","","","","","","","","","","","","","","","","","","","","","","","","",""
"","","","","","image-keyboard-response","90","206814","0.0-2.0-5.0-1.34","5e4465013f75e52fc82f7096","C3","batch3","","833.5","stim/yes_36_ver_w1_w.png","f","pattern_response","true","f","pattern_58","833.5","true","26","","","","","","","","","","","","","","","","","","",""
"","","","","","html-keyboard-response","91","208120","0.0-2.0-5.0-0.35","5e4465013f75e52fc82f7096","C3","batch3","","null","<p class=block-text>Trial 36 out of 78</p>","null","pattern_show_trial_num","","","","","","","","","","","","","","","","","","","","","","","","",""
"","","","","","image-keyboard-response","92","209310","0.0-2.0-5.0-1.35","5e4465013f75e52fc82f7096","C3","batch3","","1189.5","stim/no_30_1_b.png","f","pattern_response","false","j","pattern_13","1189.5","false","26","","","","","","","","","","","","","","","","","","",""
"","","","","","html-keyboard-response","93","210616","0.0-2.0-5.0-0.36","5e4465013f75e52fc82f7096","C3","batch3","","null","<p class=block-text>Trial 37 out of 78</p>","null","pattern_show_trial_num","","","","","","","","","","","","","","","","","","","","","","","","",""
"","","","","","image-keyboard-response","94","211587","0.0-2.0-5.0-1.36","5e4465013f75e52fc82f7096","C3","batch3","","970.6000000238419","stim/yes_23_ver_b1.png","f","pattern_response","true","f","pattern_48","970.6000000238419","true","27","","","","","","","","","","","","","","","","","","",""
"","","","","","html-keyboard-response","95","212893","0.0-2.0-5.0-0.37","5e4465013f75e52fc82f7096","C3","batch3","","null","<p class=block-text>Trial 38 out of 78</p>","null","pattern_show_trial_num","","","","","","","","","","","","","","","","","","","","","","","","",""
"","","","","","image-keyboard-response","96","213697","0.0-2.0-5.0-1.37","5e4465013f75e52fc82f7096","C3","batch3","","803.5","stim/yes_17_ver_b1_b.png","f","pattern_response","true","f","pattern_46","803.5","true","28","","","","","","","","","","","","","","","","","","",""
"","","","","","html-keyboard-response","97","215004","0.0-2.0-5.0-0.38","5e4465013f75e52fc82f7096","C3","batch3","","null","<p class=block-text>Trial 39 out of 78</p>","null","pattern_show_trial_num","","","","","","","","","","","","","","","","","","","","","","","","",""
"","","","","","image-keyboard-response","98","216886","0.0-2.0-5.0-1.38","5e4465013f75e52fc82f7096","C3","batch3","","1880.800000011921","stim/yes_63_dia_b1.png","f","pattern_response","true","f","pattern_78","1880.800000011921","true","29","","","","","","","","","","","","","","","","","","",""
"","","","","","image-keyboard-response","99","219233","0.0-2.0-6.0","5e4465013f75e52fc82f7096","C3","batch3","","1844.800000011921","stim/empty_board.png","j","attention_check","true","j","","","","","500","[""f"",""j""]","","","","","","","","","","","","","","","","",""
"","","","","","html-keyboard-response","100","220037","0.0-2.0-7.0-0.0","5e4465013f75e52fc82f7096","C3","batch3","","null","<p class=block-text>Trial 40 out of 78</p>","null","pattern_show_trial_num","","","","","","","","","","","","","","","","","","","","","","","","",""
"","","","","","image-keyboard-response","101","221639","0.0-2.0-7.0-1.0","5e4465013f75e52fc82f7096","C3","batch3","","1601.300000011921","stim/no_23_1.png","j","pattern_response","true","j","pattern_08","1601.300000011921","true","30","","","","","","","","","","","","","","","","","","",""
"","","","","","html-keyboard-response","102","222944","0.0-2.0-7.0-0.1","5e4465013f75e52fc82f7096","C3","batch3","","null","<p class=block-text>Trial 41 out of 78</p>","null","pattern_show_trial_num","","","","","","","","","","","","","","","","","","","","","","","","",""
"","","","","","image-keyboard-response","103","224735","0.0-2.0-7.0-1.1","5e4465013f75e52fc82f7096","C3","batch3","","1789.7000000476837","stim/no_36_2_w.png","f","pattern_response","false","j","pattern_18","1789.7000000476837","false","30","","","","","","","","","","","","","","","","","","",""
"","","","","","html-keyboard-response","104","226036","0.0-2.0-7.0-0.2","5e4465013f75e52fc82f7096","C3","batch3","","null","<p class=block-text>Trial 42 out of 78</p>","null","pattern_show_trial_num","","","","","","","","","","","","","","","","","","","","","","","","",""
"","","","","","image-keyboard-response","105","227538","0.0-2.0-7.0-1.2","5e4465013f75e52fc82f7096","C3","batch3","","1501","stim/no_52_1.png","j","pattern_response","true","j","pattern_32","1501","true","31","","","","","","","","","","","","","","","","","","",""
"","","","","","html-keyboard-response","106","228844","0.0-2.0-7.0-0.3","5e4465013f75e52fc82f7096","C3","batch3","","null","<p class=block-text>Trial 43 out of 78</p>","null","pattern_show_trial_num","","","","","","","","","","","","","","","","","","","","","","","","",""
"","","","","","image-keyboard-response","107","229958","0.0-2.0-7.0-1.3","5e4465013f75e52fc82f7096","C3","batch3","","1113.300000011921","stim/no_65_1_b.png","f","pattern_response","false","j","pattern_38","1113.300000011921","false","31","","","","","","","","","","","","","","","","","","",""
"","","","","","html-keyboard-response","108","231264","0.0-2.0-7.0-0.4","5e4465013f75e52fc82f7096","C3","batch3","","null","<p class=block-text>Trial 44 out of 78</p>","null","pattern_show_trial_num","","","","","","","","","","","","","","","","","","","","","","","","",""
"","","","","","image-keyboard-response","109","232615","0.0-2.0-7.0-1.4","5e4465013f75e52fc82f7096","C3","batch3","","1350.199999988079","stim/yes_50_dia_w1.png","j","pattern_response","false","f","pattern_71","1350.199999988079","false","31","","","","","","","","","","","","","","","","","","",""
"","","","","","html-keyboard-response","110","233920","0.0-2.0-7.0-0.5","5e4465013f75e52fc82f7096","C3","batch3","","null","<p class=block-text>Trial 45 out of 78</p>","null","pattern_show_trial_num","","","","","","","","","","","","","","","","","","","","","","","","",""
"","","","","","image-keyboard-response","111","235487","0.0-2.0-7.0-1.5","5e4465013f75e52fc82f7096","C3","batch3","","1565.699999988079","stim/yes_37_dia_w1.png","j","pattern_response","false","f","pattern_59","1565.699999988079","false","31","","","","","","","","","","","","","","","","","","",""
"","","","","","html-keyboard-response","112","236792","0.0-2.0-7.0-0.6","5e4465013f75e52fc82f7096","C3","batch3","","null","<p class=block-text>Trial 46 out of 78</p>","null","pattern_show_trial_num","","","","","","","","","","","","","","","","","","","","","","","","",""
"","","","","","image-keyboard-response","113","238448","0.0-2.0-7.0-1.6","5e4465013f75e52fc82f7096","C3","batch3","","1655.800000011921","stim/yes_31_hor_b1.png","f","pattern_response","true","f","pattern_55","1655.800000011921","true","32","","","","","","","","","","","","","","","","","","",""
"","","","","","html-keyboard-response","114","239752","0.0-2.0-7.0-0.7","5e4465013f75e52fc82f7096","C3","batch3","","null","<p class=block-text>Trial 47 out of 78</p>","null","pattern_show_trial_num","","","","","","","","","","","","","","","","","","","","","","","","",""
"","","","","","image-keyboard-response","115","240715","0.0-2.0-7.0-1.7","5e4465013f75e52fc82f7096","C3","batch3","","961.1999999880791","stim/yes_43_ver_w1_w.png","f","pattern_response","true","f","pattern_65","961.1999999880791","true","33","","","","","","","","","","","","","","","","","","",""
"","","","","","html-keyboard-response","116","242016","0.0-2.0-7.0-0.8","5e4465013f75e52fc82f7096","C3","batch3","","null","<p class=block-text>Trial 48 out of 78</p>","null","pattern_show_trial_num","","","","","","","","","","","","","","","","","","","","","","","","",""
"","","","","","image-keyboard-response","117","243921","0.0-2.0-7.0-1.8","5e4465013f75e52fc82f7096","C3","batch3","","1904","stim/no_70_2.png","j","pattern_response","true","j","pattern_40","1904","true","34","","","","","","","","","","","","","","","","","","",""
"","","","","","html-keyboard-response","118","245224","0.0-2.0-7.0-0.9","5e4465013f75e52fc82f7096","C3","batch3","","null","<p class=block-text>Trial 49 out of 78</p>","null","pattern_show_trial_num","","","","","","","","","","","","","","","","","","","","","","","","",""
"","","","","","image-keyboard-response","119","247171","0.0-2.0-7.0-1.9","5e4465013f75e52fc82f7096","C3","batch3","","1946.1000000238419","stim/yes_40_dia_b1_b.png","j","pattern_response","false","f","pattern_63","1946.1000000238419","false","34","","","","","","","","","","","","","","","","","","",""
"","","","","","html-keyboard-response","120","248477","0.0-2.0-7.0-0.10","5e4465013f75e52fc82f7096","C3","batch3","","null","<p class=block-text>Trial 50 out of 78</p>","null","pattern_show_trial_num","","","","","","","","","","","","","","","","","","","","","","","","",""
"","","","","","image-keyboard-response","121","249532","0.0-2.0-7.0-1.10","5e4465013f75e52fc82f7096","C3","batch3","","1054.699999988079","stim/yes_28_ver_b1.png","f","pattern_response","true","f","pattern_51","1054.699999988079","true","35","","","","","","","","","","","","","","","","","","",""
"","","","","","html-keyboard-response","122","250840","0.0-2.0-7.0-0.11","5e4465013f75e52fc82f7096","C3","batch3","","null","<p class=block-text>Trial 51 out of 78</p>","null","pattern_show_trial_num","","","","","","","","","","","","","","","","","","","","","","","","",""
"","","","","","image-keyboard-response","123","251938","0.0-2.0-7.0-1.11","5e4465013f75e52fc82f7096","C3","batch3","","1097.1000000238419","stim/no_20_1_w.png","j","pattern_response","true","j","pattern_06","1097.1000000238419","true","36","","","","","","","","","","","","","","","","","","",""
"","","","","","html-keyboard-response","124","253244","0.0-2.0-7.0-0.12","5e4465013f75e52fc82f7096","C3","batch3","","null","<p class=block-text>Trial 52 out of 78</p>","null","pattern_show_trial_num","","","","","","","","","","","","","","","","","","","","","","","","",""
"","","","","","image-keyboard-response","125","254114","0.0-2.0-7.0-1.12","5e4465013f75e52fc82f7096","C3","batch3","","869.3999999761581","stim/no_13_2_b.png","j","pattern_response","true","j","pattern_02","869.3999999761581","true","37","","","","","","","","","","","","","","","","","","",""
"","","","","","html-keyboard-response","126","255420","0.0-2.0-7.0-0.13","5e4465013f75e52fc82f7096","C3","batch3","","null","<p class=block-text>Trial 53 out of 78</p>","null","pattern_show_trial_num","","","","","","","","","","","","","","","","","","","","","","","","",""
"","","","","","image-keyboard-response","127","256687","0.0-2.0-7.0-1.13","5e4465013f75e52fc82f7096","C3","batch3","","1266.300000011921","stim/yes_45_hor_b2_b.png","f","pattern_response","true","f","pattern_67","1266.300000011921","true","38","","","","","","","","","","","","","","","","","","",""
"","","","","","html-keyboard-response","128","257988","0.0-2.0-7.0-0.14","5e4465013f75e52fc82f7096","C3","batch3","","null","<p class=block-text>Trial 54 out of 78</p>","null","pattern_show_trial_num","","","","","","","","","","","","","","","","","","","","","","","","",""
"","","","","","image-keyboard-response","129","259070","0.0-2.0-7.0-1.14","5e4465013f75e52fc82f7096","C3","batch3","","1081.5999999642372","stim/yes_67_hor_b1.png","f","pattern_response","true","f","pattern_79","1081.5999999642372","true","39","","","","","","","","","","","","","","","","","","",""
"","","","","","html-keyboard-response","130","260372","0.0-2.0-7.0-0.15","5e4465013f75e52fc82f7096","C3","batch3","","null","<p class=block-text>Trial 55 out of 78</p>","null","pattern_show_trial_num","","","","","","","","","","","","","","","","","","","","","","","","",""
"","","","","","image-keyboard-response","131","261751","0.0-2.0-7.0-1.15","5e4465013f75e52fc82f7096","C3","batch3","","1377.5","stim/yes_35_dia_b1.png","j","pattern_response","false","f","pattern_57","1377.5","false","39","","","","","","","","","","","","","","","","","","",""
"","","","","","html-keyboard-response","132","263052","0.0-2.0-7.0-0.16","5e4465013f75e52fc82f7096","C3","batch3","","null","<p class=block-text>Trial 56 out of 78</p>","null","pattern_show_trial_num","","","","","","","","","","","","","","","","","","","","","","","","",""
"","","","","","image-keyboard-response","133","264551","0.0-2.0-7.0-1.16","5e4465013f75e52fc82f7096","C3","batch3","","1498","stim/yes_38_hor_b1_b.png","f","pattern_response","true","f","pattern_61","1498","true","40","","","","","","","","","","","","","","","","","","",""
"","","","","","html-keyboard-response","134","265852","0.0-2.0-7.0-0.17","5e4465013f75e52fc82f7096","C3","batch3","","null","<p class=block-text>Trial 57 out of 78</p>","null","pattern_show_trial_num","","","","","","","","","","","","","","","","","","","","","","","","",""
"","","","","","image-keyboard-response","135","266527","0.0-2.0-7.0-1.17","5e4465013f75e52fc82f7096","C3","batch3","","674.3999999761581","stim/yes_14_hor_b1_w.png","f","pattern_response","true","f","pattern_43","674.3999999761581","true","41","","","","","","","","","","","","","","","","","","",""
"","","","","","html-keyboard-response","136","267832","0.0-2.0-7.0-0.18","5e4465013f75e52fc82f7096","C3","batch3","","null","<p class=block-text>Trial 58 out of 78</p>","null","pattern_show_trial_num","","","","","","","","","","","","","","","","","","","","","","","","",""
"","","","","","image-keyboard-response","137","268659","0.0-2.0-7.0-1.18","5e4465013f75e52fc82f7096","C3","batch3","","825.9000000357628","stim/yes_22_ver_w1.png","f","pattern_response","true","f","pattern_47","825.9000000357628","true","42","","","","","","","","","","","","","","","","","","",""
"","","","","","html-keyboard-response","138","269964","0.0-2.0-7.0-0.19","5e4465013f75e52fc82f7096","C3","batch3","","null","<p class=block-text>Trial 59 out of 78</p>","null","pattern_show_trial_num","","","","","","","","","","","","","","","","","","","","","","","","",""
"","","","","","image-keyboard-response","139","270783","0.0-2.0-7.0-1.19","5e4465013f75e52fc82f7096","C3","batch3","","817.4000000357628","stim/yes_25_hor_b1_b.png","f","pattern_response","true","f","pattern_49","817.4000000357628","true","43","","","","","","","","","","","","","","","","","","",""
"","","","","","html-keyboard-response","140","272088","0.0-2.0-7.0-0.20","5e4465013f75e52fc82f7096","C3","batch3","","null","<p class=block-text>Trial 60 out of 78</p>","null","pattern_show_trial_num","","","","","","","","","","","","","","","","","","","","","","","","",""
"","","","","","image-keyboard-response","141","273031","0.0-2.0-7.0-1.20","5e4465013f75e52fc82f7096","C3","batch3","","942.5","stim/yes_29_ver_w1.png","f","pattern_response","true","f","pattern_53","942.5","true","44","","","","","","","","","","","","","","","","","","",""
"","","","","","html-keyboard-response","142","274332","0.0-2.0-7.0-0.21","5e4465013f75e52fc82f7096","C3","batch3","","null","<p class=block-text>Trial 61 out of 78</p>","null","pattern_show_trial_num","","","","","","","","","","","","","","","","","","","","","","","","",""
"","","","","","image-keyboard-response","143","275069","0.0-2.0-7.0-1.21","5e4465013f75e52fc82f7096","C3","batch3","","736.1999999880791","stim/no_17_1_w.png","j","pattern_response","true","j","pattern_04","736.1999999880791","true","45","","","","","","","","","","","","","","","","","","",""
"","","","","","html-keyboard-response","144","276376","0.0-2.0-7.0-0.22","5e4465013f75e52fc82f7096","C3","batch3","","null","<p class=block-text>Trial 62 out of 78</p>","null","pattern_show_trial_num","","","","","","","","","","","","","","","","","","","","","","","","",""
"","","","","","image-keyboard-response","145","278668","0.0-2.0-7.0-1.22","5e4465013f75e52fc82f7096","C3","batch3","","2291.300000011921","stim/no_46_1_b.png","j","pattern_response","true","j","pattern_26","2291.300000011921","true","46","","","","","","","","","","","","","","","","","","",""
"","","","","","html-keyboard-response","146","279976","0.0-2.0-7.0-0.23","5e4465013f75e52fc82f7096","C3","batch3","","null","<p class=block-text>Trial 63 out of 78</p>","null","pattern_show_trial_num","","","","","","","","","","","","","","","","","","","","","","","","",""
"","","","","","image-keyboard-response","147","281948","0.0-2.0-7.0-1.23","5e4465013f75e52fc82f7096","C3","batch3","","1971.199999988079","stim/no_44_1.png","j","pattern_response","true","j","pattern_24","1971.199999988079","true","47","","","","","","","","","","","","","","","","","","",""
"","","","","","html-keyboard-response","148","283252","0.0-2.0-7.0-0.24","5e4465013f75e52fc82f7096","C3","batch3","","null","<p class=block-text>Trial 64 out of 78</p>","null","pattern_show_trial_num","","","","","","","","","","","","","","","","","","","","","","","","",""
"","","","","","image-keyboard-response","149","284929","0.0-2.0-7.0-1.24","5e4465013f75e52fc82f7096","C3","batch3","","1676.1000000238419","stim/no_42_1_w.png","j","pattern_response","true","j","pattern_22","1676.1000000238419","true","48","","","","","","","","","","","","","","","","","","",""
"","","","","","html-keyboard-response","150","286236","0.0-2.0-7.0-0.25","5e4465013f75e52fc82f7096","C3","batch3","","null","<p class=block-text>Trial 65 out of 78</p>","null","pattern_show_trial_num","","","","","","","","","","","","","","","","","","","","","","","","",""
"","","","","","image-keyboard-response","151","287687","0.0-2.0-7.0-1.25","5e4465013f75e52fc82f7096","C3","batch3","","1449.8999999761581","stim/no_32_1_w.png","j","pattern_response","true","j","pattern_14","1449.8999999761581","true","49","","","","","","","","","","","","","","","","","","",""
"","","","","","html-keyboard-response","152","288988","0.0-2.0-7.0-0.26","5e4465013f75e52fc82f7096","C3","batch3","","null","<p class=block-text>Trial 66 out of 78</p>","null","pattern_show_trial_num","","","","","","","","","","","","","","","","","","","","","","","","",""
"","","","","","image-keyboard-response","153","291036","0.0-2.0-7.0-1.26","5e4465013f75e52fc82f7096","C3","batch3","","2046.7000000476837","stim/no_62_1_w.png","j","pattern_response","true","j","pattern_36","2046.7000000476837","true","50","","","","","","","","","","","","","","","","","","",""
"","","","","","html-keyboard-response","154","292340","0.0-2.0-7.0-0.27","5e4465013f75e52fc82f7096","C3","batch3","","null","<p class=block-text>Trial 67 out of 78</p>","null","pattern_show_trial_num","","","","","","","","","","","","","","","","","","","","","","","","",""
"","","","","","image-keyboard-response","155","293917","0.0-2.0-7.0-1.27","5e4465013f75e52fc82f7096","C3","batch3","","1576.5","stim/no_55_1_w.png","j","pattern_response","true","j","pattern_34","1576.5","true","51","","","","","","","","","","","","","","","","","","",""
"","","","","","html-keyboard-response","156","295219","0.0-2.0-7.0-0.28","5e4465013f75e52fc82f7096","C3","batch3","","null","<p class=block-text>Trial 68 out of 78</p>","null","pattern_show_trial_num","","","","","","","","","","","","","","","","","","","","","","","","",""
"","","","","","image-keyboard-response","157","296701","0.0-2.0-7.0-1.28","5e4465013f75e52fc82f7096","C3","batch3","","1480.5","stim/yes_48_dia_w1_w.png","j","pattern_response","false","f","pattern_69","1480.5","false","51","","","","","","","","","","","","","","","","","","",""
"","","","","","html-keyboard-response","158","298004","0.0-2.0-7.0-0.29","5e4465013f75e52fc82f7096","C3","batch3","","null","<p class=block-text>Trial 69 out of 78</p>","null","pattern_show_trial_num","","","","","","","","","","","","","","","","","","","","","","","","",""
"","","","","","image-keyboard-response","159","299958","0.0-2.0-7.0-1.29","5e4465013f75e52fc82f7096","C3","batch3","","1953.4000000357628","stim/no_34_1_b.png","j","pattern_response","true","j","pattern_16","1953.4000000357628","true","52","","","","","","","","","","","","","","","","","","",""
"","","","","","html-keyboard-response","160","301260","0.0-2.0-7.0-0.30","5e4465013f75e52fc82f7096","C3","batch3","","null","<p class=block-text>Trial 70 out of 78</p>","null","pattern_show_trial_num","","","","","","","","","","","","","","","","","","","","","","","","",""
"","","","","","image-keyboard-response","161","302573","0.0-2.0-7.0-1.30","5e4465013f75e52fc82f7096","C3","batch3","","1312.8999999761581","stim/no_26_1_w.png","j","pattern_response","true","j","pattern_10","1312.8999999761581","true","53","","","","","","","","","","","","","","","","","","",""
"","","","","","html-keyboard-response","162","303879","0.0-2.0-7.0-0.31","5e4465013f75e52fc82f7096","C3","batch3","","null","<p class=block-text>Trial 71 out of 78</p>","null","pattern_show_trial_num","","","","","","","","","","","","","","","","","","","","","","","","",""
"","","","","","image-keyboard-response","163","305082","0.0-2.0-7.0-1.31","5e4465013f75e52fc82f7096","C3","batch3","","1201.300000011921","stim/yes_55_hor_w1_w.png","f","pattern_response","true","f","pattern_75","1201.300000011921","true","54","","","","","","","","","","","","","","","","","","",""
"","","","","","html-keyboard-response","164","306387","0.0-2.0-7.0-0.32","5e4465013f75e52fc82f7096","C3","batch3","","null","<p class=block-text>Trial 72 out of 78</p>","null","pattern_show_trial_num","","","","","","","","","","","","","","","","","","","","","","","","",""
"","","","","","image-keyboard-response","165","307122","0.0-2.0-7.0-1.32","5e4465013f75e52fc82f7096","C3","batch3","","733.9000000357628","stim/yes_17_dia_w1.png","f","pattern_response","true","f","pattern_45","733.9000000357628","true","55","","","","","","","","","","","","","","","","","","",""
"","","","","","html-keyboard-response","166","308427","0.0-2.0-7.0-0.33","5e4465013f75e52fc82f7096","C3","batch3","","null","<p class=block-text>Trial 73 out of 78</p>","null","pattern_show_trial_num","","","","","","","","","","","","","","","","","","","","","","","","",""
"","","","","","image-keyboard-response","167","309924","0.0-2.0-7.0-1.33","5e4465013f75e52fc82f7096","C3","batch3","","1496.3999999761581","stim/no_50_1.png","j","pattern_response","true","j","pattern_30","1496.3999999761581","true","56","","","","","","","","","","","","","","","","","","",""
"","","","","","html-keyboard-response","168","311232","0.0-2.0-7.0-0.34","5e4465013f75e52fc82f7096","C3","batch3","","null","<p class=block-text>Trial 74 out of 78</p>","null","pattern_show_trial_num","","","","","","","","","","","","","","","","","","","","","","","","",""
"","","","","","image-keyboard-response","169","313456","0.0-2.0-7.0-1.34","5e4465013f75e52fc82f7096","C3","batch3","","2223.300000011921","stim/yes_52_ver_w1.png","j","pattern_response","false","f","pattern_73","2223.300000011921","false","56","","","","","","","","","","","","","","","","","","",""
"","","","","","html-keyboard-response","170","314760","0.0-2.0-7.0-0.35","5e4465013f75e52fc82f7096","C3","batch3","","null","<p class=block-text>Trial 75 out of 78</p>","null","pattern_show_trial_num","","","","","","","","","","","","","","","","","","","","","","","","",""
"","","","","","image-keyboard-response","171","315807","0.0-2.0-7.0-1.35","5e4465013f75e52fc82f7096","C3","batch3","","1046.199999988079","stim/no_29_1_b.png","j","pattern_response","true","j","pattern_12","1046.199999988079","true","57","","","","","","","","","","","","","","","","","","",""
"","","","","","html-keyboard-response","172","317108","0.0-2.0-7.0-0.36","5e4465013f75e52fc82f7096","C3","batch3","","null","<p class=block-text>Trial 76 out of 78</p>","null","pattern_show_trial_num","","","","","","","","","","","","","","","","","","","","","","","","",""
"","","","","","image-keyboard-response","173","318930","0.0-2.0-7.0-1.36","5e4465013f75e52fc82f7096","C3","batch3","","1821.800000011921","stim/no_48_1_w.png","j","pattern_response","true","j","pattern_28","1821.800000011921","true","58","","","","","","","","","","","","","","","","","","",""
"","","","","","html-keyboard-response","174","320235","0.0-2.0-7.0-0.37","5e4465013f75e52fc82f7096","C3","batch3","","null","<p class=block-text>Trial 77 out of 78</p>","null","pattern_show_trial_num","","","","","","","","","","","","","","","","","","","","","","","","",""
"","","","","","image-keyboard-response","175","322119","0.0-2.0-7.0-1.37","5e4465013f75e52fc82f7096","C3","batch3","","1883.0999999642372","stim/yes_60_ver_b1_b.png","j","pattern_response","false","f","pattern_77","1883.0999999642372","false","58","","","","","","","","","","","","","","","","","","",""
"","","","","","html-keyboard-response","176","323423","0.0-2.0-7.0-0.38","5e4465013f75e52fc82f7096","C3","batch3","","null","<p class=block-text>Trial 78 out of 78</p>","null","pattern_show_trial_num","","","","","","","","","","","","","","","","","","","","","","","","",""
"","","","","","image-keyboard-response","177","324664","0.0-2.0-7.0-1.38","5e4465013f75e52fc82f7096","C3","batch3","","1239.699999988079","stim/no_38_1_b.png","j","pattern_response","true","j","pattern_20","1239.699999988079","true","59","","","","","","","","","","","","","","","","","","",""
"","","","","","html-button-response","178","330081","0.0-2.0-8.0","5e4465013f75e52fc82f7096","C3","batch3","","4912.600000023842","<p class = block-text>This concludes the 4-in-a-row detection game.Thank you for your responses!<br>
            You responded correctly on 76% of the trials.<br>
            When you are ready, press ""Continue"" button to continue </p>","0","","","","","","","","","","","","","","","","","","","","","","","","","",""
"true","","","","","fullscreen","179","335164","0.0-3.0-0.0","5e4465013f75e52fc82f7096","C3","batch3","","","","","spm_fullscreen","","","","","","","","","","","","","","","","","","","","","","","","",""
"","","","","","html-button-response","180","347373","0.0-3.0-1.0","5e4465013f75e52fc82f7096","C3","batch3","","12208.600000023842","<p class = block-text><b>Instructions</b> <br>This is a widely used intelligence test in research. <br>In this test, a figure with a missing piece will be presented.<br>Below the figure are alternative pieces to complete the figure, only one of which is correct.<br> Different figures might involve different principles for obtaining the missing piece<br>Your job is to select the most logical piece to complete the figure.</p>","0","","","","","","","","","","","","","","","","","","","","","","","","","",""
"","","","","","html-keyboard-response","181","348175","0.0-3.0-2.0-0.0","5e4465013f75e52fc82f7096","C3","batch3","","null","<p class=block-text>Trial 1 out of 60</p>","null","spm_show_trial_num","","","","","","","","","","","","","","","","","","","","","","","","",""
"","","","","","image-button-response","182","360882","0.0-3.0-2.0-1.0","5e4465013f75e52fc82f7096","C3","batch3","","12703.699999988079","img/question_1_1.jpeg","3","spm_respsonse","1","4","mat_01","","","","","","1","12703.699999988079","","","","","","","","","","","","","","",""
"","","","","","html-keyboard-response","183","361936","0.0-3.0-2.0-0.1","5e4465013f75e52fc82f7096","C3","batch3","","null","<p class=block-text>Trial 2 out of 60</p>","null","spm_show_trial_num","","","","","","","","","","","","","","","","","","","","","","","","",""
"","","","","","image-button-response","184","366392","0.0-3.0-2.0-1.1","5e4465013f75e52fc82f7096","C3","batch3","","4454.5","img/question_1_2.jpeg","4","spm_respsonse","1","5","mat_02","","","","","","1","4454.5","","","","","","","","","","","","","","",""
"","","","","","html-keyboard-response","185","367457","0.0-3.0-2.0-0.2","5e4465013f75e52fc82f7096","C3","batch3","","null","<p class=block-text>Trial 3 out of 60</p>","null","spm_show_trial_num","","","","","","","","","","","","","","","","","","","","","","","","",""
"","","","","","image-button-response","186","372551","0.0-3.0-2.0-1.2","5e4465013f75e52fc82f7096","C3","batch3","","5092.900000035763","img/question_1_3.jpeg","0","spm_respsonse","1","1","mat_03","","","","","","1","5092.900000035763","","","","","","","","","","","","","","",""
"","","","","","html-keyboard-response","187","373605","0.0-3.0-2.0-0.3","5e4465013f75e52fc82f7096","C3","batch3","","null","<p class=block-text>Trial 4 out of 60</p>","null","spm_show_trial_num","","","","","","","","","","","","","","","","","","","","","","","","",""
"","","","","","image-button-response","188","378482","0.0-3.0-2.0-1.3","5e4465013f75e52fc82f7096","C3","batch3","","4875.5","img/question_1_4.jpeg","1","spm_respsonse","1","2","mat_04","","","","","","1","4875.5","","","","","","","","","","","","","","",""
"","","","","","html-keyboard-response","189","379537","0.0-3.0-2.0-0.4","5e4465013f75e52fc82f7096","C3","batch3","","null","<p class=block-text>Trial 5 out of 60</p>","null","spm_show_trial_num","","","","","","","","","","","","","","","","","","","","","","","","",""
"","","","","","image-button-response","190","385598","0.0-3.0-2.0-1.4","5e4465013f75e52fc82f7096","C3","batch3","","6060.199999988079","img/question_1_5.jpeg","5","spm_respsonse","1","6","mat_05","","","","","","1","6060.199999988079","","","","","","","","","","","","","","",""
"","","","","","html-keyboard-response","191","386660","0.0-3.0-2.0-0.5","5e4465013f75e52fc82f7096","C3","batch3","","null","<p class=block-text>Trial 6 out of 60</p>","null","spm_show_trial_num","","","","","","","","","","","","","","","","","","","","","","","","",""
"","","","","","image-button-response","192","390257","0.0-3.0-2.0-1.5","5e4465013f75e52fc82f7096","C3","batch3","","3595.300000011921","img/question_1_6.jpeg","2","spm_respsonse","1","3","mat_06","","","","","","1","3595.300000011921","","","","","","","","","","","","","","",""
"","","","","","html-keyboard-response","193","391312","0.0-3.0-2.0-0.6","5e4465013f75e52fc82f7096","C3","batch3","","null","<p class=block-text>Trial 7 out of 60</p>","null","spm_show_trial_num","","","","","","","","","","","","","","","","","","","","","","","","",""
"","","","","","image-button-response","194","395945","0.0-3.0-2.0-1.6","5e4465013f75e52fc82f7096","C3","batch3","","4631.799999952316","img/question_1_7.jpeg","4","spm_respsonse","0","6","mat_07","","","","","","0","4631.799999952316","","","","","","","","","","","","","","",""
"","","","","","html-keyboard-response","195","397000","0.0-3.0-2.0-0.7","5e4465013f75e52fc82f7096","C3","batch3","","null","<p class=block-text>Trial 8 out of 60</p>","null","spm_show_trial_num","","","","","","","","","","","","","","","","","","","","","","","","",""
"","","","","","image-button-response","196","403578","0.0-3.0-2.0-1.7","5e4465013f75e52fc82f7096","C3","batch3","","6577","img/question_1_8.jpeg","1","spm_respsonse","1","2","mat_08","","","","","","1","6577","","","","","","","","","","","","","","",""
"","","","","","html-keyboard-response","197","404659","0.0-3.0-2.0-0.8","5e4465013f75e52fc82f7096","C3","batch3","","null","<p class=block-text>Trial 9 out of 60</p>","null","spm_show_trial_num","","","","","","","","","","","","","","","","","","","","","","","","",""
"","","","","","image-button-response","198","409419","0.0-3.0-2.0-1.8","5e4465013f75e52fc82f7096","C3","batch3","","4758.399999976158","img/question_1_9.jpeg","0","spm_respsonse","1","1","mat_09","","","","","","1","4758.399999976158","","","","","","","","","","","","","","",""
"","","","","","html-keyboard-response","199","410476","0.0-3.0-2.0-0.9","5e4465013f75e52fc82f7096","C3","batch3","","null","<p class=block-text>Trial 10 out of 60</p>","null","spm_show_trial_num","","","","","","","","","","","","","","","","","","","","","","","","",""
"","","","","","image-button-response","200","416185","0.0-3.0-2.0-1.9","5e4465013f75e52fc82f7096","C3","batch3","","5708.199999988079","img/question_1_10.jpeg","2","spm_respsonse","1","3","mat_10","","","","","","1","5708.199999988079","","","","","","","","","","","","","","",""
"","","","","","html-keyboard-response","201","417241","0.0-3.0-2.0-0.10","5e4465013f75e52fc82f7096","C3","batch3","","null","<p class=block-text>Trial 11 out of 60</p>","null","spm_show_trial_num","","","","","","","","","","","","","","","","","","","","","","","","",""
"","","","","","image-button-response","202","423508","0.0-3.0-2.0-1.10","5e4465013f75e52fc82f7096","C3","batch3","","6266.5","img/question_1_11.jpeg","3","spm_respsonse","1","4","mat_11","","","","","","1","6266.5","","","","","","","","","","","","","","",""
"","","","","","html-keyboard-response","203","424564","0.0-3.0-2.0-0.11","5e4465013f75e52fc82f7096","C3","batch3","","null","<p class=block-text>Trial 12 out of 60</p>","null","spm_show_trial_num","","","","","","","","","","","","","","","","","","","","","","","","",""
"","","","","","image-button-response","204","432015","0.0-3.0-2.0-1.11","5e4465013f75e52fc82f7096","C3","batch3","","7449.600000023842","img/question_1_12.jpeg","4","spm_respsonse","1","5","mat_12","","","","","","1","7449.600000023842","","","","","","","","","","","","","","",""
"","","","","","html-keyboard-response","205","433072","0.0-3.0-2.0-0.12","5e4465013f75e52fc82f7096","C3","batch3","","null","<p class=block-text>Trial 13 out of 60</p>","null","spm_show_trial_num","","","","","","","","","","","","","","","","","","","","","","","","",""
"","","","","","image-button-response","206","436087","0.0-3.0-2.0-1.12","5e4465013f75e52fc82f7096","C3","batch3","","3014.099999964237","img/question_2_1.jpeg","1","spm_respsonse","1","2","mat_13","","","","","","1","3014.099999964237","","","","","","","","","","","","","","",""
"","","","","","html-keyboard-response","207","437141","0.0-3.0-2.0-0.13","5e4465013f75e52fc82f7096","C3","batch3","","null","<p class=block-text>Trial 14 out of 60</p>","null","spm_show_trial_num","","","","","","","","","","","","","","","","","","","","","","","","",""
"","","","","","image-button-response","208","442020","0.0-3.0-2.0-1.13","5e4465013f75e52fc82f7096","C3","batch3","","4878.200000047684","img/question_2_2.jpeg","5","spm_respsonse","1","6","mat_14","","","","","","1","4878.200000047684","","","","","","","","","","","","","","",""
"","","","","","html-keyboard-response","209","443077","0.0-3.0-2.0-0.14","5e4465013f75e52fc82f7096","C3","batch3","","null","<p class=block-text>Trial 15 out of 60</p>","null","spm_show_trial_num","","","","","","","","","","","","","","","","","","","","","","","","",""
"","","","","","image-button-response","210","447331","0.0-3.0-2.0-1.14","5e4465013f75e52fc82f7096","C3","batch3","","4252.899999976158","img/question_2_3.jpeg","0","spm_respsonse","1","1","mat_15","","","","","","1","4252.899999976158","","","","","","","","","","","","","","",""
"","","","","","html-keyboard-response","211","448388","0.0-3.0-2.0-0.15","5e4465013f75e52fc82f7096","C3","batch3","","null","<p class=block-text>Trial 16 out of 60</p>","null","spm_show_trial_num","","","","","","","","","","","","","","","","","","","","","","","","",""
"","","","","","image-button-response","212","453811","0.0-3.0-2.0-1.15","5e4465013f75e52fc82f7096","C3","batch3","","5422.399999976158","img/question_2_4.jpeg","1","spm_respsonse","1","2","mat_16","","","","","","1","5422.399999976158","","","","","","","","","","","","","","",""
"","","","","","html-keyboard-response","213","454868","0.0-3.0-2.0-0.16","5e4465013f75e52fc82f7096","C3","batch3","","null","<p class=block-text>Trial 17 out of 60</p>","null","spm_show_trial_num","","","","","","","","","","","","","","","","","","","","","","","","",""
"","","","","","image-button-response","214","459612","0.0-3.0-2.0-1.16","5e4465013f75e52fc82f7096","C3","batch3","","4742.600000023842","img/question_2_5.jpeg","0","spm_respsonse","1","1","mat_17","","","","","","1","4742.600000023842","","","","","","","","","","","","","","",""
"","","","","","html-keyboard-response","215","460668","0.0-3.0-2.0-0.17","5e4465013f75e52fc82f7096","C3","batch3","","null","<p class=block-text>Trial 18 out of 60</p>","null","spm_show_trial_num","","","","","","","","","","","","","","","","","","","","","","","","",""
"","","","","","image-button-response","216","467515","0.0-3.0-2.0-1.17","5e4465013f75e52fc82f7096","C3","batch3","","6845.100000023842","img/question_2_6.jpeg","2","spm_respsonse","1","3","mat_18","","","","","","1","6845.100000023842","","","","","","","","","","","","","","",""
"","","","","","html-keyboard-response","217","468572","0.0-3.0-2.0-0.18","5e4465013f75e52fc82f7096","C3","batch3","","null","<p class=block-text>Trial 19 out of 60</p>","null","spm_show_trial_num","","","","","","","","","","","","","","","","","","","","","","","","",""
"","","","","","image-button-response","218","475842","0.0-3.0-2.0-1.18","5e4465013f75e52fc82f7096","C3","batch3","","7268.099999964237","img/question_2_7.jpeg","4","spm_respsonse","1","5","mat_19","","","","","","1","7268.099999964237","","","","","","","","","","","","","","",""
"","","","","","html-keyboard-response","219","476896","0.0-3.0-2.0-0.19","5e4465013f75e52fc82f7096","C3","batch3","","null","<p class=block-text>Trial 20 out of 60</p>","null","spm_show_trial_num","","","","","","","","","","","","","","","","","","","","","","","","",""
"","","","","","image-button-response","220","487831","0.0-3.0-2.0-1.19","5e4465013f75e52fc82f7096","C3","batch3","","10933.5","img/question_2_8.jpeg","5","spm_respsonse","1","6","mat_20","","","","","","1","10933.5","","","","","","","","","","","","","","",""
"","","","","","html-keyboard-response","221","488888","0.0-3.0-2.0-0.20","5e4465013f75e52fc82f7096","C3","batch3","","null","<p class=block-text>Trial 21 out of 60</p>","null","spm_show_trial_num","","","","","","","","","","","","","","","","","","","","","","","","",""
"","","","","","image-button-response","222","494356","0.0-3.0-2.0-1.20","5e4465013f75e52fc82f7096","C3","batch3","","5466.300000011921","img/question_2_9.jpeg","4","spm_respsonse","0","4","mat_21","","","","","","0","5466.300000011921","","","","","","","","","","","","","","",""
"","","","","","html-keyboard-response","223","495412","0.0-3.0-2.0-0.21","5e4465013f75e52fc82f7096","C3","batch3","","null","<p class=block-text>Trial 22 out of 60</p>","null","spm_show_trial_num","","","","","","","","","","","","","","","","","","","","","","","","",""
"","","","","","image-button-response","224","500458","0.0-3.0-2.0-1.21","5e4465013f75e52fc82f7096","C3","batch3","","5044.600000023842","img/question_2_10.jpeg","2","spm_respsonse","1","3","mat_22","","","","","","1","5044.600000023842","","","","","","","","","","","","","","",""
"","","","","","html-keyboard-response","225","501513","0.0-3.0-2.0-0.22","5e4465013f75e52fc82f7096","C3","batch3","","null","<p class=block-text>Trial 23 out of 60</p>","null","spm_show_trial_num","","","","","","","","","","","","","","","","","","","","","","","","",""
"","","","","","image-button-response","226","508656","0.0-3.0-2.0-1.22","5e4465013f75e52fc82f7096","C3","batch3","","7142.5","img/question_2_11.jpeg","5","spm_respsonse","0","4","mat_23","","","","","","0","7142.5","","","","","","","","","","","","","","",""
"","","","","","html-keyboard-response","227","509712","0.0-3.0-2.0-0.23","5e4465013f75e52fc82f7096","C3","batch3","","null","<p class=block-text>Trial 24 out of 60</p>","null","spm_show_trial_num","","","","","","","","","","","","","","","","","","","","","","","","",""
"","","","","","image-button-response","228","514926","0.0-3.0-2.0-1.23","5e4465013f75e52fc82f7096","C3","batch3","","5212.600000023842","img/question_2_12.jpeg","2","spm_respsonse","0","5","mat_24","","","","","","0","5212.600000023842","","","","","","","","","","","","","","",""
"","","","","","html-button-response","229","517090","0.0-3.0-3.0","5e4465013f75e52fc82f7096","C3","batch3","","1913.1000000238419","<p class = block-text>Attention check: Please choose 1<br></p>","0","attention_check","true","","","","","","","","","","","","","","","","","","","","","","","",""
"","","","","","html-keyboard-response","230","517892","0.0-3.0-4.0-0.0","5e4465013f75e52fc82f7096","C3","batch3","","null","<p class=block-text>Trial 25 out of 60</p>","null","spm_show_trial_num","","","","","","","","","","","","","","","","","","","","","","","","",""
"","","","","","image-button-response","231","523699","0.0-3.0-4.0-1.0","5e4465013f75e52fc82f7096","C3","batch3","","5804.800000011921","img/question_3_1.jpeg","7","spm_respsonse","1","8","mat_25","","","","","","1","5804.800000011921","","","","","","","","","","","","","","",""
"","","","","","html-keyboard-response","232","524756","0.0-3.0-4.0-0.1","5e4465013f75e52fc82f7096","C3","batch3","","null","<p class=block-text>Trial 26 out of 60</p>","null","spm_show_trial_num","","","","","","","","","","","","","","","","","","","","","","","","",""
"","","","","","image-button-response","233","531793","0.0-3.0-4.0-1.1","5e4465013f75e52fc82f7096","C3","batch3","","7036.100000023842","img/question_3_2.jpeg","1","spm_respsonse","1","2","mat_26","","","","","","1","7036.100000023842","","","","","","","","","","","","","","",""
"","","","","","html-keyboard-response","234","532846","0.0-3.0-4.0-0.2","5e4465013f75e52fc82f7096","C3","batch3","","null","<p class=block-text>Trial 27 out of 60</p>","null","spm_show_trial_num","","","","","","","","","","","","","","","","","","","","","","","","",""
"","","","","","image-button-response","235","540974","0.0-3.0-4.0-1.2","5e4465013f75e52fc82f7096","C3","batch3","","8127.800000011921","img/question_3_3.jpeg","2","spm_respsonse","1","3","mat_27","","","","","","1","8127.800000011921","","","","","","","","","","","","","","",""
"","","","","","html-keyboard-response","236","542032","0.0-3.0-4.0-0.3","5e4465013f75e52fc82f7096","C3","batch3","","null","<p class=block-text>Trial 28 out of 60</p>","null","spm_show_trial_num","","","","","","","","","","","","","","","","","","","","","","","","",""
"","","","","","image-button-response","237","546688","0.0-3.0-4.0-1.3","5e4465013f75e52fc82f7096","C3","batch3","","4655.699999988079","img/question_3_4.jpeg","2","spm_respsonse","0","8","mat_28","","","","","","0","4655.699999988079","","","","","","","","","","","","","","",""
"","","","","","html-keyboard-response","238","547740","0.0-3.0-4.0-0.4","5e4465013f75e52fc82f7096","C3","batch3","","null","<p class=block-text>Trial 29 out of 60</p>","null","spm_show_trial_num","","","","","","","","","","","","","","","","","","","","","","","","",""
"","","","","","image-button-response","239","553977","0.0-3.0-4.0-1.4","5e4465013f75e52fc82f7096","C3","batch3","","6235.799999952316","img/question_3_5.jpeg","7","spm_respsonse","0","7","mat_29","","","","","","0","6235.799999952316","","","","","","","","","","","","","","",""
"","","","","","html-keyboard-response","240","555032","0.0-3.0-4.0-0.5","5e4465013f75e52fc82f7096","C3","batch3","","null","<p class=block-text>Trial 30 out of 60</p>","null","spm_show_trial_num","","","","","","","","","","","","","","","","","","","","","","","","",""
"","","","","","image-button-response","241","561646","0.0-3.0-4.0-1.5","5e4465013f75e52fc82f7096","C3","batch3","","6612.699999988079","img/question_3_6.jpeg","3","spm_respsonse","1","4","mat_30","","","","","","1","6612.699999988079","","","","","","","","","","","","","","",""
"","","","","","html-keyboard-response","242","562703","0.0-3.0-4.0-0.6","5e4465013f75e52fc82f7096","C3","batch3","","null","<p class=block-text>Trial 31 out of 60</p>","null","spm_show_trial_num","","","","","","","","","","","","","","","","","","","","","","","","",""
"","","","","","image-button-response","243","568853","0.0-3.0-4.0-1.6","5e4465013f75e52fc82f7096","C3","batch3","","6148.300000011921","img/question_3_7.jpeg","7","spm_respsonse","0","5","mat_31","","","","","","0","6148.300000011921","","","","","","","","","","","","","","",""
"","","","","","html-keyboard-response","244","569908","0.0-3.0-4.0-0.7","5e4465013f75e52fc82f7096","C3","batch3","","null","<p class=block-text>Trial 32 out of 60</p>","null","spm_show_trial_num","","","","","","","","","","","","","","","","","","","","","","","","",""
"","","","","","image-button-response","245","578668","0.0-3.0-4.0-1.7","5e4465013f75e52fc82f7096","C3","batch3","","8759.399999976158","img/question_3_8.jpeg","1","spm_respsonse","0","1","mat_32","","","","","","0","8759.399999976158","","","","","","","","","","","","","","",""
"","","","","","html-keyboard-response","246","579724","0.0-3.0-4.0-0.8","5e4465013f75e52fc82f7096","C3","batch3","","null","<p class=block-text>Trial 33 out of 60</p>","null","spm_show_trial_num","","","","","","","","","","","","","","","","","","","","","","","","",""
"","","","","","image-button-response","247","585788","0.0-3.0-4.0-1.8","5e4465013f75e52fc82f7096","C3","batch3","","6063.5","img/question_3_9.jpeg","0","spm_respsonse","0","7","mat_33","","","","","","0","6063.5","","","","","","","","","","","","","","",""
"","","","","","html-keyboard-response","248","586844","0.0-3.0-4.0-0.9","5e4465013f75e52fc82f7096","C3","batch3","","null","<p class=block-text>Trial 34 out of 60</p>","null","spm_show_trial_num","","","","","","","","","","","","","","","","","","","","","","","","",""
"","","","","","image-button-response","249","591883","0.0-3.0-4.0-1.9","5e4465013f75e52fc82f7096","C3","batch3","","5038.399999976158","img/question_3_10.jpeg","1","spm_respsonse","0","6","mat_34","","","","","","0","5038.399999976158","","","","","","","","","","","","","","",""
"","","","","","html-keyboard-response","250","592940","0.0-3.0-4.0-0.10","5e4465013f75e52fc82f7096","C3","batch3","","null","<p class=block-text>Trial 35 out of 60</p>","null","spm_show_trial_num","","","","","","","","","","","","","","","","","","","","","","","","",""
"","","","","","image-button-response","251","600659","0.0-3.0-4.0-1.10","5e4465013f75e52fc82f7096","C3","batch3","","7717.299999952316","img/question_3_11.jpeg","3","spm_respsonse","0","1","mat_35","","","","","","0","7717.299999952316","","","","","","","","","","","","","","",""
"","","","","","html-keyboard-response","252","601716","0.0-3.0-4.0-0.11","5e4465013f75e52fc82f7096","C3","batch3","","null","<p class=block-text>Trial 36 out of 60</p>","null","spm_show_trial_num","","","","","","","","","","","","","","","","","","","","","","","","",""
"","","","","","image-button-response","253","605023","0.0-3.0-4.0-1.11","5e4465013f75e52fc82f7096","C3","batch3","","3305.899999976158","img/question_3_12.jpeg","1","spm_respsonse","1","2","mat_36","","","","","","1","3305.899999976158","","","","","","","","","","","","","","",""
"","","","","","html-keyboard-response","254","606076","0.0-3.0-4.0-0.12","5e4465013f75e52fc82f7096","C3","batch3","","null","<p class=block-text>Trial 37 out of 60</p>","null","spm_show_trial_num","","","","","","","","","","","","","","","","","","","","","","","","",""
"","","","","","image-button-response","255","609797","0.0-3.0-4.0-1.12","5e4465013f75e52fc82f7096","C3","batch3","","3719.699999988079","img/question_4_1.jpeg","2","spm_respsonse","1","3","mat_37","","","","","","1","3719.699999988079","","","","","","","","","","","","","","",""
"","","","","","html-keyboard-response","256","610852","0.0-3.0-4.0-0.13","5e4465013f75e52fc82f7096","C3","batch3","","null","<p class=block-text>Trial 38 out of 60</p>","null","spm_show_trial_num","","","","","","","","","","","","","","","","","","","","","","","","",""
"","","","","","image-button-response","257","618000","0.0-3.0-4.0-1.13","5e4465013f75e52fc82f7096","C3","batch3","","7146.900000035763","img/question_4_2.jpeg","3","spm_respsonse","1","4","mat_38","","","","","","1","7146.900000035763","","","","","","","","","","","","","","",""
"","","","","","html-keyboard-response","258","619056","0.0-3.0-4.0-0.14","5e4465013f75e52fc82f7096","C3","batch3","","null","<p class=block-text>Trial 39 out of 60</p>","null","spm_show_trial_num","","","","","","","","","","","","","","","","","","","","","","","","",""
"","","","","","image-button-response","259","624658","0.0-3.0-4.0-1.14","5e4465013f75e52fc82f7096","C3","batch3","","5600.199999988079","img/question_4_3.jpeg","2","spm_respsonse","1","3","mat_39","","","","","","1","5600.199999988079","","","","","","","","","","","","","","",""
"","","","","","html-keyboard-response","260","625712","0.0-3.0-4.0-0.15","5e4465013f75e52fc82f7096","C3","batch3","","null","<p class=block-text>Trial 40 out of 60</p>","null","spm_show_trial_num","","","","","","","","","","","","","","","","","","","","","","","","",""
"","","","","","image-button-response","261","632004","0.0-3.0-4.0-1.15","5e4465013f75e52fc82f7096","C3","batch3","","6291","img/question_4_4.jpeg","6","spm_respsonse","1","7","mat_40","","","","","","1","6291","","","","","","","","","","","","","","",""
"","","","","","html-keyboard-response","262","633060","0.0-3.0-4.0-0.16","5e4465013f75e52fc82f7096","C3","batch3","","null","<p class=block-text>Trial 41 out of 60</p>","null","spm_show_trial_num","","","","","","","","","","","","","","","","","","","","","","","","",""
"","","","","","image-button-response","263","638379","0.0-3.0-4.0-1.16","5e4465013f75e52fc82f7096","C3","batch3","","5317.399999976158","img/question_4_5.jpeg","7","spm_respsonse","1","8","mat_41","","","","","","1","5317.399999976158","","","","","","","","","","","","","","",""
"","","","","","html-keyboard-response","264","639460","0.0-3.0-4.0-0.17","5e4465013f75e52fc82f7096","C3","batch3","","null","<p class=block-text>Trial 42 out of 60</p>","null","spm_show_trial_num","","","","","","","","","","","","","","","","","","","","","","","","",""
"","","","","","image-button-response","265","646293","0.0-3.0-4.0-1.17","5e4465013f75e52fc82f7096","C3","batch3","","6832.199999988079","img/question_4_6.jpeg","5","spm_respsonse","1","6","mat_42","","","","","","1","6832.199999988079","","","","","","","","","","","","","","",""
"","","","","","html-keyboard-response","266","647344","0.0-3.0-4.0-0.18","5e4465013f75e52fc82f7096","C3","batch3","","null","<p class=block-text>Trial 43 out of 60</p>","null","spm_show_trial_num","","","","","","","","","","","","","","","","","","","","","","","","",""
"","","","","","image-button-response","267","654790","0.0-3.0-4.0-1.18","5e4465013f75e52fc82f7096","C3","batch3","","7444.399999976158","img/question_4_7.jpeg","2","spm_respsonse","0","5","mat_43","","","","","","0","7444.399999976158","","","","","","","","","","","","","","",""
"","","","","","html-keyboard-response","268","655848","0.0-3.0-4.0-0.19","5e4465013f75e52fc82f7096","C3","batch3","","null","<p class=block-text>Trial 44 out of 60</p>","null","spm_show_trial_num","","","","","","","","","","","","","","","","","","","","","","","","",""
"","","","","","image-button-response","269","661729","0.0-3.0-4.0-1.19","5e4465013f75e52fc82f7096","C3","batch3","","5879.300000011921","img/question_4_8.jpeg","4","spm_respsonse","0","4","mat_44","","","","","","0","5879.300000011921","","","","","","","","","","","","","","",""
"","","","","","html-keyboard-response","270","662783","0.0-3.0-4.0-0.20","5e4465013f75e52fc82f7096","C3","batch3","","null","<p class=block-text>Trial 45 out of 60</p>","null","spm_show_trial_num","","","","","","","","","","","","","","","","","","","","","","","","",""
"","","","","","image-button-response","271","667861","0.0-3.0-4.0-1.20","5e4465013f75e52fc82f7096","C3","batch3","","5076.699999988079","img/question_4_9.jpeg","7","spm_respsonse","0","1","mat_45","","","","","","0","5076.699999988079","","","","","","","","","","","","","","",""
"","","","","","html-keyboard-response","272","668915","0.0-3.0-4.0-0.21","5e4465013f75e52fc82f7096","C3","batch3","","null","<p class=block-text>Trial 46 out of 60</p>","null","spm_show_trial_num","","","","","","","","","","","","","","","","","","","","","","","","",""
"","","","","","image-button-response","273","675842","0.0-3.0-4.0-1.21","5e4465013f75e52fc82f7096","C3","batch3","","6925.5","img/question_4_10.jpeg","1","spm_respsonse","1","2","mat_46","","","","","","1","6925.5","","","","","","","","","","","","","","",""
"","","","","","html-keyboard-response","274","676896","0.0-3.0-4.0-0.22","5e4465013f75e52fc82f7096","C3","batch3","","null","<p class=block-text>Trial 47 out of 60</p>","null","spm_show_trial_num","","","","","","","","","","","","","","","","","","","","","","","","",""
"","","","","","image-button-response","275","685963","0.0-3.0-4.0-1.22","5e4465013f75e52fc82f7096","C3","batch3","","9066.099999964237","img/question_4_11.jpeg","3","spm_respsonse","0","5","mat_47","","","","","","0","9066.099999964237","","","","","","","","","","","","","","",""
"","","","","","html-keyboard-response","276","687019","0.0-3.0-4.0-0.23","5e4465013f75e52fc82f7096","C3","batch3","","null","<p class=block-text>Trial 48 out of 60</p>","null","spm_show_trial_num","","","","","","","","","","","","","","","","","","","","","","","","",""
"","","","","","image-button-response","277","692518","0.0-3.0-4.0-1.23","5e4465013f75e52fc82f7096","C3","batch3","","5497.300000011921","img/question_4_12.jpeg","1","spm_respsonse","0","6","mat_48","","","","","","0","5497.300000011921","","","","","","","","","","","","","","",""
"","","","","","html-keyboard-response","278","693576","0.0-3.0-4.0-0.24","5e4465013f75e52fc82f7096","C3","batch3","","null","<p class=block-text>Trial 49 out of 60</p>","null","spm_show_trial_num","","","","","","","","","","","","","","","","","","","","","","","","",""
"","","","","","image-button-response","279","698924","0.0-3.0-4.0-1.24","5e4465013f75e52fc82f7096","C3","batch3","","5347.599999964237","img/question_5_1.jpeg","0","spm_respsonse","0","7","mat_49","","","","","","0","5347.599999964237","","","","","","","","","","","","","","",""
"","","","","","html-keyboard-response","280","699980","0.0-3.0-4.0-0.25","5e4465013f75e52fc82f7096","C3","batch3","","null","<p class=block-text>Trial 50 out of 60</p>","null","spm_show_trial_num","","","","","","","","","","","","","","","","","","","","","","","","",""
"","","","","","image-button-response","281","708927","0.0-3.0-4.0-1.25","5e4465013f75e52fc82f7096","C3","batch3","","8946.400000035763","img/question_5_2.jpeg","2","spm_respsonse","0","6","mat_50","","","","","","0","8946.400000035763","","","","","","","","","","","","","","",""
"","","","","","html-keyboard-response","282","709983","0.0-3.0-4.0-0.26","5e4465013f75e52fc82f7096","C3","batch3","","null","<p class=block-text>Trial 51 out of 60</p>","null","spm_show_trial_num","","","","","","","","","","","","","","","","","","","","","","","","",""
"","","","","","image-button-response","283","715990","0.0-3.0-4.0-1.26","5e4465013f75e52fc82f7096","C3","batch3","","6005.600000023842","img/question_5_3.jpeg","1","spm_respsonse","0","8","mat_51","","","","","","0","6005.600000023842","","","","","","","","","","","","","","",""
"","","","","","html-keyboard-response","284","717047","0.0-3.0-4.0-0.27","5e4465013f75e52fc82f7096","C3","batch3","","null","<p class=block-text>Trial 52 out of 60</p>","null","spm_show_trial_num","","","","","","","","","","","","","","","","","","","","","","","","",""
"","","","","","image-button-response","285","725425","0.0-3.0-4.0-1.27","5e4465013f75e52fc82f7096","C3","batch3","","8376.399999976158","img/question_5_4.jpeg","2","spm_respsonse","0","2","mat_52","","","","","","0","8376.399999976158","","","","","","","","","","","","","","",""
"","","","","","html-keyboard-response","286","726476","0.0-3.0-4.0-0.28","5e4465013f75e52fc82f7096","C3","batch3","","null","<p class=block-text>Trial 53 out of 60</p>","null","spm_show_trial_num","","","","","","","","","","","","","","","","","","","","","","","","",""
"","","","","","image-button-response","287","734740","0.0-3.0-4.0-1.28","5e4465013f75e52fc82f7096","C3","batch3","","8263","img/question_5_5.jpeg","4","spm_respsonse","0","1","mat_53","","","","","","0","8263","","","","","","","","","","","","","","",""
"","","","","","html-keyboard-response","288","735795","0.0-3.0-4.0-0.29","5e4465013f75e52fc82f7096","C3","batch3","","null","<p class=block-text>Trial 54 out of 60</p>","null","spm_show_trial_num","","","","","","","","","","","","","","","","","","","","","","","","",""
"","","","","","image-button-response","289","743737","0.0-3.0-4.0-1.29","5e4465013f75e52fc82f7096","C3","batch3","","7940.599999964237","img/question_5_6.jpeg","6","spm_respsonse","0","5","mat_54","","","","","","0","7940.599999964237","","","","","","","","","","","","","","",""
"","","","","","html-keyboard-response","290","744791","0.0-3.0-4.0-0.30","5e4465013f75e52fc82f7096","C3","batch3","","null","<p class=block-text>Trial 55 out of 60</p>","null","spm_show_trial_num","","","","","","","","","","","","","","","","","","","","","","","","",""
"","","","","","image-button-response","291","750020","0.0-3.0-4.0-1.30","5e4465013f75e52fc82f7096","C3","batch3","","5227.5","img/question_5_7.jpeg","2","spm_respsonse","0","1","mat_55","","","","","","0","5227.5","","","","","","","","","","","","","","",""
"","","","","","html-keyboard-response","292","751075","0.0-3.0-4.0-0.31","5e4465013f75e52fc82f7096","C3","batch3","","null","<p class=block-text>Trial 56 out of 60</p>","null","spm_show_trial_num","","","","","","","","","","","","","","","","","","","","","","","","",""
"","","","","","image-button-response","293","757743","0.0-3.0-4.0-1.31","5e4465013f75e52fc82f7096","C3","batch3","","6666.100000023842","img/question_5_8.jpeg","1","spm_respsonse","0","6","mat_56","","","","","","0","6666.100000023842","","","","","","","","","","","","","","",""
"","","","","","html-keyboard-response","294","758799","0.0-3.0-4.0-0.32","5e4465013f75e52fc82f7096","C3","batch3","","null","<p class=block-text>Trial 57 out of 60</p>","null","spm_show_trial_num","","","","","","","","","","","","","","","","","","","","","","","","",""
"","","","","","image-button-response","295","765453","0.0-3.0-4.0-1.32","5e4465013f75e52fc82f7096","C3","batch3","","6652.800000011921","img/question_5_9.jpeg","3","spm_respsonse","0","3","mat_57","","","","","","0","6652.800000011921","","","","","","","","","","","","","","",""
"","","","","","html-keyboard-response","296","766511","0.0-3.0-4.0-0.33","5e4465013f75e52fc82f7096","C3","batch3","","null","<p class=block-text>Trial 58 out of 60</p>","null","spm_show_trial_num","","","","","","","","","","","","","","","","","","","","","","","","",""
"","","","","","image-button-response","297","773788","0.0-3.0-4.0-1.33","5e4465013f75e52fc82f7096","C3","batch3","","7275.5","img/question_5_10.jpeg","2","spm_respsonse","0","2","mat_58","","","","","","0","7275.5","","","","","","","","","","","","","","",""
"","","","","","html-keyboard-response","298","774843","0.0-3.0-4.0-0.34","5e4465013f75e52fc82f7096","C3","batch3","","null","<p class=block-text>Trial 59 out of 60</p>","null","spm_show_trial_num","","","","","","","","","","","","","","","","","","","","","","","","",""
"","","","","","image-button-response","299","779017","0.0-3.0-4.0-1.34","5e4465013f75e52fc82f7096","C3","batch3","","4172.399999976158","img/question_5_11.jpeg","1","spm_respsonse","0","4","mat_59","","","","","","0","4172.399999976158","","","","","","","","","","","","","","",""
"","","","","","html-keyboard-response","300","780075","0.0-3.0-4.0-0.35","5e4465013f75e52fc82f7096","C3","batch3","","null","<p class=block-text>Trial 60 out of 60</p>","null","spm_show_trial_num","","","","","","","","","","","","","","","","","","","","","","","","",""
"","","","","","image-button-response","301","786402","0.0-3.0-4.0-1.35","5e4465013f75e52fc82f7096","C3","batch3","","6325.100000023842","img/question_5_12.jpeg","2","spm_respsonse","0","5","mat_60","","","","","","0","6325.100000023842","","","","","","","","","","","","","","",""
"","","","","","html-button-response","302","788796","0.0-3.0-5.0","5e4465013f75e52fc82f7096","C3","batch3","","2140","<p class= block-text>This concludes the Standard Progressive Matrix game. Thank you for your responses!<br> When you are ready, click the button continue</p>","0","spm_goodbye","","","","","","","","","","","","","","","","","","","","","","","","",""
"true","","","","","fullscreen","303","791116","0.0-4.0-0.0","5e4465013f75e52fc82f7096","C3","batch3","","","","","","","","","","","","","","","","","","","","","","","","","","","","","",""
"","","","","","instructions","304","840658","0.0-4.0-1.0-0.0-0.0","5e4465013f75e52fc82f7096","C3","batch3","[{""page_index"":0,""viewing_time"":14221.399999976158},{""page_index"":1,""viewing_time"":5634.600000023842},{""page_index"":2,""viewing_time"":3022.2999999523163},{""page_index"":3,""viewing_time"":3934.300000011921},{""page_index"":4,""viewing_time"":10035.100000023842},{""page_index"":5,""viewing_time"":10283.099999964237},{""page_index"":6,""viewing_time"":2410.2000000476837}]","49541.19999998808","","","tol-instructions","","","","","","","","","","","","","","","","","","","","","","","","",""
"","","","","","html-button-response","305","841654","0.0-4.0-1.0-1.0-0.0","5e4465013f75e52fc82f7096","C3","batch3","","995.4000000357628","<p class=block-text> Let's answer a few questions <br>","0","tol_enter_quiz","","","","","","","","","","","","","","","","","","","","","","","","",""
"","","","","","html-button-response","306","847681","0.0-4.0-1.0-1.0-1.0","5e4465013f75e52fc82f7096","C3","batch3","","6025.900000035763","<p class = block-text>True or False: You can only move the ball on top of a peg. <br></p>","0","tol_quiz","true","","","","","","","","","","","","","","","","","","","","","","","",""
"","","","","","html-button-response","307","849119","0.0-4.0-1.0-1.0-2.0","5e4465013f75e52fc82f7096","C3","batch3","","1437.199999988079","<p class = block-text>Correct! You can only move the ball on top of a peg.</p>","0","tol_quiz_feedback","","","","","","","","","","","","","","","","","","","","","","","","",""
"","","","","","html-button-response","308","852003","0.0-4.0-1.0-1.0-3.0","5e4465013f75e52fc82f7096","C3","batch3","","2883.800000011921","<p class = block-text>True or False: You should try to match your board with the target board with fewest moves possible. <br></p>","0","tol_quiz","true","","","","","","","","","","","","","","","","","","","","","","","",""
"","","","","","html-button-response","309","852707","0.0-4.0-1.0-1.0-4.0","5e4465013f75e52fc82f7096","C3","batch3","","703.3999999761581","<p class = block-text>Correct! </p>","0","tol_quiz_feedback","","","","","","","","","","","","","","","","","","","","","","","","",""
"","","","","","html-button-response","310","854384","0.0-4.0-2.0","5e4465013f75e52fc82f7096","C3","batch3","","1675.1000000238419","<p class=block-text> Now that you've understood the game, let's practice a few easier examples before we start!<br> <br>","0","","","","","","","","","","","","","","","","","","","","","","","","","",""
"","","","","","single-stim-button","311","866760","0.0-4.0-3.0-0.0","5e4465013f75e52fc82f7096","C3","batch3","","12375","","","tol_practice","","","","","","","","","","","tol_peg_2","12375","12375","0","[[1,2,0],[0,0],[0]]","1","[[1,2,0],[0,0],[3]]","practice","12375","","","","","",""
"","","","","","single-stim-button","312","868709","0.0-4.0-3.0-1.0","5e4465013f75e52fc82f7096","C3","batch3","","1949","","","tol_practice","","","","","","","","","","","tol_peg_3","1949","1949","0","[[1,2,0],[0,0],[3]]","1","[[1,2,0],[0,0],[3]]","practice","1949","","","","","",""
"","","","","","poldrack-single-stim","313","869712","0.0-4.0-4.0","5e4465013f75e52fc82f7096","C3","batch3","","-1","","","tol_feedback","true","","","","","","","","","","","1000","1000","500","","","","","","-1","none","true","","0",""
"","","","","","single-stim-button","314","874154","0.0-4.0-5.0-0.0","5e4465013f75e52fc82f7096","C3","batch3","","4441","","","tol_practice","","","","","","","","","","","tol_peg_1","4441","4441","0","[[1,0,0],[3,0],[0]]","2","[[0,0,0],[3,1],[2]]","practice","4441","","","","","",""
"","","","","","single-stim-button","315","875392","0.0-4.0-5.0-1.0","5e4465013f75e52fc82f7096","C3","batch3","","1238","","","tol_practice","","","","","","","","","","","tol_peg_3","1238","1238","0","[[1,0,0],[3,0],[2]]","2","[[0,0,0],[3,1],[2]]","practice","1238","","","","","",""
"","","","","","single-stim-button","316","877333","0.0-4.0-5.1-0.1","5e4465013f75e52fc82f7096","C3","batch3","","1940","","","tol_practice","","","","","","","","","","","tol_peg_2","1940","1940","0","[[1,0,0],[0,0],[2]]","3","[[0,0,0],[3,1],[2]]","practice","1940","","","","","",""
"","","","","","single-stim-button","317","878103","0.0-4.0-5.1-1.1","5e4465013f75e52fc82f7096","C3","batch3","","770","","","tol_practice","","","","","","","","","","","tol_peg_1","770","770","0","[[1,3,0],[0,0],[2]]","3","[[0,0,0],[3,1],[2]]","practice","770","","","","","",""
"","","","","","single-stim-button","318","884779","0.0-4.0-5.2-0.2","5e4465013f75e52fc82f7096","C3","batch3","","6675","","","tol_practice","","","","","","","","","","","tol_peg_1","6675","6675","0","[[1,0,0],[0,0],[2]]","4","[[0,0,0],[3,1],[2]]","practice","6675","","","","","",""
"","","","","","single-stim-button","319","885971","0.0-4.0-5.2-1.2","5e4465013f75e52fc82f7096","C3","batch3","","1192","","","tol_practice","","","","","","","","","","","tol_peg_1","1192","1192","0","[[1,3,0],[0,0],[2]]","4","[[0,0,0],[3,1],[2]]","practice","1192","","","","","",""
"","","","","","single-stim-button","320","887019","0.0-4.0-5.3-0.3","5e4465013f75e52fc82f7096","C3","batch3","","1048","","","tol_practice","","","","","","","","","","","tol_peg_1","1048","1048","0","[[1,0,0],[0,0],[2]]","5","[[0,0,0],[3,1],[2]]","practice","1048","","","","","",""
"","","","","","single-stim-button","321","888207","0.0-4.0-5.3-1.3","5e4465013f75e52fc82f7096","C3","batch3","","1188","","","tol_practice","","","","","","","","","","","tol_peg_2","1188","1188","0","[[1,0,0],[3,0],[2]]","5","[[0,0,0],[3,1],[2]]","practice","1188","","","","","",""
"","","","","","single-stim-button","322","889141","0.0-4.0-5.4-0.4","5e4465013f75e52fc82f7096","C3","batch3","","933","","","tol_practice","","","","","","","","","","","tol_peg_1","933","933","0","[[0,0,0],[3,0],[2]]","6","[[0,0,0],[3,1],[2]]","practice","933","","","","","",""
"","","","","","single-stim-button","323","889951","0.0-4.0-5.4-1.4","5e4465013f75e52fc82f7096","C3","batch3","","809","","","tol_practice","","","","","","","","","","","tol_peg_2","809","809","0","[[0,0,0],[3,1],[2]]","6","[[0,0,0],[3,1],[2]]","practice","809","","","","","",""
"","","","","","poldrack-single-stim","324","890952","0.0-4.0-6.0","5e4465013f75e52fc82f7096","C3","batch3","","-1","","","tol_feedback","true","","","","","","","","","","","1000","1000","500","","","","","","-1","none","true","","0",""
"","","","","","single-stim-button","325","895322","0.0-4.0-7.0-0.0","5e4465013f75e52fc82f7096","C3","batch3","","4369","","","tol_practice","","","","","","","","","","","tol_peg_2","4369","4369","0","[[1,2,0],[0,0],[0]]","7","[[1,0,0],[2,0],[3]]","practice","4369","","","","","",""
"","","","","","single-stim-button","326","896400","0.0-4.0-7.0-1.0","5e4465013f75e52fc82f7096","C3","batch3","","1078","","","tol_practice","","","","","","","","","","","tol_peg_3","1078","1078","0","[[1,2,0],[0,0],[3]]","7","[[1,0,0],[2,0],[3]]","practice","1078","","","","","",""
"","","","","","single-stim-button","327","897400","0.0-4.0-7.1-0.1","5e4465013f75e52fc82f7096","C3","batch3","","999","","","tol_practice","","","","","","","","","","","tol_peg_1","999","999","0","[[1,0,0],[0,0],[3]]","8","[[1,0,0],[2,0],[3]]","practice","999","","","","","",""
"","","","","","single-stim-button","328","898390","0.0-4.0-7.1-1.1","5e4465013f75e52fc82f7096","C3","batch3","","989","","","tol_practice","","","","","","","","","","","tol_peg_2","989","989","0","[[1,0,0],[2,0],[3]]","8","[[1,0,0],[2,0],[3]]","practice","989","","","","","",""
"","","","","","poldrack-single-stim","329","899392","0.0-4.0-8.0","5e4465013f75e52fc82f7096","C3","batch3","","-1","","","tol_feedback","true","","","","","","","","","","","1000","1000","500","","","","","","-1","none","true","","0",""
"","","","","","html-button-response","330","903358","0.0-4.0-9.0","5e4465013f75e52fc82f7096","C3","batch3","","3965.900000035763","<div class = centerbox><p class = center-block-text>Great job! You are done with practice trials<br>You are about to start official trials.<br> <br> Problem <strong>1</strong> out of 25 problems</p></div>","0","tol_instruction","","","","","","","","","","","","","","","","","","","","","","","","",""
"","","","","","single-stim-button","331","909197","0.0-4.0-10.0-0.0","5e4465013f75e52fc82f7096","C3","batch3","","4837","","","tol_tohand","","","","","","","","","","","tol_peg_2","4837","4837","0","[[1,2,0],[0,0],[0]]","1","[[1,3,0],[2,0],[0]]","0","0","","","","","","3"
"","","","","","single-stim-button","332","910095","0.0-4.0-10.0-1.0","5e4465013f75e52fc82f7096","C3","batch3","","897","","","tol_toboard","","","","","","","","","","","tol_peg_1","897","897","0","[[1,2,3],[0,0],[0]]","1","[[1,3,0],[2,0],[0]]","0","0","","","","","","3"
"","","","","","single-stim-button","333","911623","0.0-4.0-10.1-0.1","5e4465013f75e52fc82f7096","C3","batch3","","1527","","","tol_tohand","","","","","","","","","","","tol_peg_1","1527","1527","0","[[1,2,0],[0,0],[0]]","2","[[1,3,0],[2,0],[0]]","0","0","","","","","","3"
"","","","","","single-stim-button","334","912569","0.0-4.0-10.1-1.1","5e4465013f75e52fc82f7096","C3","batch3","","945","","","tol_toboard","","","","","","","","","","","tol_peg_3","945","945","0","[[1,2,0],[0,0],[3]]","2","[[1,3,0],[2,0],[0]]","0","0","","","","","","3"
"","","","","","single-stim-button","335","913534","0.0-4.0-10.2-0.2","5e4465013f75e52fc82f7096","C3","batch3","","963","","","tol_tohand","","","","","","","","","","","tol_peg_1","963","963","0","[[1,0,0],[0,0],[3]]","3","[[1,3,0],[2,0],[0]]","0","0","","","","","","3"
"","","","","","single-stim-button","336","914655","0.0-4.0-10.2-1.2","5e4465013f75e52fc82f7096","C3","batch3","","1121","","","tol_toboard","","","","","","","","","","","tol_peg_2","1121","1121","0","[[1,0,0],[2,0],[3]]","3","[[1,3,0],[2,0],[0]]","0","0","","","","","","3"
"","","","","","single-stim-button","337","915290","0.0-4.0-10.3-0.3","5e4465013f75e52fc82f7096","C3","batch3","","634","","","tol_tohand","","","","","","","","","","","tol_peg_3","634","634","0","[[1,0,0],[2,0],[0]]","4","[[1,3,0],[2,0],[0]]","0","0","","","","","","3"
"","","","","","single-stim-button","338","915994","0.0-4.0-10.3-1.3","5e4465013f75e52fc82f7096","C3","batch3","","704","","","tol_toboard","","","","","","","","","","","tol_peg_1","704","704","0","[[1,3,0],[2,0],[0]]","4","[[1,3,0],[2,0],[0]]","0","0","","","","","","3"
"","","","","","poldrack-single-stim","339","916996","0.0-4.0-11.0","5e4465013f75e52fc82f7096","C3","batch3","","-1","","","tol_feedback","true","","","","","","","","","","","1000","1000","500","","","","","","-1","none","true","4837","7961",""
"","","","","","html-button-response","340","918076","0.0-4.0-12.0","5e4465013f75e52fc82f7096","C3","batch3","","1079","<div class = centerbox><p class = center-block-text>problem <strong>2</strong> out of 25 problems</p></div>","0","tol_trial_num","","","","","","","","","","","","","","","","","","","","","","","","",""
"","","","","","single-stim-button","341","920848","0.0-4.0-13.0-0.0","5e4465013f75e52fc82f7096","C3","batch3","","2772","","","tol_tohand","","","","","","","","","","","tol_peg_2","2772","2772","0","[[1,2,0],[0,0],[0]]","1","[[2,1,3],[0,0],[0]]","1","0","","","","","","5"
"","","","","","single-stim-button","342","922260","0.0-4.0-13.0-1.0","5e4465013f75e52fc82f7096","C3","batch3","","1411","","","tol_toboard","","","","","","","","","","","tol_peg_3","1411","1411","0","[[1,2,0],[0,0],[3]]","1","[[2,1,3],[0,0],[0]]","1","0","","","","","","5"
"","","","","","single-stim-button","343","922859","0.0-4.0-13.1-0.1","5e4465013f75e52fc82f7096","C3","batch3","","597","","","tol_tohand","","","","","","","","","","","tol_peg_1","597","597","0","[[1,0,0],[0,0],[3]]","2","[[2,1,3],[0,0],[0]]","1","0","","","","","","5"
"","","","","","single-stim-button","344","923424","0.0-4.0-13.1-1.1","5e4465013f75e52fc82f7096","C3","batch3","","565","","","tol_toboard","","","","","","","","","","","tol_peg_2","565","565","0","[[1,0,0],[2,0],[3]]","2","[[2,1,3],[0,0],[0]]","1","0","","","","","","5"
"","","","","","single-stim-button","345","924145","0.0-4.0-13.2-0.2","5e4465013f75e52fc82f7096","C3","batch3","","719","","","tol_tohand","","","","","","","","","","","tol_peg_1","719","719","0","[[0,0,0],[2,0],[3]]","3","[[2,1,3],[0,0],[0]]","1","0","","","","","","5"
"","","","","","single-stim-button","346","924855","0.0-4.0-13.2-1.2","5e4465013f75e52fc82f7096","C3","batch3","","709","","","tol_toboard","","","","","","","","","","","tol_peg_2","709","709","0","[[0,0,0],[2,1],[3]]","3","[[2,1,3],[0,0],[0]]","1","0","","","","","","5"
"","","","","","single-stim-button","347","927577","0.0-4.0-13.3-0.3","5e4465013f75e52fc82f7096","C3","batch3","","2722","","","tol_tohand","","","","","","","","","","","tol_peg_3","2722","2722","0","[[0,0,0],[2,1],[0]]","4","[[2,1,3],[0,0],[0]]","1","0","","","","","","5"
