"success","timeout","failed_images","failed_audio","failed_video","trial_type","trial_index","time_elapsed","internal_node_id","subject_id","study_id","session_id","view_history","rt","stimulus","response","task","correct","answer","item","fiar_detect_rt","fiar_detect_correct","total_correct_fiar_detect","post_trial_gap","choices","mouse_click","stim_duration","block_duration","timing_post_trial","current_position","tol_num_moves_made","tol_target","tol_problem_id","tol_rt","key_press","possible_responses","tol_correct","preplanning","tol_rt_per_trial","tol_min_moves","spm_correct","spm_rt"
"true","false","[]","[]","[]","preload","0","9313","0.0-0.0","5e46d70ab1f1c5000d96800d","B2","batch2","","","","","","","","","","","","","","","","","","","","","","","","","","","","","",""
"true","","","","","fullscreen","1","25993","0.0-1.0-0.0","5e46d70ab1f1c5000d96800d","B2","batch2","","","","","","","","","","","","","","","","","","","","","","","","","","","","","",""
"true","","","","","fullscreen","2","51226","0.0-2.0-0.0","5e46d70ab1f1c5000d96800d","B2","batch2","","","","","","","","","","","","","","","","","","","","","","","","","","","","","",""
"","","","","","instructions","3","182819","0.0-2.0-1.0-0.0","5e46d70ab1f1c5000d96800d","B2","batch2","[{""page_index"":0,""viewing_time"":119005},{""page_index"":1,""viewing_time"":12583.10000000894}]","131589.5","","","","","","","","","","","","","","","","","","","","","","","","","","","",""
"","","","","","html-button-response","4","184863","0.0-2.0-1.0-1.0-0.0","5e46d70ab1f1c5000d96800d","B2","batch2","","2005.5","<p class=block-text> Let's answer a few questions <br>","0","pattern_enter_quiz","","","","","","","","","","","","","","","","","","","","","","","","",""
"","","","","","html-button-response","5","188900","0.0-2.0-1.0-1.0-1.0","5e46d70ab1f1c5000d96800d","B2","batch2","","4032.4000000059605","<p class = block-text>True or False: You will have as much time as you want to make each choice. <br></p>","1","pattern_quiz","true","","","","","","","","","","","","","","","","","","","","","","","",""
"","","","","","html-button-response","6","191459","0.0-2.0-1.0-1.0-2.0","5e46d70ab1f1c5000d96800d","B2","batch2","","2551.0999999940395","<p class = block-text>Correct! You should make your choice <strong> as fast as you can</strong>.</p>","0","pattern_quiz_feedback","","","","","","","","","","","","","","","","","","","","","","","","",""
"","","","","","html-button-response","7","199091","0.0-2.0-1.0-1.0-3.0","5e46d70ab1f1c5000d96800d","B2","batch2","","7629.20000000298","<p class = block-text>True or False: You will look for 4 pieces in black or white color connected in a row either horizontally, vertically or diagonally. <br></p>","0","pattern_quiz","true","","","","","","","","","","","","","","","","","","","","","","","",""
"","","","","","html-button-response","8","200397","0.0-2.0-1.0-1.0-4.0","5e46d70ab1f1c5000d96800d","B2","batch2","","1302.0999999940395","<p class = block-text>Correct! </p>","0","pattern_quiz_feedback","","","","","","","","","","","","","","","","","","","","","","","","",""
"","","","","","html-button-response","9","202460","0.0-2.0-2.0","5e46d70ab1f1c5000d96800d","B2","batch2","","2029","<p class=block-text> Now that you've understood the game, let's do a few practice trials before we start!<br> <br>","0","pattern_enter_practice","","","","","","","","","","","","","","","","","","","","","","","","",""
"","","","","","image-keyboard-response","10","206701","0.0-2.0-3.0-0.0","5e46d70ab1f1c5000d96800d","B2","batch2","","4073.7000000029802","stim/prac_yes_18_hor_w1.png","f","pattern_practice","true","f","","","","","","","","","","","","","","","","","","","","","","",""
"","","","","","html-keyboard-response","11","207785","0.0-2.0-3.0-1.0","5e46d70ab1f1c5000d96800d","B2","batch2","","null","<p style=""font-size:30px;color:green;"">Correct!</p>","null","pattern_feedback","","","","","","","","","","","","","","","","","","","","","","","","",""
"","","","","","image-keyboard-response","12","209310","0.0-2.0-3.0-0.1","5e46d70ab1f1c5000d96800d","B2","batch2","","1515.2000000029802","stim/prac_no_18_1.png","j","pattern_practice","true","j","","","","","","","","","","","","","","","","","","","","","","",""
"","","","","","html-keyboard-response","13","210512","0.0-2.0-3.0-1.1","5e46d70ab1f1c5000d96800d","B2","batch2","","null","<p style=""font-size:30px;color:green;"">Correct!</p>","null","pattern_feedback","","","","","","","","","","","","","","","","","","","","","","","","",""
"","","","","","image-keyboard-response","14","211194","0.0-2.0-3.0-0.2","5e46d70ab1f1c5000d96800d","B2","batch2","","678.1000000089407","stim/prac_yes_16_ver_w1.png","f","pattern_practice","true","f","","","","","","","","","","","","","","","","","","","","","","",""
"","","","","","html-keyboard-response","15","212266","0.0-2.0-3.0-1.2","5e46d70ab1f1c5000d96800d","B2","batch2","","null","<p style=""font-size:30px;color:green;"">Correct!</p>","null","pattern_feedback","","","","","","","","","","","","","","","","","","","","","","","","",""
"","","","","","image-keyboard-response","16","214052","0.0-2.0-3.0-0.3","5e46d70ab1f1c5000d96800d","B2","batch2","","1757.199999988079","stim/prac_no_16_1.png","j","pattern_practice","true","j","","","","","","","","","","","","","","","","","","","","","","",""
"","","","","","html-keyboard-response","17","215123","0.0-2.0-3.0-1.3","5e46d70ab1f1c5000d96800d","B2","batch2","","null","<p style=""font-size:30px;color:green;"">Correct!</p>","null","pattern_feedback","","","","","","","","","","","","","","","","","","","","","","","","",""
"","","","","","image-keyboard-response","18","216072","0.0-2.0-3.0-0.4","5e46d70ab1f1c5000d96800d","B2","batch2","","945.9000000059605","stim/prac_yes_20_dia_b1.png","f","pattern_practice","true","f","","","","","","","","","","","","","","","","","","","","","","",""
"","","","","","html-keyboard-response","19","217180","0.0-2.0-3.0-1.4","5e46d70ab1f1c5000d96800d","B2","batch2","","null","<p style=""font-size:30px;color:green;"">Correct!</p>","null","pattern_feedback","","","","","","","","","","","","","","","","","","","","","","","","",""
"","","","","","html-button-response","20","231549","0.0-2.0-4.0","5e46d70ab1f1c5000d96800d","B2","batch2","","14367","<p class=block-text> Good job! You are done with practice trials!<br>
        You responded correctly on 100% of the trials.<br>
        Press the button below to start official trials. Now you won't see any feedback about your response</p>","0","pattern_enter_official_trials","","","","","","","","","","","","","","","","","","","","","","","","",""
"","","","","","html-keyboard-response","21","232354","0.0-2.0-5.0-0.0","5e46d70ab1f1c5000d96800d","B2","batch2","","null","<p class=block-text>Trial 1 out of 78</p>","null","pattern_show_trial_num","","","","","","","","","","","","","","","","","","","","","","","","",""
"","","","","","image-keyboard-response","22","233747","0.0-2.0-5.0-1.0","5e46d70ab1f1c5000d96800d","B2","batch2","","1388.2999999970198","stim/no_12_1.png","j","pattern_response","true","j","pattern_01","1388.2999999970198","true","1","","","","","","","","","","","","","","","","","","",""
"","","","","","html-keyboard-response","23","235071","0.0-2.0-5.0-0.1","5e46d70ab1f1c5000d96800d","B2","batch2","","null","<p class=block-text>Trial 2 out of 78</p>","null","pattern_show_trial_num","","","","","","","","","","","","","","","","","","","","","","","","",""
"","","","","","image-keyboard-response","24","239026","0.0-2.0-5.0-1.1","5e46d70ab1f1c5000d96800d","B2","batch2","","3951.800000011921","stim/no_33_1_b.png","j","pattern_response","true","j","pattern_15","3951.800000011921","true","2","","","","","","","","","","","","","","","","","","",""
"","","","","","html-keyboard-response","25","240401","0.0-2.0-5.0-0.2","5e46d70ab1f1c5000d96800d","B2","batch2","","null","<p class=block-text>Trial 3 out of 78</p>","null","pattern_show_trial_num","","","","","","","","","","","","","","","","","","","","","","","","",""
"","","","","","image-keyboard-response","26","241318","0.0-2.0-5.0-1.2","5e46d70ab1f1c5000d96800d","B2","batch2","","912.4000000059605","stim/yes_23_ver_b1.png","f","pattern_response","true","f","pattern_48","912.4000000059605","true","3","","","","","","","","","","","","","","","","","","",""
"","","","","","html-keyboard-response","27","242655","0.0-2.0-5.0-0.3","5e46d70ab1f1c5000d96800d","B2","batch2","","null","<p class=block-text>Trial 4 out of 78</p>","null","pattern_show_trial_num","","","","","","","","","","","","","","","","","","","","","","","","",""
"","","","","","image-keyboard-response","28","244448","0.0-2.0-5.0-1.3","5e46d70ab1f1c5000d96800d","B2","batch2","","1789.2999999970198","stim/yes_70_ver_b1.png","f","pattern_response","true","f","pattern_80","1789.2999999970198","true","4","","","","","","","","","","","","","","","","","","",""
"","","","","","html-keyboard-response","29","245847","0.0-2.0-5.0-0.4","5e46d70ab1f1c5000d96800d","B2","batch2","","null","<p class=block-text>Trial 5 out of 78</p>","null","pattern_show_trial_num","","","","","","","","","","","","","","","","","","","","","","","","",""
"","","","","","image-keyboard-response","30","247253","0.0-2.0-5.0-1.4","5e46d70ab1f1c5000d96800d","B2","batch2","","1401.6000000089407","stim/no_18_1_b.png","j","pattern_response","true","j","pattern_05","1401.6000000089407","true","5","","","","","","","","","","","","","","","","","","",""
"","","","","","html-keyboard-response","31","248588","0.0-2.0-5.0-0.5","5e46d70ab1f1c5000d96800d","B2","batch2","","null","<p class=block-text>Trial 6 out of 78</p>","null","pattern_show_trial_num","","","","","","","","","","","","","","","","","","","","","","","","",""
"","","","","","image-keyboard-response","32","249420","0.0-2.0-5.0-1.5","5e46d70ab1f1c5000d96800d","B2","batch2","","829.0999999940395","stim/yes_12_hor_w1_w.png","f","pattern_response","true","f","pattern_42","829.0999999940395","true","6","","","","","","","","","","","","","","","","","","",""
"","","","","","html-keyboard-response","33","250795","0.0-2.0-5.0-0.6","5e46d70ab1f1c5000d96800d","B2","batch2","","null","<p class=block-text>Trial 7 out of 78</p>","null","pattern_show_trial_num","","","","","","","","","","","","","","","","","","","","","","","","",""
"","","","","","image-keyboard-response","34","253859","0.0-2.0-5.0-1.6","5e46d70ab1f1c5000d96800d","B2","batch2","","3060.2999999970198","stim/no_28_2.png","j","pattern_response","true","j","pattern_11","3060.2999999970198","true","7","","","","","","","","","","","","","","","","","","",""
"","","","","","html-keyboard-response","35","255226","0.0-2.0-5.0-0.7","5e46d70ab1f1c5000d96800d","B2","batch2","","null","<p class=block-text>Trial 8 out of 78</p>","null","pattern_show_trial_num","","","","","","","","","","","","","","","","","","","","","","","","",""
"","","","","","image-keyboard-response","36","256114","0.0-2.0-5.0-1.7","5e46d70ab1f1c5000d96800d","B2","batch2","","883.7000000029802","stim/yes_36_ver_w1_w.png","f","pattern_response","true","f","pattern_58","883.7000000029802","true","8","","","","","","","","","","","","","","","","","","",""
"","","","","","html-keyboard-response","37","257448","0.0-2.0-5.0-0.8","5e46d70ab1f1c5000d96800d","B2","batch2","","null","<p class=block-text>Trial 9 out of 78</p>","null","pattern_show_trial_num","","","","","","","","","","","","","","","","","","","","","","","","",""
"","","","","","image-keyboard-response","38","260899","0.0-2.0-5.0-1.8","5e46d70ab1f1c5000d96800d","B2","batch2","","3446.7999999970198","stim/no_39_1_w.png","j","pattern_response","true","j","pattern_21","3446.7999999970198","true","9","","","","","","","","","","","","","","","","","","",""
"","","","","","html-keyboard-response","39","262241","0.0-2.0-5.0-0.9","5e46d70ab1f1c5000d96800d","B2","batch2","","null","<p class=block-text>Trial 10 out of 78</p>","null","pattern_show_trial_num","","","","","","","","","","","","","","","","","","","","","","","","",""
"","","","","","image-keyboard-response","40","263337","0.0-2.0-5.0-1.9","5e46d70ab1f1c5000d96800d","B2","batch2","","1091.1000000089407","stim/yes_44_ver_w1_w.png","f","pattern_response","true","f","pattern_66","1091.1000000089407","true","10","","","","","","","","","","","","","","","","","","",""
"","","","","","html-keyboard-response","41","264752","0.0-2.0-5.0-0.10","5e46d70ab1f1c5000d96800d","B2","batch2","","null","<p class=block-text>Trial 11 out of 78</p>","null","pattern_show_trial_num","","","","","","","","","","","","","","","","","","","","","","","","",""
"","","","","","image-keyboard-response","42","268389","0.0-2.0-5.0-1.10","5e46d70ab1f1c5000d96800d","B2","batch2","","3633.5","stim/no_49_2_b.png","j","pattern_response","true","j","pattern_29","3633.5","true","11","","","","","","","","","","","","","","","","","","",""
"","","","","","html-keyboard-response","43","269709","0.0-2.0-5.0-0.11","5e46d70ab1f1c5000d96800d","B2","batch2","","null","<p class=block-text>Trial 12 out of 78</p>","null","pattern_show_trial_num","","","","","","","","","","","","","","","","","","","","","","","","",""
"","","","","","image-keyboard-response","44","271220","0.0-2.0-5.0-1.11","5e46d70ab1f1c5000d96800d","B2","batch2","","1500.7000000029802","stim/no_15_1_w.png","j","pattern_response","true","j","pattern_03","1500.7000000029802","true","12","","","","","","","","","","","","","","","","","","",""
"","","","","","html-keyboard-response","45","272561","0.0-2.0-5.0-0.12","5e46d70ab1f1c5000d96800d","B2","batch2","","null","<p class=block-text>Trial 13 out of 78</p>","null","pattern_show_trial_num","","","","","","","","","","","","","","","","","","","","","","","","",""
"","","","","","image-keyboard-response","46","273938","0.0-2.0-5.0-1.12","5e46d70ab1f1c5000d96800d","B2","batch2","","1373.2000000029802","stim/yes_53_ver_b1_b.png","f","pattern_response","true","f","pattern_74","1373.2000000029802","true","13","","","","","","","","","","","","","","","","","","",""
"","","","","","html-keyboard-response","47","275256","0.0-2.0-5.0-0.13","5e46d70ab1f1c5000d96800d","B2","batch2","","null","<p class=block-text>Trial 14 out of 78</p>","null","pattern_show_trial_num","","","","","","","","","","","","","","","","","","","","","","","","",""
"","","","","","image-keyboard-response","48","277034","0.0-2.0-5.0-1.13","5e46d70ab1f1c5000d96800d","B2","batch2","","1775","stim/yes_33_dia_w1_w.png","j","pattern_response","false","f","pattern_56","1775","false","13","","","","","","","","","","","","","","","","","","",""
"","","","","","html-keyboard-response","49","278364","0.0-2.0-5.0-0.14","5e46d70ab1f1c5000d96800d","B2","batch2","","null","<p class=block-text>Trial 15 out of 78</p>","null","pattern_show_trial_num","","","","","","","","","","","","","","","","","","","","","","","","",""
"","","","","","image-keyboard-response","50","279109","0.0-2.0-5.0-1.14","5e46d70ab1f1c5000d96800d","B2","batch2","","740.2999999970198","stim/yes_17_ver_b1_b.png","f","pattern_response","true","f","pattern_46","740.2999999970198","true","14","","","","","","","","","","","","","","","","","","",""
"","","","","","html-keyboard-response","51","280454","0.0-2.0-5.0-0.15","5e46d70ab1f1c5000d96800d","B2","batch2","","null","<p class=block-text>Trial 16 out of 78</p>","null","pattern_show_trial_num","","","","","","","","","","","","","","","","","","","","","","","","",""
"","","","","","image-keyboard-response","52","282595","0.0-2.0-5.0-1.15","5e46d70ab1f1c5000d96800d","B2","batch2","","2134.2000000029802","stim/no_25_1_b.png","j","pattern_response","true","j","pattern_09","2134.2000000029802","true","15","","","","","","","","","","","","","","","","","","",""
"","","","","","html-keyboard-response","53","283921","0.0-2.0-5.0-0.16","5e46d70ab1f1c5000d96800d","B2","batch2","","null","<p class=block-text>Trial 17 out of 78</p>","null","pattern_show_trial_num","","","","","","","","","","","","","","","","","","","","","","","","",""
"","","","","","image-keyboard-response","54","287806","0.0-2.0-5.0-1.16","5e46d70ab1f1c5000d96800d","B2","batch2","","3881.1000000089407","stim/no_51_1.png","j","pattern_response","true","j","pattern_31","3881.1000000089407","true","16","","","","","","","","","","","","","","","","","","",""
"","","","","","html-keyboard-response","55","289129","0.0-2.0-5.0-0.17","5e46d70ab1f1c5000d96800d","B2","batch2","","null","<p class=block-text>Trial 18 out of 78</p>","null","pattern_show_trial_num","","","","","","","","","","","","","","","","","","","","","","","","",""
"","","","","","image-keyboard-response","56","292650","0.0-2.0-5.0-1.17","5e46d70ab1f1c5000d96800d","B2","batch2","","3513","stim/no_53_1_b.png","j","pattern_response","true","j","pattern_33","3513","true","17","","","","","","","","","","","","","","","","","","",""
"","","","","","html-keyboard-response","57","293971","0.0-2.0-5.0-0.18","5e46d70ab1f1c5000d96800d","B2","batch2","","null","<p class=block-text>Trial 19 out of 78</p>","null","pattern_show_trial_num","","","","","","","","","","","","","","","","","","","","","","","","",""
"","","","","","image-keyboard-response","58","297095","0.0-2.0-5.0-1.18","5e46d70ab1f1c5000d96800d","B2","batch2","","3120.4000000059605","stim/yes_46_ver_b1_b.png","f","pattern_response","true","f","pattern_68","3120.4000000059605","true","18","","","","","","","","","","","","","","","","","","",""
"","","","","","html-keyboard-response","59","298435","0.0-2.0-5.0-0.19","5e46d70ab1f1c5000d96800d","B2","batch2","","null","<p class=block-text>Trial 20 out of 78</p>","null","pattern_show_trial_num","","","","","","","","","","","","","","","","","","","","","","","","",""
"","","","","","image-keyboard-response","60","299453","0.0-2.0-5.0-1.19","5e46d70ab1f1c5000d96800d","B2","batch2","","1013.9000000059605","stim/yes_49_hor_w1_b.png","f","pattern_response","true","f","pattern_70","1013.9000000059605","true","19","","","","","","","","","","","","","","","","","","",""
"","","","","","html-keyboard-response","61","300774","0.0-2.0-5.0-0.20","5e46d70ab1f1c5000d96800d","B2","batch2","","null","<p class=block-text>Trial 21 out of 78</p>","null","pattern_show_trial_num","","","","","","","","","","","","","","","","","","","","","","","","",""
"","","","","","image-keyboard-response","62","303055","0.0-2.0-5.0-1.20","5e46d70ab1f1c5000d96800d","B2","batch2","","2277.6000000089407","stim/no_43_2_b.png","j","pattern_response","true","j","pattern_23","2277.6000000089407","true","20","","","","","","","","","","","","","","","","","","",""
"","","","","","html-keyboard-response","63","304419","0.0-2.0-5.0-0.21","5e46d70ab1f1c5000d96800d","B2","batch2","","null","<p class=block-text>Trial 22 out of 78</p>","null","pattern_show_trial_num","","","","","","","","","","","","","","","","","","","","","","","","",""
"","","","","","image-keyboard-response","64","305242","0.0-2.0-5.0-1.21","5e46d70ab1f1c5000d96800d","B2","batch2","","819.0999999940395","stim/yes_39_hor_w1_w.png","f","pattern_response","true","f","pattern_62","819.0999999940395","true","21","","","","","","","","","","","","","","","","","","",""
"","","","","","html-keyboard-response","65","306619","0.0-2.0-5.0-0.22","5e46d70ab1f1c5000d96800d","B2","batch2","","null","<p class=block-text>Trial 23 out of 78</p>","null","pattern_show_trial_num","","","","","","","","","","","","","","","","","","","","","","","","",""
"","","","","","image-keyboard-response","66","309127","0.0-2.0-5.0-1.22","5e46d70ab1f1c5000d96800d","B2","batch2","","2505.300000011921","stim/yes_51_dia_b1.png","f","pattern_response","true","f","pattern_72","2505.300000011921","true","22","","","","","","","","","","","","","","","","","","",""
"","","","","","html-keyboard-response","67","310457","0.0-2.0-5.0-0.23","5e46d70ab1f1c5000d96800d","B2","batch2","","null","<p class=block-text>Trial 24 out of 78</p>","null","pattern_show_trial_num","","","","","","","","","","","","","","","","","","","","","","","","",""
"","","","","","image-keyboard-response","68","311842","0.0-2.0-5.0-1.23","5e46d70ab1f1c5000d96800d","B2","batch2","","1381.2000000029802","stim/yes_37_hor_w1_w.png","f","pattern_response","true","f","pattern_60","1381.2000000029802","true","23","","","","","","","","","","","","","","","","","","",""
"","","","","","html-keyboard-response","69","313169","0.0-2.0-5.0-0.24","5e46d70ab1f1c5000d96800d","B2","batch2","","null","<p class=block-text>Trial 25 out of 78</p>","null","pattern_show_trial_num","","","","","","","","","","","","","","","","","","","","","","","","",""
"","","","","","image-keyboard-response","70","318294","0.0-2.0-5.0-1.24","5e46d70ab1f1c5000d96800d","B2","batch2","","5116.9000000059605","stim/no_67_1.png","j","pattern_response","true","j","pattern_39","5116.9000000059605","true","24","","","","","","","","","","","","","","","","","","",""
"","","","","","html-keyboard-response","71","319617","0.0-2.0-5.0-0.25","5e46d70ab1f1c5000d96800d","B2","batch2","","null","<p class=block-text>Trial 26 out of 78</p>","null","pattern_show_trial_num","","","","","","","","","","","","","","","","","","","","","","","","",""
"","","","","","image-keyboard-response","72","321361","0.0-2.0-5.0-1.25","5e46d70ab1f1c5000d96800d","B2","batch2","","1738.0999999940395","stim/yes_63_dia_b1.png","f","pattern_response","true","f","pattern_78","1738.0999999940395","true","25","","","","","","","","","","","","","","","","","","",""
"","","","","","html-keyboard-response","73","322690","0.0-2.0-5.0-0.26","5e46d70ab1f1c5000d96800d","B2","batch2","","null","<p class=block-text>Trial 27 out of 78</p>","null","pattern_show_trial_num","","","","","","","","","","","","","","","","","","","","","","","","",""
"","","","","","image-keyboard-response","74","325250","0.0-2.0-5.0-1.26","5e46d70ab1f1c5000d96800d","B2","batch2","","2540.7999999970198","stim/no_37_2_w.png","j","pattern_response","true","j","pattern_19","2540.7999999970198","true","26","","","","","","","","","","","","","","","","","","",""
"","","","","","html-keyboard-response","75","326604","0.0-2.0-5.0-0.27","5e46d70ab1f1c5000d96800d","B2","batch2","","null","<p class=block-text>Trial 28 out of 78</p>","null","pattern_show_trial_num","","","","","","","","","","","","","","","","","","","","","","","","",""
"","","","","","image-keyboard-response","76","328510","0.0-2.0-5.0-1.27","5e46d70ab1f1c5000d96800d","B2","batch2","","1902.6000000089407","stim/no_22_1_b.png","j","pattern_response","true","j","pattern_07","1902.6000000089407","true","27","","","","","","","","","","","","","","","","","","",""
"","","","","","html-keyboard-response","77","329849","0.0-2.0-5.0-0.28","5e46d70ab1f1c5000d96800d","B2","batch2","","null","<p class=block-text>Trial 29 out of 78</p>","null","pattern_show_trial_num","","","","","","","","","","","","","","","","","","","","","","","","",""
"","","","","","image-keyboard-response","78","333088","0.0-2.0-5.0-1.28","5e46d70ab1f1c5000d96800d","B2","batch2","","3211.8999999910593","stim/no_30_1_b.png","j","pattern_response","true","j","pattern_13","3211.8999999910593","true","28","","","","","","","","","","","","","","","","","","",""
"","","","","","html-keyboard-response","79","334452","0.0-2.0-5.0-0.29","5e46d70ab1f1c5000d96800d","B2","batch2","","null","<p class=block-text>Trial 30 out of 78</p>","null","pattern_show_trial_num","","","","","","","","","","","","","","","","","","","","","","","","",""
"","","","","","image-keyboard-response","80","335759","0.0-2.0-5.0-1.29","5e46d70ab1f1c5000d96800d","B2","batch2","","1302.2999999970198","stim/yes_26_dia_w2_w.png","j","pattern_response","false","f","pattern_50","1302.2999999970198","false","28","","","","","","","","","","","","","","","","","","",""
"","","","","","html-keyboard-response","81","337071","0.0-2.0-5.0-0.30","5e46d70ab1f1c5000d96800d","B2","batch2","","null","<p class=block-text>Trial 31 out of 78</p>","null","pattern_show_trial_num","","","","","","","","","","","","","","","","","","","","","","","","",""
"","","","","","image-keyboard-response","82","342215","0.0-2.0-5.0-1.30","5e46d70ab1f1c5000d96800d","B2","batch2","","5140.100000008941","stim/no_36_1_b.png","j","pattern_response","true","j","pattern_17","5140.100000008941","true","29","","","","","","","","","","","","","","","","","","",""
"","","","","","html-keyboard-response","83","343550","0.0-2.0-5.0-0.31","5e46d70ab1f1c5000d96800d","B2","batch2","","null","<p class=block-text>Trial 32 out of 78</p>","null","pattern_show_trial_num","","","","","","","","","","","","","","","","","","","","","","","","",""
"","","","","","image-keyboard-response","84","349609","0.0-2.0-5.0-1.31","5e46d70ab1f1c5000d96800d","B2","batch2","","6054.199999988079","stim/yes_58_dia_w1_w.png","j","pattern_response","false","f","pattern_76","6054.199999988079","false","29","","","","","","","","","","","","","","","","","","",""
"","","","","","html-keyboard-response","85","350963","0.0-2.0-5.0-0.32","5e46d70ab1f1c5000d96800d","B2","batch2","","null","<p class=block-text>Trial 33 out of 78</p>","null","pattern_show_trial_num","","","","","","","","","","","","","","","","","","","","","","","","",""
"","","","","","image-keyboard-response","86","356753","0.0-2.0-5.0-1.32","5e46d70ab1f1c5000d96800d","B2","batch2","","5785.100000008941","stim/no_45_1_w.png","j","pattern_response","true","j","pattern_25","5785.100000008941","true","30","","","","","","","","","","","","","","","","","","",""
"","","","","","html-keyboard-response","87","358073","0.0-2.0-5.0-0.33","5e46d70ab1f1c5000d96800d","B2","batch2","","null","<p class=block-text>Trial 34 out of 78</p>","null","pattern_show_trial_num","","","","","","","","","","","","","","","","","","","","","","","","",""
"","","","","","image-keyboard-response","88","358852","0.0-2.0-5.0-1.33","5e46d70ab1f1c5000d96800d","B2","batch2","","774.3000000119209","stim/yes_30_ver_b1_b.png","f","pattern_response","true","f","pattern_54","774.3000000119209","true","31","","","","","","","","","","","","","","","","","","",""
"","","","","","html-keyboard-response","89","360191","0.0-2.0-5.0-0.34","5e46d70ab1f1c5000d96800d","B2","batch2","","null","<p class=block-text>Trial 35 out of 78</p>","null","pattern_show_trial_num","","","","","","","","","","","","","","","","","","","","","","","","",""
"","","","","","image-keyboard-response","90","363965","0.0-2.0-5.0-1.34","5e46d70ab1f1c5000d96800d","B2","batch2","","3770.0999999940395","stim/no_47_1_b.png","j","pattern_response","true","j","pattern_27","3770.0999999940395","true","32","","","","","","","","","","","","","","","","","","",""
"","","","","","html-keyboard-response","91","365321","0.0-2.0-5.0-0.35","5e46d70ab1f1c5000d96800d","B2","batch2","","null","<p class=block-text>Trial 36 out of 78</p>","null","pattern_show_trial_num","","","","","","","","","","","","","","","","","","","","","","","","",""
"","","","","","image-keyboard-response","92","366126","0.0-2.0-5.0-1.35","5e46d70ab1f1c5000d96800d","B2","batch2","","801.3000000119209","stim/yes_29_hor_b1_b.png","f","pattern_response","true","f","pattern_52","801.3000000119209","true","33","","","","","","","","","","","","","","","","","","",""
"","","","","","html-keyboard-response","93","367462","0.0-2.0-5.0-0.36","5e46d70ab1f1c5000d96800d","B2","batch2","","null","<p class=block-text>Trial 37 out of 78</p>","null","pattern_show_trial_num","","","","","","","","","","","","","","","","","","","","","","","","",""
"","","","","","image-keyboard-response","94","368228","0.0-2.0-5.0-1.36","5e46d70ab1f1c5000d96800d","B2","batch2","","746","stim/yes_15_dia_b1u_b.png","f","pattern_response","true","f","pattern_44","746","true","34","","","","","","","","","","","","","","","","","","",""
"","","","","","html-keyboard-response","95","369564","0.0-2.0-5.0-0.37","5e46d70ab1f1c5000d96800d","B2","batch2","","null","<p class=block-text>Trial 38 out of 78</p>","null","pattern_show_trial_num","","","","","","","","","","","","","","","","","","","","","","","","",""
"","","","","","image-keyboard-response","96","375892","0.0-2.0-5.0-1.37","5e46d70ab1f1c5000d96800d","B2","batch2","","6301.20000000298","stim/no_58_1_w.png","j","pattern_response","true","j","pattern_35","6301.20000000298","true","35","","","","","","","","","","","","","","","","","","",""
"","","","","","html-keyboard-response","97","377202","0.0-2.0-5.0-0.38","5e46d70ab1f1c5000d96800d","B2","batch2","","null","<p class=block-text>Trial 39 out of 78</p>","null","pattern_show_trial_num","","","","","","","","","","","","","","","","","","","","","","","","",""
"","","","","","image-keyboard-response","98","380390","0.0-2.0-5.0-1.38","5e46d70ab1f1c5000d96800d","B2","batch2","","3184","stim/yes_42_dia_w1_w.png","j","pattern_response","false","f","pattern_64","3184","false","35","","","","","","","","","","","","","","","","","","",""
"","","","","","image-keyboard-response","99","384573","0.0-2.0-6.0","5e46d70ab1f1c5000d96800d","B2","batch2","","3666","stim/empty_board.png","j","attention_check","true","j","","","","","500","[""f"",""j""]","","","","","","","","","","","","","","","","",""
"","","","","","html-keyboard-response","100","385389","0.0-2.0-7.0-0.0","5e46d70ab1f1c5000d96800d","B2","batch2","","null","<p class=block-text>Trial 40 out of 78</p>","null","pattern_show_trial_num","","","","","","","","","","","","","","","","","","","","","","","","",""
"","","","","","image-keyboard-response","101","387035","0.0-2.0-7.0-1.0","5e46d70ab1f1c5000d96800d","B2","batch2","","1641.6000000089407","stim/yes_52_ver_w1.png","f","pattern_response","true","f","pattern_73","1641.6000000089407","true","36","","","","","","","","","","","","","","","","","","",""
"","","","","","html-keyboard-response","102","388359","0.0-2.0-7.0-0.1","5e46d70ab1f1c5000d96800d","B2","batch2","","null","<p class=block-text>Trial 41 out of 78</p>","null","pattern_show_trial_num","","","","","","","","","","","","","","","","","","","","","","","","",""
"","","","","","image-keyboard-response","103","394143","0.0-2.0-7.0-1.1","5e46d70ab1f1c5000d96800d","B2","batch2","","5779.70000000298","stim/no_44_1.png","j","pattern_response","true","j","pattern_24","5779.70000000298","true","37","","","","","","","","","","","","","","","","","","",""
"","","","","","html-keyboard-response","104","395463","0.0-2.0-7.0-0.2","5e46d70ab1f1c5000d96800d","B2","batch2","","null","<p class=block-text>Trial 42 out of 78</p>","null","pattern_show_trial_num","","","","","","","","","","","","","","","","","","","","","","","","",""
"","","","","","image-keyboard-response","105","396647","0.0-2.0-7.0-1.2","5e46d70ab1f1c5000d96800d","B2","batch2","","1180.0999999940395","stim/no_13_2_b.png","j","pattern_response","true","j","pattern_02","1180.0999999940395","true","38","","","","","","","","","","","","","","","","","","",""
"","","","","","html-keyboard-response","106","397969","0.0-2.0-7.0-0.3","5e46d70ab1f1c5000d96800d","B2","batch2","","null","<p class=block-text>Trial 43 out of 78</p>","null","pattern_show_trial_num","","","","","","","","","","","","","","","","","","","","","","","","",""
"","","","","","image-keyboard-response","107","403000","0.0-2.0-7.0-1.3","5e46d70ab1f1c5000d96800d","B2","batch2","","5022.100000008941","stim/no_48_1_w.png","j","pattern_response","true","j","pattern_28","5022.100000008941","true","39","","","","","","","","","","","","","","","","","","",""
"","","","","","html-keyboard-response","108","404330","0.0-2.0-7.0-0.4","5e46d70ab1f1c5000d96800d","B2","batch2","","null","<p class=block-text>Trial 44 out of 78</p>","null","pattern_show_trial_num","","","","","","","","","","","","","","","","","","","","","","","","",""
"","","","","","image-keyboard-response","109","409066","0.0-2.0-7.0-1.4","5e46d70ab1f1c5000d96800d","B2","batch2","","4727.79999999702","stim/no_50_1.png","j","pattern_response","true","j","pattern_30","4727.79999999702","true","40","","","","","","","","","","","","","","","","","","",""
"","","","","","html-keyboard-response","110","410389","0.0-2.0-7.0-0.5","5e46d70ab1f1c5000d96800d","B2","batch2","","null","<p class=block-text>Trial 45 out of 78</p>","null","pattern_show_trial_num","","","","","","","","","","","","","","","","","","","","","","","","",""
"","","","","","image-keyboard-response","111","414684","0.0-2.0-7.0-1.5","5e46d70ab1f1c5000d96800d","B2","batch2","","4290.4000000059605","stim/no_36_2_w.png","j","pattern_response","true","j","pattern_18","4290.4000000059605","true","41","","","","","","","","","","","","","","","","","","",""
"","","","","","html-keyboard-response","112","416008","0.0-2.0-7.0-0.6","5e46d70ab1f1c5000d96800d","B2","batch2","","null","<p class=block-text>Trial 46 out of 78</p>","null","pattern_show_trial_num","","","","","","","","","","","","","","","","","","","","","","","","",""
"","","","","","image-keyboard-response","113","419244","0.0-2.0-7.0-1.6","5e46d70ab1f1c5000d96800d","B2","batch2","","3229.5999999940395","stim/yes_29_ver_w1.png","f","pattern_response","true","f","pattern_53","3229.5999999940395","true","42","","","","","","","","","","","","","","","","","","",""
"","","","","","html-keyboard-response","114","420565","0.0-2.0-7.0-0.7","5e46d70ab1f1c5000d96800d","B2","batch2","","null","<p class=block-text>Trial 47 out of 78</p>","null","pattern_show_trial_num","","","","","","","","","","","","","","","","","","","","","","","","",""
"","","","","","image-keyboard-response","115","421869","0.0-2.0-7.0-1.7","5e46d70ab1f1c5000d96800d","B2","batch2","","1296.5999999940395","stim/yes_22_ver_w1.png","f","pattern_response","true","f","pattern_47","1296.5999999940395","true","43","","","","","","","","","","","","","","","","","","",""
"","","","","","html-keyboard-response","116","423184","0.0-2.0-7.0-0.8","5e46d70ab1f1c5000d96800d","B2","batch2","","null","<p class=block-text>Trial 48 out of 78</p>","null","pattern_show_trial_num","","","","","","","","","","","","","","","","","","","","","","","","",""
"","","","","","image-keyboard-response","117","429008","0.0-2.0-7.0-1.8","5e46d70ab1f1c5000d96800d","B2","batch2","","5816.899999991059","stim/no_55_1_w.png","j","pattern_response","true","j","pattern_34","5816.899999991059","true","44","","","","","","","","","","","","","","","","","","",""
"","","","","","html-keyboard-response","118","430332","0.0-2.0-7.0-0.9","5e46d70ab1f1c5000d96800d","B2","batch2","","null","<p class=block-text>Trial 49 out of 78</p>","null","pattern_show_trial_num","","","","","","","","","","","","","","","","","","","","","","","","",""
"","","","","","image-keyboard-response","119","432646","0.0-2.0-7.0-1.9","5e46d70ab1f1c5000d96800d","B2","batch2","","2302","stim/no_26_1_w.png","j","pattern_response","true","j","pattern_10","2302","true","45","","","","","","","","","","","","","","","","","","",""
"","","","","","html-keyboard-response","120","433959","0.0-2.0-7.0-0.10","5e46d70ab1f1c5000d96800d","B2","batch2","","null","<p class=block-text>Trial 50 out of 78</p>","null","pattern_show_trial_num","","","","","","","","","","","","","","","","","","","","","","","","",""
"","","","","","image-keyboard-response","121","436627","0.0-2.0-7.0-1.10","5e46d70ab1f1c5000d96800d","B2","batch2","","2663.7000000029802","stim/no_23_1.png","j","pattern_response","true","j","pattern_08","2663.7000000029802","true","46","","","","","","","","","","","","","","","","","","",""
"","","","","","html-keyboard-response","122","437948","0.0-2.0-7.0-0.11","5e46d70ab1f1c5000d96800d","B2","batch2","","null","<p class=block-text>Trial 51 out of 78</p>","null","pattern_show_trial_num","","","","","","","","","","","","","","","","","","","","","","","","",""
"","","","","","image-keyboard-response","123","440964","0.0-2.0-7.0-1.11","5e46d70ab1f1c5000d96800d","B2","batch2","","3004.5","stim/yes_40_dia_b1_b.png","f","pattern_response","true","f","pattern_63","3004.5","true","47","","","","","","","","","","","","","","","","","","",""
"","","","","","html-keyboard-response","124","442280","0.0-2.0-7.0-0.12","5e46d70ab1f1c5000d96800d","B2","batch2","","null","<p class=block-text>Trial 52 out of 78</p>","null","pattern_show_trial_num","","","","","","","","","","","","","","","","","","","","","","","","",""
"","","","","","image-keyboard-response","125","444426","0.0-2.0-7.0-1.12","5e46d70ab1f1c5000d96800d","B2","batch2","","2134.6000000089407","stim/yes_35_dia_b1.png","f","pattern_response","true","f","pattern_57","2134.6000000089407","true","48","","","","","","","","","","","","","","","","","","",""
"","","","","","html-keyboard-response","126","445741","0.0-2.0-7.0-0.13","5e46d70ab1f1c5000d96800d","B2","batch2","","null","<p class=block-text>Trial 53 out of 78</p>","null","pattern_show_trial_num","","","","","","","","","","","","","","","","","","","","","","","","",""
"","","","","","image-keyboard-response","127","450603","0.0-2.0-7.0-1.13","5e46d70ab1f1c5000d96800d","B2","batch2","","4857.9000000059605","stim/no_42_1_w.png","j","pattern_response","true","j","pattern_22","4857.9000000059605","true","49","","","","","","","","","","","","","","","","","","",""
"","","","","","html-keyboard-response","128","451920","0.0-2.0-7.0-0.14","5e46d70ab1f1c5000d96800d","B2","batch2","","null","<p class=block-text>Trial 54 out of 78</p>","null","pattern_show_trial_num","","","","","","","","","","","","","","","","","","","","","","","","",""
"","","","","","image-keyboard-response","129","457067","0.0-2.0-7.0-1.14","5e46d70ab1f1c5000d96800d","B2","batch2","","5141.5999999940395","stim/no_46_1_b.png","j","pattern_response","true","j","pattern_26","5141.5999999940395","true","50","","","","","","","","","","","","","","","","","","",""
"","","","","","html-keyboard-response","130","458396","0.0-2.0-7.0-0.15","5e46d70ab1f1c5000d96800d","B2","batch2","","null","<p class=block-text>Trial 55 out of 78</p>","null","pattern_show_trial_num","","","","","","","","","","","","","","","","","","","","","","","","",""
"","","","","","image-keyboard-response","131","462952","0.0-2.0-7.0-1.15","5e46d70ab1f1c5000d96800d","B2","batch2","","4552.5","stim/no_52_1.png","j","pattern_response","true","j","pattern_32","4552.5","true","51","","","","","","","","","","","","","","","","","","",""
"","","","","","html-keyboard-response","132","464288","0.0-2.0-7.0-0.16","5e46d70ab1f1c5000d96800d","B2","batch2","","null","<p class=block-text>Trial 56 out of 78</p>","null","pattern_show_trial_num","","","","","","","","","","","","","","","","","","","","","","","","",""
"","","","","","image-keyboard-response","133","466409","0.0-2.0-7.0-1.16","5e46d70ab1f1c5000d96800d","B2","batch2","","2116.4000000059605","stim/yes_31_hor_b1.png","f","pattern_response","true","f","pattern_55","2116.4000000059605","true","52","","","","","","","","","","","","","","","","","","",""
"","","","","","html-keyboard-response","134","467735","0.0-2.0-7.0-0.17","5e46d70ab1f1c5000d96800d","B2","batch2","","null","<p class=block-text>Trial 57 out of 78</p>","null","pattern_show_trial_num","","","","","","","","","","","","","","","","","","","","","","","","",""
"","","","","","image-keyboard-response","135","468743","0.0-2.0-7.0-1.17","5e46d70ab1f1c5000d96800d","B2","batch2","","1003.6000000089407","stim/yes_38_hor_b1_b.png","f","pattern_response","true","f","pattern_61","1003.6000000089407","true","53","","","","","","","","","","","","","","","","","","",""
"","","","","","html-keyboard-response","136","470050","0.0-2.0-7.0-0.18","5e46d70ab1f1c5000d96800d","B2","batch2","","null","<p class=block-text>Trial 58 out of 78</p>","null","pattern_show_trial_num","","","","","","","","","","","","","","","","","","","","","","","","",""
"","","","","","image-keyboard-response","137","472631","0.0-2.0-7.0-1.18","5e46d70ab1f1c5000d96800d","B2","batch2","","2577.2999999970198","stim/yes_37_dia_w1.png","f","pattern_response","true","f","pattern_59","2577.2999999970198","true","54","","","","","","","","","","","","","","","","","","",""
"","","","","","html-keyboard-response","138","473951","0.0-2.0-7.0-0.19","5e46d70ab1f1c5000d96800d","B2","batch2","","null","<p class=block-text>Trial 59 out of 78</p>","null","pattern_show_trial_num","","","","","","","","","","","","","","","","","","","","","","","","",""
"","","","","","image-keyboard-response","139","475150","0.0-2.0-7.0-1.19","5e46d70ab1f1c5000d96800d","B2","batch2","","1187.4000000059605","stim/yes_45_hor_b2_b.png","f","pattern_response","true","f","pattern_67","1187.4000000059605","true","55","","","","","","","","","","","","","","","","","","",""
"","","","","","html-keyboard-response","140","476471","0.0-2.0-7.0-0.20","5e46d70ab1f1c5000d96800d","B2","batch2","","null","<p class=block-text>Trial 60 out of 78</p>","null","pattern_show_trial_num","","","","","","","","","","","","","","","","","","","","","","","","",""
"","","","","","image-keyboard-response","141","477241","0.0-2.0-7.0-1.20","5e46d70ab1f1c5000d96800d","B2","batch2","","760","stim/yes_25_hor_b1_b.png","f","pattern_response","true","f","pattern_49","760","true","56","","","","","","","","","","","","","","","","","","",""
"","","","","","html-keyboard-response","142","478580","0.0-2.0-7.0-0.21","5e46d70ab1f1c5000d96800d","B2","batch2","","null","<p class=block-text>Trial 61 out of 78</p>","null","pattern_show_trial_num","","","","","","","","","","","","","","","","","","","","","","","","",""
"","","","","","image-keyboard-response","143","481780","0.0-2.0-7.0-1.21","5e46d70ab1f1c5000d96800d","B2","batch2","","3196.7999999970198","stim/no_32_1_w.png","j","pattern_response","true","j","pattern_14","3196.7999999970198","true","57","","","","","","","","","","","","","","","","","","",""
"","","","","","html-keyboard-response","144","483107","0.0-2.0-7.0-0.22","5e46d70ab1f1c5000d96800d","B2","batch2","","null","<p class=block-text>Trial 62 out of 78</p>","null","pattern_show_trial_num","","","","","","","","","","","","","","","","","","","","","","","","",""
"","","","","","image-keyboard-response","145","490774","0.0-2.0-7.0-1.22","5e46d70ab1f1c5000d96800d","B2","batch2","","7662.70000000298","stim/no_70_2.png","j","pattern_response","true","j","pattern_40","7662.70000000298","true","58","","","","","","","","","","","","","","","","","","",""
"","","","","","html-keyboard-response","146","492116","0.0-2.0-7.0-0.23","5e46d70ab1f1c5000d96800d","B2","batch2","","null","<p class=block-text>Trial 63 out of 78</p>","null","pattern_show_trial_num","","","","","","","","","","","","","","","","","","","","","","","","",""
"","","","","","image-keyboard-response","147","493396","0.0-2.0-7.0-1.23","5e46d70ab1f1c5000d96800d","B2","batch2","","1276","stim/yes_43_ver_w1_w.png","f","pattern_response","true","f","pattern_65","1276","true","59","","","","","","","","","","","","","","","","","","",""
"","","","","","html-keyboard-response","148","494716","0.0-2.0-7.0-0.24","5e46d70ab1f1c5000d96800d","B2","batch2","","null","<p class=block-text>Trial 64 out of 78</p>","null","pattern_show_trial_num","","","","","","","","","","","","","","","","","","","","","","","","",""
"","","","","","image-keyboard-response","149","495453","0.0-2.0-7.0-1.24","5e46d70ab1f1c5000d96800d","B2","batch2","","734.2999999970198","stim/yes_17_dia_w1.png","f","pattern_response","true","f","pattern_45","734.2999999970198","true","60","","","","","","","","","","","","","","","","","","",""
"","","","","","html-keyboard-response","150","496782","0.0-2.0-7.0-0.25","5e46d70ab1f1c5000d96800d","B2","batch2","","null","<p class=block-text>Trial 65 out of 78</p>","null","pattern_show_trial_num","","","","","","","","","","","","","","","","","","","","","","","","",""
"","","","","","image-keyboard-response","151","498235","0.0-2.0-7.0-1.25","5e46d70ab1f1c5000d96800d","B2","batch2","","1449.3999999910593","stim/no_17_1_w.png","j","pattern_response","true","j","pattern_04","1449.3999999910593","true","61","","","","","","","","","","","","","","","","","","",""
"","","","","","html-keyboard-response","152","499568","0.0-2.0-7.0-0.26","5e46d70ab1f1c5000d96800d","B2","batch2","","null","<p class=block-text>Trial 66 out of 78</p>","null","pattern_show_trial_num","","","","","","","","","","","","","","","","","","","","","","","","",""
"","","","","","image-keyboard-response","153","501849","0.0-2.0-7.0-1.26","5e46d70ab1f1c5000d96800d","B2","batch2","","2277.9000000059605","stim/yes_60_ver_b1_b.png","f","pattern_response","true","f","pattern_77","2277.9000000059605","true","62","","","","","","","","","","","","","","","","","","",""
"","","","","","html-keyboard-response","154","503175","0.0-2.0-7.0-0.27","5e46d70ab1f1c5000d96800d","B2","batch2","","null","<p class=block-text>Trial 67 out of 78</p>","null","pattern_show_trial_num","","","","","","","","","","","","","","","","","","","","","","","","",""
"","","","","","image-keyboard-response","155","504356","0.0-2.0-7.0-1.27","5e46d70ab1f1c5000d96800d","B2","batch2","","1176.9000000059605","stim/yes_67_hor_b1.png","f","pattern_response","true","f","pattern_79","1176.9000000059605","true","63","","","","","","","","","","","","","","","","","","",""
"","","","","","html-keyboard-response","156","505686","0.0-2.0-7.0-0.28","5e46d70ab1f1c5000d96800d","B2","batch2","","null","<p class=block-text>Trial 68 out of 78</p>","null","pattern_show_trial_num","","","","","","","","","","","","","","","","","","","","","","","","",""
"","","","","","image-keyboard-response","157","506833","0.0-2.0-7.0-1.28","5e46d70ab1f1c5000d96800d","B2","batch2","","1143.2999999970198","stim/no_20_1_w.png","j","pattern_response","true","j","pattern_06","1143.2999999970198","true","64","","","","","","","","","","","","","","","","","","",""
"","","","","","html-keyboard-response","158","508151","0.0-2.0-7.0-0.29","5e46d70ab1f1c5000d96800d","B2","batch2","","null","<p class=block-text>Trial 69 out of 78</p>","null","pattern_show_trial_num","","","","","","","","","","","","","","","","","","","","","","","","",""
"","","","","","image-keyboard-response","159","513774","0.0-2.0-7.0-1.29","5e46d70ab1f1c5000d96800d","B2","batch2","","5619.70000000298","stim/no_38_1_b.png","j","pattern_response","true","j","pattern_20","5619.70000000298","true","65","","","","","","","","","","","","","","","","","","",""
"","","","","","html-keyboard-response","160","515102","0.0-2.0-7.0-0.30","5e46d70ab1f1c5000d96800d","B2","batch2","","null","<p class=block-text>Trial 70 out of 78</p>","null","pattern_show_trial_num","","","","","","","","","","","","","","","","","","","","","","","","",""
"","","","","","image-keyboard-response","161","521663","0.0-2.0-7.0-1.30","5e46d70ab1f1c5000d96800d","B2","batch2","","6555.199999988079","stim/yes_50_dia_w1.png","f","pattern_response","true","f","pattern_71","6555.199999988079","true","66","","","","","","","","","","","","","","","","","","",""
"","","","","","html-keyboard-response","162","522983","0.0-2.0-7.0-0.31","5e46d70ab1f1c5000d96800d","B2","batch2","","null","<p class=block-text>Trial 71 out of 78</p>","null","pattern_show_trial_num","","","","","","","","","","","","","","","","","","","","","","","","",""
"","","","","","image-keyboard-response","163","527815","0.0-2.0-7.0-1.31","5e46d70ab1f1c5000d96800d","B2","batch2","","4828","stim/no_34_1_b.png","j","pattern_response","true","j","pattern_16","4828","true","67","","","","","","","","","","","","","","","","","","",""
"","","","","","html-keyboard-response","164","529136","0.0-2.0-7.0-0.32","5e46d70ab1f1c5000d96800d","B2","batch2","","null","<p class=block-text>Trial 72 out of 78</p>","null","pattern_show_trial_num","","","","","","","","","","","","","","","","","","","","","","","","",""
"","","","","","image-keyboard-response","165","535638","0.0-2.0-7.0-1.32","5e46d70ab1f1c5000d96800d","B2","batch2","","6493.199999988079","stim/no_65_1_b.png","j","pattern_response","true","j","pattern_38","6493.199999988079","true","68","","","","","","","","","","","","","","","","","","",""
"","","","","","html-keyboard-response","166","536960","0.0-2.0-7.0-0.33","5e46d70ab1f1c5000d96800d","B2","batch2","","null","<p class=block-text>Trial 73 out of 78</p>","null","pattern_show_trial_num","","","","","","","","","","","","","","","","","","","","","","","","",""
"","","","","","image-keyboard-response","167","537935","0.0-2.0-7.0-1.33","5e46d70ab1f1c5000d96800d","B2","batch2","","964","stim/yes_28_ver_b1.png","f","pattern_response","true","f","pattern_51","964","true","69","","","","","","","","","","","","","","","","","","",""
"","","","","","html-keyboard-response","168","539251","0.0-2.0-7.0-0.34","5e46d70ab1f1c5000d96800d","B2","batch2","","null","<p class=block-text>Trial 74 out of 78</p>","null","pattern_show_trial_num","","","","","","","","","","","","","","","","","","","","","","","","",""
"","","","","","image-keyboard-response","169","540324","0.0-2.0-7.0-1.34","5e46d70ab1f1c5000d96800d","B2","batch2","","1068","stim/yes_55_hor_w1_w.png","f","pattern_response","true","f","pattern_75","1068","true","70","","","","","","","","","","","","","","","","","","",""
"","","","","","html-keyboard-response","170","541645","0.0-2.0-7.0-0.35","5e46d70ab1f1c5000d96800d","B2","batch2","","null","<p class=block-text>Trial 75 out of 78</p>","null","pattern_show_trial_num","","","","","","","","","","","","","","","","","","","","","","","","",""
"","","","","","image-keyboard-response","171","549000","0.0-2.0-7.0-1.35","5e46d70ab1f1c5000d96800d","B2","batch2","","7345.70000000298","stim/yes_48_dia_w1_w.png","f","pattern_response","true","f","pattern_69","7345.70000000298","true","71","","","","","","","","","","","","","","","","","","",""
"","","","","","html-keyboard-response","172","550316","0.0-2.0-7.0-0.36","5e46d70ab1f1c5000d96800d","B2","batch2","","null","<p class=block-text>Trial 76 out of 78</p>","null","pattern_show_trial_num","","","","","","","","","","","","","","","","","","","","","","","","",""
"","","","","","image-keyboard-response","173","551028","0.0-2.0-7.0-1.36","5e46d70ab1f1c5000d96800d","B2","batch2","","706","stim/yes_14_hor_b1_w.png","f","pattern_response","true","f","pattern_43","706","true","72","","","","","","","","","","","","","","","","","","",""
"","","","","","html-keyboard-response","174","552349","0.0-2.0-7.0-0.37","5e46d70ab1f1c5000d96800d","B2","batch2","","null","<p class=block-text>Trial 77 out of 78</p>","null","pattern_show_trial_num","","","","","","","","","","","","","","","","","","","","","","","","",""
"","","","","","image-keyboard-response","175","555977","0.0-2.0-7.0-1.37","5e46d70ab1f1c5000d96800d","B2","batch2","","3624.800000011921","stim/no_29_1_b.png","j","pattern_response","true","j","pattern_12","3624.800000011921","true","73","","","","","","","","","","","","","","","","","","",""
"","","","","","html-keyboard-response","176","557297","0.0-2.0-7.0-0.38","5e46d70ab1f1c5000d96800d","B2","batch2","","null","<p class=block-text>Trial 78 out of 78</p>","null","pattern_show_trial_num","","","","","","","","","","","","","","","","","","","","","","","","",""
"","","","","","image-keyboard-response","177","564156","0.0-2.0-7.0-1.38","5e46d70ab1f1c5000d96800d","B2","batch2","","6855","stim/no_62_1_w.png","j","pattern_response","true","j","pattern_36","6855","true","74","","","","","","","","","","","","","","","","","","",""
"","","","","","html-button-response","178","572151","0.0-2.0-8.0","5e46d70ab1f1c5000d96800d","B2","batch2","","7484.4000000059605","<p class = block-text>This concludes the 4-in-a-row detection game.Thank you for your responses!<br>
            You responded correctly on 95% of the trials.<br>
            When you are ready, press ""Continue"" button to continue </p>","0","","","","","","","","","","","","","","","","","","","","","","","","","",""
"true","","","","","fullscreen","179","575659","0.0-3.0-0.0","5e46d70ab1f1c5000d96800d","B2","batch2","","","","","","","","","","","","","","","","","","","","","","","","","","","","","",""
"","","","","","instructions","180","730506","0.0-3.0-1.0-0.0-0.0","5e46d70ab1f1c5000d96800d","B2","batch2","[{""page_index"":0,""viewing_time"":18019.70000000298},{""page_index"":1,""viewing_time"":15671.59999999404},{""page_index"":2,""viewing_time"":4863.9000000059605},{""page_index"":3,""viewing_time"":74310.79999999702},{""page_index"":4,""viewing_time"":13133.60000000894},{""page_index"":5,""viewing_time"":9851},{""page_index"":6,""viewing_time"":18988.59999999404}]","154840.20000000298","","","tol-instructions","","","","","","","","","","","","","","","","","","","","","","","","",""
"","","","","","html-button-response","181","733282","0.0-3.0-1.0-1.0-0.0","5e46d70ab1f1c5000d96800d","B2","batch2","","2771.8999999910593","<p class=block-text> Let's answer a few questions <br>","0","tol_enter_quiz","","","","","","","","","","","","","","","","","","","","","","","","",""
"","","","","","html-button-response","182","739539","0.0-3.0-1.0-1.0-1.0","5e46d70ab1f1c5000d96800d","B2","batch2","","6251.9000000059605","<p class = block-text>True or False: You can only move the ball on top of a peg. <br></p>","1","tol_quiz","false","","","","","","","","","","","","","","","","","","","","","","","",""
"","","","","","html-button-response","183","744566","0.0-3.0-1.0-1.0-2.0","5e46d70ab1f1c5000d96800d","B2","batch2","","5022.5999999940395","<p class = block-text>Incorrect. Remember, you can only move the ball on top of a peg.</p>","0","tol_quiz_feedback","","","","","","","","","","","","","","","","","","","","","","","","",""
"","","","","","html-button-response","184","748933","0.0-3.0-1.0-1.0-3.0","5e46d70ab1f1c5000d96800d","B2","batch2","","4363.9000000059605","<p class = block-text>True or False: You should try to match your board with the target board with fewest moves possible. <br></p>","0","tol_quiz","true","","","","","","","","","","","","","","","","","","","","","","","",""
"","","","","","html-button-response","185","767531","0.0-3.0-1.0-1.0-4.0","5e46d70ab1f1c5000d96800d","B2","batch2","","18594.90000000596","<p class = block-text>Correct! </p>","0","tol_quiz_feedback","","","","","","","","","","","","","","","","","","","","","","","","",""
"","","","","","html-button-response","186","770963","0.0-3.0-1.0-2.0-0.0","5e46d70ab1f1c5000d96800d","B2","batch2","","3428.5999999940395","<p class = block-text>You made too many incorrect choices.</p><p class = block-text>You will now repeat the instructions and quiz</p>","0","","","","","","","","","","","","","","","","","","","","","","","","","",""
"","","","","","instructions","187","784100","0.0-3.0-1.1-0.1-0.1","5e46d70ab1f1c5000d96800d","B2","batch2","[{""page_index"":0,""viewing_time"":4871.399999991059},{""page_index"":1,""viewing_time"":981.6000000089407},{""page_index"":2,""viewing_time"":1064.2999999970198},{""page_index"":3,""viewing_time"":2040.5999999940395},{""page_index"":4,""viewing_time"":1311.2999999970198},{""page_index"":5,""viewing_time"":1368.5},{""page_index"":6,""viewing_time"":1497}]","13135.199999988079","","","tol-instructions","","","","","","","","","","","","","","","","","","","","","","","","",""
"","","","","","html-button-response","188","785091","0.0-3.0-1.1-1.1-0.1","5e46d70ab1f1c5000d96800d","B2","batch2","","987.5999999940395","<p class=block-text> Let's answer a few questions <br>","0","tol_enter_quiz","","","","","","","","","","","","","","","","","","","","","","","","",""
"","","","","","html-button-response","189","788011","0.0-3.0-1.1-1.1-1.1","5e46d70ab1f1c5000d96800d","B2","batch2","","2916.2000000029802","<p class = block-text>True or False: You can only move the ball on top of a peg. <br></p>","0","tol_quiz","true","","","","","","","","","","","","","","","","","","","","","","","",""
"","","","","","html-button-response","190","789485","0.0-3.0-1.1-1.1-2.1","5e46d70ab1f1c5000d96800d","B2","batch2","","1470.9000000059605","<p class = block-text>Correct! You can only move the ball on top of a peg.</p>","0","tol_quiz_feedback","","","","","","","","","","","","","","","","","","","","","","","","",""
"","","","","","html-button-response","191","792779","0.0-3.0-1.1-1.1-3.1","5e46d70ab1f1c5000d96800d","B2","batch2","","3287.5999999940395","<p class = block-text>True or False: You should try to match your board with the target board with fewest moves possible. <br></p>","0","tol_quiz","true","","","","","","","","","","","","","","","","","","","","","","","",""
"","","","","","html-button-response","192","793755","0.0-3.0-1.1-1.1-4.1","5e46d70ab1f1c5000d96800d","B2","batch2","","973.2000000029802","<p class = block-text>Correct! </p>","0","tol_quiz_feedback","","","","","","","","","","","","","","","","","","","","","","","","",""
"","","","","","html-button-response","193","797627","0.0-3.0-2.0","5e46d70ab1f1c5000d96800d","B2","batch2","","3869.8999999910593","<p class=block-text> Now that you've understood the game, let's practice a few easier examples before we start!<br> <br>","0","","","","","","","","","","","","","","","","","","","","","","","","","",""
"","","","","","single-stim-button","194","801361","0.0-3.0-3.0-0.0","5e46d70ab1f1c5000d96800d","B2","batch2","","3728","","","tol_practice","","","","","","","","","tol_peg_2","3728","3728","0","[[1,2,0],[0,0],[0]]","1","[[1,2,0],[0,0],[3]]","practice","3728","","","","","","","",""
"","","","","","single-stim-button","195","804661","0.0-3.0-3.0-1.0","5e46d70ab1f1c5000d96800d","B2","batch2","","3298","","","tol_practice","","","","","","","","","tol_peg_3","3298","3298","0","[[1,2,0],[0,0],[3]]","1","[[1,2,0],[0,0],[3]]","practice","3298","","","","","","","",""
"","","","","","poldrack-single-stim","196","805667","0.0-3.0-4.0","5e46d70ab1f1c5000d96800d","B2","batch2","","-1","","","tol_feedback","true","","","","","","","","","1000","1000","500","","","","","","-1","none","true","","0","","",""
"","","","","","single-stim-button","197","813268","0.0-3.0-5.0-0.0","5e46d70ab1f1c5000d96800d","B2","batch2","","7599","","","tol_practice","","","","","","","","","tol_peg_1","7599","7599","0","[[1,0,0],[3,0],[0]]","2","[[0,0,0],[3,1],[2]]","practice","7599","","","","","","","",""
"","","","","","single-stim-button","198","817309","0.0-3.0-5.0-1.0","5e46d70ab1f1c5000d96800d","B2","batch2","","4038","","","tol_practice","","","","","","","","","tol_peg_1","4038","4038","0","[[1,2,0],[3,0],[0]]","2","[[0,0,0],[3,1],[2]]","practice","4038","","","","","","","",""
"","","","","","single-stim-button","199","818660","0.0-3.0-5.1-0.1","5e46d70ab1f1c5000d96800d","B2","batch2","","1349","","","tol_practice","","","","","","","","","tol_peg_1","1349","1349","0","[[1,0,0],[3,0],[0]]","3","[[0,0,0],[3,1],[2]]","practice","1349","","","","","","","",""
"","","","","","single-stim-button","200","819838","0.0-3.0-5.1-1.1","5e46d70ab1f1c5000d96800d","B2","batch2","","1176","","","tol_practice","","","","","","","","","tol_peg_3","1176","1176","0","[[1,0,0],[3,0],[2]]","3","[[0,0,0],[3,1],[2]]","practice","1176","","","","","","","",""
"","","","","","single-stim-button","201","821136","0.0-3.0-5.2-0.2","5e46d70ab1f1c5000d96800d","B2","batch2","","1296","","","tol_practice","","","","","","","","","tol_peg_1","1296","1296","0","[[0,0,0],[3,0],[2]]","4","[[0,0,0],[3,1],[2]]","practice","1296","","","","","","","",""
"","","","","","single-stim-button","202","821944","0.0-3.0-5.2-1.2","5e46d70ab1f1c5000d96800d","B2","batch2","","806","","","tol_practice","","","","","","","","","tol_peg_2","806","806","0","[[0,0,0],[3,1],[2]]","4","[[0,0,0],[3,1],[2]]","practice","806","","","","","","","",""
"","","","","","poldrack-single-stim","203","822947","0.0-3.0-6.0","5e46d70ab1f1c5000d96800d","B2","batch2","","-1","","","tol_feedback","true","","","","","","","","","1000","1000","500","","","","","","-1","none","true","","0","","",""
"","","","","","single-stim-button","204","825252","0.0-3.0-7.0-0.0","5e46d70ab1f1c5000d96800d","B2","batch2","","2303","","","tol_practice","","","","","","","","","tol_peg_2","2303","2303","0","[[1,2,0],[0,0],[0]]","5","[[1,0,0],[2,0],[3]]","practice","2303","","","","","","","",""
"","","","","","single-stim-button","205","826188","0.0-3.0-7.0-1.0","5e46d70ab1f1c5000d96800d","B2","batch2","","934","","","tol_practice","","","","","","","","","tol_peg_3","934","934","0","[[1,2,0],[0,0],[3]]","5","[[1,0,0],[2,0],[3]]","practice","934","","","","","","","",""
"","","","","","single-stim-button","206","827800","0.0-3.0-7.1-0.1","5e46d70ab1f1c5000d96800d","B2","batch2","","1609","","","tol_practice","","","","","","","","","tol_peg_1","1609","1609","0","[[1,0,0],[0,0],[3]]","6","[[1,0,0],[2,0],[3]]","practice","1609","","","","","","","",""
"","","","","","single-stim-button","207","828864","0.0-3.0-7.1-1.1","5e46d70ab1f1c5000d96800d","B2","batch2","","1062","","","tol_practice","","","","","","","","","tol_peg_2","1062","1062","0","[[1,0,0],[2,0],[3]]","6","[[1,0,0],[2,0],[3]]","practice","1062","","","","","","","",""
"","","","","","poldrack-single-stim","208","829870","0.0-3.0-8.0","5e46d70ab1f1c5000d96800d","B2","batch2","","-1","","","tol_feedback","true","","","","","","","","","1000","1000","500","","","","","","-1","none","true","","0","","",""
"","","","","","html-button-response","209","832776","0.0-3.0-9.0","5e46d70ab1f1c5000d96800d","B2","batch2","","2902","<div class = centerbox><p class = center-block-text>Great job! You are done with practice trials<br>You are about to start official trials.<br> <br> Problem <strong>1</strong> out of 25 problems</p></div>","0","tol_instruction","","","","","","","","","","","","","","","","","","","","","","","","",""
"","","","","","single-stim-button","210","837802","0.0-3.0-10.0-0.0","5e46d70ab1f1c5000d96800d","B2","batch2","","4020","","","tol_tohand","","","","","","","","","tol_peg_1","4020","4020","0","[[1,0,0],[3,0],[0]]","1","[[1,3,0],[2,0],[0]]","0","0","","","","","","3","",""
"","","","","","single-stim-button","211","839577","0.0-3.0-10.0-1.0","5e46d70ab1f1c5000d96800d","B2","batch2","","1773","","","tol_toboard","","","","","","","","","tol_peg_3","1773","1773","0","[[1,0,0],[3,0],[2]]","1","[[1,3,0],[2,0],[0]]","0","0","","","","","","3","",""
"","","","","","single-stim-button","212","840504","0.0-3.0-10.1-0.1","5e46d70ab1f1c5000d96800d","B2","batch2","","924","","","tol_tohand","","","","","","","","","tol_peg_2","924","924","0","[[1,0,0],[0,0],[2]]","2","[[1,3,0],[2,0],[0]]","0","0","","","","","","3","",""
"","","","","","single-stim-button","213","842042","0.0-3.0-10.1-1.1","5e46d70ab1f1c5000d96800d","B2","batch2","","1534","","","tol_toboard","","","","","","","","","tol_peg_1","1534","1534","0","[[1,3,0],[0,0],[2]]","2","[[1,3,0],[2,0],[0]]","0","0","","","","","","3","",""
"","","","","","single-stim-button","214","843629","0.0-3.0-10.2-0.2","5e46d70ab1f1c5000d96800d","B2","batch2","","1584","","","tol_tohand","","","","","","","","","tol_peg_3","1584","1584","0","[[1,3,0],[0,0],[0]]","3","[[1,3,0],[2,0],[0]]","0","0","","","","","","3","",""
"","","","","","single-stim-button","215","845009","0.0-3.0-10.2-1.2","5e46d70ab1f1c5000d96800d","B2","batch2","","1374","","","tol_toboard","","","","","","","","","tol_peg_2","1374","1374","0","[[1,3,0],[2,0],[0]]","3","[[1,3,0],[2,0],[0]]","0","0","","","","","","3","",""
"","","","","","poldrack-single-stim","216","846053","0.0-3.0-11.0","5e46d70ab1f1c5000d96800d","B2","batch2","","-1","","","tol_feedback","true","","","","","","","","","1000","1000","500","","","","","","-1","none","true","4020","6528","","",""
"","","","","","html-button-response","217","847759","0.0-3.0-12.0","5e46d70ab1f1c5000d96800d","B2","batch2","","1700.1000000089407","<div class = centerbox><p class = center-block-text>problem <strong>2</strong> out of 25 problems</p></div>","0","tol_trial_num","","","","","","","","","","","","","","","","","","","","","","","","",""
"","","","","","single-stim-button","218","850857","0.0-3.0-13.0-0.0","5e46d70ab1f1c5000d96800d","B2","batch2","","3094","","","tol_tohand","","","","","","","","","tol_peg_1","3094","3094","0","[[1,0,0],[3,0],[0]]","1","[[2,1,3],[0,0],[0]]","1","0","","","","","","5","",""
"","","","","","single-stim-button","219","853760","0.0-3.0-13.0-1.0","5e46d70ab1f1c5000d96800d","B2","batch2","","2900","","","tol_toboard","","","","","","","","","tol_peg_3","2900","2900","0","[[1,0,0],[3,0],[2]]","1","[[2,1,3],[0,0],[0]]","1","0","","","","","","5","",""
"","","","","","single-stim-button","220","855648","0.0-3.0-13.1-0.1","5e46d70ab1f1c5000d96800d","B2","batch2","","1885","","","tol_tohand","","","","","","","","","tol_peg_1","1885","1885","0","[[0,0,0],[3,0],[2]]","2","[[2,1,3],[0,0],[0]]","1","0","","","","","","5","",""
"","","","","","single-stim-button","221","858192","0.0-3.0-13.1-1.1","5e46d70ab1f1c5000d96800d","B2","batch2","","2542","","","tol_toboard","","","","","","","","","tol_peg_2","2542","2542","0","[[0,0,0],[3,1],[2]]","2","[[2,1,3],[0,0],[0]]","1","0","","","","","","5","",""
"","","","","","single-stim-button","222","858925","0.0-3.0-13.2-0.2","5e46d70ab1f1c5000d96800d","B2","batch2","","730","","","tol_tohand","","","","","","","","","tol_peg_3","730","730","0","[[0,0,0],[3,1],[0]]","3","[[2,1,3],[0,0],[0]]","1","0","","","","","","5","",""
"","","","","","single-stim-button","223","859847","0.0-3.0-13.2-1.2","5e46d70ab1f1c5000d96800d","B2","batch2","","919","","","tol_toboard","","","","","","","","","tol_peg_1","919","919","0","[[2,0,0],[3,1],[0]]","3","[[2,1,3],[0,0],[0]]","1","0","","","","","","5","",""
"","","","","","single-stim-button","224","860942","0.0-3.0-13.3-0.3","5e46d70ab1f1c5000d96800d","B2","batch2","","1092","","","tol_tohand","","","","","","","","","tol_peg_2","1092","1092","0","[[2,0,0],[3,0],[0]]","4","[[2,1,3],[0,0],[0]]","1","0","","","","","","5","",""
"","","","","","single-stim-button","225","861822","0.0-3.0-13.3-1.3","5e46d70ab1f1c5000d96800d","B2","batch2","","877","","","tol_toboard","","","","","","","","","tol_peg_1","877","877","0","[[2,1,0],[3,0],[0]]","4","[[2,1,3],[0,0],[0]]","1","0","","","","","","5","",""
"","","","","","single-stim-button","226","862614","0.0-3.0-13.4-0.4","5e46d70ab1f1c5000d96800d","B2","batch2","","789","","","tol_tohand","","","","","","","","","tol_peg_2","789","789","0","[[2,1,0],[0,0],[0]]","5","[[2,1,3],[0,0],[0]]","1","0","","","","","","5","",""
"","","","","","single-stim-button","227","863865","0.0-3.0-13.4-1.4","5e46d70ab1f1c5000d96800d","B2","batch2","","1249","","","tol_toboard","","","","","","","","","tol_peg_1","1249","1249","0","[[2,1,3],[0,0],[0]]","5","[[2,1,3],[0,0],[0]]","1","0","","","","","","5","",""
"","","","","","poldrack-single-stim","228","864870","0.0-3.0-14.0","5e46d70ab1f1c5000d96800d","B2","batch2","","-1","","","tol_feedback","true","","","","","","","","","1000","1000","500","","","","","","-1","none","true","3094","7590","","",""
"","","","","","html-button-response","229","866334","0.0-3.0-15.0","5e46d70ab1f1c5000d96800d","B2","batch2","","1461.7999999970198","<div class = centerbox><p class = center-block-text>problem <strong>3</strong> out of 25 problems</p></div>","0","tol_trial_num","","","","","","","","","","","","","","","","","","","","","","","","",""
"","","","","","single-stim-button","230","869302","0.0-3.0-16.0-0.0","5e46d70ab1f1c5000d96800d","B2","batch2","","2965","","","tol_tohand","","","","","","","","","tol_peg_1","2965","2965","0","[[2,0,0],[0,0],[1]]","1","[[1,2,0],[3,0],[0]]","2","0","","","","","","4","",""
"","","","","","single-stim-button","231","870270","0.0-3.0-16.0-1.0","5e46d70ab1f1c5000d96800d","B2","batch2","","965","","","tol_toboard","","","","","","","","","tol_peg_2","965","965","0","[[2,0,0],[3,0],[1]]","1","[[1,2,0],[3,0],[0]]","2","0","","","","","","4","",""
"","","","","","single-stim-button","232","871286","0.0-3.0-16.1-0.1","5e46d70ab1f1c5000d96800d","B2","batch2","","1011","","","tol_tohand","","","","","","","","","tol_peg_1","1011","1011","0","[[0,0,0],[3,0],[1]]","2","[[1,2,0],[3,0],[0]]","2","0","","","","","","4","",""
"","","","","","single-stim-button","233","872310","0.0-3.0-16.1-1.1","5e46d70ab1f1c5000d96800d","B2","batch2","","1022","","","tol_toboard","","","","","","","","","tol_peg_2","1022","1022","0","[[0,0,0],[3,2],[1]]","2","[[1,2,0],[3,0],[0]]","2","0","","","","","","4","",""
"","","","","","single-stim-button","234","873097","0.0-3.0-16.2-0.2","5e46d70ab1f1c5000d96800d","B2","batch2","","785","","","tol_tohand","","","","","","","","","tol_peg_3","785","785","0","[[0,0,0],[3,2],[0]]","3","[[1,2,0],[3,0],[0]]","2","0","","","","","","4","",""
"","","","","","single-stim-button","235","874318","0.0-3.0-16.2-1.2","5e46d70ab1f1c5000d96800d","B2","batch2","","1219","","","tol_toboard","","","","","","","","","tol_peg_1","1219","1219","0","[[1,0,0],[3,2],[0]]","3","[[1,2,0],[3,0],[0]]","2","0","","","","","","4","",""
"","","","","","single-stim-button","236","875282","0.0-3.0-16.3-0.3","5e46d70ab1f1c5000d96800d","B2","batch2","","962","","","tol_tohand","","","","","","","","","tol_peg_2","962","962","0","[[1,0,0],[3,0],[0]]","4","[[1,2,0],[3,0],[0]]","2","0","","","","","","4","",""
"","","","","","single-stim-button","237","876046","0.0-3.0-16.3-1.3","5e46d70ab1f1c5000d96800d","B2","batch2","","761","","","tol_toboard","","","","","","","","","tol_peg_1","761","761","0","[[1,2,0],[3,0],[0]]","4","[[1,2,0],[3,0],[0]]","2","0","","","","","","4","",""
"","","","","","poldrack-single-stim","238","877049","0.0-3.0-17.0","5e46d70ab1f1c5000d96800d","B2","batch2","","-1","","","tol_feedback","true","","","","","","","","","1000","1000","500","","","","","","-1","none","true","2965","5723","","",""
"","","","","","html-button-response","239","878374","0.0-3.0-18.0","5e46d70ab1f1c5000d96800d","B2","batch2","","1322.7000000029802","<div class = centerbox><p class = center-block-text>problem <strong>4</strong> out of 25 problems</p></div>","0","tol_trial_num","","","","","","","","","","","","","","","","","","","","","","","","",""
"","","","","","single-stim-button","240","883070","0.0-3.0-19.0-0.0","5e46d70ab1f1c5000d96800d","B2","batch2","","4693","","","tol_tohand","","","","","","","","","tol_peg_2","4693","4693","0","[[3,0,0],[2,0],[0]]","1","[[3,0,0],[1,0],[2]]","3","0","","","","","","3","",""
"","","","","","single-stim-button","241","884078","0.0-3.0-19.0-1.0","5e46d70ab1f1c5000d96800d","B2","batch2","","1004","","","tol_toboard","","","","","","","","","tol_peg_3","1004","1004","0","[[3,0,0],[2,0],[1]]","1","[[3,0,0],[1,0],[2]]","3","0","","","","","","3","",""
"","","","","","single-stim-button","242","885201","0.0-3.0-19.1-0.1","5e46d70ab1f1c5000d96800d","B2","batch2","","1121","","","tol_tohand","","","","","","","","","tol_peg_2","1121","1121","0","[[3,0,0],[0,0],[1]]","2","[[3,0,0],[1,0],[2]]","3","0","","","","","","3","",""
"","","","","","single-stim-button","243","885894","0.0-3.0-19.1-1.1","5e46d70ab1f1c5000d96800d","B2","batch2","","690","","","tol_toboard","","","","","","","","","tol_peg_1","690","690","0","[[3,2,0],[0,0],[1]]","2","[[3,0,0],[1,0],[2]]","3","0","","","","","","3","",""
"","","","","","single-stim-button","244","886791","0.0-3.0-19.2-0.2","5e46d70ab1f1c5000d96800d","B2","batch2","","894","","","tol_tohand","","","","","","","","","tol_peg_3","894","894","0","[[3,2,0],[0,0],[0]]","3","[[3,0,0],[1,0],[2]]","3","0","","","","","","3","",""
"","","","","","single-stim-button","245","887537","0.0-3.0-19.2-1.2","5e46d70ab1f1c5000d96800d","B2","batch2","","745","","","tol_toboard","","","","","","","","","tol_peg_2","745","745","0","[[3,2,0],[1,0],[0]]","3","[[3,0,0],[1,0],[2]]","3","0","","","","","","3","",""
"","","","","","single-stim-button","246","888624","0.0-3.0-19.3-0.3","5e46d70ab1f1c5000d96800d","B2","batch2","","1084","","","tol_tohand","","","","","","","","","tol_peg_1","1084","1084","0","[[3,0,0],[1,0],[0]]","4","[[3,0,0],[1,0],[2]]","3","0","","","","","","3","",""
"","","","","","single-stim-button","247","889626","0.0-3.0-19.3-1.3","5e46d70ab1f1c5000d96800d","B2","batch2","","999","","","tol_toboard","","","","","","","","","tol_peg_3","999","999","0","[[3,0,0],[1,0],[2]]","4","[[3,0,0],[1,0],[2]]","3","0","","","","","","3","",""
"","","","","","poldrack-single-stim","248","890644","0.0-3.0-20.0","5e46d70ab1f1c5000d96800d","B2","batch2","","-1","","","tol_feedback","true","","","","","","","","","1000","1000","500","","","","","","-1","none","true","4693","7792","","",""
"","","","","","html-button-response","249","891970","0.0-3.0-21.0","5e46d70ab1f1c5000d96800d","B2","batch2","","1310.300000011921","<div class = centerbox><p class = center-block-text>problem <strong>5</strong> out of 25 problems</p></div>","0","tol_trial_num","","","","","","","","","","","","","","","","","","","","","","","","",""
"","","","","","single-stim-button","250","902912","0.0-3.0-22.0-0.0","5e46d70ab1f1c5000d96800d","B2","batch2","","10939","","","tol_tohand","","","","","","","","","tol_peg_2","10939","10939","0","[[1,0,0],[0,0],[3]]","1","[[0,0,0],[1,2],[3]]","4","0","","","","","","7","",""
"","","","","","single-stim-button","251","907055","0.0-3.0-22.0-1.0","5e46d70ab1f1c5000d96800d","B2","batch2","","4140","","","tol_toboard","","","","","","","","","tol_peg_2","4140","4140","0","[[1,0,0],[2,0],[3]]","1","[[0,0,0],[1,2],[3]]","4","0","","","","","","7","",""
"","","","","","single-stim-button","252","908239","0.0-3.0-22.1-0.1","5e46d70ab1f1c5000d96800d","B2","batch2","","1181","","","tol_tohand","","","","","","","","","tol_peg_3","1181","1181","0","[[1,0,0],[2,0],[0]]","2","[[0,0,0],[1,2],[3]]","4","0","","","","","","7","",""
"","","","","","single-stim-button","253","909559","0.0-3.0-22.1-1.1","5e46d70ab1f1c5000d96800d","B2","batch2","","1318","","","tol_toboard","","","","","","","","","tol_peg_1","1318","1318","0","[[1,3,0],[2,0],[0]]","2","[[0,0,0],[1,2],[3]]","4","0","","","","","","7","",""
"","","","","","single-stim-button","254","910559","0.0-3.0-22.2-0.2","5e46d70ab1f1c5000d96800d","B2","batch2","","998","","","tol_tohand","","","","","","","","","tol_peg_2","998","998","0","[[1,3,0],[0,0],[0]]","3","[[0,0,0],[1,2],[3]]","4","0","","","","","","7","",""
"","","","","","single-stim-button","255","911567","0.0-3.0-22.2-1.2","5e46d70ab1f1c5000d96800d","B2","batch2","","1006","","","tol_toboard","","","","","","","","","tol_peg_3","1006","1006","0","[[1,3,0],[0,0],[2]]","3","[[0,0,0],[1,2],[3]]","4","0","","","","","","7","",""
"","","","","","single-stim-button","256","913151","0.0-3.0-22.3-0.3","5e46d70ab1f1c5000d96800d","B2","batch2","","1582","","","tol_tohand","","","","","","","","","tol_peg_1","1582","1582","0","[[1,0,0],[0,0],[2]]","4","[[0,0,0],[1,2],[3]]","4","0","","","","","","7","",""
"","","","","","single-stim-button","257","914207","0.0-3.0-22.3-1.3","5e46d70ab1f1c5000d96800d","B2","batch2","","1054","","","tol_toboard","","","","","","","","","tol_peg_2","1054","1054","0","[[1,0,0],[3,0],[2]]","4","[[0,0,0],[1,2],[3]]","4","0","","","","","","7","",""
"","","","","","single-stim-button","258","915856","0.0-3.0-22.4-0.4","5e46d70ab1f1c5000d96800d","B2","batch2","","1647","","","tol_tohand","","","","","","","","","tol_peg_1","1647","1647","0","[[0,0,0],[3,0],[2]]","5","[[0,0,0],[1,2],[3]]","4","0","","","","","","7","",""
"","","","","","single-stim-button","259","920555","0.0-3.0-22.4-1.4","5e46d70ab1f1c5000d96800d","B2","batch2","","4695","","","tol_toboard","","","","","","","","","tol_peg_2","4695","4695","0","[[0,0,0],[3,1],[2]]","5","[[0,0,0],[1,2],[3]]","4","0","","","","","","7","",""
"","","","","","single-stim-button","260","921794","0.0-3.0-22.5-0.5","5e46d70ab1f1c5000d96800d","B2","batch2","","1237","","","tol_tohand","","","","","","","","","tol_peg_3","1237","1237","0","[[0,0,0],[3,1],[0]]","6","[[0,0,0],[1,2],[3]]","4","0","","","","","","7","",""
"","","","","","single-stim-button","261","923231","0.0-3.0-22.5-1.5","5e46d70ab1f1c5000d96800d","B2","batch2","","1434","","","tol_toboard","","","","","","","","","tol_peg_1","1434","1434","0","[[2,0,0],[3,1],[0]]","6","[[0,0,0],[1,2],[3]]","4","0","","","","","","7","",""
"","","","","","single-stim-button","262","925199","0.0-3.0-22.6-0.6","5e46d70ab1f1c5000d96800d","B2","batch2","","1966","","","tol_tohand","","","","","","","","","tol_peg_2","1966","1966","0","[[2,0,0],[3,0],[0]]","7","[[0,0,0],[1,2],[3]]","4","0","","","","","","7","",""
"","","","","","single-stim-button","263","926734","0.0-3.0-22.6-1.6","5e46d70ab1f1c5000d96800d","B2","batch2","","1531","","","tol_toboard","","","","","","","","","tol_peg_1","1531","1531","0","[[2,1,0],[3,0],[0]]","7","[[0,0,0],[1,2],[3]]","4","0","","","","","","7","",""
"","","","","","single-stim-button","264","927664","0.0-3.0-22.7-0.7","5e46d70ab1f1c5000d96800d","B2","batch2","","926","","","tol_tohand","","","","","","","","","tol_peg_2","926","926","0","[[2,1,0],[0,0],[0]]","8","[[0,0,0],[1,2],[3]]","4","0","","","","","","7","",""
"","","","","","single-stim-button","265","928490","0.0-3.0-22.7-1.7","5e46d70ab1f1c5000d96800d","B2","batch2","","823","","","tol_toboard","","","","","","","","","tol_peg_3","823","823","0","[[2,1,0],[0,0],[3]]","8","[[0,0,0],[1,2],[3]]","4","0","","","","","","7","",""
"","","","","","single-stim-button","266","929905","0.0-3.0-22.8-0.8","5e46d70ab1f1c5000d96800d","B2","batch2","","1413","","","tol_tohand","","","","","","","","","tol_peg_1","1413","1413","0","[[2,0,0],[0,0],[3]]","9","[[0,0,0],[1,2],[3]]","4","0","","","","","","7","",""
"","","","","","single-stim-button","267","930640","0.0-3.0-22.8-1.8","5e46d70ab1f1c5000d96800d","B2","batch2","","733","","","tol_toboard","","","","","","","","","tol_peg_2","733","733","0","[[2,0,0],[1,0],[3]]","9","[[0,0,0],[1,2],[3]]","4","0","","","","","","7","",""
"","","","","","single-stim-button","268","931376","0.0-3.0-22.9-0.9","5e46d70ab1f1c5000d96800d","B2","batch2","","734","","","tol_tohand","","","","","","","","","tol_peg_1","734","734","0","[[0,0,0],[1,0],[3]]","10","[[0,0,0],[1,2],[3]]","4","0","","","","","","7","",""
"","","","","","single-stim-button","269","932112","0.0-3.0-22.9-1.9","5e46d70ab1f1c5000d96800d","B2","batch2","","734","","","tol_toboard","","","","","","","","","tol_peg_2","734","734","0","[[0,0,0],[1,2],[3]]","10","[[0,0,0],[1,2],[3]]","4","0","","","","","","7","",""
"","","","","","poldrack-single-stim","270","933115","0.0-3.0-23.0","5e46d70ab1f1c5000d96800d","B2","batch2","","-1","","","tol_feedback","true","","","","","","","","","1000","1000","500","","","","","","-1","none","true","10939","22623","","",""
"","","","","","html-button-response","271","934415","0.0-3.0-24.0","5e46d70ab1f1c5000d96800d","B2","batch2","","1299.0999999940395","<div class = centerbox><p class = center-block-text>problem <strong>6</strong> out of 25 problems</p></div>","0","tol_trial_num","","","","","","","","","","","","","","","","","","","","","","","","",""
"","","","","","single-stim-button","272","938921","0.0-3.0-25.0-0.0","5e46d70ab1f1c5000d96800d","B2","batch2","","4502","","","tol_tohand","","","","","","","","","tol_peg_2","4502","4502","0","[[0,0,0],[1,0],[3]]","1","[[1,0,0],[2,3],[0]]","5","0","","","","","","6","",""
"","","","","","single-stim-button","273","939928","0.0-3.0-25.0-1.0","5e46d70ab1f1c5000d96800d","B2","batch2","","1005","","","tol_toboard","","","","","","","","","tol_peg_1","1005","1005","0","[[2,0,0],[1,0],[3]]","1","[[1,0,0],[2,3],[0]]","5","0","","","","","","6","",""
"","","","","","single-stim-button","274","940898","0.0-3.0-25.1-0.1","5e46d70ab1f1c5000d96800d","B2","batch2","","968","","","tol_tohand","","","","","","","","","tol_peg_2","968","968","0","[[2,0,0],[0,0],[3]]","2","[[1,0,0],[2,3],[0]]","5","0","","","","","","6","",""
"","","","","","single-stim-button","275","941768","0.0-3.0-25.1-1.1","5e46d70ab1f1c5000d96800d","B2","batch2","","868","","","tol_toboard","","","","","","","","","tol_peg_1","868","868","0","[[2,1,0],[0,0],[3]]","2","[[1,0,0],[2,3],[0]]","5","0","","","","","","6","",""
"","","","","","single-stim-button","276","944161","0.0-3.0-25.2-0.2","5e46d70ab1f1c5000d96800d","B2","batch2","","2391","","","tol_tohand","","","","","","","","","tol_peg_3","2391","2391","0","[[2,1,0],[0,0],[0]]","3","[[1,0,0],[2,3],[0]]","5","0","","","","","","6","",""
"","","","","","single-stim-button","277","947168","0.0-3.0-25.2-1.2","5e46d70ab1f1c5000d96800d","B2","batch2","","3005","","","tol_toboard","","","","","","","","","tol_peg_2","3005","3005","0","[[2,1,0],[3,0],[0]]","3","[[1,0,0],[2,3],[0]]","5","0","","","","","","6","",""
"","","","","","single-stim-button","278","948440","0.0-3.0-25.3-0.3","5e46d70ab1f1c5000d96800d","B2","batch2","","1268","","","tol_tohand","","","","","","","","","tol_peg_1","1268","1268","0","[[2,0,0],[3,0],[0]]","4","[[1,0,0],[2,3],[0]]","5","0","","","","","","6","",""
"","","","","","single-stim-button","279","949234","0.0-3.0-25.3-1.3","5e46d70ab1f1c5000d96800d","B2","batch2","","792","","","tol_toboard","","","","","","","","","tol_peg_3","792","792","0","[[2,0,0],[3,0],[1]]","4","[[1,0,0],[2,3],[0]]","5","0","","","","","","6","",""
"","","","","","single-stim-button","280","952170","0.0-3.0-25.4-0.4","5e46d70ab1f1c5000d96800d","B2","batch2","","2933","","","tol_tohand","","","","","","","","","tol_peg_2","2933","2933","0","[[2,0,0],[0,0],[1]]","5","[[1,0,0],[2,3],[0]]","5","0","","","","","","6","",""
"","","","","","single-stim-button","281","955713","0.0-3.0-25.4-1.4","5e46d70ab1f1c5000d96800d","B2","batch2","","3539","","","tol_toboard","","","","","","","","","tol_peg_2","3539","3539","0","[[2,0,0],[3,0],[1]]","5","[[1,0,0],[2,3],[0]]","5","0","","","","","","6","",""
"","","","","","single-stim-button","282","956679","0.0-3.0-25.5-0.5","5e46d70ab1f1c5000d96800d","B2","batch2","","963","","","tol_tohand","","","","","","","","","tol_peg_1","963","963","0","[[0,0,0],[3,0],[1]]","6","[[1,0,0],[2,3],[0]]","5","0","","","","","","6","",""
"","","","","","single-stim-button","283","957873","0.0-3.0-25.5-1.5","5e46d70ab1f1c5000d96800d","B2","batch2","","1192","","","tol_toboard","","","","","","","","","tol_peg_2","1192","1192","0","[[0,0,0],[3,2],[1]]","6","[[1,0,0],[2,3],[0]]","5","0","","","","","","6","",""
"","","","","","single-stim-button","284","958646","0.0-3.0-25.6-0.6","5e46d70ab1f1c5000d96800d","B2","batch2","","768","","","tol_tohand","","","","","","","","","tol_peg_3","768","768","0","[[0,0,0],[3,2],[0]]","7","[[1,0,0],[2,3],[0]]","5","0","","","","","","6","",""
"","","","","","single-stim-button","285","960689","0.0-3.0-25.6-1.6","5e46d70ab1f1c5000d96800d","B2","batch2","","2039","","","tol_toboard","","","","","","","","","tol_peg_1","2039","2039","0","[[1,0,0],[3,2],[0]]","7","[[1,0,0],[2,3],[0]]","5","0","","","","","","6","",""
"","","","","","single-stim-button","286","961570","0.0-3.0-25.7-0.7","5e46d70ab1f1c5000d96800d","B2","batch2","","878","","","tol_tohand","","","","","","","","","tol_peg_2","878","878","0","[[1,0,0],[3,0],[0]]","8","[[1,0,0],[2,3],[0]]","5","0","","","","","","6","",""
"","","","","","single-stim-button","287","962425","0.0-3.0-25.7-1.7","5e46d70ab1f1c5000d96800d","B2","batch2","","852","","","tol_toboard","","","","","","","","","tol_peg_3","852","852","0","[[1,0,0],[3,0],[2]]","8","[[1,0,0],[2,3],[0]]","5","0","","","","","","6","",""
"","","","","","single-stim-button","288","963225","0.0-3.0-25.8-0.8","5e46d70ab1f1c5000d96800d","B2","batch2","","798","","","tol_tohand","","","","","","","","","tol_peg_2","798","798","0","[[1,0,0],[0,0],[2]]","9","[[1,0,0],[2,3],[0]]","5","0","","","","","","6","",""
"","","","","","single-stim-button","289","964161","0.0-3.0-25.8-1.8","5e46d70ab1f1c5000d96800d","B2","batch2","","934","","","tol_toboard","","","","","","","","","tol_peg_1","934","934","0","[[1,3,0],[0,0],[2]]","9","[[1,0,0],[2,3],[0]]","5","0","","","","","","6","",""
"","","","","","single-stim-button","290","964889","0.0-3.0-25.9-0.9","5e46d70ab1f1c5000d96800d","B2","batch2","","726","","","tol_tohand","","","","","","","","","tol_peg_3","726","726","0","[[1,3,0],[0,0],[0]]","10","[[1,0,0],[2,3],[0]]","5","0","","","","","","6","",""
"","","","","","single-stim-button","291","966033","0.0-3.0-25.9-1.9","5e46d70ab1f1c5000d96800d","B2","batch2","","1142","","","tol_toboard","","","","","","","","","tol_peg_2","1142","1142","0","[[1,3,0],[2,0],[0]]","10","[[1,0,0],[2,3],[0]]","5","0","","","","","","6","",""
"","","","","","single-stim-button","292","966817","0.0-3.0-25.10-0.10","5e46d70ab1f1c5000d96800d","B2","batch2","","782","","","tol_tohand","","","","","","","","","tol_peg_1","782","782","0","[[1,0,0],[2,0],[0]]","11","[[1,0,0],[2,3],[0]]","5","0","","","","","","6","",""
"","","","","","single-stim-button","293","967489","0.0-3.0-25.10-1.10","5e46d70ab1f1c5000d96800d","B2","batch2","","668","","","tol_toboard","","","","","","","","","tol_peg_2","668","668","0","[[1,0,0],[2,3],[0]]","11","[[1,0,0],[2,3],[0]]","5","0","","","","","","6","",""
"","","","","","poldrack-single-stim","294","968524","0.0-3.0-26.0","5e46d70ab1f1c5000d96800d","B2","batch2","","-1","","","tol_feedback","true","","","","","","","","","1000","1000","500","","","","","","-1","none","true","4502","16977","","",""
"","","","","","html-button-response","295","969543","0.0-3.0-27.0","5e46d70ab1f1c5000d96800d","B2","batch2","","1015.4000000059605","<div class = centerbox><p class = center-block-text>problem <strong>7</strong> out of 25 problems</p></div>","0","tol_trial_num","","","","","","","","","","","","","","","","","","","","","","","","",""
"","","","","","single-stim-button","296","973681","0.0-3.0-28.0-0.0","5e46d70ab1f1c5000d96800d","B2","batch2","","4135","","","tol_tohand","","","","","","","","","tol_peg_1","4135","4135","0","[[2,0,0],[0,0],[3]]","1","[[1,2,0],[3,0],[0]]","6","0","","","","","","5","",""
"","","","","","single-stim-button","297","975054","0.0-3.0-28.0-1.0","5e46d70ab1f1c5000d96800d","B2","batch2","","1367","","","tol_toboard","","","","","","","","","tol_peg_2","1367","1367","0","[[2,0,0],[1,0],[3]]","1","[[1,2,0],[3,0],[0]]","6","0","","","","","","5","",""
"","","","","","single-stim-button","298","982666","0.0-3.0-28.1-0.1","5e46d70ab1f1c5000d96800d","B2","batch2","","7610","","","tol_tohand","","","","","","","","","tol_peg_3","7610","7610","0","[[2,0,0],[1,0],[0]]","2","[[1,2,0],[3,0],[0]]","6","0","","","","","","5","",""
"","","","","","single-stim-button","299","983611","0.0-3.0-28.1-1.1","5e46d70ab1f1c5000d96800d","B2","batch2","","940","","","tol_toboard","","","","","","","","","tol_peg_1","940","940","0","[[2,3,0],[1,0],[0]]","2","[[1,2,0],[3,0],[0]]","6","0","","","","","","5","",""
"","","","","","single-stim-button","300","984594","0.0-3.0-28.2-0.2","5e46d70ab1f1c5000d96800d","B2","batch2","","981","","","tol_tohand","","","","","","","","","tol_peg_2","981","981","0","[[2,3,0],[0,0],[0]]","3","[[1,2,0],[3,0],[0]]","6","0","","","","","","5","",""
"","","","","","single-stim-button","301","985546","0.0-3.0-28.2-1.2","5e46d70ab1f1c5000d96800d","B2","batch2","","950","","","tol_toboard","","","","","","","","","tol_peg_3","950","950","0","[[2,3,0],[0,0],[1]]","3","[[1,2,0],[3,0],[0]]","6","0","","","","","","5","",""
"","","","","","single-stim-button","302","986595","0.0-3.0-28.3-0.3","5e46d70ab1f1c5000d96800d","B2","batch2","","1046","","","tol_tohand","","","","","","","","","tol_peg_1","1046","1046","0","[[2,0,0],[0,0],[1]]","4","[[1,2,0],[3,0],[0]]","6","0","","","","","","5","",""
"","","","","","single-stim-button","303","987626","0.0-3.0-28.3-1.3","5e46d70ab1f1c5000d96800d","B2","batch2","","1030","","","tol_toboard","","","","","","","","","tol_peg_2","1030","1030","0","[[2,0,0],[3,0],[1]]","4","[[1,2,0],[3,0],[0]]","6","0","","","","","","5","",""
"","","","","","single-stim-button","304","988434","0.0-3.0-28.4-0.4","5e46d70ab1f1c5000d96800d","B2","batch2","","806","","","tol_tohand","","","","","","","","","tol_peg_1","806","806","0","[[0,0,0],[3,0],[1]]","5","[[1,2,0],[3,0],[0]]","6","0","","","","","","5","",""
"","","","","","single-stim-button","305","989162","0.0-3.0-28.4-1.4","5e46d70ab1f1c5000d96800d","B2","batch2","","723","","","tol_toboard","","","","","","","","","tol_peg_2","723","723","0","[[0,0,0],[3,2],[1]]","5","[[1,2,0],[3,0],[0]]","6","0","","","","","","5","",""
"","","","","","single-stim-button","306","989963","0.0-3.0-28.5-0.5","5e46d70ab1f1c5000d96800d","B2","batch2","","799","","","tol_tohand","","","","","","","","","tol_peg_3","799","799","0","[[0,0,0],[3,2],[0]]","6","[[1,2,0],[3,0],[0]]","6","0","","","","","","5","",""
"","","","","","single-stim-button","307","991468","0.0-3.0-28.5-1.5","5e46d70ab1f1c5000d96800d","B2","batch2","","1500","","","tol_toboard","","","","","","","","","tol_peg_1","1500","1500","0","[[1,0,0],[3,2],[0]]","6","[[1,2,0],[3,0],[0]]","6","0","","","","","","5","",""
"","","","","","single-stim-button","308","992187","0.0-3.0-28.6-0.6","5e46d70ab1f1c5000d96800d","B2","batch2","","716","","","tol_tohand","","","","","","","","","tol_peg_2","716","716","0","[[1,0,0],[3,0],[0]]","7","[[1,2,0],[3,0],[0]]","6","0","","","","","","5","",""
"","","","","","single-stim-button","309","992938","0.0-3.0-28.6-1.6","5e46d70ab1f1c5000d96800d","B2","batch2","","749","","","tol_toboard","","","","","","","","","tol_peg_1","749","749","0","[[1,2,0],[3,0],[0]]","7","[[1,2,0],[3,0],[0]]","6","0","","","","","","5","",""
"","","","","","poldrack-single-stim","310","993952","0.0-3.0-29.0","5e46d70ab1f1c5000d96800d","B2","batch2","","-1","","","tol_feedback","true","","","","","","","","","1000","1000","500","","","","","","-1","none","true","4135","16093","","",""
"","","","","","html-button-response","311","995635","0.0-3.0-30.0","5e46d70ab1f1c5000d96800d","B2","batch2","","1680.2000000029802","<div class = centerbox><p class = center-block-text>problem <strong>8</strong> out of 25 problems</p></div>","0","tol_trial_num","","","","","","","","","","","","","","","","","","","","","","","","",""
"","","","","","single-stim-button","312","999857","0.0-3.0-31.0-0.0","5e46d70ab1f1c5000d96800d","B2","batch2","","4219","","","tol_tohand","","","","","","","","","tol_peg_3","4219","4219","0","[[0,0,0],[2,3],[0]]","1","[[1,2,0],[3,0],[0]]","7","0","","","","","","4","",""
"","","","","","single-stim-button","313","1001210","0.0-3.0-31.0-1.0","5e46d70ab1f1c5000d96800d","B2","batch2","","1351","","","tol_toboard","","","","","","","","","tol_peg_1","1351","1351","0","[[1,0,0],[2,3],[0]]","1","[[1,2,0],[3,0],[0]]","7","0","","","","","","4","",""
"","","","","","single-stim-button","314","1002066","0.0-3.0-31.1-0.1","5e46d70ab1f1c5000d96800d","B2","batch2","","854","","","tol_tohand","","","","","","","","","tol_peg_2","854","854","0","[[1,0,0],[2,0],[0]]","2","[[1,2,0],[3,0],[0]]","7","0","","","","","","4","",""
"","","","","","single-stim-button","315","1003187","0.0-3.0-31.1-1.1","5e46d70ab1f1c5000d96800d","B2","batch2","","1118","","","tol_toboard","","","","","","","","","tol_peg_3","1118","1118","0","[[1,0,0],[2,0],[3]]","2","[[1,2,0],[3,0],[0]]","7","0","","","","","","4","",""
"","","","","","single-stim-button","316","1003819","0.0-3.0-31.2-0.2","5e46d70ab1f1c5000d96800d","B2","batch2","","630","","","tol_tohand","","","","","","","","","tol_peg_2","630","630","0","[[1,0,0],[0,0],[3]]","3","[[1,2,0],[3,0],[0]]","7","0","","","","","","4","",""
"","","","","","single-stim-button","317","1004339","0.0-3.0-31.2-1.2","5e46d70ab1f1c5000d96800d","B2","batch2","","518","","","tol_toboard","","","","","","","","","tol_peg_1","518","518","0","[[1,2,0],[0,0],[3]]","3","[[1,2,0],[3,0],[0]]","7","0","","","","","","4","",""
"","","","","","single-stim-button","318","1005074","0.0-3.0-31.3-0.3","5e46d70ab1f1c5000d96800d","B2","batch2","","732","","","tol_tohand","","","","","","","","","tol_peg_3","732","732","0","[[1,2,0],[0,0],[0]]","4","[[1,2,0],[3,0],[0]]","7","0","","","","","","4","",""
"","","","","","single-stim-button","319","1005972","0.0-3.0-31.3-1.3","5e46d70ab1f1c5000d96800d","B2","batch2","","896","","","tol_toboard","","","","","","","","","tol_peg_2","896","896","0","[[1,2,0],[3,0],[0]]","4","[[1,2,0],[3,0],[0]]","7","0","","","","","","4","",""
"","","","","","poldrack-single-stim","320","1006984","0.0-3.0-32.0","5e46d70ab1f1c5000d96800d","B2","batch2","","-1","","","tol_feedback","true","","","","","","","","","1000","1000","500","","","","","","-1","none","true","4219","6435","","",""
"","","","","","html-button-response","321","1008303","0.0-3.0-33.0","5e46d70ab1f1c5000d96800d","B2","batch2","","1317.7999999970198","<div class = centerbox><p class = center-block-text>problem <strong>9</strong> out of 25 problems</p></div>","0","tol_trial_num","","","","","","","","","","","","","","","","","","","","","","","","",""
"","","","","","single-stim-button","322","1015236","0.0-3.0-34.0-0.0","5e46d70ab1f1c5000d96800d","B2","batch2","","6930","","","tol_tohand","","","","","","","","","tol_peg_1","6930","6930","0","[[3,0,0],[0,0],[1]]","1","[[2,1,0],[3,0],[0]]","8","0","","","","","","6","",""
"","","","","","single-stim-button","323","1017691","0.0-3.0-34.0-1.0","5e46d70ab1f1c5000d96800d","B2","batch2","","2452","","","tol_toboard","","","","","","","","","tol_peg_2","2452","2452","0","[[3,0,0],[2,0],[1]]","1","[[2,1,0],[3,0],[0]]","8","0","","","","","","6","",""
"","","","","","single-stim-button","324","1019371","0.0-3.0-34.1-0.1","5e46d70ab1f1c5000d96800d","B2","batch2","","1678","","","tol_tohand","","","","","","","","","tol_peg_3","1678","1678","0","[[3,0,0],[2,0],[0]]","2","[[2,1,0],[3,0],[0]]","8","0","","","","","","6","",""
"","","","","","single-stim-button","325","1020408","0.0-3.0-34.1-1.1","5e46d70ab1f1c5000d96800d","B2","batch2","","1035","","","tol_toboard","","","","","","","","","tol_peg_2","1035","1035","0","[[3,0,0],[2,1],[0]]","2","[[2,1,0],[3,0],[0]]","8","0","","","","","","6","",""
"","","","","","single-stim-button","326","1021289","0.0-3.0-34.2-0.2","5e46d70ab1f1c5000d96800d","B2","batch2","","878","","","tol_tohand","","","","","","","","","tol_peg_1","878","878","0","[[0,0,0],[2,1],[0]]","3","[[2,1,0],[3,0],[0]]","8","0","","","","","","6","",""
"","","","","","single-stim-button","327","1022171","0.0-3.0-34.2-1.2","5e46d70ab1f1c5000d96800d","B2","batch2","","878","","","tol_toboard","","","","","","","","","tol_peg_3","878","878","0","[[0,0,0],[2,1],[3]]","3","[[2,1,0],[3,0],[0]]","8","0","","","","","","6","",""
"","","","","","single-stim-button","328","1023844","0.0-3.0-34.3-0.3","5e46d70ab1f1c5000d96800d","B2","batch2","","1671","","","tol_tohand","","","","","","","","","tol_peg_2","1671","1671","0","[[0,0,0],[2,0],[3]]","4","[[2,1,0],[3,0],[0]]","8","0","","","","","","6","",""
"","","","","","single-stim-button","329","1025484","0.0-3.0-34.3-1.3","5e46d70ab1f1c5000d96800d","B2","batch2","","1638","","","tol_toboard","","","","","","","","","tol_peg_1","1638","1638","0","[[1,0,0],[2,0],[3]]","4","[[2,1,0],[3,0],[0]]","8","0","","","","","","6","",""
"","","","","","single-stim-button","330","1029772","0.0-3.0-34.4-0.4","5e46d70ab1f1c5000d96800d","B2","batch2","","4285","","","tol_tohand","","","","","","","","","tol_peg_3","4285","4285","0","[[1,0,0],[2,0],[0]]","5","[[2,1,0],[3,0],[0]]","8","0","","","","","","6","",""
"","","","","","single-stim-button","331","1030403","0.0-3.0-34.4-1.4","5e46d70ab1f1c5000d96800d","B2","batch2","","629","","","tol_toboard","","","","","","","","","tol_peg_2","629","629","0","[[1,0,0],[2,3],[0]]","5","[[2,1,0],[3,0],[0]]","8","0","","","","","","6","",""
"","","","","","single-stim-button","332","1031196","0.0-3.0-34.5-0.5","5e46d70ab1f1c5000d96800d","B2","batch2","","791","","","tol_tohand","","","","","","","","","tol_peg_1","791","791","0","[[0,0,0],[2,3],[0]]","6","[[2,1,0],[3,0],[0]]","8","0","","","","","","6","",""
"","","","","","single-stim-button","333","1032531","0.0-3.0-34.5-1.5","5e46d70ab1f1c5000d96800d","B2","batch2","","1333","","","tol_toboard","","","","","","","","","tol_peg_3","1333","1333","0","[[0,0,0],[2,3],[1]]","6","[[2,1,0],[3,0],[0]]","8","0","","","","","","6","",""
"","","","","","single-stim-button","334","1035403","0.0-3.0-34.6-0.6","5e46d70ab1f1c5000d96800d","B2","batch2","","2869","","","tol_tohand","","","","","","","","","tol_peg_2","2869","2869","0","[[0,0,0],[2,0],[1]]","7","[[2,1,0],[3,0],[0]]","8","0","","","","","","6","",""
"","","","","","single-stim-button","335","1036308","0.0-3.0-34.6-1.6","5e46d70ab1f1c5000d96800d","B2","batch2","","902","","","tol_toboard","","","","","","","","","tol_peg_1","902","902","0","[[3,0,0],[2,0],[1]]","7","[[2,1,0],[3,0],[0]]","8","0","","","","","","6","",""
"","","","","","single-stim-button","336","1037072","0.0-3.0-34.7-0.7","5e46d70ab1f1c5000d96800d","B2","batch2","","761","","","tol_tohand","","","","","","","","","tol_peg_2","761","761","0","[[3,0,0],[0,0],[1]]","8","[[2,1,0],[3,0],[0]]","8","0","","","","","","6","",""
"","","","","","single-stim-button","337","1037905","0.0-3.0-34.7-1.7","5e46d70ab1f1c5000d96800d","B2","batch2","","825","","","tol_toboard","","","","","","","","","tol_peg_1","825","825","0","[[3,2,0],[0,0],[1]]","8","[[2,1,0],[3,0],[0]]","8","0","","","","","","6","",""
"","","","","","single-stim-button","338","1039335","0.0-3.0-34.8-0.8","5e46d70ab1f1c5000d96800d","B2","batch2","","1428","","","tol_tohand","","","","","","","","","tol_peg_3","1428","1428","0","[[3,2,0],[0,0],[0]]","9","[[2,1,0],[3,0],[0]]","8","0","","","","","","6","",""
"","","","","","single-stim-button","339","1041339","0.0-3.0-34.8-1.8","5e46d70ab1f1c5000d96800d","B2","batch2","","2001","","","tol_toboard","","","","","","","","","tol_peg_2","2001","2001","0","[[3,2,0],[1,0],[0]]","9","[[2,1,0],[3,0],[0]]","8","0","","","","","","6","",""
"","","","","","single-stim-button","340","1042515","0.0-3.0-34.9-0.9","5e46d70ab1f1c5000d96800d","B2","batch2","","1173","","","tol_tohand","","","","","","","","","tol_peg_1","1173","1173","0","[[3,0,0],[1,0],[0]]","10","[[2,1,0],[3,0],[0]]","8","0","","","","","","6","",""
"","","","","","single-stim-button","341","1044125","0.0-3.0-34.9-1.9","5e46d70ab1f1c5000d96800d","B2","batch2","","1608","","","tol_toboard","","","","","","","","","tol_peg_3","1608","1608","0","[[3,0,0],[1,0],[2]]","10","[[2,1,0],[3,0],[0]]","8","0","","","","","","6","",""
"","","","","","single-stim-button","342","1044883","0.0-3.0-34.10-0.10","5e46d70ab1f1c5000d96800d","B2","batch2","","756","","","tol_tohand","","","","","","","","","tol_peg_1","756","756","0","[[0,0,0],[1,0],[2]]","11","[[2,1,0],[3,0],[0]]","8","0","","","","","","6","",""
"","","","","","single-stim-button","343","1045700","0.0-3.0-34.10-1.10","5e46d70ab1f1c5000d96800d","B2","batch2","","815","","","tol_toboard","","","","","","","","","tol_peg_2","815","815","0","[[0,0,0],[1,3],[2]]","11","[[2,1,0],[3,0],[0]]","8","0","","","","","","6","",""
"","","","","","single-stim-button","344","1046301","0.0-3.0-34.11-0.11","5e46d70ab1f1c5000d96800d","B2","batch2","","599","","","tol_tohand","","","","","","","","","tol_peg_3","599","599","0","[[0,0,0],[1,3],[0]]","12","[[2,1,0],[3,0],[0]]","8","0","","","","","","6","",""
"","","","","","single-stim-button","345","1047580","0.0-3.0-34.11-1.11","5e46d70ab1f1c5000d96800d","B2","batch2","","1276","","","tol_toboard","","","","","","","","","tol_peg_1","1276","1276","0","[[2,0,0],[1,3],[0]]","12","[[2,1,0],[3,0],[0]]","8","0","","","","","","6","",""
"","","","","","single-stim-button","346","1048259","0.0-3.0-34.12-0.12","5e46d70ab1f1c5000d96800d","B2","batch2","","676","","","tol_tohand","","","","","","","","","tol_peg_2","676","676","0","[[2,0,0],[1,0],[0]]","13","[[2,1,0],[3,0],[0]]","8","0","","","","","","6","",""
