"success","timeout","failed_images","failed_audio","failed_video","trial_type","trial_index","time_elapsed","internal_node_id","subject_id","study_id","session_id","view_history","rt","task","stimulus","response","correct","mouse_click","stim_duration","block_duration","timing_post_trial","current_position","tol_num_moves_made","tol_target","tol_problem_id","tol_rt","key_press","possible_responses","tol_correct","preplanning","tol_rt_per_trial","tol_min_moves","answer","item","fiar_detect_rt","fiar_detect_correct","total_correct_fiar_detect","post_trial_gap","choices","spm_correct","spm_rt"
"true","false","[]","[]","[]","preload","0","1925","0.0-0.0","5e5c6b9c8ce757449e4a6dc1","E1","batch5","","","","","","","","","","","","","","","","","","","","","","","","","","","","","",""
"true","","","","","fullscreen","1","8253","0.0-1.0-0.0","5e5c6b9c8ce757449e4a6dc1","E1","batch5","","","","","","","","","","","","","","","","","","","","","","","","","","","","","",""
"true","","","","","fullscreen","2","11086","0.0-2.0-0.0","5e5c6b9c8ce757449e4a6dc1","E1","batch5","","","","","","","","","","","","","","","","","","","","","","","","","","","","","",""
"","","","","","instructions","3","63878","0.0-2.0-1.0-0.0-0.0","5e5c6b9c8ce757449e4a6dc1","E1","batch5","[{""page_index"":0,""viewing_time"":14429.400000095367},{""page_index"":1,""viewing_time"":4519.199999928474},{""page_index"":2,""viewing_time"":2726.7000000476837},{""page_index"":3,""viewing_time"":12320.799999952316},{""page_index"":4,""viewing_time"":8004.200000047684},{""page_index"":5,""viewing_time"":8023},{""page_index"":6,""viewing_time"":2766.899999976158}]","52790.5","tol-instructions","","","","","","","","","","","","","","","","","","","","","","","","","","",""
"","","","","","html-button-response","4","64893","0.0-2.0-1.0-1.0-0.0","5e5c6b9c8ce757449e4a6dc1","E1","batch5","","1014.3999999761581","tol_enter_quiz","<p class=block-text> Let's answer a few questions <br>","0","","","","","","","","","","","","","","","","","","","","","","","","",""
"","","","","","html-button-response","5","70646","0.0-2.0-1.0-1.0-1.0","5e5c6b9c8ce757449e4a6dc1","E1","batch5","","5751.100000023842","tol_quiz","<p class = block-text>True or False: You can only move the ball on top of a peg. <br></p>","0","true","","","","","","","","","","","","","","","","","","","","","","","",""
"","","","","","html-button-response","6","71671","0.0-2.0-1.0-1.0-2.0","5e5c6b9c8ce757449e4a6dc1","E1","batch5","","1023.1000000238419","tol_quiz_feedback","<p class = block-text>Correct! You can only move the ball on top of a peg.</p>","0","","","","","","","","","","","","","","","","","","","","","","","","",""
"","","","","","html-button-response","7","74219","0.0-2.0-1.0-1.0-3.0","5e5c6b9c8ce757449e4a6dc1","E1","batch5","","2547.1999999284744","tol_quiz","<p class = block-text>True or False: You should try to match your board with the target board with fewest moves possible. <br></p>","0","true","","","","","","","","","","","","","","","","","","","","","","","",""
"","","","","","html-button-response","8","74945","0.0-2.0-1.0-1.0-4.0","5e5c6b9c8ce757449e4a6dc1","E1","batch5","","725.8999999761581","tol_quiz_feedback","<p class = block-text>Correct! </p>","0","","","","","","","","","","","","","","","","","","","","","","","","",""
"","","","","","html-button-response","9","76458","0.0-2.0-2.0","5e5c6b9c8ce757449e4a6dc1","E1","batch5","","1511.8000000715256","","<p class=block-text> Now that you've understood the game, let's practice a few easier examples before we start!<br> <br>","0","","","","","","","","","","","","","","","","","","","","","","","","",""
"","","","","","single-stim-button","10","78899","0.0-2.0-3.0-0.0","5e5c6b9c8ce757449e4a6dc1","E1","batch5","","2439","tol_practice","","","","tol_peg_2","2439","2439","0","[[1,2,0],[0,0],[0]]","1","[[1,2,0],[0,0],[3]]","practice","2439","","","","","","","","","","","","","","",""
"","","","","","single-stim-button","11","79714","0.0-2.0-3.0-1.0","5e5c6b9c8ce757449e4a6dc1","E1","batch5","","814","tol_practice","","","","tol_peg_3","814","814","0","[[1,2,0],[0,0],[3]]","1","[[1,2,0],[0,0],[3]]","practice","814","","","","","","","","","","","","","","",""
"","","","","","poldrack-single-stim","12","80716","0.0-2.0-4.0","5e5c6b9c8ce757449e4a6dc1","E1","batch5","","-1","tol_feedback","","","true","","1000","1000","500","","","","","","-1","none","true","","0","","","","","","","","","",""
"","","","","","single-stim-button","13","85170","0.0-2.0-5.0-0.0","5e5c6b9c8ce757449e4a6dc1","E1","batch5","","4453","tol_practice","","","","tol_peg_1","4453","4453","0","[[1,0,0],[3,0],[0]]","2","[[0,0,0],[3,1],[2]]","practice","4453","","","","","","","","","","","","","","",""
"","","","","","single-stim-button","14","85827","0.0-2.0-5.0-1.0","5e5c6b9c8ce757449e4a6dc1","E1","batch5","","656","tol_practice","","","","tol_peg_3","656","656","0","[[1,0,0],[3,0],[2]]","2","[[0,0,0],[3,1],[2]]","practice","656","","","","","","","","","","","","","","",""
"","","","","","single-stim-button","15","86773","0.0-2.0-5.1-0.1","5e5c6b9c8ce757449e4a6dc1","E1","batch5","","945","tol_practice","","","","tol_peg_1","945","945","0","[[0,0,0],[3,0],[2]]","3","[[0,0,0],[3,1],[2]]","practice","945","","","","","","","","","","","","","","",""
"","","","","","single-stim-button","16","87531","0.0-2.0-5.1-1.1","5e5c6b9c8ce757449e4a6dc1","E1","batch5","","756","tol_practice","","","","tol_peg_2","756","756","0","[[0,0,0],[3,1],[2]]","3","[[0,0,0],[3,1],[2]]","practice","756","","","","","","","","","","","","","","",""
"","","","","","poldrack-single-stim","17","88532","0.0-2.0-6.0","5e5c6b9c8ce757449e4a6dc1","E1","batch5","","-1","tol_feedback","","","true","","1000","1000","500","","","","","","-1","none","true","","0","","","","","","","","","",""
"","","","","","single-stim-button","18","91463","0.0-2.0-7.0-0.0","5e5c6b9c8ce757449e4a6dc1","E1","batch5","","2931","tol_practice","","","","tol_peg_2","2931","2931","0","[[1,2,0],[0,0],[0]]","4","[[1,0,0],[2,0],[3]]","practice","2931","","","","","","","","","","","","","","",""
"","","","","","single-stim-button","19","92230","0.0-2.0-7.0-1.0","5e5c6b9c8ce757449e4a6dc1","E1","batch5","","765","tol_practice","","","","tol_peg_3","765","765","0","[[1,2,0],[0,0],[3]]","4","[[1,0,0],[2,0],[3]]","practice","765","","","","","","","","","","","","","","",""
"","","","","","single-stim-button","20","92946","0.0-2.0-7.1-0.1","5e5c6b9c8ce757449e4a6dc1","E1","batch5","","716","tol_practice","","","","tol_peg_1","716","716","0","[[1,0,0],[0,0],[3]]","5","[[1,0,0],[2,0],[3]]","practice","716","","","","","","","","","","","","","","",""
"","","","","","single-stim-button","21","94032","0.0-2.0-7.1-1.1","5e5c6b9c8ce757449e4a6dc1","E1","batch5","","1085","tol_practice","","","","tol_peg_2","1085","1085","0","[[1,0,0],[2,0],[3]]","5","[[1,0,0],[2,0],[3]]","practice","1085","","","","","","","","","","","","","","",""
"","","","","","poldrack-single-stim","22","95033","0.0-2.0-8.0","5e5c6b9c8ce757449e4a6dc1","E1","batch5","","-1","tol_feedback","","","true","","1000","1000","500","","","","","","-1","none","true","","0","","","","","","","","","",""
"","","","","","html-button-response","23","97915","0.0-2.0-9.0","5e5c6b9c8ce757449e4a6dc1","E1","batch5","","2881.600000023842","tol_instruction","<div class = centerbox><p class = center-block-text>Great job! You are done with practice trials<br>You are about to start official trials.<br> <br> Problem <strong>1</strong> out of 25 problems</p></div>","0","","","","","","","","","","","","","","","","","","","","","","","","",""
"","","","","","single-stim-button","24","107735","0.0-2.0-10.0-0.0","5e5c6b9c8ce757449e4a6dc1","E1","batch5","","8813","tol_tohand","","","","tol_peg_1","8813","8813","0","[[1,0,0],[3,0],[0]]","1","[[1,3,0],[2,0],[0]]","0","0","","","","","","3","","","","","","","","",""
"","","","","","single-stim-button","25","108921","0.0-2.0-10.0-1.0","5e5c6b9c8ce757449e4a6dc1","E1","batch5","","1184","tol_toboard","","","","tol_peg_3","1184","1184","0","[[1,0,0],[3,0],[2]]","1","[[1,3,0],[2,0],[0]]","0","0","","","","","","3","","","","","","","","",""
"","","","","","single-stim-button","26","109957","0.0-2.0-10.1-0.1","5e5c6b9c8ce757449e4a6dc1","E1","batch5","","1035","tol_tohand","","","","tol_peg_2","1035","1035","0","[[1,0,0],[0,0],[2]]","2","[[1,3,0],[2,0],[0]]","0","0","","","","","","3","","","","","","","","",""
"","","","","","single-stim-button","27","110634","0.0-2.0-10.1-1.1","5e5c6b9c8ce757449e4a6dc1","E1","batch5","","676","tol_toboard","","","","tol_peg_1","676","676","0","[[1,3,0],[0,0],[2]]","2","[[1,3,0],[2,0],[0]]","0","0","","","","","","3","","","","","","","","",""
"","","","","","single-stim-button","28","111372","0.0-2.0-10.2-0.2","5e5c6b9c8ce757449e4a6dc1","E1","batch5","","737","tol_tohand","","","","tol_peg_3","737","737","0","[[1,3,0],[0,0],[0]]","3","[[1,3,0],[2,0],[0]]","0","0","","","","","","3","","","","","","","","",""
"","","","","","single-stim-button","29","111948","0.0-2.0-10.2-1.2","5e5c6b9c8ce757449e4a6dc1","E1","batch5","","576","tol_toboard","","","","tol_peg_2","576","576","0","[[1,3,0],[2,0],[0]]","3","[[1,3,0],[2,0],[0]]","0","0","","","","","","3","","","","","","","","",""
"","","","","","poldrack-single-stim","30","112950","0.0-2.0-11.0","5e5c6b9c8ce757449e4a6dc1","E1","batch5","","-1","tol_feedback","","","true","","1000","1000","500","","","","","","-1","none","true","8813","10585","","","","","","","","","",""
"","","","","","html-button-response","31","113901","0.0-2.0-12.0","5e5c6b9c8ce757449e4a6dc1","E1","batch5","","950.0999999046326","tol_trial_num","<div class = centerbox><p class = center-block-text>problem <strong>2</strong> out of 25 problems</p></div>","0","","","","","","","","","","","","","","","","","","","","","","","","",""
"","","","","","single-stim-button","32","127595","0.0-2.0-13.0-0.0","5e5c6b9c8ce757449e4a6dc1","E1","batch5","","13692","tol_tohand","","","","tol_peg_1","13692","13692","0","[[1,0,0],[3,0],[0]]","1","[[2,1,3],[0,0],[0]]","1","0","","","","","","5","","","","","","","","",""
"","","","","","single-stim-button","33","129457","0.0-2.0-13.0-1.0","5e5c6b9c8ce757449e4a6dc1","E1","batch5","","1861","tol_toboard","","","","tol_peg_2","1861","1861","0","[[1,0,0],[3,2],[0]]","1","[[2,1,3],[0,0],[0]]","1","0","","","","","","5","","","","","","","","",""
"","","","","","single-stim-button","34","130771","0.0-2.0-13.1-0.1","5e5c6b9c8ce757449e4a6dc1","E1","batch5","","1314","tol_tohand","","","","tol_peg_1","1314","1314","0","[[0,0,0],[3,2],[0]]","2","[[2,1,3],[0,0],[0]]","1","0","","","","","","5","","","","","","","","",""
"","","","","","single-stim-button","35","139793","0.0-2.0-13.1-1.1","5e5c6b9c8ce757449e4a6dc1","E1","batch5","","9021","tol_toboard","","","","tol_peg_3","9021","9021","0","[[0,0,0],[3,2],[1]]","2","[[2,1,3],[0,0],[0]]","1","0","","","","","","5","","","","","","","","",""
"","","","","","single-stim-button","36","140590","0.0-2.0-13.2-0.2","5e5c6b9c8ce757449e4a6dc1","E1","batch5","","795","tol_tohand","","","","tol_peg_2","795","795","0","[[0,0,0],[3,0],[1]]","3","[[2,1,3],[0,0],[0]]","1","0","","","","","","5","","","","","","","","",""
"","","","","","single-stim-button","37","141844","0.0-2.0-13.2-1.2","5e5c6b9c8ce757449e4a6dc1","E1","batch5","","1254","tol_toboard","","","","tol_peg_2","1254","1254","0","[[0,0,0],[3,2],[1]]","3","[[2,1,3],[0,0],[0]]","1","0","","","","","","5","","","","","","","","",""
"","","","","","single-stim-button","38","147810","0.0-2.0-13.3-0.3","5e5c6b9c8ce757449e4a6dc1","E1","batch5","","5965","tol_tohand","","","","tol_peg_2","5965","5965","0","[[0,0,0],[3,0],[1]]","4","[[2,1,3],[0,0],[0]]","1","0","","","","","","5","","","","","","","","",""
"","","","","","single-stim-button","39","148746","0.0-2.0-13.3-1.3","5e5c6b9c8ce757449e4a6dc1","E1","batch5","","935","tol_toboard","","","","tol_peg_1","935","935","0","[[2,0,0],[3,0],[1]]","4","[[2,1,3],[0,0],[0]]","1","0","","","","","","5","","","","","","","","",""
"","","","","","single-stim-button","40","155529","0.0-2.0-13.4-0.4","5e5c6b9c8ce757449e4a6dc1","E1","batch5","","6782","tol_tohand","","","","tol_peg_3","6782","6782","0","[[2,0,0],[3,0],[0]]","5","[[2,1,3],[0,0],[0]]","1","0","","","","","","5","","","","","","","","",""
"","","","","","single-stim-button","41","156405","0.0-2.0-13.4-1.4","5e5c6b9c8ce757449e4a6dc1","E1","batch5","","875","tol_toboard","","","","tol_peg_1","875","875","0","[[2,1,0],[3,0],[0]]","5","[[2,1,3],[0,0],[0]]","1","0","","","","","","5","","","","","","","","",""
"","","","","","single-stim-button","42","156912","0.0-2.0-13.5-0.5","5e5c6b9c8ce757449e4a6dc1","E1","batch5","","507","tol_tohand","","","","tol_peg_2","507","507","0","[[2,1,0],[0,0],[0]]","6","[[2,1,3],[0,0],[0]]","1","0","","","","","","5","","","","","","","","",""
"","","","","","single-stim-button","43","157500","0.0-2.0-13.5-1.5","5e5c6b9c8ce757449e4a6dc1","E1","batch5","","587","tol_toboard","","","","tol_peg_1","587","587","0","[[2,1,3],[0,0],[0]]","6","[[2,1,3],[0,0],[0]]","1","0","","","","","","5","","","","","","","","",""
"","","","","","poldrack-single-stim","44","158502","0.0-2.0-14.0","5e5c6b9c8ce757449e4a6dc1","E1","batch5","","-1","tol_feedback","","","true","","1000","1000","500","","","","","","-1","none","true","13692","29055","","","","","","","","","",""
"","","","","","html-button-response","45","159572","0.0-2.0-15.0","5e5c6b9c8ce757449e4a6dc1","E1","batch5","","1069","tol_trial_num","<div class = centerbox><p class = center-block-text>problem <strong>3</strong> out of 25 problems</p></div>","0","","","","","","","","","","","","","","","","","","","","","","","","",""
"","","","","","single-stim-button","46","162420","0.0-2.0-16.0-0.0","5e5c6b9c8ce757449e4a6dc1","E1","batch5","","2847","tol_tohand","","","","tol_peg_1","2847","2847","0","[[2,0,0],[0,0],[1]]","1","[[1,2,0],[3,0],[0]]","2","0","","","","","","4","","","","","","","","",""
"","","","","","single-stim-button","47","163256","0.0-2.0-16.0-1.0","5e5c6b9c8ce757449e4a6dc1","E1","batch5","","836","tol_toboard","","","","tol_peg_2","836","836","0","[[2,0,0],[3,0],[1]]","1","[[1,2,0],[3,0],[0]]","2","0","","","","","","4","","","","","","","","",""
"","","","","","single-stim-button","48","166384","0.0-2.0-16.1-0.1","5e5c6b9c8ce757449e4a6dc1","E1","batch5","","3128","tol_tohand","","","","tol_peg_3","3128","3128","0","[[2,0,0],[3,0],[0]]","2","[[1,2,0],[3,0],[0]]","2","0","","","","","","4","","","","","","","","",""
"","","","","","single-stim-button","49","169829","0.0-2.0-16.1-1.1","5e5c6b9c8ce757449e4a6dc1","E1","batch5","","3445","tol_toboard","","","","tol_peg_2","3445","3445","0","[[2,0,0],[3,1],[0]]","2","[[1,2,0],[3,0],[0]]","2","0","","","","","","4","","","","","","","","",""
"","","","","","single-stim-button","50","170437","0.0-2.0-16.2-0.2","5e5c6b9c8ce757449e4a6dc1","E1","batch5","","608","tol_tohand","","","","tol_peg_1","608","608","0","[[0,0,0],[3,1],[0]]","3","[[1,2,0],[3,0],[0]]","2","0","","","","","","4","","","","","","","","",""
"","","","","","single-stim-button","51","171532","0.0-2.0-16.2-1.2","5e5c6b9c8ce757449e4a6dc1","E1","batch5","","1095","tol_toboard","","","","tol_peg_3","1095","1095","0","[[0,0,0],[3,1],[2]]","3","[[1,2,0],[3,0],[0]]","2","0","","","","","","4","","","","","","","","",""
"","","","","","single-stim-button","52","172180","0.0-2.0-16.3-0.3","5e5c6b9c8ce757449e4a6dc1","E1","batch5","","647","tol_tohand","","","","tol_peg_2","647","647","0","[[0,0,0],[3,0],[2]]","4","[[1,2,0],[3,0],[0]]","2","0","","","","","","4","","","","","","","","",""
"","","","","","single-stim-button","53","172877","0.0-2.0-16.3-1.3","5e5c6b9c8ce757449e4a6dc1","E1","batch5","","697","tol_toboard","","","","tol_peg_1","697","697","0","[[1,0,0],[3,0],[2]]","4","[[1,2,0],[3,0],[0]]","2","0","","","","","","4","","","","","","","","",""
"","","","","","single-stim-button","54","173585","0.0-2.0-16.4-0.4","5e5c6b9c8ce757449e4a6dc1","E1","batch5","","707","tol_tohand","","","","tol_peg_3","707","707","0","[[1,0,0],[3,0],[0]]","5","[[1,2,0],[3,0],[0]]","2","0","","","","","","4","","","","","","","","",""
"","","","","","single-stim-button","55","174451","0.0-2.0-16.4-1.4","5e5c6b9c8ce757449e4a6dc1","E1","batch5","","866","tol_toboard","","","","tol_peg_1","866","866","0","[[1,2,0],[3,0],[0]]","5","[[1,2,0],[3,0],[0]]","2","0","","","","","","4","","","","","","","","",""
"","","","","","poldrack-single-stim","56","175461","0.0-2.0-17.0","5e5c6b9c8ce757449e4a6dc1","E1","batch5","","-1","tol_feedback","","","true","","1000","1000","500","","","","","","-1","none","true","2847","7937","","","","","","","","","",""
"","","","","","html-button-response","57","176422","0.0-2.0-18.0","5e5c6b9c8ce757449e4a6dc1","E1","batch5","","960.3999999761581","tol_trial_num","<div class = centerbox><p class = center-block-text>problem <strong>4</strong> out of 25 problems</p></div>","0","","","","","","","","","","","","","","","","","","","","","","","","",""
"","","","","","single-stim-button","58","179710","0.0-2.0-19.0-0.0","5e5c6b9c8ce757449e4a6dc1","E1","batch5","","3287","tol_tohand","","","","tol_peg_2","3287","3287","0","[[3,0,0],[2,0],[0]]","1","[[3,0,0],[1,0],[2]]","3","0","","","","","","3","","","","","","","","",""
"","","","","","single-stim-button","59","180596","0.0-2.0-19.0-1.0","5e5c6b9c8ce757449e4a6dc1","E1","batch5","","886","tol_toboard","","","","tol_peg_1","886","886","0","[[3,1,0],[2,0],[0]]","1","[[3,0,0],[1,0],[2]]","3","0","","","","","","3","","","","","","","","",""
"","","","","","single-stim-button","60","181104","0.0-2.0-19.1-0.1","5e5c6b9c8ce757449e4a6dc1","E1","batch5","","508","tol_tohand","","","","tol_peg_2","508","508","0","[[3,1,0],[0,0],[0]]","2","[[3,0,0],[1,0],[2]]","3","0","","","","","","3","","","","","","","","",""
"","","","","","single-stim-button","61","182030","0.0-2.0-19.1-1.1","5e5c6b9c8ce757449e4a6dc1","E1","batch5","","925","tol_toboard","","","","tol_peg_3","925","925","0","[[3,1,0],[0,0],[2]]","2","[[3,0,0],[1,0],[2]]","3","0","","","","","","3","","","","","","","","",""
"","","","","","single-stim-button","62","182698","0.0-2.0-19.2-0.2","5e5c6b9c8ce757449e4a6dc1","E1","batch5","","668","tol_tohand","","","","tol_peg_1","668","668","0","[[3,0,0],[0,0],[2]]","3","[[3,0,0],[1,0],[2]]","3","0","","","","","","3","","","","","","","","",""
"","","","","","single-stim-button","63","183236","0.0-2.0-19.2-1.2","5e5c6b9c8ce757449e4a6dc1","E1","batch5","","537","tol_toboard","","","","tol_peg_2","537","537","0","[[3,0,0],[1,0],[2]]","3","[[3,0,0],[1,0],[2]]","3","0","","","","","","3","","","","","","","","",""
"","","","","","poldrack-single-stim","64","184237","0.0-2.0-20.0","5e5c6b9c8ce757449e4a6dc1","E1","batch5","","-1","tol_feedback","","","true","","1000","1000","500","","","","","","-1","none","true","3287","4463","","","","","","","","","",""
"","","","","","html-button-response","65","185377","0.0-2.0-21.0","5e5c6b9c8ce757449e4a6dc1","E1","batch5","","1139.5","tol_trial_num","<div class = centerbox><p class = center-block-text>problem <strong>5</strong> out of 25 problems</p></div>","0","","","","","","","","","","","","","","","","","","","","","","","","",""
"","","","","","single-stim-button","66","196333","0.0-2.0-22.0-0.0","5e5c6b9c8ce757449e4a6dc1","E1","batch5","","10956","tol_tohand","","","","tol_peg_1","10956","10956","0","[[0,0,0],[2,0],[3]]","1","[[0,0,0],[1,2],[3]]","4","0","","","","","","7","","","","","","","","",""
"","","","","","single-stim-button","67","204488","0.0-2.0-22.0-1.0","5e5c6b9c8ce757449e4a6dc1","E1","batch5","","8154","tol_toboard","","","","tol_peg_1","8154","8154","0","[[1,0,0],[2,0],[3]]","1","[[0,0,0],[1,2],[3]]","4","0","","","","","","7","","","","","","","","",""
"","","","","","single-stim-button","68","206380","0.0-2.0-22.1-0.1","5e5c6b9c8ce757449e4a6dc1","E1","batch5","","1891","tol_tohand","","","","tol_peg_3","1891","1891","0","[[1,0,0],[2,0],[0]]","2","[[0,0,0],[1,2],[3]]","4","0","","","","","","7","","","","","","","","",""
"","","","","","single-stim-button","69","207096","0.0-2.0-22.1-1.1","5e5c6b9c8ce757449e4a6dc1","E1","batch5","","716","tol_toboard","","","","tol_peg_2","716","716","0","[[1,0,0],[2,3],[0]]","2","[[0,0,0],[1,2],[3]]","4","0","","","","","","7","","","","","","","","",""
"","","","","","single-stim-button","70","207674","0.0-2.0-22.2-0.2","5e5c6b9c8ce757449e4a6dc1","E1","batch5","","576","tol_tohand","","","","tol_peg_1","576","576","0","[[0,0,0],[2,3],[0]]","3","[[0,0,0],[1,2],[3]]","4","0","","","","","","7","","","","","","","","",""
"","","","","","single-stim-button","71","214038","0.0-2.0-22.2-1.2","5e5c6b9c8ce757449e4a6dc1","E1","batch5","","6364","tol_toboard","","","","tol_peg_1","6364","6364","0","[[1,0,0],[2,3],[0]]","3","[[0,0,0],[1,2],[3]]","4","0","","","","","","7","","","","","","","","",""
"","","","","","single-stim-button","72","214815","0.0-2.0-22.3-0.3","5e5c6b9c8ce757449e4a6dc1","E1","batch5","","776","tol_tohand","","","","tol_peg_2","776","776","0","[[1,0,0],[2,0],[0]]","4","[[0,0,0],[1,2],[3]]","4","0","","","","","","7","","","","","","","","",""
"","","","","","single-stim-button","73","215423","0.0-2.0-22.3-1.3","5e5c6b9c8ce757449e4a6dc1","E1","batch5","","607","tol_toboard","","","","tol_peg_1","607","607","0","[[1,3,0],[2,0],[0]]","4","[[0,0,0],[1,2],[3]]","4","0","","","","","","7","","","","","","","","",""
"","","","","","single-stim-button","74","216090","0.0-2.0-22.4-0.4","5e5c6b9c8ce757449e4a6dc1","E1","batch5","","666","tol_tohand","","","","tol_peg_2","666","666","0","[[1,3,0],[0,0],[0]]","5","[[0,0,0],[1,2],[3]]","4","0","","","","","","7","","","","","","","","",""
"","","","","","single-stim-button","75","217047","0.0-2.0-22.4-1.4","5e5c6b9c8ce757449e4a6dc1","E1","batch5","","957","tol_toboard","","","","tol_peg_3","957","957","0","[[1,3,0],[0,0],[2]]","5","[[0,0,0],[1,2],[3]]","4","0","","","","","","7","","","","","","","","",""
"","","","","","single-stim-button","76","222445","0.0-2.0-22.5-0.5","5e5c6b9c8ce757449e4a6dc1","E1","batch5","","5398","tol_tohand","","","","tol_peg_1","5398","5398","0","[[1,0,0],[0,0],[2]]","6","[[0,0,0],[1,2],[3]]","4","0","","","","","","7","","","","","","","","",""
"","","","","","single-stim-button","77","230403","0.0-2.0-22.5-1.5","5e5c6b9c8ce757449e4a6dc1","E1","batch5","","7957","tol_toboard","","","","tol_peg_1","7957","7957","0","[[1,3,0],[0,0],[2]]","6","[[0,0,0],[1,2],[3]]","4","0","","","","","","7","","","","","","","","",""
"","","","","","single-stim-button","78","231597","0.0-2.0-22.6-0.6","5e5c6b9c8ce757449e4a6dc1","E1","batch5","","1193","tol_tohand","","","","tol_peg_3","1193","1193","0","[[1,3,0],[0,0],[0]]","7","[[0,0,0],[1,2],[3]]","4","0","","","","","","7","","","","","","","","",""
"","","","","","single-stim-button","79","232715","0.0-2.0-22.6-1.6","5e5c6b9c8ce757449e4a6dc1","E1","batch5","","1117","tol_toboard","","","","tol_peg_2","1117","1117","0","[[1,3,0],[2,0],[0]]","7","[[0,0,0],[1,2],[3]]","4","0","","","","","","7","","","","","","","","",""
"","","","","","single-stim-button","80","233571","0.0-2.0-22.7-0.7","5e5c6b9c8ce757449e4a6dc1","E1","batch5","","855","tol_tohand","","","","tol_peg_1","855","855","0","[[1,0,0],[2,0],[0]]","8","[[0,0,0],[1,2],[3]]","4","0","","","","","","7","","","","","","","","",""
"","","","","","single-stim-button","81","234508","0.0-2.0-22.7-1.7","5e5c6b9c8ce757449e4a6dc1","E1","batch5","","937","tol_toboard","","","","tol_peg_2","937","937","0","[[1,0,0],[2,3],[0]]","8","[[0,0,0],[1,2],[3]]","4","0","","","","","","7","","","","","","","","",""
"","","","","","single-stim-button","82","235095","0.0-2.0-22.8-0.8","5e5c6b9c8ce757449e4a6dc1","E1","batch5","","587","tol_tohand","","","","tol_peg_1","587","587","0","[[0,0,0],[2,3],[0]]","9","[[0,0,0],[1,2],[3]]","4","0","","","","","","7","","","","","","","","",""
"","","","","","single-stim-button","83","239438","0.0-2.0-22.8-1.8","5e5c6b9c8ce757449e4a6dc1","E1","batch5","","4341","tol_toboard","","","","tol_peg_3","4341","4341","0","[[0,0,0],[2,3],[1]]","9","[[0,0,0],[1,2],[3]]","4","0","","","","","","7","","","","","","","","",""
"","","","","","single-stim-button","84","240164","0.0-2.0-22.9-0.9","5e5c6b9c8ce757449e4a6dc1","E1","batch5","","726","tol_tohand","","","","tol_peg_2","726","726","0","[[0,0,0],[2,0],[1]]","10","[[0,0,0],[1,2],[3]]","4","0","","","","","","7","","","","","","","","",""
"","","","","","single-stim-button","85","241081","0.0-2.0-22.9-1.9","5e5c6b9c8ce757449e4a6dc1","E1","batch5","","916","tol_toboard","","","","tol_peg_1","916","916","0","[[3,0,0],[2,0],[1]]","10","[[0,0,0],[1,2],[3]]","4","0","","","","","","7","","","","","","","","",""
"","","","","","single-stim-button","86","241698","0.0-2.0-22.10-0.10","5e5c6b9c8ce757449e4a6dc1","E1","batch5","","617","tol_tohand","","","","tol_peg_2","617","617","0","[[3,0,0],[0,0],[1]]","11","[[0,0,0],[1,2],[3]]","4","0","","","","","","7","","","","","","","","",""
"","","","","","single-stim-button","87","242177","0.0-2.0-22.10-1.10","5e5c6b9c8ce757449e4a6dc1","E1","batch5","","478","tol_toboard","","","","tol_peg_1","478","478","0","[[3,2,0],[0,0],[1]]","11","[[0,0,0],[1,2],[3]]","4","0","","","","","","7","","","","","","","","",""
"","","","","","single-stim-button","88","243094","0.0-2.0-22.11-0.11","5e5c6b9c8ce757449e4a6dc1","E1","batch5","","915","tol_tohand","","","","tol_peg_3","915","915","0","[[3,2,0],[0,0],[0]]","12","[[0,0,0],[1,2],[3]]","4","0","","","","","","7","","","","","","","","",""
"","","","","","single-stim-button","89","243770","0.0-2.0-22.11-1.11","5e5c6b9c8ce757449e4a6dc1","E1","batch5","","676","tol_toboard","","","","tol_peg_2","676","676","0","[[3,2,0],[1,0],[0]]","12","[[0,0,0],[1,2],[3]]","4","0","","","","","","7","","","","","","","","",""
"","","","","","single-stim-button","90","244209","0.0-2.0-22.12-0.12","5e5c6b9c8ce757449e4a6dc1","E1","batch5","","438","tol_tohand","","","","tol_peg_1","438","438","0","[[3,0,0],[1,0],[0]]","13","[[0,0,0],[1,2],[3]]","4","0","","","","","","7","","","","","","","","",""
"","","","","","single-stim-button","91","244796","0.0-2.0-22.12-1.12","5e5c6b9c8ce757449e4a6dc1","E1","batch5","","587","tol_toboard","","","","tol_peg_2","587","587","0","[[3,0,0],[1,2],[0]]","13","[[0,0,0],[1,2],[3]]","4","0","","","","","","7","","","","","","","","",""
"","","","","","single-stim-button","92","245324","0.0-2.0-22.13-0.13","5e5c6b9c8ce757449e4a6dc1","E1","batch5","","527","tol_tohand","","","","tol_peg_1","527","527","0","[[0,0,0],[1,2],[0]]","14","[[0,0,0],[1,2],[3]]","4","0","","","","","","7","","","","","","","","",""
"","","","","","single-stim-button","93","245882","0.0-2.0-22.13-1.13","5e5c6b9c8ce757449e4a6dc1","E1","batch5","","556","tol_toboard","","","","tol_peg_3","556","556","0","[[0,0,0],[1,2],[3]]","14","[[0,0,0],[1,2],[3]]","4","0","","","","","","7","","","","","","","","",""
"","","","","","poldrack-single-stim","94","246883","0.0-2.0-23.0","5e5c6b9c8ce757449e4a6dc1","E1","batch5","","-1","tol_feedback","","","true","","1000","1000","500","","","","","","-1","none","true","10956","26121","","","","","","","","","",""
"","","","","","html-button-response","95","247794","0.0-2.0-24.0","5e5c6b9c8ce757449e4a6dc1","E1","batch5","","910.6999999284744","tol_trial_num","<div class = centerbox><p class = center-block-text>problem <strong>6</strong> out of 25 problems</p></div>","0","","","","","","","","","","","","","","","","","","","","","","","","",""
"","","","","","single-stim-button","96","263153","0.0-2.0-25.0-0.0","5e5c6b9c8ce757449e4a6dc1","E1","batch5","","15357","tol_tohand","","","","tol_peg_2","15357","15357","0","[[0,0,0],[1,0],[3]]","1","[[1,0,0],[2,3],[0]]","5","0","","","","","","6","","","","","","","","",""
"","","","","","single-stim-button","97","265762","0.0-2.0-25.0-1.0","5e5c6b9c8ce757449e4a6dc1","E1","batch5","","2608","tol_toboard","","","","tol_peg_1","2608","2608","0","[[2,0,0],[1,0],[3]]","1","[[1,0,0],[2,3],[0]]","5","0","","","","","","6","","","","","","","","",""
"","","","","","single-stim-button","98","269317","0.0-2.0-25.1-0.1","5e5c6b9c8ce757449e4a6dc1","E1","batch5","","3555","tol_tohand","","","","tol_peg_2","3555","3555","0","[[2,0,0],[0,0],[3]]","2","[[1,0,0],[2,3],[0]]","5","0","","","","","","6","","","","","","","","",""
"","","","","","single-stim-button","99","271618","0.0-2.0-25.1-1.1","5e5c6b9c8ce757449e4a6dc1","E1","batch5","","2300","tol_toboard","","","","tol_peg_1","2300","2300","0","[[2,1,0],[0,0],[3]]","2","[[1,0,0],[2,3],[0]]","5","0","","","","","","6","","","","","","","","",""
"","","","","","single-stim-button","100","272535","0.0-2.0-25.2-0.2","5e5c6b9c8ce757449e4a6dc1","E1","batch5","","915","tol_tohand","","","","tol_peg_3","915","915","0","[[2,1,0],[0,0],[0]]","3","[[1,0,0],[2,3],[0]]","5","0","","","","","","6","","","","","","","","",""
"","","","","","single-stim-button","101","273232","0.0-2.0-25.2-1.2","5e5c6b9c8ce757449e4a6dc1","E1","batch5","","697","tol_toboard","","","","tol_peg_2","697","697","0","[[2,1,0],[3,0],[0]]","3","[[1,0,0],[2,3],[0]]","5","0","","","","","","6","","","","","","","","",""
"","","","","","single-stim-button","102","274049","0.0-2.0-25.3-0.3","5e5c6b9c8ce757449e4a6dc1","E1","batch5","","815","tol_tohand","","","","tol_peg_1","815","815","0","[[2,0,0],[3,0],[0]]","4","[[1,0,0],[2,3],[0]]","5","0","","","","","","6","","","","","","","","",""
"","","","","","single-stim-button","103","274766","0.0-2.0-25.3-1.3","5e5c6b9c8ce757449e4a6dc1","E1","batch5","","716","tol_toboard","","","","tol_peg_2","716","716","0","[[2,0,0],[3,1],[0]]","4","[[1,0,0],[2,3],[0]]","5","0","","","","","","6","","","","","","","","",""
"","","","","","single-stim-button","104","275881","0.0-2.0-25.4-0.4","5e5c6b9c8ce757449e4a6dc1","E1","batch5","","1115","tol_tohand","","","","tol_peg_1","1115","1115","0","[[0,0,0],[3,1],[0]]","5","[[1,0,0],[2,3],[0]]","5","0","","","","","","6","","","","","","","","",""
"","","","","","single-stim-button","105","276758","0.0-2.0-25.4-1.4","5e5c6b9c8ce757449e4a6dc1","E1","batch5","","877","tol_toboard","","","","tol_peg_3","877","877","0","[[0,0,0],[3,1],[2]]","5","[[1,0,0],[2,3],[0]]","5","0","","","","","","6","","","","","","","","",""
"","","","","","single-stim-button","106","277514","0.0-2.0-25.5-0.5","5e5c6b9c8ce757449e4a6dc1","E1","batch5","","756","tol_tohand","","","","tol_peg_2","756","756","0","[[0,0,0],[3,0],[2]]","6","[[1,0,0],[2,3],[0]]","5","0","","","","","","6","","","","","","","","",""
"","","","","","single-stim-button","107","278420","0.0-2.0-25.5-1.5","5e5c6b9c8ce757449e4a6dc1","E1","batch5","","906","tol_toboard","","","","tol_peg_1","906","906","0","[[1,0,0],[3,0],[2]]","6","[[1,0,0],[2,3],[0]]","5","0","","","","","","6","","","","","","","","",""
"","","","","","single-stim-button","108","278927","0.0-2.0-25.6-0.6","5e5c6b9c8ce757449e4a6dc1","E1","batch5","","505","tol_tohand","","","","tol_peg_2","505","505","0","[[1,0,0],[0,0],[2]]","7","[[1,0,0],[2,3],[0]]","5","0","","","","","","6","","","","","","","","",""
"","","","","","single-stim-button","109","279905","0.0-2.0-25.6-1.6","5e5c6b9c8ce757449e4a6dc1","E1","batch5","","978","tol_toboard","","","","tol_peg_1","978","978","0","[[1,3,0],[0,0],[2]]","7","[[1,0,0],[2,3],[0]]","5","0","","","","","","6","","","","","","","","",""
"","","","","","single-stim-button","110","280433","0.0-2.0-25.7-0.7","5e5c6b9c8ce757449e4a6dc1","E1","batch5","","527","tol_tohand","","","","tol_peg_3","527","527","0","[[1,3,0],[0,0],[0]]","8","[[1,0,0],[2,3],[0]]","5","0","","","","","","6","","","","","","","","",""
"","","","","","single-stim-button","111","281020","0.0-2.0-25.7-1.7","5e5c6b9c8ce757449e4a6dc1","E1","batch5","","587","tol_toboard","","","","tol_peg_2","587","587","0","[[1,3,0],[2,0],[0]]","8","[[1,0,0],[2,3],[0]]","5","0","","","","","","6","","","","","","","","",""
"","","","","","single-stim-button","112","281569","0.0-2.0-25.8-0.8","5e5c6b9c8ce757449e4a6dc1","E1","batch5","","548","tol_tohand","","","","tol_peg_1","548","548","0","[[1,0,0],[2,0],[0]]","9","[[1,0,0],[2,3],[0]]","5","0","","","","","","6","","","","","","","","",""
"","","","","","single-stim-button","113","282276","0.0-2.0-25.8-1.8","5e5c6b9c8ce757449e4a6dc1","E1","batch5","","707","tol_toboard","","","","tol_peg_2","707","707","0","[[1,0,0],[2,3],[0]]","9","[[1,0,0],[2,3],[0]]","5","0","","","","","","6","","","","","","","","",""
"","","","","","poldrack-single-stim","114","283281","0.0-2.0-26.0","5e5c6b9c8ce757449e4a6dc1","E1","batch5","","-1","tol_feedback","","","true","","1000","1000","500","","","","","","-1","none","true","15357","24093","","","","","","","","","",""
"","","","","","html-button-response","115","284368","0.0-2.0-27.0","5e5c6b9c8ce757449e4a6dc1","E1","batch5","","1085.9000000953674","tol_trial_num","<div class = centerbox><p class = center-block-text>problem <strong>7</strong> out of 25 problems</p></div>","0","","","","","","","","","","","","","","","","","","","","","","","","",""
"","","","","","single-stim-button","116","291763","0.0-2.0-28.0-0.0","5e5c6b9c8ce757449e4a6dc1","E1","batch5","","7394","tol_tohand","","","","tol_peg_3","7394","7394","0","[[2,1,0],[0,0],[0]]","1","[[1,2,0],[3,0],[0]]","6","0","","","","","","5","","","","","","","","",""
"","","","","","single-stim-button","117","292372","0.0-2.0-28.0-1.0","5e5c6b9c8ce757449e4a6dc1","E1","batch5","","608","tol_toboard","","","","tol_peg_2","608","608","0","[[2,1,0],[3,0],[0]]","1","[[1,2,0],[3,0],[0]]","6","0","","","","","","5","","","","","","","","",""
"","","","","","single-stim-button","118","292741","0.0-2.0-28.1-0.1","5e5c6b9c8ce757449e4a6dc1","E1","batch5","","368","tol_tohand","","","","tol_peg_1","368","368","0","[[2,0,0],[3,0],[0]]","2","[[1,2,0],[3,0],[0]]","6","0","","","","","","5","","","","","","","","",""
"","","","","","single-stim-button","119","293067","0.0-2.0-28.1-1.1","5e5c6b9c8ce757449e4a6dc1","E1","batch5","","325","tol_toboard","","","","tol_peg_2","325","325","0","[[2,0,0],[3,1],[0]]","2","[[1,2,0],[3,0],[0]]","6","0","","","","","","5","","","","","","","","",""
"","","","","","single-stim-button","120","294720","0.0-2.0-28.2-0.2","5e5c6b9c8ce757449e4a6dc1","E1","batch5","","1653","tol_tohand","","","","tol_peg_1","1653","1653","0","[[0,0,0],[3,1],[0]]","3","[[1,2,0],[3,0],[0]]","6","0","","","","","","5","","","","","","","","",""
"","","","","","single-stim-button","121","295258","0.0-2.0-28.2-1.2","5e5c6b9c8ce757449e4a6dc1","E1","batch5","","537","tol_toboard","","","","tol_peg_3","537","537","0","[[0,0,0],[3,1],[2]]","3","[[1,2,0],[3,0],[0]]","6","0","","","","","","5","","","","","","","","",""
"","","","","","single-stim-button","122","295634","0.0-2.0-28.3-0.3","5e5c6b9c8ce757449e4a6dc1","E1","batch5","","374","tol_tohand","","","","tol_peg_2","374","374","0","[[0,0,0],[3,0],[2]]","4","[[1,2,0],[3,0],[0]]","6","0","","","","","","5","","","","","","","","",""
"","","","","","single-stim-button","123","295949","0.0-2.0-28.3-1.3","5e5c6b9c8ce757449e4a6dc1","E1","batch5","","315","tol_toboard","","","","tol_peg_1","315","315","0","[[1,0,0],[3,0],[2]]","4","[[1,2,0],[3,0],[0]]","6","0","","","","","","5","","","","","","","","",""
"","","","","","single-stim-button","124","296440","0.0-2.0-28.4-0.4","5e5c6b9c8ce757449e4a6dc1","E1","batch5","","491","tol_tohand","","","","tol_peg_3","491","491","0","[[1,0,0],[3,0],[0]]","5","[[1,2,0],[3,0],[0]]","6","0","","","","","","5","","","","","","","","",""
"","","","","","single-stim-button","125","296852","0.0-2.0-28.4-1.4","5e5c6b9c8ce757449e4a6dc1","E1","batch5","","411","tol_toboard","","","","tol_peg_1","411","411","0","[[1,2,0],[3,0],[0]]","5","[[1,2,0],[3,0],[0]]","6","0","","","","","","5","","","","","","","","",""
"","","","","","poldrack-single-stim","126","297863","0.0-2.0-29.0","5e5c6b9c8ce757449e4a6dc1","E1","batch5","","-1","tol_feedback","","","true","","1000","1000","500","","","","","","-1","none","true","7394","10280","","","","","","","","","",""
"","","","","","html-button-response","127","298614","0.0-2.0-30.0","5e5c6b9c8ce757449e4a6dc1","E1","batch5","","750.2999999523163","tol_trial_num","<div class = centerbox><p class = center-block-text>problem <strong>8</strong> out of 25 problems</p></div>","0","","","","","","","","","","","","","","","","","","","","","","","","",""
"","","","","","single-stim-button","128","302873","0.0-2.0-31.0-0.0","5e5c6b9c8ce757449e4a6dc1","E1","batch5","","4259","tol_tohand","","","","tol_peg_3","4259","4259","0","[[0,0,0],[2,3],[0]]","1","[[1,2,0],[3,0],[0]]","7","0","","","","","","4","","","","","","","","",""
"","","","","","single-stim-button","129","303437","0.0-2.0-31.0-1.0","5e5c6b9c8ce757449e4a6dc1","E1","batch5","","563","tol_toboard","","","","tol_peg_1","563","563","0","[[1,0,0],[2,3],[0]]","1","[[1,2,0],[3,0],[0]]","7","0","","","","","","4","","","","","","","","",""
"","","","","","single-stim-button","130","305722","0.0-2.0-31.1-0.1","5e5c6b9c8ce757449e4a6dc1","E1","batch5","","2285","tol_tohand","","","","tol_peg_2","2285","2285","0","[[1,0,0],[2,0],[0]]","2","[[1,2,0],[3,0],[0]]","7","0","","","","","","4","","","","","","","","",""
"","","","","","single-stim-button","131","306129","0.0-2.0-31.1-1.1","5e5c6b9c8ce757449e4a6dc1","E1","batch5","","407","tol_toboard","","","","tol_peg_3","407","407","0","[[1,0,0],[2,0],[3]]","2","[[1,2,0],[3,0],[0]]","7","0","","","","","","4","","","","","","","","",""
"","","","","","single-stim-button","132","306629","0.0-2.0-31.2-0.2","5e5c6b9c8ce757449e4a6dc1","E1","batch5","","499","tol_tohand","","","","tol_peg_2","499","499","0","[[1,0,0],[0,0],[3]]","3","[[1,2,0],[3,0],[0]]","7","0","","","","","","4","","","","","","","","",""
"","","","","","single-stim-button","133","306903","0.0-2.0-31.2-1.2","5e5c6b9c8ce757449e4a6dc1","E1","batch5","","273","tol_toboard","","","","tol_peg_1","273","273","0","[[1,2,0],[0,0],[3]]","3","[[1,2,0],[3,0],[0]]","7","0","","","","","","4","","","","","","","","",""
"","","","","","single-stim-button","134","307288","0.0-2.0-31.3-0.3","5e5c6b9c8ce757449e4a6dc1","E1","batch5","","384","tol_tohand","","","","tol_peg_3","384","384","0","[[1,2,0],[0,0],[0]]","4","[[1,2,0],[3,0],[0]]","7","0","","","","","","4","","","","","","","","",""
"","","","","","single-stim-button","135","307499","0.0-2.0-31.3-1.3","5e5c6b9c8ce757449e4a6dc1","E1","batch5","","210","tol_toboard","","","","tol_peg_2","210","210","0","[[1,2,0],[3,0],[0]]","4","[[1,2,0],[3,0],[0]]","7","0","","","","","","4","","","","","","","","",""
"","","","","","poldrack-single-stim","136","308513","0.0-2.0-32.0","5e5c6b9c8ce757449e4a6dc1","E1","batch5","","-1","tol_feedback","","","true","","1000","1000","500","","","","","","-1","none","true","4259","7427","","","","","","","","","",""
"","","","","","html-button-response","137","309252","0.0-2.0-33.0","5e5c6b9c8ce757449e4a6dc1","E1","batch5","","738.1000000238419","tol_trial_num","<div class = centerbox><p class = center-block-text>problem <strong>9</strong> out of 25 problems</p></div>","0","","","","","","","","","","","","","","","","","","","","","","","","",""
"","","","","","single-stim-button","138","323852","0.0-2.0-34.0-0.0","5e5c6b9c8ce757449e4a6dc1","E1","batch5","","14598","tol_tohand","","","","tol_peg_3","14598","14598","0","[[3,2,0],[0,0],[0]]","1","[[2,1,0],[3,0],[0]]","8","0","","","","","","6","","","","","","","","",""
"","","","","","single-stim-button","139","324167","0.0-2.0-34.0-1.0","5e5c6b9c8ce757449e4a6dc1","E1","batch5","","315","tol_toboard","","","","tol_peg_2","315","315","0","[[3,2,0],[1,0],[0]]","1","[[2,1,0],[3,0],[0]]","8","0","","","","","","6","","","","","","","","",""
"","","","","","single-stim-button","140","324565","0.0-2.0-34.1-0.1","5e5c6b9c8ce757449e4a6dc1","E1","batch5","","397","tol_tohand","","","","tol_peg_1","397","397","0","[[3,0,0],[1,0],[0]]","2","[[2,1,0],[3,0],[0]]","8","0","","","","","","6","","","","","","","","",""
"","","","","","single-stim-button","141","324918","0.0-2.0-34.1-1.1","5e5c6b9c8ce757449e4a6dc1","E1","batch5","","352","tol_toboard","","","","tol_peg_2","352","352","0","[[3,0,0],[1,2],[0]]","2","[[2,1,0],[3,0],[0]]","8","0","","","","","","6","","","","","","","","",""
"","","","","","single-stim-button","142","325243","0.0-2.0-34.2-0.2","5e5c6b9c8ce757449e4a6dc1","E1","batch5","","324","tol_tohand","","","","tol_peg_1","324","324","0","[[0,0,0],[1,2],[0]]","3","[[2,1,0],[3,0],[0]]","8","0","","","","","","6","","","","","","","","",""
"","","","","","single-stim-button","143","325766","0.0-2.0-34.2-1.2","5e5c6b9c8ce757449e4a6dc1","E1","batch5","","523","tol_toboard","","","","tol_peg_3","523","523","0","[[0,0,0],[1,2],[3]]","3","[[2,1,0],[3,0],[0]]","8","0","","","","","","6","","","","","","","","",""
"","","","","","single-stim-button","144","326329","0.0-2.0-34.3-0.3","5e5c6b9c8ce757449e4a6dc1","E1","batch5","","563","tol_tohand","","","","tol_peg_2","563","563","0","[[0,0,0],[1,0],[3]]","4","[[2,1,0],[3,0],[0]]","8","0","","","","","","6","","","","","","","","",""
"","","","","","single-stim-button","145","326627","0.0-2.0-34.3-1.3","5e5c6b9c8ce757449e4a6dc1","E1","batch5","","297","tol_toboard","","","","tol_peg_1","297","297","0","[[2,0,0],[1,0],[3]]","4","[[2,1,0],[3,0],[0]]","8","0","","","","","","6","","","","","","","","",""
"","","","","","single-stim-button","146","327035","0.0-2.0-34.4-0.4","5e5c6b9c8ce757449e4a6dc1","E1","batch5","","406","tol_tohand","","","","tol_peg_2","406","406","0","[[2,0,0],[0,0],[3]]","5","[[2,1,0],[3,0],[0]]","8","0","","","","","","6","","","","","","","","",""
"","","","","","single-stim-button","147","327382","0.0-2.0-34.4-1.4","5e5c6b9c8ce757449e4a6dc1","E1","batch5","","347","tol_toboard","","","","tol_peg_1","347","347","0","[[2,1,0],[0,0],[3]]","5","[[2,1,0],[3,0],[0]]","8","0","","","","","","6","","","","","","","","",""
"","","","","","single-stim-button","148","327803","0.0-2.0-34.5-0.5","5e5c6b9c8ce757449e4a6dc1","E1","batch5","","419","tol_tohand","","","","tol_peg_3","419","419","0","[[2,1,0],[0,0],[0]]","6","[[2,1,0],[3,0],[0]]","8","0","","","","","","6","","","","","","","","",""
"","","","","","single-stim-button","149","328086","0.0-2.0-34.5-1.5","5e5c6b9c8ce757449e4a6dc1","E1","batch5","","283","tol_toboard","","","","tol_peg_2","283","283","0","[[2,1,0],[3,0],[0]]","6","[[2,1,0],[3,0],[0]]","8","0","","","","","","6","","","","","","","","",""
"","","","","","poldrack-single-stim","150","329093","0.0-2.0-35.0","5e5c6b9c8ce757449e4a6dc1","E1","batch5","","-1","tol_feedback","","","true","","1000","1000","500","","","","","","-1","none","true","14598","16707","","","","","","","","","",""
"","","","","","html-button-response","151","329714","0.0-2.0-36.0","5e5c6b9c8ce757449e4a6dc1","E1","batch5","","620.5","tol_trial_num","<div class = centerbox><p class = center-block-text>problem <strong>10</strong> out of 25 problems</p></div>","0","","","","","","","","","","","","","","","","","","","","","","","","",""
"","","","","","single-stim-button","152","332183","0.0-2.0-37.0-0.0","5e5c6b9c8ce757449e4a6dc1","E1","batch5","","2468","tol_tohand","","","","tol_peg_2","2468","2468","0","[[3,0,0],[0,0],[2]]","1","[[3,0,0],[2,1],[0]]","9","0","","","","","","3","","","","","","","","",""
"","","","","","single-stim-button","153","332419","0.0-2.0-37.0-1.0","5e5c6b9c8ce757449e4a6dc1","E1","batch5","","236","tol_toboard","","","","tol_peg_1","236","236","0","[[3,1,0],[0,0],[2]]","1","[[3,0,0],[2,1],[0]]","9","0","","","","","","3","","","","","","","","",""
"","","","","","single-stim-button","154","332784","0.0-2.0-37.1-0.1","5e5c6b9c8ce757449e4a6dc1","E1","batch5","","365","tol_tohand","","","","tol_peg_3","365","365","0","[[3,1,0],[0,0],[0]]","2","[[3,0,0],[2,1],[0]]","9","0","","","","","","3","","","","","","","","",""
"","","","","","single-stim-button","155","333069","0.0-2.0-37.1-1.1","5e5c6b9c8ce757449e4a6dc1","E1","batch5","","284","tol_toboard","","","","tol_peg_2","284","284","0","[[3,1,0],[2,0],[0]]","2","[[3,0,0],[2,1],[0]]","9","0","","","","","","3","","","","","","","","",""
"","","","","","single-stim-button","156","333480","0.0-2.0-37.2-0.2","5e5c6b9c8ce757449e4a6dc1","E1","batch5","","411","tol_tohand","","","","tol_peg_1","411","411","0","[[3,0,0],[2,0],[0]]","3","[[3,0,0],[2,1],[0]]","9","0","","","","","","3","","","","","","","","",""
"","","","","","single-stim-button","157","333744","0.0-2.0-37.2-1.2","5e5c6b9c8ce757449e4a6dc1","E1","batch5","","263","tol_toboard","","","","tol_peg_2","263","263","0","[[3,0,0],[2,1],[0]]","3","[[3,0,0],[2,1],[0]]","9","0","","","","","","3","","","","","","","","",""
"","","","","","poldrack-single-stim","158","334754","0.0-2.0-38.0","5e5c6b9c8ce757449e4a6dc1","E1","batch5","","-1","tol_feedback","","","true","","1000","1000","500","","","","","","-1","none","true","2468","3244","","","","","","","","","",""
"","","","","","html-button-response","159","335334","0.0-2.0-39.0","5e5c6b9c8ce757449e4a6dc1","E1","batch5","","579.6000000238419","tol_trial_num","<div class = centerbox><p class = center-block-text>problem <strong>11</strong> out of 25 problems</p></div>","0","","","","","","","","","","","","","","","","","","","","","","","","",""
"","","","","","single-stim-button","160","338416","0.0-2.0-40.0-0.0","5e5c6b9c8ce757449e4a6dc1","E1","batch5","","3082","tol_tohand","","","","tol_peg_1","3082","3082","0","[[1,0,0],[3,0],[0]]","1","[[2,0,0],[1,3],[0]]","10","0","","","","","","6","","","","","","","","",""
"","","","","","single-stim-button","161","338833","0.0-2.0-40.0-1.0","5e5c6b9c8ce757449e4a6dc1","E1","batch5","","417","tol_toboard","","","","tol_peg_3","417","417","0","[[1,0,0],[3,0],[2]]","1","[[2,0,0],[1,3],[0]]","10","0","","","","","","6","","","","","","","","",""
"","","","","","single-stim-button","162","339191","0.0-2.0-40.1-0.1","5e5c6b9c8ce757449e4a6dc1","E1","batch5","","357","tol_tohand","","","","tol_peg_1","357","357","0","[[0,0,0],[3,0],[2]]","2","[[2,0,0],[1,3],[0]]","10","0","","","","","","6","","","","","","","","",""
"","","","","","single-stim-button","163","339409","0.0-2.0-40.1-1.1","5e5c6b9c8ce757449e4a6dc1","E1","batch5","","218","tol_toboard","","","","tol_peg_2","218","218","0","[[0,0,0],[3,1],[2]]","2","[[2,0,0],[1,3],[0]]","10","0","","","","","","6","","","","","","","","",""
"","","","","","single-stim-button","164","339745","0.0-2.0-40.2-0.2","5e5c6b9c8ce757449e4a6dc1","E1","batch5","","335","tol_tohand","","","","tol_peg_3","335","335","0","[[0,0,0],[3,1],[0]]","3","[[2,0,0],[1,3],[0]]","10","0","","","","","","6","","","","","","","","",""
"","","","","","single-stim-button","165","340068","0.0-2.0-40.2-1.2","5e5c6b9c8ce757449e4a6dc1","E1","batch5","","323","tol_toboard","","","","tol_peg_1","323","323","0","[[2,0,0],[3,1],[0]]","3","[[2,0,0],[1,3],[0]]","10","0","","","","","","6","","","","","","","","",""
"","","","","","single-stim-button","166","341770","0.0-2.0-40.3-0.3","5e5c6b9c8ce757449e4a6dc1","E1","batch5","","1700","tol_tohand","","","","tol_peg_2","1700","1700","0","[[2,0,0],[3,0],[0]]","4","[[2,0,0],[1,3],[0]]","10","0","","","","","","6","","","","","","","","",""
"","","","","","single-stim-button","167","346853","0.0-2.0-40.3-1.3","5e5c6b9c8ce757449e4a6dc1","E1","batch5","","5083","tol_toboard","","","","tol_peg_1","5083","5083","0","[[2,1,0],[3,0],[0]]","4","[[2,0,0],[1,3],[0]]","10","0","","","","","","6","","","","","","","","",""
"","","","","","single-stim-button","168","347159","0.0-2.0-40.4-0.4","5e5c6b9c8ce757449e4a6dc1","E1","batch5","","305","tol_tohand","","","","tol_peg_2","305","305","0","[[2,1,0],[0,0],[0]]","5","[[2,0,0],[1,3],[0]]","10","0","","","","","","6","","","","","","","","",""
"","","","","","single-stim-button","169","347889","0.0-2.0-40.4-1.4","5e5c6b9c8ce757449e4a6dc1","E1","batch5","","729","tol_toboard","","","","tol_peg_3","729","729","0","[[2,1,0],[0,0],[3]]","5","[[2,0,0],[1,3],[0]]","10","0","","","","","","6","","","","","","","","",""
"","","","","","single-stim-button","170","348279","0.0-2.0-40.5-0.5","5e5c6b9c8ce757449e4a6dc1","E1","batch5","","390","tol_tohand","","","","tol_peg_1","390","390","0","[[2,0,0],[0,0],[3]]","6","[[2,0,0],[1,3],[0]]","10","0","","","","","","6","","","","","","","","",""
"","","","","","single-stim-button","171","348542","0.0-2.0-40.5-1.5","5e5c6b9c8ce757449e4a6dc1","E1","batch5","","263","tol_toboard","","","","tol_peg_2","263","263","0","[[2,0,0],[1,0],[3]]","6","[[2,0,0],[1,3],[0]]","10","0","","","","","","6","","","","","","","","",""
"","","","","","single-stim-button","172","348845","0.0-2.0-40.6-0.6","5e5c6b9c8ce757449e4a6dc1","E1","batch5","","303","tol_tohand","","","","tol_peg_3","303","303","0","[[2,0,0],[1,0],[0]]","7","[[2,0,0],[1,3],[0]]","10","0","","","","","","6","","","","","","","","",""
"","","","","","single-stim-button","173","349161","0.0-2.0-40.6-1.6","5e5c6b9c8ce757449e4a6dc1","E1","batch5","","315","tol_toboard","","","","tol_peg_2","315","315","0","[[2,0,0],[1,3],[0]]","7","[[2,0,0],[1,3],[0]]","10","0","","","","","","6","","","","","","","","",""
"","","","","","poldrack-single-stim","174","350163","0.0-2.0-41.0","5e5c6b9c8ce757449e4a6dc1","E1","batch5","","-1","tol_feedback","","","true","","1000","1000","500","","","","","","-1","none","true","3082","6472","","","","","","","","","",""
"","","","","","html-button-response","175","350729","0.0-2.0-42.0","5e5c6b9c8ce757449e4a6dc1","E1","batch5","","565","tol_trial_num","<div class = centerbox><p class = center-block-text>problem <strong>12</strong> out of 25 problems</p></div>","0","","","","","","","","","","","","","","","","","","","","","","","","",""
"","","","","","single-stim-button","176","352798","0.0-2.0-43.0-0.0","5e5c6b9c8ce757449e4a6dc1","E1","batch5","","2068","tol_tohand","","","","tol_peg_1","2068","2068","0","[[1,0,0],[3,0],[0]]","1","[[2,3,0],[0,0],[1]]","11","0","","","","","","4","","","","","","","","",""
"","","","","","single-stim-button","177","353067","0.0-2.0-43.0-1.0","5e5c6b9c8ce757449e4a6dc1","E1","batch5","","269","tol_toboard","","","","tol_peg_2","269","269","0","[[1,0,0],[3,2],[0]]","1","[[2,3,0],[0,0],[1]]","11","0","","","","","","4","","","","","","","","",""
"","","","","","single-stim-button","178","353322","0.0-2.0-43.1-0.1","5e5c6b9c8ce757449e4a6dc1","E1","batch5","","254","tol_tohand","","","","tol_peg_1","254","254","0","[[0,0,0],[3,2],[0]]","2","[[2,3,0],[0,0],[1]]","11","0","","","","","","4","","","","","","","","",""
"","","","","","single-stim-button","179","353718","0.0-2.0-43.1-1.1","5e5c6b9c8ce757449e4a6dc1","E1","batch5","","394","tol_toboard","","","","tol_peg_3","394","394","0","[[0,0,0],[3,2],[1]]","2","[[2,3,0],[0,0],[1]]","11","0","","","","","","4","","","","","","","","",""
"","","","","","single-stim-button","180","356041","0.0-2.0-43.2-0.2","5e5c6b9c8ce757449e4a6dc1","E1","batch5","","2323","tol_tohand","","","","tol_peg_2","2323","2323","0","[[0,0,0],[3,0],[1]]","3","[[2,3,0],[0,0],[1]]","11","0","","","","","","4","","","","","","","","",""
"","","","","","single-stim-button","181","356251","0.0-2.0-43.2-1.2","5e5c6b9c8ce757449e4a6dc1","E1","batch5","","209","tol_toboard","","","","tol_peg_1","209","209","0","[[2,0,0],[3,0],[1]]","3","[[2,3,0],[0,0],[1]]","11","0","","","","","","4","","","","","","","","",""
"","","","","","single-stim-button","182","356525","0.0-2.0-43.3-0.3","5e5c6b9c8ce757449e4a6dc1","E1","batch5","","274","tol_tohand","","","","tol_peg_2","274","274","0","[[2,0,0],[0,0],[1]]","4","[[2,3,0],[0,0],[1]]","11","0","","","","","","4","","","","","","","","",""
"","","","","","single-stim-button","183","356777","0.0-2.0-43.3-1.3","5e5c6b9c8ce757449e4a6dc1","E1","batch5","","251","tol_toboard","","","","tol_peg_1","251","251","0","[[2,3,0],[0,0],[1]]","4","[[2,3,0],[0,0],[1]]","11","0","","","","","","4","","","","","","","","",""
"","","","","","poldrack-single-stim","184","357782","0.0-2.0-44.0","5e5c6b9c8ce757449e4a6dc1","E1","batch5","","-1","tol_feedback","","","true","","1000","1000","500","","","","","","-1","none","true","2068","4919","","","","","","","","","",""
"","","","","","html-button-response","185","358373","0.0-2.0-45.0","5e5c6b9c8ce757449e4a6dc1","E1","batch5","","589.8999999761581","tol_trial_num","<div class = centerbox><p class = center-block-text>problem <strong>13</strong> out of 25 problems</p></div>","0","","","","","","","","","","","","","","","","","","","","","","","","",""
"","","","","","single-stim-button","186","360471","0.0-2.0-46.0-0.0","5e5c6b9c8ce757449e4a6dc1","E1","batch5","","2098","tol_tohand","","","","tol_peg_2","2098","2098","0","[[1,2,0],[0,0],[0]]","1","[[0,0,0],[2,3],[1]]","12","0","","","","","","4","","","","","","","","",""
"","","","","","single-stim-button","187","360723","0.0-2.0-46.0-1.0","5e5c6b9c8ce757449e4a6dc1","E1","batch5","","251","tol_toboard","","","","tol_peg_3","251","251","0","[[1,2,0],[0,0],[3]]","1","[[0,0,0],[2,3],[1]]","12","0","","","","","","4","","","","","","","","",""
"","","","","","single-stim-button","188","361070","0.0-2.0-46.1-0.1","5e5c6b9c8ce757449e4a6dc1","E1","batch5","","346","tol_tohand","","","","tol_peg_1","346","346","0","[[1,0,0],[0,0],[3]]","2","[[0,0,0],[2,3],[1]]","12","0","","","","","","4","","","","","","","","",""
"","","","","","single-stim-button","189","361372","0.0-2.0-46.1-1.1","5e5c6b9c8ce757449e4a6dc1","E1","batch5","","302","tol_toboard","","","","tol_peg_2","302","302","0","[[1,0,0],[2,0],[3]]","2","[[0,0,0],[2,3],[1]]","12","0","","","","","","4","","","","","","","","",""
"","","","","","single-stim-button","190","361864","0.0-2.0-46.2-0.2","5e5c6b9c8ce757449e4a6dc1","E1","batch5","","491","tol_tohand","","","","tol_peg_3","491","491","0","[[1,0,0],[2,0],[0]]","3","[[0,0,0],[2,3],[1]]","12","0","","","","","","4","","","","","","","","",""
"","","","","","single-stim-button","191","362119","0.0-2.0-46.2-1.2","5e5c6b9c8ce757449e4a6dc1","E1","batch5","","255","tol_toboard","","","","tol_peg_2","255","255","0","[[1,0,0],[2,3],[0]]","3","[[0,0,0],[2,3],[1]]","12","0","","","","","","4","","","","","","","","",""
"","","","","","single-stim-button","192","362416","0.0-2.0-46.3-0.3","5e5c6b9c8ce757449e4a6dc1","E1","batch5","","297","tol_tohand","","","","tol_peg_1","297","297","0","[[0,0,0],[2,3],[0]]","4","[[0,0,0],[2,3],[1]]","12","0","","","","","","4","","","","","","","","",""
"","","","","","single-stim-button","193","362760","0.0-2.0-46.3-1.3","5e5c6b9c8ce757449e4a6dc1","E1","batch5","","343","tol_toboard","","","","tol_peg_3","343","343","0","[[0,0,0],[2,3],[1]]","4","[[0,0,0],[2,3],[1]]","12","0","","","","","","4","","","","","","","","",""
"","","","","","poldrack-single-stim","194","363772","0.0-2.0-47.0","5e5c6b9c8ce757449e4a6dc1","E1","batch5","","-1","tol_feedback","","","true","","1000","1000","500","","","","","","-1","none","true","2098","3232","","","","","","","","","",""
"","","","","","html-button-response","195","371058","0.0-2.0-48.0","5e5c6b9c8ce757449e4a6dc1","E1","batch5","","7285","attention_check","<p class = block-text>How many balls are in your board<br></p>","1","true","","","","","","","","","","","","","","","","","","","","","","","",""
"","","","","","html-button-response","196","372042","0.0-2.0-49.0","5e5c6b9c8ce757449e4a6dc1","E1","batch5","","983.1000000238419","tol_trial_num","<div class = centerbox><p class = center-block-text>problem <strong>14</strong> out of 25 problems</p></div>","0","","","","","","","","","","","","","","","","","","","","","","","","",""
"","","","","","single-stim-button","197","376957","0.0-2.0-50.0-0.0","5e5c6b9c8ce757449e4a6dc1","E1","batch5","","4915","tol_tohand","","","","tol_peg_1","4915","4915","0","[[2,0,0],[3,0],[0]]","1","[[1,2,0],[3,0],[0]]","13","0","","","","","","4","","","","","","","","",""
"","","","","","single-stim-button","198","377451","0.0-2.0-50.0-1.0","5e5c6b9c8ce757449e4a6dc1","E1","batch5","","493","tol_toboard","","","","tol_peg_3","493","493","0","[[2,0,0],[3,0],[1]]","1","[[1,2,0],[3,0],[0]]","13","0","","","","","","4","","","","","","","","",""
"","","","","","single-stim-button","199","377818","0.0-2.0-50.1-0.1","5e5c6b9c8ce757449e4a6dc1","E1","batch5","","366","tol_tohand","","","","tol_peg_1","366","366","0","[[0,0,0],[3,0],[1]]","2","[[1,2,0],[3,0],[0]]","13","0","","","","","","4","","","","","","","","",""
"","","","","","single-stim-button","200","378051","0.0-2.0-50.1-1.1","5e5c6b9c8ce757449e4a6dc1","E1","batch5","","232","tol_toboard","","","","tol_peg_2","232","232","0","[[0,0,0],[3,2],[1]]","2","[[1,2,0],[3,0],[0]]","13","0","","","","","","4","","","","","","","","",""
"","","","","","single-stim-button","201","378462","0.0-2.0-50.2-0.2","5e5c6b9c8ce757449e4a6dc1","E1","batch5","","411","tol_tohand","","","","tol_peg_3","411","411","0","[[0,0,0],[3,2],[0]]","3","[[1,2,0],[3,0],[0]]","13","0","","","","","","4","","","","","","","","",""
"","","","","","single-stim-button","202","378777","0.0-2.0-50.2-1.2","5e5c6b9c8ce757449e4a6dc1","E1","batch5","","314","tol_toboard","","","","tol_peg_1","314","314","0","[[1,0,0],[3,2],[0]]","3","[[1,2,0],[3,0],[0]]","13","0","","","","","","4","","","","","","","","",""
"","","","","","single-stim-button","203","379083","0.0-2.0-50.3-0.3","5e5c6b9c8ce757449e4a6dc1","E1","batch5","","305","tol_tohand","","","","tol_peg_2","305","305","0","[[1,0,0],[3,0],[0]]","4","[[1,2,0],[3,0],[0]]","13","0","","","","","","4","","","","","","","","",""
"","","","","","single-stim-button","204","379308","0.0-2.0-50.3-1.3","5e5c6b9c8ce757449e4a6dc1","E1","batch5","","225","tol_toboard","","","","tol_peg_1","225","225","0","[[1,2,0],[3,0],[0]]","4","[[1,2,0],[3,0],[0]]","13","0","","","","","","4","","","","","","","","",""
"","","","","","poldrack-single-stim","205","380323","0.0-2.0-51.0","5e5c6b9c8ce757449e4a6dc1","E1","batch5","","-1","tol_feedback","","","true","","1000","1000","500","","","","","","-1","none","true","4915","5997","","","","","","","","","",""
"","","","","","html-button-response","206","380967","0.0-2.0-52.0","5e5c6b9c8ce757449e4a6dc1","E1","batch5","","643.5","tol_trial_num","<div class = centerbox><p class = center-block-text>problem <strong>15</strong> out of 25 problems</p></div>","0","","","","","","","","","","","","","","","","","","","","","","","","",""
"","","","","","single-stim-button","207","384582","0.0-2.0-53.0-0.0","5e5c6b9c8ce757449e4a6dc1","E1","batch5","","3614","tol_tohand","","","","tol_peg_1","3614","3614","0","[[1,0,0],[3,0],[0]]","1","[[2,0,0],[3,0],[1]]","14","0","","","","","","3","","","","","","","","",""
"","","","","","single-stim-button","208","384916","0.0-2.0-53.0-1.0","5e5c6b9c8ce757449e4a6dc1","E1","batch5","","334","tol_toboard","","","","tol_peg_2","334","334","0","[[1,0,0],[3,2],[0]]","1","[[2,0,0],[3,0],[1]]","14","0","","","","","","3","","","","","","","","",""
"","","","","","single-stim-button","209","385212","0.0-2.0-53.1-0.1","5e5c6b9c8ce757449e4a6dc1","E1","batch5","","295","tol_tohand","","","","tol_peg_1","295","295","0","[[0,0,0],[3,2],[0]]","2","[[2,0,0],[3,0],[1]]","14","0","","","","","","3","","","","","","","","",""
"","","","","","single-stim-button","210","385662","0.0-2.0-53.1-1.1","5e5c6b9c8ce757449e4a6dc1","E1","batch5","","450","tol_toboard","","","","tol_peg_3","450","450","0","[[0,0,0],[3,2],[1]]","2","[[2,0,0],[3,0],[1]]","14","0","","","","","","3","","","","","","","","",""
"","","","","","single-stim-button","211","385959","0.0-2.0-53.2-0.2","5e5c6b9c8ce757449e4a6dc1","E1","batch5","","297","tol_tohand","","","","tol_peg_2","297","297","0","[[0,0,0],[3,0],[1]]","3","[[2,0,0],[3,0],[1]]","14","0","","","","","","3","","","","","","","","",""
"","","","","","single-stim-button","212","386172","0.0-2.0-53.2-1.2","5e5c6b9c8ce757449e4a6dc1","E1","batch5","","212","tol_toboard","","","","tol_peg_1","212","212","0","[[2,0,0],[3,0],[1]]","3","[[2,0,0],[3,0],[1]]","14","0","","","","","","3","","","","","","","","",""
"","","","","","poldrack-single-stim","213","387188","0.0-2.0-54.0","5e5c6b9c8ce757449e4a6dc1","E1","batch5","","-1","tol_feedback","","","true","","1000","1000","500","","","","","","-1","none","true","3614","4206","","","","","","","","","",""
"","","","","","html-button-response","214","387773","0.0-2.0-55.0","5e5c6b9c8ce757449e4a6dc1","E1","batch5","","584.8999999761581","tol_trial_num","<div class = centerbox><p class = center-block-text>problem <strong>16</strong> out of 25 problems</p></div>","0","","","","","","","","","","","","","","","","","","","","","","","","",""
"","","","","","single-stim-button","215","393402","0.0-2.0-56.0-0.0","5e5c6b9c8ce757449e4a6dc1","E1","batch5","","5628","tol_tohand","","","","tol_peg_3","5628","5628","0","[[0,0,0],[2,3],[0]]","1","[[2,3,0],[1,0],[0]]","15","0","","","","","","7","","","","","","","","",""
"","","","","","single-stim-button","216","393760","0.0-2.0-56.0-1.0","5e5c6b9c8ce757449e4a6dc1","E1","batch5","","357","tol_toboard","","","","tol_peg_1","357","357","0","[[1,0,0],[2,3],[0]]","1","[[2,3,0],[1,0],[0]]","15","0","","","","","","7","","","","","","","","",""
"","","","","","single-stim-button","217","394084","0.0-2.0-56.1-0.1","5e5c6b9c8ce757449e4a6dc1","E1","batch5","","323","tol_tohand","","","","tol_peg_2","323","323","0","[[1,0,0],[2,0],[0]]","2","[[2,3,0],[1,0],[0]]","15","0","","","","","","7","","","","","","","","",""
"","","","","","single-stim-button","218","394377","0.0-2.0-56.1-1.1","5e5c6b9c8ce757449e4a6dc1","E1","batch5","","292","tol_toboard","","","","tol_peg_3","292","292","0","[[1,0,0],[2,0],[3]]","2","[[2,3,0],[1,0],[0]]","15","0","","","","","","7","","","","","","","","",""
"","","","","","single-stim-button","219","402898","0.0-2.0-56.2-0.2","5e5c6b9c8ce757449e4a6dc1","E1","batch5","","8521","tol_tohand","","","","tol_peg_3","8521","8521","0","[[1,0,0],[2,0],[0]]","3","[[2,3,0],[1,0],[0]]","15","0","","","","","","7","","","","","","","","",""
"","","","","","single-stim-button","220","403236","0.0-2.0-56.2-1.2","5e5c6b9c8ce757449e4a6dc1","E1","batch5","","337","tol_toboard","","","","tol_peg_1","337","337","0","[[1,3,0],[2,0],[0]]","3","[[2,3,0],[1,0],[0]]","15","0","","","","","","7","","","","","","","","",""
"","","","","","single-stim-button","221","403551","0.0-2.0-56.3-0.3","5e5c6b9c8ce757449e4a6dc1","E1","batch5","","313","tol_tohand","","","","tol_peg_2","313","313","0","[[1,3,0],[0,0],[0]]","4","[[2,3,0],[1,0],[0]]","15","0","","","","","","7","","","","","","","","",""
"","","","","","single-stim-button","222","403821","0.0-2.0-56.3-1.3","5e5c6b9c8ce757449e4a6dc1","E1","batch5","","270","tol_toboard","","","","tol_peg_3","270","270","0","[[1,3,0],[0,0],[2]]","4","[[2,3,0],[1,0],[0]]","15","0","","","","","","7","","","","","","","","",""
"","","","","","single-stim-button","223","404233","0.0-2.0-56.4-0.4","5e5c6b9c8ce757449e4a6dc1","E1","batch5","","412","tol_tohand","","","","tol_peg_1","412","412","0","[[1,0,0],[0,0],[2]]","5","[[2,3,0],[1,0],[0]]","15","0","","","","","","7","","","","","","","","",""
"","","","","","single-stim-button","224","404494","0.0-2.0-56.4-1.4","5e5c6b9c8ce757449e4a6dc1","E1","batch5","","261","tol_toboard","","","","tol_peg_2","261","261","0","[[1,0,0],[3,0],[2]]","5","[[2,3,0],[1,0],[0]]","15","0","","","","","","7","","","","","","","","",""
"","","","","","single-stim-button","225","404736","0.0-2.0-56.5-0.5","5e5c6b9c8ce757449e4a6dc1","E1","batch5","","242","tol_tohand","","","","tol_peg_1","242","242","0","[[0,0,0],[3,0],[2]]","6","[[2,3,0],[1,0],[0]]","15","0","","","","","","7","","","","","","","","",""
"","","","","","single-stim-button","226","404956","0.0-2.0-56.5-1.5","5e5c6b9c8ce757449e4a6dc1","E1","batch5","","219","tol_toboard","","","","tol_peg_2","219","219","0","[[0,0,0],[3,1],[2]]","6","[[2,3,0],[1,0],[0]]","15","0","","","","","","7","","","","","","","","",""
"","","","","","single-stim-button","227","405479","0.0-2.0-56.6-0.6","5e5c6b9c8ce757449e4a6dc1","E1","batch5","","521","tol_tohand","","","","tol_peg_3","521","521","0","[[0,0,0],[3,1],[0]]","7","[[2,3,0],[1,0],[0]]","15","0","","","","","","7","","","","","","","","",""
"","","","","","single-stim-button","228","405794","0.0-2.0-56.6-1.6","5e5c6b9c8ce757449e4a6dc1","E1","batch5","","315","tol_toboard","","","","tol_peg_1","315","315","0","[[2,0,0],[3,1],[0]]","7","[[2,3,0],[1,0],[0]]","15","0","","","","","","7","","","","","","","","",""
"","","","","","single-stim-button","229","406741","0.0-2.0-56.7-0.7","5e5c6b9c8ce757449e4a6dc1","E1","batch5","","947","tol_tohand","","","","tol_peg_2","947","947","0","[[2,0,0],[3,0],[0]]","8","[[2,3,0],[1,0],[0]]","15","0","","","","","","7","","","","","","","","",""
"","","","","","single-stim-button","230","407075","0.0-2.0-56.7-1.7","5e5c6b9c8ce757449e4a6dc1","E1","batch5","","334","tol_toboard","","","","tol_peg_3","334","334","0","[[2,0,0],[3,0],[1]]","8","[[2,3,0],[1,0],[0]]","15","0","","","","","","7","","","","","","","","",""
"","","","","","single-stim-button","231","407413","0.0-2.0-56.8-0.8","5e5c6b9c8ce757449e4a6dc1","E1","batch5","","338","tol_tohand","","","","tol_peg_2","338","338","0","[[2,0,0],[0,0],[1]]","9","[[2,3,0],[1,0],[0]]","15","0","","","","","","7","","","","","","","","",""
"","","","","","single-stim-button","232","407677","0.0-2.0-56.8-1.8","5e5c6b9c8ce757449e4a6dc1","E1","batch5","","263","tol_toboard","","","","tol_peg_1","263","263","0","[[2,3,0],[0,0],[1]]","9","[[2,3,0],[1,0],[0]]","15","0","","","","","","7","","","","","","","","",""
"","","","","","single-stim-button","233","408025","0.0-2.0-56.9-0.9","5e5c6b9c8ce757449e4a6dc1","E1","batch5","","347","tol_tohand","","","","tol_peg_3","347","347","0","[[2,3,0],[0,0],[0]]","10","[[2,3,0],[1,0],[0]]","15","0","","","","","","7","","","","","","","","",""
"","","","","","single-stim-button","234","408236","0.0-2.0-56.9-1.9","5e5c6b9c8ce757449e4a6dc1","E1","batch5","","210","tol_toboard","","","","tol_peg_2","210","210","0","[[2,3,0],[1,0],[0]]","10","[[2,3,0],[1,0],[0]]","15","0","","","","","","7","","","","","","","","",""
"","","","","","poldrack-single-stim","235","409252","0.0-2.0-57.0","5e5c6b9c8ce757449e4a6dc1","E1","batch5","","-1","tol_feedback","","","true","","1000","1000","500","","","","","","-1","none","true","5628","17592","","","","","","","","","",""
"","","","","","html-button-response","236","409926","0.0-2.0-58.0","5e5c6b9c8ce757449e4a6dc1","E1","batch5","","673.8000000715256","tol_trial_num","<div class = centerbox><p class = center-block-text>problem <strong>17</strong> out of 25 problems</p></div>","0","","","","","","","","","","","","","","","","","","","","","","","","",""
"","","","","","single-stim-button","237","426294","0.0-2.0-59.0-0.0","5e5c6b9c8ce757449e4a6dc1","E1","batch5","","16366","tol_tohand","","","","tol_peg_2","16366","16366","0","[[1,2,0],[0,0],[0]]","1","[[3,1,0],[2,0],[0]]","16","0","","","","","","5","","","","","","","","",""
"","","","","","single-stim-button","238","426613","0.0-2.0-59.0-1.0","5e5c6b9c8ce757449e4a6dc1","E1","batch5","","319","tol_toboard","","","","tol_peg_3","319","319","0","[[1,2,0],[0,0],[3]]","1","[[3,1,0],[2,0],[0]]","16","0","","","","","","5","","","","","","","","",""
"","","","","","single-stim-button","239","427137","0.0-2.0-59.1-0.1","5e5c6b9c8ce757449e4a6dc1","E1","batch5","","522","tol_tohand","","","","tol_peg_1","522","522","0","[[1,0,0],[0,0],[3]]","2","[[3,1,0],[2,0],[0]]","16","0","","","","","","5","","","","","","","","",""
"","","","","","single-stim-button","240","427438","0.0-2.0-59.1-1.1","5e5c6b9c8ce757449e4a6dc1","E1","batch5","","301","tol_toboard","","","","tol_peg_2","301","301","0","[[1,0,0],[2,0],[3]]","2","[[3,1,0],[2,0],[0]]","16","0","","","","","","5","","","","","","","","",""
"","","","","","single-stim-button","241","428625","0.0-2.0-59.2-0.2","5e5c6b9c8ce757449e4a6dc1","E1","batch5","","1186","tol_tohand","","","","tol_peg_1","1186","1186","0","[[0,0,0],[2,0],[3]]","3","[[3,1,0],[2,0],[0]]","16","0","","","","","","5","","","","","","","","",""
"","","","","","single-stim-button","242","429046","0.0-2.0-59.2-1.2","5e5c6b9c8ce757449e4a6dc1","E1","batch5","","421","tol_toboard","","","","tol_peg_2","421","421","0","[[0,0,0],[2,1],[3]]","3","[[3,1,0],[2,0],[0]]","16","0","","","","","","5","","","","","","","","",""
"","","","","","single-stim-button","243","429393","0.0-2.0-59.3-0.3","5e5c6b9c8ce757449e4a6dc1","E1","batch5","","346","tol_tohand","","","","tol_peg_3","346","346","0","[[0,0,0],[2,1],[0]]","4","[[3,1,0],[2,0],[0]]","16","0","","","","","","5","","","","","","","","",""
"","","","","","single-stim-button","244","429658","0.0-2.0-59.3-1.3","5e5c6b9c8ce757449e4a6dc1","E1","batch5","","264","tol_toboard","","","","tol_peg_1","264","264","0","[[3,0,0],[2,1],[0]]","4","[[3,1,0],[2,0],[0]]","16","0","","","","","","5","","","","","","","","",""
"","","","","","single-stim-button","245","429899","0.0-2.0-59.4-0.4","5e5c6b9c8ce757449e4a6dc1","E1","batch5","","241","tol_tohand","","","","tol_peg_2","241","241","0","[[3,0,0],[2,0],[0]]","5","[[3,1,0],[2,0],[0]]","16","0","","","","","","5","","","","","","","","",""
"","","","","","single-stim-button","246","430100","0.0-2.0-59.4-1.4","5e5c6b9c8ce757449e4a6dc1","E1","batch5","","200","tol_toboard","","","","tol_peg_1","200","200","0","[[3,1,0],[2,0],[0]]","5","[[3,1,0],[2,0],[0]]","16","0","","","","","","5","","","","","","","","",""
"","","","","","poldrack-single-stim","247","431102","0.0-2.0-60.0","5e5c6b9c8ce757449e4a6dc1","E1","batch5","","-1","tol_feedback","","","true","","1000","1000","500","","","","","","-1","none","true","16366","18661","","","","","","","","","",""
"","","","","","html-button-response","248","431692","0.0-2.0-61.0","5e5c6b9c8ce757449e4a6dc1","E1","batch5","","588.6999999284744","tol_trial_num","<div class = centerbox><p class = center-block-text>problem <strong>18</strong> out of 25 problems</p></div>","0","","","","","","","","","","","","","","","","","","","","","","","","",""
"","","","","","single-stim-button","249","437046","0.0-2.0-62.0-0.0","5e5c6b9c8ce757449e4a6dc1","E1","batch5","","5354","tol_tohand","","","","tol_peg_1","5354","5354","0","[[1,0,0],[3,0],[0]]","1","[[3,0,0],[2,0],[1]]","17","0","","","","","","5","","","","","","","","",""
"","","","","","single-stim-button","250","447263","0.0-2.0-62.0-1.0","5e5c6b9c8ce757449e4a6dc1","E1","batch5","","10215","tol_toboard","","","","tol_peg_1","10215","10215","0","[[1,2,0],[3,0],[0]]","1","[[3,0,0],[2,0],[1]]","17","0","","","","","","5","","","","","","","","",""
"","","","","","single-stim-button","251","447859","0.0-2.0-62.1-0.1","5e5c6b9c8ce757449e4a6dc1","E1","batch5","","596","tol_tohand","","","","tol_peg_2","596","596","0","[[1,2,0],[0,0],[0]]","2","[[3,0,0],[2,0],[1]]","17","0","","","","","","5","","","","","","","","",""
"","","","","","single-stim-button","252","448184","0.0-2.0-62.1-1.1","5e5c6b9c8ce757449e4a6dc1","E1","batch5","","325","tol_toboard","","","","tol_peg_3","325","325","0","[[1,2,0],[0,0],[3]]","2","[[3,0,0],[2,0],[1]]","17","0","","","","","","5","","","","","","","","",""
"","","","","","single-stim-button","253","448776","0.0-2.0-62.2-0.2","5e5c6b9c8ce757449e4a6dc1","E1","batch5","","591","tol_tohand","","","","tol_peg_1","591","591","0","[[1,0,0],[0,0],[3]]","3","[[3,0,0],[2,0],[1]]","17","0","","","","","","5","","","","","","","","",""
"","","","","","single-stim-button","254","449120","0.0-2.0-62.2-1.2","5e5c6b9c8ce757449e4a6dc1","E1","batch5","","344","tol_toboard","","","","tol_peg_2","344","344","0","[[1,0,0],[2,0],[3]]","3","[[3,0,0],[2,0],[1]]","17","0","","","","","","5","","","","","","","","",""
"","","","","","single-stim-button","255","450047","0.0-2.0-62.3-0.3","5e5c6b9c8ce757449e4a6dc1","E1","batch5","","927","tol_tohand","","","","tol_peg_1","927","927","0","[[0,0,0],[2,0],[3]]","4","[[3,0,0],[2,0],[1]]","17","0","","","","","","5","","","","","","","","",""
"","","","","","single-stim-button","256","450373","0.0-2.0-62.3-1.3","5e5c6b9c8ce757449e4a6dc1","E1","batch5","","325","tol_toboard","","","","tol_peg_2","325","325","0","[[0,0,0],[2,1],[3]]","4","[[3,0,0],[2,0],[1]]","17","0","","","","","","5","","","","","","","","",""
"","","","","","single-stim-button","257","450698","0.0-2.0-62.4-0.4","5e5c6b9c8ce757449e4a6dc1","E1","batch5","","325","tol_tohand","","","","tol_peg_3","325","325","0","[[0,0,0],[2,1],[0]]","5","[[3,0,0],[2,0],[1]]","17","0","","","","","","5","","","","","","","","",""
"","","","","","single-stim-button","258","451073","0.0-2.0-62.4-1.4","5e5c6b9c8ce757449e4a6dc1","E1","batch5","","375","tol_toboard","","","","tol_peg_1","375","375","0","[[3,0,0],[2,1],[0]]","5","[[3,0,0],[2,0],[1]]","17","0","","","","","","5","","","","","","","","",""
"","","","","","single-stim-button","259","451574","0.0-2.0-62.5-0.5","5e5c6b9c8ce757449e4a6dc1","E1","batch5","","500","tol_tohand","","","","tol_peg_2","500","500","0","[[3,0,0],[2,0],[0]]","6","[[3,0,0],[2,0],[1]]","17","0","","","","","","5","","","","","","","","",""
"","","","","","single-stim-button","260","451921","0.0-2.0-62.5-1.5","5e5c6b9c8ce757449e4a6dc1","E1","batch5","","346","tol_toboard","","","","tol_peg_3","346","346","0","[[3,0,0],[2,0],[1]]","6","[[3,0,0],[2,0],[1]]","17","0","","","","","","5","","","","","","","","",""
"","","","","","poldrack-single-stim","261","452935","0.0-2.0-63.0","5e5c6b9c8ce757449e4a6dc1","E1","batch5","","-1","tol_feedback","","","true","","1000","1000","500","","","","","","-1","none","true","5354","8293","","","","","","","","","",""
"","","","","","html-button-response","262","453559","0.0-2.0-64.0","5e5c6b9c8ce757449e4a6dc1","E1","batch5","","624","tol_trial_num","<div class = centerbox><p class = center-block-text>problem <strong>19</strong> out of 25 problems</p></div>","0","","","","","","","","","","","","","","","","","","","","","","","","",""
"","","","","","single-stim-button","263","466052","0.0-2.0-65.0-0.0","5e5c6b9c8ce757449e4a6dc1","E1","batch5","","12492","tol_tohand","","","","tol_peg_1","12492","12492","0","[[1,0,0],[3,0],[0]]","1","[[0,0,0],[1,2],[3]]","18","0","","","","","","7","","","","","","","","",""
"","","","","","single-stim-button","264","469521","0.0-2.0-65.0-1.0","5e5c6b9c8ce757449e4a6dc1","E1","batch5","","3469","tol_toboard","","","","tol_peg_2","3469","3469","0","[[1,0,0],[3,2],[0]]","1","[[0,0,0],[1,2],[3]]","18","0","","","","","","7","","","","","","","","",""
"","","","","","single-stim-button","265","469785","0.0-2.0-65.1-0.1","5e5c6b9c8ce757449e4a6dc1","E1","batch5","","264","tol_tohand","","","","tol_peg_1","264","264","0","[[0,0,0],[3,2],[0]]","2","[[0,0,0],[1,2],[3]]","18","0","","","","","","7","","","","","","","","",""
"","","","","","single-stim-button","266","470151","0.0-2.0-65.1-1.1","5e5c6b9c8ce757449e4a6dc1","E1","batch5","","365","tol_toboard","","","","tol_peg_3","365","365","0","[[0,0,0],[3,2],[1]]","2","[[0,0,0],[1,2],[3]]","18","0","","","","","","7","","","","","","","","",""
"","","","","","single-stim-button","267","470993","0.0-2.0-65.2-0.2","5e5c6b9c8ce757449e4a6dc1","E1","batch5","","840","tol_tohand","","","","tol_peg_2","840","840","0","[[0,0,0],[3,0],[1]]","3","[[0,0,0],[1,2],[3]]","18","0","","","","","","7","","","","","","","","",""
"","","","","","single-stim-button","268","472812","0.0-2.0-65.2-1.2","5e5c6b9c8ce757449e4a6dc1","E1","batch5","","1819","tol_toboard","","","","tol_peg_1","1819","1819","0","[[2,0,0],[3,0],[1]]","3","[[0,0,0],[1,2],[3]]","18","0","","","","","","7","","","","","","","","",""
"","","","","","single-stim-button","269","473096","0.0-2.0-65.3-0.3","5e5c6b9c8ce757449e4a6dc1","E1","batch5","","283","tol_tohand","","","","tol_peg_2","283","283","0","[[2,0,0],[0,0],[1]]","4","[[0,0,0],[1,2],[3]]","18","0","","","","","","7","","","","","","","","",""
"","","","","","single-stim-button","270","473315","0.0-2.0-65.3-1.3","5e5c6b9c8ce757449e4a6dc1","E1","batch5","","219","tol_toboard","","","","tol_peg_1","219","219","0","[[2,3,0],[0,0],[1]]","4","[[0,0,0],[1,2],[3]]","18","0","","","","","","7","","","","","","","","",""
"","","","","","single-stim-button","271","473640","0.0-2.0-65.4-0.4","5e5c6b9c8ce757449e4a6dc1","E1","batch5","","325","tol_tohand","","","","tol_peg_3","325","325","0","[[2,3,0],[0,0],[0]]","5","[[0,0,0],[1,2],[3]]","18","0","","","","","","7","","","","","","","","",""
"","","","","","single-stim-button","272","473841","0.0-2.0-65.4-1.4","5e5c6b9c8ce757449e4a6dc1","E1","batch5","","201","tol_toboard","","","","tol_peg_2","201","201","0","[[2,3,0],[1,0],[0]]","5","[[0,0,0],[1,2],[3]]","18","0","","","","","","7","","","","","","","","",""
"","","","","","single-stim-button","273","474166","0.0-2.0-65.5-0.5","5e5c6b9c8ce757449e4a6dc1","E1","batch5","","325","tol_tohand","","","","tol_peg_1","325","325","0","[[2,0,0],[1,0],[0]]","6","[[0,0,0],[1,2],[3]]","18","0","","","","","","7","","","","","","","","",""
"","","","","","single-stim-button","274","474499","0.0-2.0-65.5-1.5","5e5c6b9c8ce757449e4a6dc1","E1","batch5","","333","tol_toboard","","","","tol_peg_3","333","333","0","[[2,0,0],[1,0],[3]]","6","[[0,0,0],[1,2],[3]]","18","0","","","","","","7","","","","","","","","",""
"","","","","","single-stim-button","275","474816","0.0-2.0-65.6-0.6","5e5c6b9c8ce757449e4a6dc1","E1","batch5","","316","tol_tohand","","","","tol_peg_1","316","316","0","[[0,0,0],[1,0],[3]]","7","[[0,0,0],[1,2],[3]]","18","0","","","","","","7","","","","","","","","",""
"","","","","","single-stim-button","276","475016","0.0-2.0-65.6-1.6","5e5c6b9c8ce757449e4a6dc1","E1","batch5","","200","tol_toboard","","","","tol_peg_2","200","200","0","[[0,0,0],[1,2],[3]]","7","[[0,0,0],[1,2],[3]]","18","0","","","","","","7","","","","","","","","",""
"","","","","","poldrack-single-stim","277","476018","0.0-2.0-66.0","5e5c6b9c8ce757449e4a6dc1","E1","batch5","","-1","tol_feedback","","","true","","1000","1000","500","","","","","","-1","none","true","12492","14845","","","","","","","","","",""
"","","","","","html-button-response","278","476676","0.0-2.0-67.0","5e5c6b9c8ce757449e4a6dc1","E1","batch5","","658.1000000238419","tol_trial_num","<div class = centerbox><p class = center-block-text>problem <strong>20</strong> out of 25 problems</p></div>","0","","","","","","","","","","","","","","","","","","","","","","","","",""
"","","","","","single-stim-button","279","482427","0.0-2.0-68.0-0.0","5e5c6b9c8ce757449e4a6dc1","E1","batch5","","5750","tol_tohand","","","","tol_peg_1","5750","5750","0","[[1,0,0],[3,0],[0]]","1","[[2,1,0],[0,0],[3]]","19","0","","","","","","5","","","","","","","","",""
"","","","","","single-stim-button","280","483600","0.0-2.0-68.0-1.0","5e5c6b9c8ce757449e4a6dc1","E1","batch5","","1171","tol_toboard","","","","tol_peg_2","1171","1171","0","[[1,0,0],[3,2],[0]]","1","[[2,1,0],[0,0],[3]]","19","0","","","","","","5","","","","","","","","",""
"","","","","","single-stim-button","281","483851","0.0-2.0-68.1-0.1","5e5c6b9c8ce757449e4a6dc1","E1","batch5","","251","tol_tohand","","","","tol_peg_1","251","251","0","[[0,0,0],[3,2],[0]]","2","[[2,1,0],[0,0],[3]]","19","0","","","","","","5","","","","","","","","",""
"","","","","","single-stim-button","282","484165","0.0-2.0-68.1-1.1","5e5c6b9c8ce757449e4a6dc1","E1","batch5","","314","tol_toboard","","","","tol_peg_3","314","314","0","[[0,0,0],[3,2],[1]]","2","[[2,1,0],[0,0],[3]]","19","0","","","","","","5","","","","","","","","",""
"","","","","","single-stim-button","283","484575","0.0-2.0-68.2-0.2","5e5c6b9c8ce757449e4a6dc1","E1","batch5","","409","tol_tohand","","","","tol_peg_2","409","409","0","[[0,0,0],[3,0],[1]]","3","[[2,1,0],[0,0],[3]]","19","0","","","","","","5","","","","","","","","",""
"","","","","","single-stim-button","284","484835","0.0-2.0-68.2-1.2","5e5c6b9c8ce757449e4a6dc1","E1","batch5","","260","tol_toboard","","","","tol_peg_1","260","260","0","[[2,0,0],[3,0],[1]]","3","[[2,1,0],[0,0],[3]]","19","0","","","","","","5","","","","","","","","",""
"","","","","","single-stim-button","285","485169","0.0-2.0-68.3-0.3","5e5c6b9c8ce757449e4a6dc1","E1","batch5","","333","tol_tohand","","","","tol_peg_3","333","333","0","[[2,0,0],[3,0],[0]]","4","[[2,1,0],[0,0],[3]]","19","0","","","","","","5","","","","","","","","",""
"","","","","","single-stim-button","286","485522","0.0-2.0-68.3-1.3","5e5c6b9c8ce757449e4a6dc1","E1","batch5","","352","tol_toboard","","","","tol_peg_1","352","352","0","[[2,1,0],[3,0],[0]]","4","[[2,1,0],[0,0],[3]]","19","0","","","","","","5","","","","","","","","",""
"","","","","","single-stim-button","287","486003","0.0-2.0-68.4-0.4","5e5c6b9c8ce757449e4a6dc1","E1","batch5","","480","tol_tohand","","","","tol_peg_2","480","480","0","[[2,1,0],[0,0],[0]]","5","[[2,1,0],[0,0],[3]]","19","0","","","","","","5","","","","","","","","",""
"","","","","","single-stim-button","288","486275","0.0-2.0-68.4-1.4","5e5c6b9c8ce757449e4a6dc1","E1","batch5","","272","tol_toboard","","","","tol_peg_3","272","272","0","[[2,1,0],[0,0],[3]]","5","[[2,1,0],[0,0],[3]]","19","0","","","","","","5","","","","","","","","",""
"","","","","","poldrack-single-stim","289","487280","0.0-2.0-69.0","5e5c6b9c8ce757449e4a6dc1","E1","batch5","","-1","tol_feedback","","","true","","1000","1000","500","","","","","","-1","none","true","5750","7223","","","","","","","","","",""
"","","","","","html-button-response","290","487875","0.0-2.0-70.0","5e5c6b9c8ce757449e4a6dc1","E1","batch5","","594.6000000238419","tol_trial_num","<div class = centerbox><p class = center-block-text>problem <strong>21</strong> out of 25 problems</p></div>","0","","","","","","","","","","","","","","","","","","","","","","","","",""
"","","","","","single-stim-button","291","494693","0.0-2.0-71.0-0.0","5e5c6b9c8ce757449e4a6dc1","E1","batch5","","6818","tol_tohand","","","","tol_peg_2","6818","6818","0","[[1,2,0],[0,0],[0]]","1","[[3,2,0],[0,0],[1]]","20","0","","","","","","6","","","","","","","","",""
"","","","","","single-stim-button","292","495362","0.0-2.0-71.0-1.0","5e5c6b9c8ce757449e4a6dc1","E1","batch5","","667","tol_toboard","","","","tol_peg_3","667","667","0","[[1,2,0],[0,0],[3]]","1","[[3,2,0],[0,0],[1]]","20","0","","","","","","6","","","","","","","","",""
"","","","","","single-stim-button","293","495718","0.0-2.0-71.1-0.1","5e5c6b9c8ce757449e4a6dc1","E1","batch5","","356","tol_tohand","","","","tol_peg_1","356","356","0","[[1,0,0],[0,0],[3]]","2","[[3,2,0],[0,0],[1]]","20","0","","","","","","6","","","","","","","","",""
"","","","","","single-stim-button","294","496159","0.0-2.0-71.1-1.1","5e5c6b9c8ce757449e4a6dc1","E1","batch5","","439","tol_toboard","","","","tol_peg_2","439","439","0","[[1,0,0],[2,0],[3]]","2","[[3,2,0],[0,0],[1]]","20","0","","","","","","6","","","","","","","","",""
"","","","","","single-stim-button","295","496454","0.0-2.0-71.2-0.2","5e5c6b9c8ce757449e4a6dc1","E1","batch5","","295","tol_tohand","","","","tol_peg_1","295","295","0","[[0,0,0],[2,0],[3]]","3","[[3,2,0],[0,0],[1]]","20","0","","","","","","6","","","","","","","","",""
"","","","","","single-stim-button","296","496687","0.0-2.0-71.2-1.2","5e5c6b9c8ce757449e4a6dc1","E1","batch5","","232","tol_toboard","","","","tol_peg_2","232","232","0","[[0,0,0],[2,1],[3]]","3","[[3,2,0],[0,0],[1]]","20","0","","","","","","6","","","","","","","","",""
"","","","","","single-stim-button","297","497002","0.0-2.0-71.3-0.3","5e5c6b9c8ce757449e4a6dc1","E1","batch5","","315","tol_tohand","","","","tol_peg_3","315","315","0","[[0,0,0],[2,1],[0]]","4","[[3,2,0],[0,0],[1]]","20","0","","","","","","6","","","","","","","","",""
"","","","","","single-stim-button","298","497295","0.0-2.0-71.3-1.3","5e5c6b9c8ce757449e4a6dc1","E1","batch5","","293","tol_toboard","","","","tol_peg_1","293","293","0","[[3,0,0],[2,1],[0]]","4","[[3,2,0],[0,0],[1]]","20","0","","","","","","6","","","","","","","","",""
"","","","","","single-stim-button","299","497745","0.0-2.0-71.4-0.4","5e5c6b9c8ce757449e4a6dc1","E1","batch5","","450","tol_tohand","","","","tol_peg_2","450","450","0","[[3,0,0],[2,0],[0]]","5","[[3,2,0],[0,0],[1]]","20","0","","","","","","6","","","","","","","","",""
"","","","","","single-stim-button","300","498055","0.0-2.0-71.4-1.4","5e5c6b9c8ce757449e4a6dc1","E1","batch5","","310","tol_toboard","","","","tol_peg_3","310","310","0","[[3,0,0],[2,0],[1]]","5","[[3,2,0],[0,0],[1]]","20","0","","","","","","6","","","","","","","","",""
"","","","","","single-stim-button","301","498297","0.0-2.0-71.5-0.5","5e5c6b9c8ce757449e4a6dc1","E1","batch5","","242","tol_tohand","","","","tol_peg_2","242","242","0","[[3,0,0],[0,0],[1]]","6","[[3,2,0],[0,0],[1]]","20","0","","","","","","6","","","","","","","","",""
"","","","","","single-stim-button","302","498511","0.0-2.0-71.5-1.5","5e5c6b9c8ce757449e4a6dc1","E1","batch5","","213","tol_toboard","","","","tol_peg_1","213","213","0","[[3,2,0],[0,0],[1]]","6","[[3,2,0],[0,0],[1]]","20","0","","","","","","6","","","","","","","","",""
"","","","","","poldrack-single-stim","303","499519","0.0-2.0-72.0","5e5c6b9c8ce757449e4a6dc1","E1","batch5","","-1","tol_feedback","","","true","","1000","1000","500","","","","","","-1","none","true","6818","8476","","","","","","","","","",""
"","","","","","html-button-response","304","500097","0.0-2.0-73.0","5e5c6b9c8ce757449e4a6dc1","E1","batch5","","577","tol_trial_num","<div class = centerbox><p class = center-block-text>problem <strong>22</strong> out of 25 problems</p></div>","0","","","","","","","","","","","","","","","","","","","","","","","","",""
"","","","","","single-stim-button","305","511907","0.0-2.0-74.0-0.0","5e5c6b9c8ce757449e4a6dc1","E1","batch5","","11810","tol_tohand","","","","tol_peg_2","11810","11810","0","[[1,0,0],[2,0],[0]]","1","[[0,0,0],[1,2],[3]]","21","0","","","","","","6","","","","","","","","",""
"","","","","","single-stim-button","306","512203","0.0-2.0-74.0-1.0","5e5c6b9c8ce757449e4a6dc1","E1","batch5","","296","tol_toboard","","","","tol_peg_1","296","296","0","[[1,3,0],[2,0],[0]]","1","[[0,0,0],[1,2],[3]]","21","0","","","","","","6","","","","","","","","",""
"","","","","","single-stim-button","307","513882","0.0-2.0-74.1-0.1","5e5c6b9c8ce757449e4a6dc1","E1","batch5","","1679","tol_tohand","","","","tol_peg_2","1679","1679","0","[[1,3,0],[0,0],[0]]","2","[[0,0,0],[1,2],[3]]","21","0","","","","","","6","","","","","","","","",""
"","","","","","single-stim-button","308","524182","0.0-2.0-74.1-1.1","5e5c6b9c8ce757449e4a6dc1","E1","batch5","","10300","tol_toboard","","","","tol_peg_3","10300","10300","0","[[1,3,0],[0,0],[2]]","2","[[0,0,0],[1,2],[3]]","21","0","","","","","","6","","","","","","","","",""
"","","","","","single-stim-button","309","524975","0.0-2.0-74.2-0.2","5e5c6b9c8ce757449e4a6dc1","E1","batch5","","793","tol_tohand","","","","tol_peg_1","793","793","0","[[1,0,0],[0,0],[2]]","3","[[0,0,0],[1,2],[3]]","21","0","","","","","","6","","","","","","","","",""
"","","","","","single-stim-button","310","529031","0.0-2.0-74.2-1.2","5e5c6b9c8ce757449e4a6dc1","E1","batch5","","4056","tol_toboard","","","","tol_peg_2","4056","4056","0","[[1,0,0],[3,0],[2]]","3","[[0,0,0],[1,2],[3]]","21","0","","","","","","6","","","","","","","","",""
"","","","","","single-stim-button","311","529573","0.0-2.0-74.3-0.3","5e5c6b9c8ce757449e4a6dc1","E1","batch5","","541","tol_tohand","","","","tol_peg_1","541","541","0","[[0,0,0],[3,0],[2]]","4","[[0,0,0],[1,2],[3]]","21","0","","","","","","6","","","","","","","","",""
"","","","","","single-stim-button","312","529793","0.0-2.0-74.3-1.3","5e5c6b9c8ce757449e4a6dc1","E1","batch5","","218","tol_toboard","","","","tol_peg_2","218","218","0","[[0,0,0],[3,1],[2]]","4","[[0,0,0],[1,2],[3]]","21","0","","","","","","6","","","","","","","","",""
"","","","","","single-stim-button","313","530739","0.0-2.0-74.4-0.4","5e5c6b9c8ce757449e4a6dc1","E1","batch5","","946","tol_tohand","","","","tol_peg_3","946","946","0","[[0,0,0],[3,1],[0]]","5","[[0,0,0],[1,2],[3]]","21","0","","","","","","6","","","","","","","","",""
"","","","","","single-stim-button","314","531045","0.0-2.0-74.4-1.4","5e5c6b9c8ce757449e4a6dc1","E1","batch5","","306","tol_toboard","","","","tol_peg_1","306","306","0","[[2,0,0],[3,1],[0]]","5","[[0,0,0],[1,2],[3]]","21","0","","","","","","6","","","","","","","","",""
"","","","","","single-stim-button","315","532154","0.0-2.0-74.5-0.5","5e5c6b9c8ce757449e4a6dc1","E1","batch5","","1108","tol_tohand","","","","tol_peg_2","1108","1108","0","[[2,0,0],[3,0],[0]]","6","[[0,0,0],[1,2],[3]]","21","0","","","","","","6","","","","","","","","",""
"","","","","","single-stim-button","316","532386","0.0-2.0-74.5-1.5","5e5c6b9c8ce757449e4a6dc1","E1","batch5","","231","tol_toboard","","","","tol_peg_1","231","231","0","[[2,1,0],[3,0],[0]]","6","[[0,0,0],[1,2],[3]]","21","0","","","","","","6","","","","","","","","",""
"","","","","","single-stim-button","317","532660","0.0-2.0-74.6-0.6","5e5c6b9c8ce757449e4a6dc1","E1","batch5","","273","tol_tohand","","","","tol_peg_2","273","273","0","[[2,1,0],[0,0],[0]]","7","[[0,0,0],[1,2],[3]]","21","0","","","","","","6","","","","","","","","",""
"","","","","","single-stim-button","318","532921","0.0-2.0-74.6-1.6","5e5c6b9c8ce757449e4a6dc1","E1","batch5","","261","tol_toboard","","","","tol_peg_3","261","261","0","[[2,1,0],[0,0],[3]]","7","[[0,0,0],[1,2],[3]]","21","0","","","","","","6","","","","","","","","",""
"","","","","","single-stim-button","319","533217","0.0-2.0-74.7-0.7","5e5c6b9c8ce757449e4a6dc1","E1","batch5","","295","tol_tohand","","","","tol_peg_1","295","295","0","[[2,0,0],[0,0],[3]]","8","[[0,0,0],[1,2],[3]]","21","0","","","","","","6","","","","","","","","",""
"","","","","","single-stim-button","320","533479","0.0-2.0-74.7-1.7","5e5c6b9c8ce757449e4a6dc1","E1","batch5","","260","tol_toboard","","","","tol_peg_2","260","260","0","[[2,0,0],[1,0],[3]]","8","[[0,0,0],[1,2],[3]]","21","0","","","","","","6","","","","","","","","",""
"","","","","","single-stim-button","321","533720","0.0-2.0-74.8-0.8","5e5c6b9c8ce757449e4a6dc1","E1","batch5","","241","tol_tohand","","","","tol_peg_1","241","241","0","[[0,0,0],[1,0],[3]]","9","[[0,0,0],[1,2],[3]]","21","0","","","","","","6","","","","","","","","",""
"","","","","","single-stim-button","322","533945","0.0-2.0-74.8-1.8","5e5c6b9c8ce757449e4a6dc1","E1","batch5","","224","tol_toboard","","","","tol_peg_2","224","224","0","[[0,0,0],[1,2],[3]]","9","[[0,0,0],[1,2],[3]]","21","0","","","","","","6","","","","","","","","",""
"","","","","","poldrack-single-stim","323","534950","0.0-2.0-75.0","5e5c6b9c8ce757449e4a6dc1","E1","batch5","","-1","tol_feedback","","","true","","1000","1000","500","","","","","","-1","none","true","11810","17686","","","","","","","","","",""
"","","","","","html-button-response","324","535710","0.0-2.0-76.0","5e5c6b9c8ce757449e4a6dc1","E1","batch5","","760.1000000238419","tol_trial_num","<div class = centerbox><p class = center-block-text>problem <strong>23</strong> out of 25 problems</p></div>","0","","","","","","","","","","","","","","","","","","","","","","","","",""
"","","","","","single-stim-button","325","538363","0.0-2.0-77.0-0.0","5e5c6b9c8ce757449e4a6dc1","E1","batch5","","2652","tol_tohand","","","","tol_peg_1","2652","2652","0","[[1,0,0],[3,0],[0]]","1","[[1,3,2],[0,0],[0]]","22","0","","","","","","3","","","","","","","","",""
"","","","","","single-stim-button","326","538716","0.0-2.0-77.0-1.0","5e5c6b9c8ce757449e4a6dc1","E1","batch5","","351","tol_toboard","","","","tol_peg_3","351","351","0","[[1,0,0],[3,0],[2]]","1","[[1,3,2],[0,0],[0]]","22","0","","","","","","3","","","","","","","","",""
"","","","","","single-stim-button","327","539009","0.0-2.0-77.1-0.1","5e5c6b9c8ce757449e4a6dc1","E1","batch5","","293","tol_tohand","","","","tol_peg_2","293","293","0","[[1,0,0],[0,0],[2]]","2","[[1,3,2],[0,0],[0]]","22","0","","","","","","3","","","","","","","","",""
"","","","","","single-stim-button","328","539230","0.0-2.0-77.1-1.1","5e5c6b9c8ce757449e4a6dc1","E1","batch5","","220","tol_toboard","","","","tol_peg_1","220","220","0","[[1,3,0],[0,0],[2]]","2","[[1,3,2],[0,0],[0]]","22","0","","","","","","3","","","","","","","","",""
"","","","","","single-stim-button","329","539573","0.0-2.0-77.2-0.2","5e5c6b9c8ce757449e4a6dc1","E1","batch5","","343","tol_tohand","","","","tol_peg_3","343","343","0","[[1,3,0],[0,0],[0]]","3","[[1,3,2],[0,0],[0]]","22","0","","","","","","3","","","","","","","","",""
"","","","","","single-stim-button","330","539898","0.0-2.0-77.2-1.2","5e5c6b9c8ce757449e4a6dc1","E1","batch5","","324","tol_toboard","","","","tol_peg_1","324","324","0","[[1,3,2],[0,0],[0]]","3","[[1,3,2],[0,0],[0]]","22","0","","","","","","3","","","","","","","","",""
"","","","","","poldrack-single-stim","331","540901","0.0-2.0-78.0","5e5c6b9c8ce757449e4a6dc1","E1","batch5","","-1","tol_feedback","","","true","","1000","1000","500","","","","","","-1","none","true","2652","3288","","","","","","","","","",""
"","","","","","html-button-response","332","541447","0.0-2.0-79.0","5e5c6b9c8ce757449e4a6dc1","E1","batch5","","544.6000000238419","tol_trial_num","<div class = centerbox><p class = center-block-text>problem <strong>24</strong> out of 25 problems</p></div>","0","","","","","","","","","","","","","","","","","","","","","","","","",""
"","","","","","single-stim-button","333","546131","0.0-2.0-80.0-0.0","5e5c6b9c8ce757449e4a6dc1","E1","batch5","","4684","tol_tohand","","","","tol_peg_3","4684","4684","0","[[0,0,0],[2,3],[0]]","1","[[2,0,0],[3,0],[1]]","23","0","","","","","","7","","","","","","","","",""
"","","","","","single-stim-button","334","546510","0.0-2.0-80.0-1.0","5e5c6b9c8ce757449e4a6dc1","E1","batch5","","379","tol_toboard","","","","tol_peg_1","379","379","0","[[1,0,0],[2,3],[0]]","1","[[2,0,0],[3,0],[1]]","23","0","","","","","","7","","","","","","","","",""
"","","","","","single-stim-button","335","546960","0.0-2.0-80.1-0.1","5e5c6b9c8ce757449e4a6dc1","E1","batch5","","449","tol_tohand","","","","tol_peg_2","449","449","0","[[1,0,0],[2,0],[0]]","2","[[2,0,0],[3,0],[1]]","23","0","","","","","","7","","","","","","","","",""
"","","","","","single-stim-button","336","547431","0.0-2.0-80.1-1.1","5e5c6b9c8ce757449e4a6dc1","E1","batch5","","471","tol_toboard","","","","tol_peg_3","471","471","0","[[1,0,0],[2,0],[3]]","2","[[2,0,0],[3,0],[1]]","23","0","","","","","","7","","","","","","","","",""
"","","","","","single-stim-button","337","550579","0.0-2.0-80.2-0.2","5e5c6b9c8ce757449e4a6dc1","E1","batch5","","3148","tol_tohand","","","","tol_peg_2","3148","3148","0","[[1,0,0],[0,0],[3]]","3","[[2,0,0],[3,0],[1]]","23","0","","","","","","7","","","","","","","","",""
"","","","","","single-stim-button","338","550821","0.0-2.0-80.2-1.2","5e5c6b9c8ce757449e4a6dc1","E1","batch5","","241","tol_toboard","","","","tol_peg_1","241","241","0","[[1,2,0],[0,0],[3]]","3","[[2,0,0],[3,0],[1]]","23","0","","","","","","7","","","","","","","","",""
"","","","","","single-stim-button","339","551289","0.0-2.0-80.3-0.3","5e5c6b9c8ce757449e4a6dc1","E1","batch5","","468","tol_tohand","","","","tol_peg_3","468","468","0","[[1,2,0],[0,0],[0]]","4","[[2,0,0],[3,0],[1]]","23","0","","","","","","7","","","","","","","","",""
"","","","","","single-stim-button","340","551574","0.0-2.0-80.3-1.3","5e5c6b9c8ce757449e4a6dc1","E1","batch5","","284","tol_toboard","","","","tol_peg_2","284","284","0","[[1,2,0],[3,0],[0]]","4","[[2,0,0],[3,0],[1]]","23","0","","","","","","7","","","","","","","","",""
"","","","","","single-stim-button","341","552271","0.0-2.0-80.4-0.4","5e5c6b9c8ce757449e4a6dc1","E1","batch5","","697","tol_tohand","","","","tol_peg_1","697","697","0","[[1,0,0],[3,0],[0]]","5","[[2,0,0],[3,0],[1]]","23","0","","","","","","7","","","","","","","","",""
"","","","","","single-stim-button","342","553030","0.0-2.0-80.4-1.4","5e5c6b9c8ce757449e4a6dc1","E1","batch5","","759","tol_toboard","","","","tol_peg_3","759","759","0","[[1,0,0],[3,0],[2]]","5","[[2,0,0],[3,0],[1]]","23","0","","","","","","7","","","","","","","","",""
"","","","","","single-stim-button","343","553304","0.0-2.0-80.5-0.5","5e5c6b9c8ce757449e4a6dc1","E1","batch5","","273","tol_tohand","","","","tol_peg_1","273","273","0","[[0,0,0],[3,0],[2]]","6","[[2,0,0],[3,0],[1]]","23","0","","","","","","7","","","","","","","","",""
"","","","","","single-stim-button","344","553473","0.0-2.0-80.5-1.5","5e5c6b9c8ce757449e4a6dc1","E1","batch5","","168","tol_toboard","","","","tol_peg_2","168","168","0","[[0,0,0],[3,1],[2]]","6","[[2,0,0],[3,0],[1]]","23","0","","","","","","7","","","","","","","","",""
"","","","","","single-stim-button","345","553779","0.0-2.0-80.6-0.6","5e5c6b9c8ce757449e4a6dc1","E1","batch5","","305","tol_tohand","","","","tol_peg_3","305","305","0","[[0,0,0],[3,1],[0]]","7","[[2,0,0],[3,0],[1]]","23","0","","","","","","7","","","","","","","","",""
"","","","","","single-stim-button","346","554033","0.0-2.0-80.6-1.6","5e5c6b9c8ce757449e4a6dc1","E1","batch5","","254","tol_toboard","","","","tol_peg_1","254","254","0","[[2,0,0],[3,1],[0]]","7","[[2,0,0],[3,0],[1]]","23","0","","","","","","7","","","","","","","","",""
"","","","","","single-stim-button","347","554257","0.0-2.0-80.7-0.7","5e5c6b9c8ce757449e4a6dc1","E1","batch5","","223","tol_tohand","","","","tol_peg_2","223","223","0","[[2,0,0],[3,0],[0]]","8","[[2,0,0],[3,0],[1]]","23","0","","","","","","7","","","","","","","","",""
"","","","","","single-stim-button","348","554521","0.0-2.0-80.7-1.7","5e5c6b9c8ce757449e4a6dc1","E1","batch5","","264","tol_toboard","","","","tol_peg_3","264","264","0","[[2,0,0],[3,0],[1]]","8","[[2,0,0],[3,0],[1]]","23","0","","","","","","7","","","","","","","","",""
"","","","","","poldrack-single-stim","349","555523","0.0-2.0-81.0","5e5c6b9c8ce757449e4a6dc1","E1","batch5","","-1","tol_feedback","","","true","","1000","1000","500","","","","","","-1","none","true","4684","10247","","","","","","","","","",""
"","","","","","html-button-response","350","556118","0.0-2.0-82.0","5e5c6b9c8ce757449e4a6dc1","E1","batch5","","594.0999999046326","tol_trial_num","<div class = centerbox><p class = center-block-text>problem <strong>25</strong> out of 25 problems</p></div>","0","","","","","","","","","","","","","","","","","","","","","","","","",""
"","","","","","single-stim-button","351","561142","0.0-2.0-83.0-0.0","5e5c6b9c8ce757449e4a6dc1","E1","batch5","","5024","tol_tohand","","","","tol_peg_1","5024","5024","0","[[1,0,0],[3,0],[0]]","1","[[3,0,0],[1,0],[2]]","24","0","","","","","","7","","","","","","","","",""
"","","","","","single-stim-button","352","561486","0.0-2.0-83.0-1.0","5e5c6b9c8ce757449e4a6dc1","E1","batch5","","342","tol_toboard","","","","tol_peg_2","342","342","0","[[1,0,0],[3,2],[0]]","1","[[3,0,0],[1,0],[2]]","24","0","","","","","","7","","","","","","","","",""
"","","","","","single-stim-button","353","561783","0.0-2.0-83.1-0.1","5e5c6b9c8ce757449e4a6dc1","E1","batch5","","297","tol_tohand","","","","tol_peg_1","297","297","0","[[0,0,0],[3,2],[0]]","2","[[3,0,0],[1,0],[2]]","24","0","","","","","","7","","","","","","","","",""
"","","","","","single-stim-button","354","568579","0.0-2.0-83.1-1.1","5e5c6b9c8ce757449e4a6dc1","E1","batch5","","6795","tol_toboard","","","","tol_peg_1","6795","6795","0","[[1,0,0],[3,2],[0]]","2","[[3,0,0],[1,0],[2]]","24","0","","","","","","7","","","","","","","","",""
"","","","","","single-stim-button","355","569473","0.0-2.0-83.2-0.2","5e5c6b9c8ce757449e4a6dc1","E1","batch5","","892","tol_tohand","","","","tol_peg_2","892","892","0","[[1,0,0],[3,0],[0]]","3","[[3,0,0],[1,0],[2]]","24","0","","","","","","7","","","","","","","","",""
"","","","","","single-stim-button","356","569745","0.0-2.0-83.2-1.2","5e5c6b9c8ce757449e4a6dc1","E1","batch5","","272","tol_toboard","","","","tol_peg_1","272","272","0","[[1,2,0],[3,0],[0]]","3","[[3,0,0],[1,0],[2]]","24","0","","","","","","7","","","","","","","","",""
