"success","timeout","failed_images","failed_audio","failed_video","trial_type","trial_index","time_elapsed","internal_node_id","subject_id","study_id","session_id","view_history","rt","task","stimulus","response","correct","mouse_click","stim_duration","block_duration","timing_post_trial","current_position","tol_num_moves_made","tol_target","tol_problem_id","tol_rt","key_press","possible_responses","tol_correct","preplanning","tol_rt_per_trial","tol_min_moves","answer","item","fiar_detect_rt","fiar_detect_correct","total_correct_fiar_detect","post_trial_gap","choices","spm_correct","spm_rt"
"true","false","[]","[]","[]","preload","0","3769","0.0-0.0","5e5e5b2488479216d9171d1b","E1","batch5","","","","","","","","","","","","","","","","","","","","","","","","","","","","","",""
"true","","","","","fullscreen","1","15296","0.0-1.0-0.0","5e5e5b2488479216d9171d1b","E1","batch5","","","","","","","","","","","","","","","","","","","","","","","","","","","","","",""
"true","","","","","fullscreen","2","19765","0.0-2.0-0.0","5e5e5b2488479216d9171d1b","E1","batch5","","","","","","","","","","","","","","","","","","","","","","","","","","","","","",""
"","","","","","instructions","3","74911","0.0-2.0-1.0-0.0-0.0","5e5e5b2488479216d9171d1b","E1","batch5","[{""page_index"":0,""viewing_time"":11541.400000095367},{""page_index"":1,""viewing_time"":4667},{""page_index"":2,""viewing_time"":3767.9000000953674},{""page_index"":3,""viewing_time"":14434.39999961853},{""page_index"":4,""viewing_time"":6084.200000286102},{""page_index"":5,""viewing_time"":10634.900000095367},{""page_index"":6,""viewing_time"":4017.199999809265}]","55147.300000190735","tol-instructions","","","","","","","","","","","","","","","","","","","","","","","","","","",""
"","","","","","html-button-response","4","76361","0.0-2.0-1.0-1.0-0.0","5e5e5b2488479216d9171d1b","E1","batch5","","1448.6999998092651","tol_enter_quiz","<p class=block-text> Let's answer a few questions <br>","0","","","","","","","","","","","","","","","","","","","","","","","","",""
"","","","","","html-button-response","5","81244","0.0-2.0-1.0-1.0-1.0","5e5e5b2488479216d9171d1b","E1","batch5","","4882.599999904633","tol_quiz","<p class = block-text>True or False: You can only move the ball on top of a peg. <br></p>","0","true","","","","","","","","","","","","","","","","","","","","","","","",""
"","","","","","html-button-response","6","82544","0.0-2.0-1.0-1.0-2.0","5e5e5b2488479216d9171d1b","E1","batch5","","1297.3000001907349","tol_quiz_feedback","<p class = block-text>Correct! You can only move the ball on top of a peg.</p>","0","","","","","","","","","","","","","","","","","","","","","","","","",""
"","","","","","html-button-response","7","85578","0.0-2.0-1.0-1.0-3.0","5e5e5b2488479216d9171d1b","E1","batch5","","3033.5999999046326","tol_quiz","<p class = block-text>True or False: You should try to match your board with the target board with fewest moves possible. <br></p>","0","true","","","","","","","","","","","","","","","","","","","","","","","",""
"","","","","","html-button-response","8","86528","0.0-2.0-1.0-1.0-4.0","5e5e5b2488479216d9171d1b","E1","batch5","","948.5999999046326","tol_quiz_feedback","<p class = block-text>Correct! </p>","0","","","","","","","","","","","","","","","","","","","","","","","","",""
"","","","","","html-button-response","9","89112","0.0-2.0-2.0","5e5e5b2488479216d9171d1b","E1","batch5","","2582.5","","<p class=block-text> Now that you've understood the game, let's practice a few easier examples before we start!<br> <br>","0","","","","","","","","","","","","","","","","","","","","","","","","",""
"","","","","","single-stim-button","10","91562","0.0-2.0-3.0-0.0","5e5e5b2488479216d9171d1b","E1","batch5","","2448","tol_practice","","","","tol_peg_2","2448","2448","0","[[1,2,0],[0,0],[0]]","1","[[1,2,0],[0,0],[3]]","practice","2448","","","","","","","","","","","","","","",""
"","","","","","single-stim-button","11","93079","0.0-2.0-3.0-1.0","5e5e5b2488479216d9171d1b","E1","batch5","","1516","tol_practice","","","","tol_peg_3","1516","1516","0","[[1,2,0],[0,0],[3]]","1","[[1,2,0],[0,0],[3]]","practice","1516","","","","","","","","","","","","","","",""
"","","","","","poldrack-single-stim","12","94088","0.0-2.0-4.0","5e5e5b2488479216d9171d1b","E1","batch5","","-1","tol_feedback","","","true","","1000","1000","500","","","","","","-1","none","true","","0","","","","","","","","","",""
"","","","","","single-stim-button","13","98163","0.0-2.0-5.0-0.0","5e5e5b2488479216d9171d1b","E1","batch5","","4073","tol_practice","","","","tol_peg_1","4073","4073","0","[[1,0,0],[3,0],[0]]","2","[[0,0,0],[3,1],[2]]","practice","4073","","","","","","","","","","","","","","",""
"","","","","","single-stim-button","14","99279","0.0-2.0-5.0-1.0","5e5e5b2488479216d9171d1b","E1","batch5","","1116","tol_practice","","","","tol_peg_3","1116","1116","0","[[1,0,0],[3,0],[2]]","2","[[0,0,0],[3,1],[2]]","practice","1116","","","","","","","","","","","","","","",""
"","","","","","single-stim-button","15","100096","0.0-2.0-5.1-0.1","5e5e5b2488479216d9171d1b","E1","batch5","","816","tol_practice","","","","tol_peg_1","816","816","0","[[0,0,0],[3,0],[2]]","3","[[0,0,0],[3,1],[2]]","practice","816","","","","","","","","","","","","","","",""
"","","","","","single-stim-button","16","100980","0.0-2.0-5.1-1.1","5e5e5b2488479216d9171d1b","E1","batch5","","882","tol_practice","","","","tol_peg_2","882","882","0","[[0,0,0],[3,1],[2]]","3","[[0,0,0],[3,1],[2]]","practice","882","","","","","","","","","","","","","","",""
"","","","","","poldrack-single-stim","17","101982","0.0-2.0-6.0","5e5e5b2488479216d9171d1b","E1","batch5","","-1","tol_feedback","","","true","","1000","1000","500","","","","","","-1","none","true","","0","","","","","","","","","",""
"","","","","","single-stim-button","18","105163","0.0-2.0-7.0-0.0","5e5e5b2488479216d9171d1b","E1","batch5","","3181","tol_practice","","","","tol_peg_2","3181","3181","0","[[1,2,0],[0,0],[0]]","4","[[1,0,0],[2,0],[3]]","practice","3181","","","","","","","","","","","","","","",""
"","","","","","single-stim-button","19","105846","0.0-2.0-7.0-1.0","5e5e5b2488479216d9171d1b","E1","batch5","","682","tol_practice","","","","tol_peg_3","682","682","0","[[1,2,0],[0,0],[3]]","4","[[1,0,0],[2,0],[3]]","practice","682","","","","","","","","","","","","","","",""
"","","","","","single-stim-button","20","106963","0.0-2.0-7.1-0.1","5e5e5b2488479216d9171d1b","E1","batch5","","1116","tol_practice","","","","tol_peg_1","1116","1116","0","[[1,0,0],[0,0],[3]]","5","[[1,0,0],[2,0],[3]]","practice","1116","","","","","","","","","","","","","","",""
"","","","","","single-stim-button","21","107647","0.0-2.0-7.1-1.1","5e5e5b2488479216d9171d1b","E1","batch5","","682","tol_practice","","","","tol_peg_2","682","682","0","[[1,0,0],[2,0],[3]]","5","[[1,0,0],[2,0],[3]]","practice","682","","","","","","","","","","","","","","",""
"","","","","","poldrack-single-stim","22","108656","0.0-2.0-8.0","5e5e5b2488479216d9171d1b","E1","batch5","","-1","tol_feedback","","","true","","1000","1000","500","","","","","","-1","none","true","","0","","","","","","","","","",""
"","","","","","html-button-response","23","112880","0.0-2.0-9.0","5e5e5b2488479216d9171d1b","E1","batch5","","4223.300000190735","tol_instruction","<div class = centerbox><p class = center-block-text>Great job! You are done with practice trials<br>You are about to start official trials.<br> <br> Problem <strong>1</strong> out of 25 problems</p></div>","0","","","","","","","","","","","","","","","","","","","","","","","","",""
"","","","","","single-stim-button","24","117414","0.0-2.0-10.0-0.0","5e5e5b2488479216d9171d1b","E1","batch5","","3524","tol_tohand","","","","tol_peg_1","3524","3524","0","[[1,0,0],[3,0],[0]]","1","[[1,3,0],[2,0],[0]]","0","0","","","","","","3","","","","","","","","",""
"","","","","","single-stim-button","25","118264","0.0-2.0-10.0-1.0","5e5e5b2488479216d9171d1b","E1","batch5","","849","tol_toboard","","","","tol_peg_3","849","849","0","[[1,0,0],[3,0],[2]]","1","[[1,3,0],[2,0],[0]]","0","0","","","","","","3","","","","","","","","",""
"","","","","","single-stim-button","26","118930","0.0-2.0-10.1-0.1","5e5e5b2488479216d9171d1b","E1","batch5","","665","tol_tohand","","","","tol_peg_2","665","665","0","[[1,0,0],[0,0],[2]]","2","[[1,3,0],[2,0],[0]]","0","0","","","","","","3","","","","","","","","",""
"","","","","","single-stim-button","27","119664","0.0-2.0-10.1-1.1","5e5e5b2488479216d9171d1b","E1","batch5","","734","tol_toboard","","","","tol_peg_1","734","734","0","[[1,3,0],[0,0],[2]]","2","[[1,3,0],[2,0],[0]]","0","0","","","","","","3","","","","","","","","",""
"","","","","","single-stim-button","28","120397","0.0-2.0-10.2-0.2","5e5e5b2488479216d9171d1b","E1","batch5","","732","tol_tohand","","","","tol_peg_3","732","732","0","[[1,3,0],[0,0],[0]]","3","[[1,3,0],[2,0],[0]]","0","0","","","","","","3","","","","","","","","",""
"","","","","","single-stim-button","29","121031","0.0-2.0-10.2-1.2","5e5e5b2488479216d9171d1b","E1","batch5","","633","tol_toboard","","","","tol_peg_2","633","633","0","[[1,3,0],[2,0],[0]]","3","[[1,3,0],[2,0],[0]]","0","0","","","","","","3","","","","","","","","",""
"","","","","","poldrack-single-stim","30","122041","0.0-2.0-11.0","5e5e5b2488479216d9171d1b","E1","batch5","","-1","tol_feedback","","","true","","1000","1000","500","","","","","","-1","none","true","3524","4921","","","","","","","","","",""
"","","","","","html-button-response","31","123247","0.0-2.0-12.0","5e5e5b2488479216d9171d1b","E1","batch5","","1205.5","tol_trial_num","<div class = centerbox><p class = center-block-text>problem <strong>2</strong> out of 25 problems</p></div>","0","","","","","","","","","","","","","","","","","","","","","","","","",""
"","","","","","single-stim-button","32","129132","0.0-2.0-13.0-0.0","5e5e5b2488479216d9171d1b","E1","batch5","","5883","tol_tohand","","","","tol_peg_1","5883","5883","0","[[1,0,0],[3,0],[0]]","1","[[2,1,3],[0,0],[0]]","1","0","","","","","","5","","","","","","","","",""
"","","","","","single-stim-button","33","129831","0.0-2.0-13.0-1.0","5e5e5b2488479216d9171d1b","E1","batch5","","699","tol_toboard","","","","tol_peg_2","699","699","0","[[1,0,0],[3,2],[0]]","1","[[2,1,3],[0,0],[0]]","1","0","","","","","","5","","","","","","","","",""
"","","","","","single-stim-button","34","130531","0.0-2.0-13.1-0.1","5e5e5b2488479216d9171d1b","E1","batch5","","699","tol_tohand","","","","tol_peg_1","699","699","0","[[0,0,0],[3,2],[0]]","2","[[2,1,3],[0,0],[0]]","1","0","","","","","","5","","","","","","","","",""
"","","","","","single-stim-button","35","131365","0.0-2.0-13.1-1.1","5e5e5b2488479216d9171d1b","E1","batch5","","834","tol_toboard","","","","tol_peg_3","834","834","0","[[0,0,0],[3,2],[1]]","2","[[2,1,3],[0,0],[0]]","1","0","","","","","","5","","","","","","","","",""
"","","","","","single-stim-button","36","131931","0.0-2.0-13.2-0.2","5e5e5b2488479216d9171d1b","E1","batch5","","565","tol_tohand","","","","tol_peg_2","565","565","0","[[0,0,0],[3,0],[1]]","3","[[2,1,3],[0,0],[0]]","1","0","","","","","","5","","","","","","","","",""
"","","","","","single-stim-button","37","132565","0.0-2.0-13.2-1.2","5e5e5b2488479216d9171d1b","E1","batch5","","632","tol_toboard","","","","tol_peg_1","632","632","0","[[2,0,0],[3,0],[1]]","3","[[2,1,3],[0,0],[0]]","1","0","","","","","","5","","","","","","","","",""
"","","","","","single-stim-button","38","133448","0.0-2.0-13.3-0.3","5e5e5b2488479216d9171d1b","E1","batch5","","883","tol_tohand","","","","tol_peg_3","883","883","0","[[2,0,0],[3,0],[0]]","4","[[2,1,3],[0,0],[0]]","1","0","","","","","","5","","","","","","","","",""
"","","","","","single-stim-button","39","134032","0.0-2.0-13.3-1.3","5e5e5b2488479216d9171d1b","E1","batch5","","583","tol_toboard","","","","tol_peg_1","583","583","0","[[2,1,0],[3,0],[0]]","4","[[2,1,3],[0,0],[0]]","1","0","","","","","","5","","","","","","","","",""
"","","","","","single-stim-button","40","134682","0.0-2.0-13.4-0.4","5e5e5b2488479216d9171d1b","E1","batch5","","649","tol_tohand","","","","tol_peg_2","649","649","0","[[2,1,0],[0,0],[0]]","5","[[2,1,3],[0,0],[0]]","1","0","","","","","","5","","","","","","","","",""
"","","","","","single-stim-button","41","135282","0.0-2.0-13.4-1.4","5e5e5b2488479216d9171d1b","E1","batch5","","600","tol_toboard","","","","tol_peg_1","600","600","0","[[2,1,3],[0,0],[0]]","5","[[2,1,3],[0,0],[0]]","1","0","","","","","","5","","","","","","","","",""
"","","","","","poldrack-single-stim","42","136285","0.0-2.0-14.0","5e5e5b2488479216d9171d1b","E1","batch5","","-1","tol_feedback","","","true","","1000","1000","500","","","","","","-1","none","true","5883","8679","","","","","","","","","",""
"","","","","","html-button-response","43","137249","0.0-2.0-15.0","5e5e5b2488479216d9171d1b","E1","batch5","","962.5","tol_trial_num","<div class = centerbox><p class = center-block-text>problem <strong>3</strong> out of 25 problems</p></div>","0","","","","","","","","","","","","","","","","","","","","","","","","",""
"","","","","","single-stim-button","44","141766","0.0-2.0-16.0-0.0","5e5e5b2488479216d9171d1b","E1","batch5","","4517","tol_tohand","","","","tol_peg_1","4517","4517","0","[[2,0,0],[0,0],[1]]","1","[[1,2,0],[3,0],[0]]","2","0","","","","","","4","","","","","","","","",""
"","","","","","single-stim-button","45","142450","0.0-2.0-16.0-1.0","5e5e5b2488479216d9171d1b","E1","batch5","","683","tol_toboard","","","","tol_peg_2","683","683","0","[[2,0,0],[3,0],[1]]","1","[[1,2,0],[3,0],[0]]","2","0","","","","","","4","","","","","","","","",""
"","","","","","single-stim-button","46","143333","0.0-2.0-16.1-0.1","5e5e5b2488479216d9171d1b","E1","batch5","","882","tol_tohand","","","","tol_peg_1","882","882","0","[[0,0,0],[3,0],[1]]","2","[[1,2,0],[3,0],[0]]","2","0","","","","","","4","","","","","","","","",""
"","","","","","single-stim-button","47","143949","0.0-2.0-16.1-1.1","5e5e5b2488479216d9171d1b","E1","batch5","","615","tol_toboard","","","","tol_peg_2","615","615","0","[[0,0,0],[3,2],[1]]","2","[[1,2,0],[3,0],[0]]","2","0","","","","","","4","","","","","","","","",""
"","","","","","single-stim-button","48","144566","0.0-2.0-16.2-0.2","5e5e5b2488479216d9171d1b","E1","batch5","","617","tol_tohand","","","","tol_peg_3","617","617","0","[[0,0,0],[3,2],[0]]","3","[[1,2,0],[3,0],[0]]","2","0","","","","","","4","","","","","","","","",""
"","","","","","single-stim-button","49","145399","0.0-2.0-16.2-1.2","5e5e5b2488479216d9171d1b","E1","batch5","","833","tol_toboard","","","","tol_peg_1","833","833","0","[[1,0,0],[3,2],[0]]","3","[[1,2,0],[3,0],[0]]","2","0","","","","","","4","","","","","","","","",""
"","","","","","single-stim-button","50","146050","0.0-2.0-16.3-0.3","5e5e5b2488479216d9171d1b","E1","batch5","","650","tol_tohand","","","","tol_peg_2","650","650","0","[[1,0,0],[3,0],[0]]","4","[[1,2,0],[3,0],[0]]","2","0","","","","","","4","","","","","","","","",""
"","","","","","single-stim-button","51","146667","0.0-2.0-16.3-1.3","5e5e5b2488479216d9171d1b","E1","batch5","","616","tol_toboard","","","","tol_peg_1","616","616","0","[[1,2,0],[3,0],[0]]","4","[[1,2,0],[3,0],[0]]","2","0","","","","","","4","","","","","","","","",""
"","","","","","poldrack-single-stim","52","147671","0.0-2.0-17.0","5e5e5b2488479216d9171d1b","E1","batch5","","-1","tol_feedback","","","true","","1000","1000","500","","","","","","-1","none","true","4517","6666","","","","","","","","","",""
"","","","","","html-button-response","53","148766","0.0-2.0-18.0","5e5e5b2488479216d9171d1b","E1","batch5","","1093.6999998092651","tol_trial_num","<div class = centerbox><p class = center-block-text>problem <strong>4</strong> out of 25 problems</p></div>","0","","","","","","","","","","","","","","","","","","","","","","","","",""
"","","","","","single-stim-button","54","153317","0.0-2.0-19.0-0.0","5e5e5b2488479216d9171d1b","E1","batch5","","4551","tol_tohand","","","","tol_peg_2","4551","4551","0","[[3,0,0],[2,0],[0]]","1","[[3,0,0],[1,0],[2]]","3","0","","","","","","3","","","","","","","","",""
"","","","","","single-stim-button","55","153883","0.0-2.0-19.0-1.0","5e5e5b2488479216d9171d1b","E1","batch5","","565","tol_toboard","","","","tol_peg_1","565","565","0","[[3,1,0],[2,0],[0]]","1","[[3,0,0],[1,0],[2]]","3","0","","","","","","3","","","","","","","","",""
"","","","","","single-stim-button","56","154417","0.0-2.0-19.1-0.1","5e5e5b2488479216d9171d1b","E1","batch5","","532","tol_tohand","","","","tol_peg_2","532","532","0","[[3,1,0],[0,0],[0]]","2","[[3,0,0],[1,0],[2]]","3","0","","","","","","3","","","","","","","","",""
"","","","","","single-stim-button","57","155217","0.0-2.0-19.1-1.1","5e5e5b2488479216d9171d1b","E1","batch5","","800","tol_toboard","","","","tol_peg_3","800","800","0","[[3,1,0],[0,0],[2]]","2","[[3,0,0],[1,0],[2]]","3","0","","","","","","3","","","","","","","","",""
"","","","","","single-stim-button","58","155868","0.0-2.0-19.2-0.2","5e5e5b2488479216d9171d1b","E1","batch5","","650","tol_tohand","","","","tol_peg_1","650","650","0","[[3,0,0],[0,0],[2]]","3","[[3,0,0],[1,0],[2]]","3","0","","","","","","3","","","","","","","","",""
"","","","","","single-stim-button","59","156668","0.0-2.0-19.2-1.2","5e5e5b2488479216d9171d1b","E1","batch5","","799","tol_toboard","","","","tol_peg_2","799","799","0","[[3,0,0],[1,0],[2]]","3","[[3,0,0],[1,0],[2]]","3","0","","","","","","3","","","","","","","","",""
"","","","","","poldrack-single-stim","60","157669","0.0-2.0-20.0","5e5e5b2488479216d9171d1b","E1","batch5","","-1","tol_feedback","","","true","","1000","1000","500","","","","","","-1","none","true","4551","5733","","","","","","","","","",""
"","","","","","html-button-response","61","158650","0.0-2.0-21.0","5e5e5b2488479216d9171d1b","E1","batch5","","980.0999999046326","tol_trial_num","<div class = centerbox><p class = center-block-text>problem <strong>5</strong> out of 25 problems</p></div>","0","","","","","","","","","","","","","","","","","","","","","","","","",""
"","","","","","single-stim-button","62","163306","0.0-2.0-22.0-0.0","5e5e5b2488479216d9171d1b","E1","batch5","","4655","tol_tohand","","","","tol_peg_2","4655","4655","0","[[1,0,0],[0,0],[3]]","1","[[0,0,0],[1,2],[3]]","4","0","","","","","","7","","","","","","","","",""
"","","","","","single-stim-button","63","170977","0.0-2.0-22.0-1.0","5e5e5b2488479216d9171d1b","E1","batch5","","7671","tol_toboard","","","","tol_peg_1","7671","7671","0","[[1,2,0],[0,0],[3]]","1","[[0,0,0],[1,2],[3]]","4","0","","","","","","7","","","","","","","","",""
"","","","","","single-stim-button","64","173812","0.0-2.0-22.1-0.1","5e5e5b2488479216d9171d1b","E1","batch5","","2834","tol_tohand","","","","tol_peg_3","2834","2834","0","[[1,2,0],[0,0],[0]]","2","[[0,0,0],[1,2],[3]]","4","0","","","","","","7","","","","","","","","",""
"","","","","","single-stim-button","65","174446","0.0-2.0-22.1-1.1","5e5e5b2488479216d9171d1b","E1","batch5","","634","tol_toboard","","","","tol_peg_2","634","634","0","[[1,2,0],[3,0],[0]]","2","[[0,0,0],[1,2],[3]]","4","0","","","","","","7","","","","","","","","",""
"","","","","","single-stim-button","66","175347","0.0-2.0-22.2-0.2","5e5e5b2488479216d9171d1b","E1","batch5","","899","tol_tohand","","","","tol_peg_1","899","899","0","[[1,0,0],[3,0],[0]]","3","[[0,0,0],[1,2],[3]]","4","0","","","","","","7","","","","","","","","",""
"","","","","","single-stim-button","67","182482","0.0-2.0-22.2-1.2","5e5e5b2488479216d9171d1b","E1","batch5","","7135","tol_toboard","","","","tol_peg_2","7135","7135","0","[[1,0,0],[3,2],[0]]","3","[[0,0,0],[1,2],[3]]","4","0","","","","","","7","","","","","","","","",""
"","","","","","single-stim-button","68","183750","0.0-2.0-22.3-0.3","5e5e5b2488479216d9171d1b","E1","batch5","","1266","tol_tohand","","","","tol_peg_1","1266","1266","0","[[0,0,0],[3,2],[0]]","4","[[0,0,0],[1,2],[3]]","4","0","","","","","","7","","","","","","","","",""
"","","","","","single-stim-button","69","184517","0.0-2.0-22.3-1.3","5e5e5b2488479216d9171d1b","E1","batch5","","766","tol_toboard","","","","tol_peg_3","766","766","0","[[0,0,0],[3,2],[1]]","4","[[0,0,0],[1,2],[3]]","4","0","","","","","","7","","","","","","","","",""
"","","","","","single-stim-button","70","185100","0.0-2.0-22.4-0.4","5e5e5b2488479216d9171d1b","E1","batch5","","582","tol_tohand","","","","tol_peg_2","582","582","0","[[0,0,0],[3,0],[1]]","5","[[0,0,0],[1,2],[3]]","4","0","","","","","","7","","","","","","","","",""
"","","","","","single-stim-button","71","185684","0.0-2.0-22.4-1.4","5e5e5b2488479216d9171d1b","E1","batch5","","583","tol_toboard","","","","tol_peg_1","583","583","0","[[2,0,0],[3,0],[1]]","5","[[0,0,0],[1,2],[3]]","4","0","","","","","","7","","","","","","","","",""
"","","","","","single-stim-button","72","186500","0.0-2.0-22.5-0.5","5e5e5b2488479216d9171d1b","E1","batch5","","816","tol_tohand","","","","tol_peg_2","816","816","0","[[2,0,0],[0,0],[1]]","6","[[0,0,0],[1,2],[3]]","4","0","","","","","","7","","","","","","","","",""
"","","","","","single-stim-button","73","187017","0.0-2.0-22.5-1.5","5e5e5b2488479216d9171d1b","E1","batch5","","516","tol_toboard","","","","tol_peg_1","516","516","0","[[2,3,0],[0,0],[1]]","6","[[0,0,0],[1,2],[3]]","4","0","","","","","","7","","","","","","","","",""
"","","","","","single-stim-button","74","187767","0.0-2.0-22.6-0.6","5e5e5b2488479216d9171d1b","E1","batch5","","750","tol_tohand","","","","tol_peg_3","750","750","0","[[2,3,0],[0,0],[0]]","7","[[0,0,0],[1,2],[3]]","4","0","","","","","","7","","","","","","","","",""
"","","","","","single-stim-button","75","188351","0.0-2.0-22.6-1.6","5e5e5b2488479216d9171d1b","E1","batch5","","583","tol_toboard","","","","tol_peg_2","583","583","0","[[2,3,0],[1,0],[0]]","7","[[0,0,0],[1,2],[3]]","4","0","","","","","","7","","","","","","","","",""
"","","","","","single-stim-button","76","188901","0.0-2.0-22.7-0.7","5e5e5b2488479216d9171d1b","E1","batch5","","548","tol_tohand","","","","tol_peg_1","548","548","0","[[2,0,0],[1,0],[0]]","8","[[0,0,0],[1,2],[3]]","4","0","","","","","","7","","","","","","","","",""
"","","","","","single-stim-button","77","189817","0.0-2.0-22.7-1.7","5e5e5b2488479216d9171d1b","E1","batch5","","916","tol_toboard","","","","tol_peg_3","916","916","0","[[2,0,0],[1,0],[3]]","8","[[0,0,0],[1,2],[3]]","4","0","","","","","","7","","","","","","","","",""
"","","","","","single-stim-button","78","190485","0.0-2.0-22.8-0.8","5e5e5b2488479216d9171d1b","E1","batch5","","667","tol_tohand","","","","tol_peg_1","667","667","0","[[0,0,0],[1,0],[3]]","9","[[0,0,0],[1,2],[3]]","4","0","","","","","","7","","","","","","","","",""
"","","","","","single-stim-button","79","191051","0.0-2.0-22.8-1.8","5e5e5b2488479216d9171d1b","E1","batch5","","566","tol_toboard","","","","tol_peg_2","566","566","0","[[0,0,0],[1,2],[3]]","9","[[0,0,0],[1,2],[3]]","4","0","","","","","","7","","","","","","","","",""
"","","","","","poldrack-single-stim","80","192061","0.0-2.0-23.0","5e5e5b2488479216d9171d1b","E1","batch5","","-1","tol_feedback","","","true","","1000","1000","500","","","","","","-1","none","true","4655","13017","","","","","","","","","",""
"","","","","","html-button-response","81","193168","0.0-2.0-24.0","5e5e5b2488479216d9171d1b","E1","batch5","","1106.0999999046326","tol_trial_num","<div class = centerbox><p class = center-block-text>problem <strong>6</strong> out of 25 problems</p></div>","0","","","","","","","","","","","","","","","","","","","","","","","","",""
"","","","","","single-stim-button","82","249959","0.0-2.0-25.0-0.0","5e5e5b2488479216d9171d1b","E1","batch5","","56790","tol_tohand","","","","tol_peg_3","56790","56790","0","[[0,0,0],[1,2],[0]]","1","[[1,0,0],[2,3],[0]]","5","0","","","","","","6","","","","","","","","",""
"","","","","","single-stim-button","83","250592","0.0-2.0-25.0-1.0","5e5e5b2488479216d9171d1b","E1","batch5","","632","tol_toboard","","","","tol_peg_1","632","632","0","[[3,0,0],[1,2],[0]]","1","[[1,0,0],[2,3],[0]]","5","0","","","","","","6","","","","","","","","",""
"","","","","","single-stim-button","84","251258","0.0-2.0-25.1-0.1","5e5e5b2488479216d9171d1b","E1","batch5","","666","tol_tohand","","","","tol_peg_2","666","666","0","[[3,0,0],[1,0],[0]]","2","[[1,0,0],[2,3],[0]]","5","0","","","","","","6","","","","","","","","",""
"","","","","","single-stim-button","85","251809","0.0-2.0-25.1-1.1","5e5e5b2488479216d9171d1b","E1","batch5","","550","tol_toboard","","","","tol_peg_1","550","550","0","[[3,2,0],[1,0],[0]]","2","[[1,0,0],[2,3],[0]]","5","0","","","","","","6","","","","","","","","",""
"","","","","","single-stim-button","86","252375","0.0-2.0-25.2-0.2","5e5e5b2488479216d9171d1b","E1","batch5","","566","tol_tohand","","","","tol_peg_2","566","566","0","[[3,2,0],[0,0],[0]]","3","[[1,0,0],[2,3],[0]]","5","0","","","","","","6","","","","","","","","",""
"","","","","","single-stim-button","87","253009","0.0-2.0-25.2-1.2","5e5e5b2488479216d9171d1b","E1","batch5","","633","tol_toboard","","","","tol_peg_3","633","633","0","[[3,2,0],[0,0],[1]]","3","[[1,0,0],[2,3],[0]]","5","0","","","","","","6","","","","","","","","",""
"","","","","","single-stim-button","88","253859","0.0-2.0-25.3-0.3","5e5e5b2488479216d9171d1b","E1","batch5","","850","tol_tohand","","","","tol_peg_1","850","850","0","[[3,0,0],[0,0],[1]]","4","[[1,0,0],[2,3],[0]]","5","0","","","","","","6","","","","","","","","",""
"","","","","","single-stim-button","89","254475","0.0-2.0-25.3-1.3","5e5e5b2488479216d9171d1b","E1","batch5","","616","tol_toboard","","","","tol_peg_2","616","616","0","[[3,0,0],[2,0],[1]]","4","[[1,0,0],[2,3],[0]]","5","0","","","","","","6","","","","","","","","",""
"","","","","","single-stim-button","90","254975","0.0-2.0-25.4-0.4","5e5e5b2488479216d9171d1b","E1","batch5","","499","tol_tohand","","","","tol_peg_1","499","499","0","[[0,0,0],[2,0],[1]]","5","[[1,0,0],[2,3],[0]]","5","0","","","","","","6","","","","","","","","",""
"","","","","","single-stim-button","91","255508","0.0-2.0-25.4-1.4","5e5e5b2488479216d9171d1b","E1","batch5","","532","tol_toboard","","","","tol_peg_2","532","532","0","[[0,0,0],[2,3],[1]]","5","[[1,0,0],[2,3],[0]]","5","0","","","","","","6","","","","","","","","",""
"","","","","","single-stim-button","92","256092","0.0-2.0-25.5-0.5","5e5e5b2488479216d9171d1b","E1","batch5","","583","tol_tohand","","","","tol_peg_3","583","583","0","[[0,0,0],[2,3],[0]]","6","[[1,0,0],[2,3],[0]]","5","0","","","","","","6","","","","","","","","",""
"","","","","","single-stim-button","93","256742","0.0-2.0-25.5-1.5","5e5e5b2488479216d9171d1b","E1","batch5","","650","tol_toboard","","","","tol_peg_1","650","650","0","[[1,0,0],[2,3],[0]]","6","[[1,0,0],[2,3],[0]]","5","0","","","","","","6","","","","","","","","",""
"","","","","","poldrack-single-stim","94","257747","0.0-2.0-26.0","5e5e5b2488479216d9171d1b","E1","batch5","","-1","tol_feedback","","","true","","1000","1000","500","","","","","","-1","none","true","56790","59954","","","","","","","","","",""
"","","","","","html-button-response","95","259026","0.0-2.0-27.0","5e5e5b2488479216d9171d1b","E1","batch5","","1277.7000002861023","tol_trial_num","<div class = centerbox><p class = center-block-text>problem <strong>7</strong> out of 25 problems</p></div>","0","","","","","","","","","","","","","","","","","","","","","","","","",""
"","","","","","single-stim-button","96","266576","0.0-2.0-28.0-0.0","5e5e5b2488479216d9171d1b","E1","batch5","","7550","tol_tohand","","","","tol_peg_3","7550","7550","0","[[2,1,0],[0,0],[0]]","1","[[1,2,0],[3,0],[0]]","6","0","","","","","","5","","","","","","","","",""
"","","","","","single-stim-button","97","267360","0.0-2.0-28.0-1.0","5e5e5b2488479216d9171d1b","E1","batch5","","782","tol_toboard","","","","tol_peg_2","782","782","0","[[2,1,0],[3,0],[0]]","1","[[1,2,0],[3,0],[0]]","6","0","","","","","","5","","","","","","","","",""
"","","","","","single-stim-button","98","270843","0.0-2.0-28.1-0.1","5e5e5b2488479216d9171d1b","E1","batch5","","3483","tol_tohand","","","","tol_peg_1","3483","3483","0","[[2,0,0],[3,0],[0]]","2","[[1,2,0],[3,0],[0]]","6","0","","","","","","5","","","","","","","","",""
"","","","","","single-stim-button","99","271626","0.0-2.0-28.1-1.1","5e5e5b2488479216d9171d1b","E1","batch5","","782","tol_toboard","","","","tol_peg_3","782","782","0","[[2,0,0],[3,0],[1]]","2","[[1,2,0],[3,0],[0]]","6","0","","","","","","5","","","","","","","","",""
"","","","","","single-stim-button","100","272277","0.0-2.0-28.2-0.2","5e5e5b2488479216d9171d1b","E1","batch5","","651","tol_tohand","","","","tol_peg_1","651","651","0","[[0,0,0],[3,0],[1]]","3","[[1,2,0],[3,0],[0]]","6","0","","","","","","5","","","","","","","","",""
"","","","","","single-stim-button","101","272793","0.0-2.0-28.2-1.2","5e5e5b2488479216d9171d1b","E1","batch5","","515","tol_toboard","","","","tol_peg_2","515","515","0","[[0,0,0],[3,2],[1]]","3","[[1,2,0],[3,0],[0]]","6","0","","","","","","5","","","","","","","","",""
"","","","","","single-stim-button","102","273310","0.0-2.0-28.3-0.3","5e5e5b2488479216d9171d1b","E1","batch5","","516","tol_tohand","","","","tol_peg_3","516","516","0","[[0,0,0],[3,2],[0]]","4","[[1,2,0],[3,0],[0]]","6","0","","","","","","5","","","","","","","","",""
"","","","","","single-stim-button","103","273861","0.0-2.0-28.3-1.3","5e5e5b2488479216d9171d1b","E1","batch5","","550","tol_toboard","","","","tol_peg_1","550","550","0","[[1,0,0],[3,2],[0]]","4","[[1,2,0],[3,0],[0]]","6","0","","","","","","5","","","","","","","","",""
"","","","","","single-stim-button","104","274377","0.0-2.0-28.4-0.4","5e5e5b2488479216d9171d1b","E1","batch5","","515","tol_tohand","","","","tol_peg_2","515","515","0","[[1,0,0],[3,0],[0]]","5","[[1,2,0],[3,0],[0]]","6","0","","","","","","5","","","","","","","","",""
"","","","","","single-stim-button","105","274927","0.0-2.0-28.4-1.4","5e5e5b2488479216d9171d1b","E1","batch5","","550","tol_toboard","","","","tol_peg_1","550","550","0","[[1,2,0],[3,0],[0]]","5","[[1,2,0],[3,0],[0]]","6","0","","","","","","5","","","","","","","","",""
"","","","","","poldrack-single-stim","106","275929","0.0-2.0-29.0","5e5e5b2488479216d9171d1b","E1","batch5","","-1","tol_feedback","","","true","","1000","1000","500","","","","","","-1","none","true","7550","12715","","","","","","","","","",""
"","","","","","html-button-response","107","276944","0.0-2.0-30.0","5e5e5b2488479216d9171d1b","E1","batch5","","1014.0999999046326","tol_trial_num","<div class = centerbox><p class = center-block-text>problem <strong>8</strong> out of 25 problems</p></div>","0","","","","","","","","","","","","","","","","","","","","","","","","",""
"","","","","","single-stim-button","108","288662","0.0-2.0-31.0-0.0","5e5e5b2488479216d9171d1b","E1","batch5","","11716","tol_tohand","","","","tol_peg_3","11716","11716","0","[[0,0,0],[2,3],[0]]","1","[[1,2,0],[3,0],[0]]","7","0","","","","","","4","","","","","","","","",""
"","","","","","single-stim-button","109","289333","0.0-2.0-31.0-1.0","5e5e5b2488479216d9171d1b","E1","batch5","","671","tol_toboard","","","","tol_peg_1","671","671","0","[[1,0,0],[2,3],[0]]","1","[[1,2,0],[3,0],[0]]","7","0","","","","","","4","","","","","","","","",""
"","","","","","single-stim-button","110","289928","0.0-2.0-31.1-0.1","5e5e5b2488479216d9171d1b","E1","batch5","","594","tol_tohand","","","","tol_peg_2","594","594","0","[[1,0,0],[2,0],[0]]","2","[[1,2,0],[3,0],[0]]","7","0","","","","","","4","","","","","","","","",""
"","","","","","single-stim-button","111","290445","0.0-2.0-31.1-1.1","5e5e5b2488479216d9171d1b","E1","batch5","","516","tol_toboard","","","","tol_peg_1","516","516","0","[[1,3,0],[2,0],[0]]","2","[[1,2,0],[3,0],[0]]","7","0","","","","","","4","","","","","","","","",""
"","","","","","single-stim-button","112","290962","0.0-2.0-31.2-0.2","5e5e5b2488479216d9171d1b","E1","batch5","","517","tol_tohand","","","","tol_peg_2","517","517","0","[[1,3,0],[0,0],[0]]","3","[[1,2,0],[3,0],[0]]","7","0","","","","","","4","","","","","","","","",""
"","","","","","single-stim-button","113","291662","0.0-2.0-31.2-1.2","5e5e5b2488479216d9171d1b","E1","batch5","","699","tol_toboard","","","","tol_peg_3","699","699","0","[[1,3,0],[0,0],[2]]","3","[[1,2,0],[3,0],[0]]","7","0","","","","","","4","","","","","","","","",""
"","","","","","single-stim-button","114","292278","0.0-2.0-31.3-0.3","5e5e5b2488479216d9171d1b","E1","batch5","","616","tol_tohand","","","","tol_peg_1","616","616","0","[[1,0,0],[0,0],[2]]","4","[[1,2,0],[3,0],[0]]","7","0","","","","","","4","","","","","","","","",""
"","","","","","single-stim-button","115","292978","0.0-2.0-31.3-1.3","5e5e5b2488479216d9171d1b","E1","batch5","","699","tol_toboard","","","","tol_peg_2","699","699","0","[[1,0,0],[3,0],[2]]","4","[[1,2,0],[3,0],[0]]","7","0","","","","","","4","","","","","","","","",""
"","","","","","single-stim-button","116","293529","0.0-2.0-31.4-0.4","5e5e5b2488479216d9171d1b","E1","batch5","","550","tol_tohand","","","","tol_peg_3","550","550","0","[[1,0,0],[3,0],[0]]","5","[[1,2,0],[3,0],[0]]","7","0","","","","","","4","","","","","","","","",""
"","","","","","single-stim-button","117","294079","0.0-2.0-31.4-1.4","5e5e5b2488479216d9171d1b","E1","batch5","","549","tol_toboard","","","","tol_peg_1","549","549","0","[[1,2,0],[3,0],[0]]","5","[[1,2,0],[3,0],[0]]","7","0","","","","","","4","","","","","","","","",""
"","","","","","poldrack-single-stim","118","295080","0.0-2.0-32.0","5e5e5b2488479216d9171d1b","E1","batch5","","-1","tol_feedback","","","true","","1000","1000","500","","","","","","-1","none","true","11716","13993","","","","","","","","","",""
"","","","","","html-button-response","119","296063","0.0-2.0-33.0","5e5e5b2488479216d9171d1b","E1","batch5","","982.0999999046326","tol_trial_num","<div class = centerbox><p class = center-block-text>problem <strong>9</strong> out of 25 problems</p></div>","0","","","","","","","","","","","","","","","","","","","","","","","","",""
"","","","","","single-stim-button","120","307295","0.0-2.0-34.0-0.0","5e5e5b2488479216d9171d1b","E1","batch5","","11232","tol_tohand","","","","tol_peg_3","11232","11232","0","[[3,2,0],[0,0],[0]]","1","[[2,1,0],[3,0],[0]]","8","0","","","","","","6","","","","","","","","",""
"","","","","","single-stim-button","121","307763","0.0-2.0-34.0-1.0","5e5e5b2488479216d9171d1b","E1","batch5","","467","tol_toboard","","","","tol_peg_2","467","467","0","[[3,2,0],[1,0],[0]]","1","[[2,1,0],[3,0],[0]]","8","0","","","","","","6","","","","","","","","",""
"","","","","","single-stim-button","122","308313","0.0-2.0-34.1-0.1","5e5e5b2488479216d9171d1b","E1","batch5","","549","tol_tohand","","","","tol_peg_1","549","549","0","[[3,0,0],[1,0],[0]]","2","[[2,1,0],[3,0],[0]]","8","0","","","","","","6","","","","","","","","",""
"","","","","","single-stim-button","123","308947","0.0-2.0-34.1-1.1","5e5e5b2488479216d9171d1b","E1","batch5","","633","tol_toboard","","","","tol_peg_2","633","633","0","[[3,0,0],[1,2],[0]]","2","[[2,1,0],[3,0],[0]]","8","0","","","","","","6","","","","","","","","",""
"","","","","","single-stim-button","124","309529","0.0-2.0-34.2-0.2","5e5e5b2488479216d9171d1b","E1","batch5","","582","tol_tohand","","","","tol_peg_1","582","582","0","[[0,0,0],[1,2],[0]]","3","[[2,1,0],[3,0],[0]]","8","0","","","","","","6","","","","","","","","",""
"","","","","","single-stim-button","125","310147","0.0-2.0-34.2-1.2","5e5e5b2488479216d9171d1b","E1","batch5","","617","tol_toboard","","","","tol_peg_3","617","617","0","[[0,0,0],[1,2],[3]]","3","[[2,1,0],[3,0],[0]]","8","0","","","","","","6","","","","","","","","",""
"","","","","","single-stim-button","126","310664","0.0-2.0-34.3-0.3","5e5e5b2488479216d9171d1b","E1","batch5","","516","tol_tohand","","","","tol_peg_2","516","516","0","[[0,0,0],[1,0],[3]]","4","[[2,1,0],[3,0],[0]]","8","0","","","","","","6","","","","","","","","",""
"","","","","","single-stim-button","127","311514","0.0-2.0-34.3-1.3","5e5e5b2488479216d9171d1b","E1","batch5","","849","tol_toboard","","","","tol_peg_1","849","849","0","[[2,0,0],[1,0],[3]]","4","[[2,1,0],[3,0],[0]]","8","0","","","","","","6","","","","","","","","",""
"","","","","","single-stim-button","128","312046","0.0-2.0-34.4-0.4","5e5e5b2488479216d9171d1b","E1","batch5","","532","tol_tohand","","","","tol_peg_2","532","532","0","[[2,0,0],[0,0],[3]]","5","[[2,1,0],[3,0],[0]]","8","0","","","","","","6","","","","","","","","",""
"","","","","","single-stim-button","129","312564","0.0-2.0-34.4-1.4","5e5e5b2488479216d9171d1b","E1","batch5","","518","tol_toboard","","","","tol_peg_1","518","518","0","[[2,1,0],[0,0],[3]]","5","[[2,1,0],[3,0],[0]]","8","0","","","","","","6","","","","","","","","",""
"","","","","","single-stim-button","130","313130","0.0-2.0-34.5-0.5","5e5e5b2488479216d9171d1b","E1","batch5","","565","tol_tohand","","","","tol_peg_3","565","565","0","[[2,1,0],[0,0],[0]]","6","[[2,1,0],[3,0],[0]]","8","0","","","","","","6","","","","","","","","",""
"","","","","","single-stim-button","131","313597","0.0-2.0-34.5-1.5","5e5e5b2488479216d9171d1b","E1","batch5","","466","tol_toboard","","","","tol_peg_2","466","466","0","[[2,1,0],[3,0],[0]]","6","[[2,1,0],[3,0],[0]]","8","0","","","","","","6","","","","","","","","",""
"","","","","","poldrack-single-stim","132","314604","0.0-2.0-35.0","5e5e5b2488479216d9171d1b","E1","batch5","","-1","tol_feedback","","","true","","1000","1000","500","","","","","","-1","none","true","11232","13976","","","","","","","","","",""
"","","","","","html-button-response","133","315580","0.0-2.0-36.0","5e5e5b2488479216d9171d1b","E1","batch5","","975.2000002861023","tol_trial_num","<div class = centerbox><p class = center-block-text>problem <strong>10</strong> out of 25 problems</p></div>","0","","","","","","","","","","","","","","","","","","","","","","","","",""
"","","","","","single-stim-button","134","322931","0.0-2.0-37.0-0.0","5e5e5b2488479216d9171d1b","E1","batch5","","7351","tol_tohand","","","","tol_peg_3","7351","7351","0","[[3,0,0],[1,0],[0]]","1","[[3,0,0],[2,1],[0]]","9","0","","","","","","3","","","","","","","","",""
"","","","","","single-stim-button","135","323514","0.0-2.0-37.0-1.0","5e5e5b2488479216d9171d1b","E1","batch5","","582","tol_toboard","","","","tol_peg_1","582","582","0","[[3,2,0],[1,0],[0]]","1","[[3,0,0],[2,1],[0]]","9","0","","","","","","3","","","","","","","","",""
"","","","","","single-stim-button","136","324064","0.0-2.0-37.1-0.1","5e5e5b2488479216d9171d1b","E1","batch5","","549","tol_tohand","","","","tol_peg_2","549","549","0","[[3,2,0],[0,0],[0]]","2","[[3,0,0],[2,1],[0]]","9","0","","","","","","3","","","","","","","","",""
"","","","","","single-stim-button","137","324663","0.0-2.0-37.1-1.1","5e5e5b2488479216d9171d1b","E1","batch5","","598","tol_toboard","","","","tol_peg_3","598","598","0","[[3,2,0],[0,0],[1]]","2","[[3,0,0],[2,1],[0]]","9","0","","","","","","3","","","","","","","","",""
"","","","","","single-stim-button","138","325265","0.0-2.0-37.2-0.2","5e5e5b2488479216d9171d1b","E1","batch5","","600","tol_tohand","","","","tol_peg_1","600","600","0","[[3,0,0],[0,0],[1]]","3","[[3,0,0],[2,1],[0]]","9","0","","","","","","3","","","","","","","","",""
"","","","","","single-stim-button","139","325848","0.0-2.0-37.2-1.2","5e5e5b2488479216d9171d1b","E1","batch5","","582","tol_toboard","","","","tol_peg_2","582","582","0","[[3,0,0],[2,0],[1]]","3","[[3,0,0],[2,1],[0]]","9","0","","","","","","3","","","","","","","","",""
"","","","","","single-stim-button","140","326448","0.0-2.0-37.3-0.3","5e5e5b2488479216d9171d1b","E1","batch5","","600","tol_tohand","","","","tol_peg_3","600","600","0","[[3,0,0],[2,0],[0]]","4","[[3,0,0],[2,1],[0]]","9","0","","","","","","3","","","","","","","","",""
"","","","","","single-stim-button","141","327315","0.0-2.0-37.3-1.3","5e5e5b2488479216d9171d1b","E1","batch5","","866","tol_toboard","","","","tol_peg_2","866","866","0","[[3,0,0],[2,1],[0]]","4","[[3,0,0],[2,1],[0]]","9","0","","","","","","3","","","","","","","","",""
"","","","","","poldrack-single-stim","142","328319","0.0-2.0-38.0","5e5e5b2488479216d9171d1b","E1","batch5","","-1","tol_feedback","","","true","","1000","1000","500","","","","","","-1","none","true","7351","9100","","","","","","","","","",""
"","","","","","html-button-response","143","329248","0.0-2.0-39.0","5e5e5b2488479216d9171d1b","E1","batch5","","928.3999996185303","tol_trial_num","<div class = centerbox><p class = center-block-text>problem <strong>11</strong> out of 25 problems</p></div>","0","","","","","","","","","","","","","","","","","","","","","","","","",""
"","","","","","single-stim-button","144","339999","0.0-2.0-40.0-0.0","5e5e5b2488479216d9171d1b","E1","batch5","","10750","tol_tohand","","","","tol_peg_1","10750","10750","0","[[1,0,0],[3,0],[0]]","1","[[2,0,0],[1,3],[0]]","10","0","","","","","","6","","","","","","","","",""
"","","","","","single-stim-button","145","340549","0.0-2.0-40.0-1.0","5e5e5b2488479216d9171d1b","E1","batch5","","548","tol_toboard","","","","tol_peg_2","548","548","0","[[1,0,0],[3,2],[0]]","1","[[2,0,0],[1,3],[0]]","10","0","","","","","","6","","","","","","","","",""
"","","","","","single-stim-button","146","341149","0.0-2.0-40.1-0.1","5e5e5b2488479216d9171d1b","E1","batch5","","600","tol_tohand","","","","tol_peg_1","600","600","0","[[0,0,0],[3,2],[0]]","2","[[2,0,0],[1,3],[0]]","10","0","","","","","","6","","","","","","","","",""
"","","","","","single-stim-button","147","342033","0.0-2.0-40.1-1.1","5e5e5b2488479216d9171d1b","E1","batch5","","882","tol_toboard","","","","tol_peg_3","882","882","0","[[0,0,0],[3,2],[1]]","2","[[2,0,0],[1,3],[0]]","10","0","","","","","","6","","","","","","","","",""
"","","","","","single-stim-button","148","342716","0.0-2.0-40.2-0.2","5e5e5b2488479216d9171d1b","E1","batch5","","683","tol_tohand","","","","tol_peg_2","683","683","0","[[0,0,0],[3,0],[1]]","3","[[2,0,0],[1,3],[0]]","10","0","","","","","","6","","","","","","","","",""
"","","","","","single-stim-button","149","343565","0.0-2.0-40.2-1.2","5e5e5b2488479216d9171d1b","E1","batch5","","848","tol_toboard","","","","tol_peg_1","848","848","0","[[2,0,0],[3,0],[1]]","3","[[2,0,0],[1,3],[0]]","10","0","","","","","","6","","","","","","","","",""
"","","","","","single-stim-button","150","345333","0.0-2.0-40.3-0.3","5e5e5b2488479216d9171d1b","E1","batch5","","1766","tol_tohand","","","","tol_peg_2","1766","1766","0","[[2,0,0],[0,0],[1]]","4","[[2,0,0],[1,3],[0]]","10","0","","","","","","6","","","","","","","","",""
"","","","","","single-stim-button","151","345916","0.0-2.0-40.3-1.3","5e5e5b2488479216d9171d1b","E1","batch5","","583","tol_toboard","","","","tol_peg_1","583","583","0","[[2,3,0],[0,0],[1]]","4","[[2,0,0],[1,3],[0]]","10","0","","","","","","6","","","","","","","","",""
"","","","","","single-stim-button","152","346533","0.0-2.0-40.4-0.4","5e5e5b2488479216d9171d1b","E1","batch5","","616","tol_tohand","","","","tol_peg_3","616","616","0","[[2,3,0],[0,0],[0]]","5","[[2,0,0],[1,3],[0]]","10","0","","","","","","6","","","","","","","","",""
"","","","","","single-stim-button","153","347133","0.0-2.0-40.4-1.4","5e5e5b2488479216d9171d1b","E1","batch5","","600","tol_toboard","","","","tol_peg_2","600","600","0","[[2,3,0],[1,0],[0]]","5","[[2,0,0],[1,3],[0]]","10","0","","","","","","6","","","","","","","","",""
"","","","","","single-stim-button","154","347750","0.0-2.0-40.5-0.5","5e5e5b2488479216d9171d1b","E1","batch5","","617","tol_tohand","","","","tol_peg_1","617","617","0","[[2,0,0],[1,0],[0]]","6","[[2,0,0],[1,3],[0]]","10","0","","","","","","6","","","","","","","","",""
"","","","","","single-stim-button","155","348516","0.0-2.0-40.5-1.5","5e5e5b2488479216d9171d1b","E1","batch5","","766","tol_toboard","","","","tol_peg_2","766","766","0","[[2,0,0],[1,3],[0]]","6","[[2,0,0],[1,3],[0]]","10","0","","","","","","6","","","","","","","","",""
"","","","","","poldrack-single-stim","156","349518","0.0-2.0-41.0","5e5e5b2488479216d9171d1b","E1","batch5","","-1","tol_feedback","","","true","","1000","1000","500","","","","","","-1","none","true","10750","15032","","","","","","","","","",""
"","","","","","html-button-response","157","350533","0.0-2.0-42.0","5e5e5b2488479216d9171d1b","E1","batch5","","1014.9000000953674","tol_trial_num","<div class = centerbox><p class = center-block-text>problem <strong>12</strong> out of 25 problems</p></div>","0","","","","","","","","","","","","","","","","","","","","","","","","",""
"","","","","","single-stim-button","158","355400","0.0-2.0-43.0-0.0","5e5e5b2488479216d9171d1b","E1","batch5","","4866","tol_tohand","","","","tol_peg_1","4866","4866","0","[[1,0,0],[3,0],[0]]","1","[[2,3,0],[0,0],[1]]","11","0","","","","","","4","","","","","","","","",""
"","","","","","single-stim-button","159","356050","0.0-2.0-43.0-1.0","5e5e5b2488479216d9171d1b","E1","batch5","","649","tol_toboard","","","","tol_peg_2","649","649","0","[[1,0,0],[3,2],[0]]","1","[[2,3,0],[0,0],[1]]","11","0","","","","","","4","","","","","","","","",""
"","","","","","single-stim-button","160","356751","0.0-2.0-43.1-0.1","5e5e5b2488479216d9171d1b","E1","batch5","","699","tol_tohand","","","","tol_peg_1","699","699","0","[[0,0,0],[3,2],[0]]","2","[[2,3,0],[0,0],[1]]","11","0","","","","","","4","","","","","","","","",""
"","","","","","single-stim-button","161","357601","0.0-2.0-43.1-1.1","5e5e5b2488479216d9171d1b","E1","batch5","","849","tol_toboard","","","","tol_peg_3","849","849","0","[[0,0,0],[3,2],[1]]","2","[[2,3,0],[0,0],[1]]","11","0","","","","","","4","","","","","","","","",""
"","","","","","single-stim-button","162","360134","0.0-2.0-43.2-0.2","5e5e5b2488479216d9171d1b","E1","batch5","","2533","tol_tohand","","","","tol_peg_2","2533","2533","0","[[0,0,0],[3,0],[1]]","3","[[2,3,0],[0,0],[1]]","11","0","","","","","","4","","","","","","","","",""
"","","","","","single-stim-button","163","360801","0.0-2.0-43.2-1.2","5e5e5b2488479216d9171d1b","E1","batch5","","666","tol_toboard","","","","tol_peg_1","666","666","0","[[2,0,0],[3,0],[1]]","3","[[2,3,0],[0,0],[1]]","11","0","","","","","","4","","","","","","","","",""
"","","","","","single-stim-button","164","362118","0.0-2.0-43.3-0.3","5e5e5b2488479216d9171d1b","E1","batch5","","1316","tol_tohand","","","","tol_peg_2","1316","1316","0","[[2,0,0],[0,0],[1]]","4","[[2,3,0],[0,0],[1]]","11","0","","","","","","4","","","","","","","","",""
"","","","","","single-stim-button","165","363184","0.0-2.0-43.3-1.3","5e5e5b2488479216d9171d1b","E1","batch5","","1066","tol_toboard","","","","tol_peg_1","1066","1066","0","[[2,3,0],[0,0],[1]]","4","[[2,3,0],[0,0],[1]]","11","0","","","","","","4","","","","","","","","",""
"","","","","","poldrack-single-stim","166","364189","0.0-2.0-44.0","5e5e5b2488479216d9171d1b","E1","batch5","","-1","tol_feedback","","","true","","1000","1000","500","","","","","","-1","none","true","4866","9414","","","","","","","","","",""
"","","","","","html-button-response","167","365318","0.0-2.0-45.0","5e5e5b2488479216d9171d1b","E1","batch5","","1128.1999998092651","tol_trial_num","<div class = centerbox><p class = center-block-text>problem <strong>13</strong> out of 25 problems</p></div>","0","","","","","","","","","","","","","","","","","","","","","","","","",""
"","","","","","single-stim-button","168","369535","0.0-2.0-46.0-0.0","5e5e5b2488479216d9171d1b","E1","batch5","","4215","tol_tohand","","","","tol_peg_2","4215","4215","0","[[1,2,0],[0,0],[0]]","1","[[0,0,0],[2,3],[1]]","12","0","","","","","","4","","","","","","","","",""
"","","","","","single-stim-button","169","370118","0.0-2.0-46.0-1.0","5e5e5b2488479216d9171d1b","E1","batch5","","582","tol_toboard","","","","tol_peg_3","582","582","0","[[1,2,0],[0,0],[3]]","1","[[0,0,0],[2,3],[1]]","12","0","","","","","","4","","","","","","","","",""
"","","","","","single-stim-button","170","370918","0.0-2.0-46.1-0.1","5e5e5b2488479216d9171d1b","E1","batch5","","800","tol_tohand","","","","tol_peg_1","800","800","0","[[1,0,0],[0,0],[3]]","2","[[0,0,0],[2,3],[1]]","12","0","","","","","","4","","","","","","","","",""
"","","","","","single-stim-button","171","371602","0.0-2.0-46.1-1.1","5e5e5b2488479216d9171d1b","E1","batch5","","683","tol_toboard","","","","tol_peg_2","683","683","0","[[1,0,0],[2,0],[3]]","2","[[0,0,0],[2,3],[1]]","12","0","","","","","","4","","","","","","","","",""
"","","","","","single-stim-button","172","372135","0.0-2.0-46.2-0.2","5e5e5b2488479216d9171d1b","E1","batch5","","532","tol_tohand","","","","tol_peg_3","532","532","0","[[1,0,0],[2,0],[0]]","3","[[0,0,0],[2,3],[1]]","12","0","","","","","","4","","","","","","","","",""
"","","","","","single-stim-button","173","372668","0.0-2.0-46.2-1.2","5e5e5b2488479216d9171d1b","E1","batch5","","533","tol_toboard","","","","tol_peg_2","533","533","0","[[1,0,0],[2,3],[0]]","3","[[0,0,0],[2,3],[1]]","12","0","","","","","","4","","","","","","","","",""
"","","","","","single-stim-button","174","373202","0.0-2.0-46.3-0.3","5e5e5b2488479216d9171d1b","E1","batch5","","533","tol_tohand","","","","tol_peg_1","533","533","0","[[0,0,0],[2,3],[0]]","4","[[0,0,0],[2,3],[1]]","12","0","","","","","","4","","","","","","","","",""
"","","","","","single-stim-button","175","373852","0.0-2.0-46.3-1.3","5e5e5b2488479216d9171d1b","E1","batch5","","649","tol_toboard","","","","tol_peg_3","649","649","0","[[0,0,0],[2,3],[1]]","4","[[0,0,0],[2,3],[1]]","12","0","","","","","","4","","","","","","","","",""
"","","","","","poldrack-single-stim","176","374862","0.0-2.0-47.0","5e5e5b2488479216d9171d1b","E1","batch5","","-1","tol_feedback","","","true","","1000","1000","500","","","","","","-1","none","true","4215","6080","","","","","","","","","",""
"","","","","","html-button-response","177","377953","0.0-2.0-48.0","5e5e5b2488479216d9171d1b","E1","batch5","","3090.199999809265","attention_check","<p class = block-text>How many balls are in your board<br></p>","1","true","","","","","","","","","","","","","","","","","","","","","","","",""
"","","","","","html-button-response","178","380819","0.0-2.0-49.0","5e5e5b2488479216d9171d1b","E1","batch5","","2865.5999999046326","tol_trial_num","<div class = centerbox><p class = center-block-text>problem <strong>14</strong> out of 25 problems</p></div>","0","","","","","","","","","","","","","","","","","","","","","","","","",""
"","","","","","single-stim-button","179","387587","0.0-2.0-50.0-0.0","5e5e5b2488479216d9171d1b","E1","batch5","","6766","tol_tohand","","","","tol_peg_1","6766","6766","0","[[2,0,0],[3,0],[0]]","1","[[1,2,0],[3,0],[0]]","13","0","","","","","","4","","","","","","","","",""
"","","","","","single-stim-button","180","388587","0.0-2.0-50.0-1.0","5e5e5b2488479216d9171d1b","E1","batch5","","999","tol_toboard","","","","tol_peg_2","999","999","0","[[2,0,0],[3,1],[0]]","1","[[1,2,0],[3,0],[0]]","13","0","","","","","","4","","","","","","","","",""
"","","","","","single-stim-button","181","389153","0.0-2.0-50.1-0.1","5e5e5b2488479216d9171d1b","E1","batch5","","566","tol_tohand","","","","tol_peg_1","566","566","0","[[0,0,0],[3,1],[0]]","2","[[1,2,0],[3,0],[0]]","13","0","","","","","","4","","","","","","","","",""
"","","","","","single-stim-button","182","389803","0.0-2.0-50.1-1.1","5e5e5b2488479216d9171d1b","E1","batch5","","649","tol_toboard","","","","tol_peg_3","649","649","0","[[0,0,0],[3,1],[2]]","2","[[1,2,0],[3,0],[0]]","13","0","","","","","","4","","","","","","","","",""
"","","","","","single-stim-button","183","390437","0.0-2.0-50.2-0.2","5e5e5b2488479216d9171d1b","E1","batch5","","632","tol_tohand","","","","tol_peg_2","632","632","0","[[0,0,0],[3,0],[2]]","3","[[1,2,0],[3,0],[0]]","13","0","","","","","","4","","","","","","","","",""
"","","","","","single-stim-button","184","391087","0.0-2.0-50.2-1.2","5e5e5b2488479216d9171d1b","E1","batch5","","649","tol_toboard","","","","tol_peg_1","649","649","0","[[1,0,0],[3,0],[2]]","3","[[1,2,0],[3,0],[0]]","13","0","","","","","","4","","","","","","","","",""
"","","","","","single-stim-button","185","391720","0.0-2.0-50.3-0.3","5e5e5b2488479216d9171d1b","E1","batch5","","632","tol_tohand","","","","tol_peg_3","632","632","0","[[1,0,0],[3,0],[0]]","4","[[1,2,0],[3,0],[0]]","13","0","","","","","","4","","","","","","","","",""
"","","","","","single-stim-button","186","392287","0.0-2.0-50.3-1.3","5e5e5b2488479216d9171d1b","E1","batch5","","565","tol_toboard","","","","tol_peg_1","565","565","0","[[1,2,0],[3,0],[0]]","4","[[1,2,0],[3,0],[0]]","13","0","","","","","","4","","","","","","","","",""
"","","","","","poldrack-single-stim","187","393292","0.0-2.0-51.0","5e5e5b2488479216d9171d1b","E1","batch5","","-1","tol_feedback","","","true","","1000","1000","500","","","","","","-1","none","true","6766","8596","","","","","","","","","",""
"","","","","","html-button-response","188","394637","0.0-2.0-52.0","5e5e5b2488479216d9171d1b","E1","batch5","","1344.5","tol_trial_num","<div class = centerbox><p class = center-block-text>problem <strong>15</strong> out of 25 problems</p></div>","0","","","","","","","","","","","","","","","","","","","","","","","","",""
"","","","","","single-stim-button","189","399954","0.0-2.0-53.0-0.0","5e5e5b2488479216d9171d1b","E1","batch5","","5316","tol_tohand","","","","tol_peg_1","5316","5316","0","[[1,0,0],[3,0],[0]]","1","[[2,0,0],[3,0],[1]]","14","0","","","","","","3","","","","","","","","",""
"","","","","","single-stim-button","190","400671","0.0-2.0-53.0-1.0","5e5e5b2488479216d9171d1b","E1","batch5","","717","tol_toboard","","","","tol_peg_2","717","717","0","[[1,0,0],[3,2],[0]]","1","[[2,0,0],[3,0],[1]]","14","0","","","","","","3","","","","","","","","",""
"","","","","","single-stim-button","191","401237","0.0-2.0-53.1-0.1","5e5e5b2488479216d9171d1b","E1","batch5","","566","tol_tohand","","","","tol_peg_1","566","566","0","[[0,0,0],[3,2],[0]]","2","[[2,0,0],[3,0],[1]]","14","0","","","","","","3","","","","","","","","",""
"","","","","","single-stim-button","192","401872","0.0-2.0-53.1-1.1","5e5e5b2488479216d9171d1b","E1","batch5","","633","tol_toboard","","","","tol_peg_3","633","633","0","[[0,0,0],[3,2],[1]]","2","[[2,0,0],[3,0],[1]]","14","0","","","","","","3","","","","","","","","",""
"","","","","","single-stim-button","193","402404","0.0-2.0-53.2-0.2","5e5e5b2488479216d9171d1b","E1","batch5","","532","tol_tohand","","","","tol_peg_2","532","532","0","[[0,0,0],[3,0],[1]]","3","[[2,0,0],[3,0],[1]]","14","0","","","","","","3","","","","","","","","",""
"","","","","","single-stim-button","194","403155","0.0-2.0-53.2-1.2","5e5e5b2488479216d9171d1b","E1","batch5","","750","tol_toboard","","","","tol_peg_1","750","750","0","[[2,0,0],[3,0],[1]]","3","[[2,0,0],[3,0],[1]]","14","0","","","","","","3","","","","","","","","",""
"","","","","","poldrack-single-stim","195","404164","0.0-2.0-54.0","5e5e5b2488479216d9171d1b","E1","batch5","","-1","tol_feedback","","","true","","1000","1000","500","","","","","","-1","none","true","5316","6414","","","","","","","","","",""
"","","","","","html-button-response","196","405420","0.0-2.0-55.0","5e5e5b2488479216d9171d1b","E1","batch5","","1255.3000001907349","tol_trial_num","<div class = centerbox><p class = center-block-text>problem <strong>16</strong> out of 25 problems</p></div>","0","","","","","","","","","","","","","","","","","","","","","","","","",""
"","","","","","single-stim-button","197","409573","0.0-2.0-56.0-0.0","5e5e5b2488479216d9171d1b","E1","batch5","","4151","tol_tohand","","","","tol_peg_2","4151","4151","0","[[0,0,0],[2,0],[1]]","1","[[2,3,0],[1,0],[0]]","15","0","","","","","","7","","","","","","","","",""
"","","","","","single-stim-button","198","411855","0.0-2.0-56.0-1.0","5e5e5b2488479216d9171d1b","E1","batch5","","2282","tol_toboard","","","","tol_peg_1","2282","2282","0","[[3,0,0],[2,0],[1]]","1","[[2,3,0],[1,0],[0]]","15","0","","","","","","7","","","","","","","","",""
"","","","","","single-stim-button","199","413322","0.0-2.0-56.1-0.1","5e5e5b2488479216d9171d1b","E1","batch5","","1466","tol_tohand","","","","tol_peg_2","1466","1466","0","[[3,0,0],[0,0],[1]]","2","[[2,3,0],[1,0],[0]]","15","0","","","","","","7","","","","","","","","",""
"","","","","","single-stim-button","200","413889","0.0-2.0-56.1-1.1","5e5e5b2488479216d9171d1b","E1","batch5","","566","tol_toboard","","","","tol_peg_1","566","566","0","[[3,2,0],[0,0],[1]]","2","[[2,3,0],[1,0],[0]]","15","0","","","","","","7","","","","","","","","",""
"","","","","","single-stim-button","201","414555","0.0-2.0-56.2-0.2","5e5e5b2488479216d9171d1b","E1","batch5","","666","tol_tohand","","","","tol_peg_3","666","666","0","[[3,2,0],[0,0],[0]]","3","[[2,3,0],[1,0],[0]]","15","0","","","","","","7","","","","","","","","",""
"","","","","","single-stim-button","202","415237","0.0-2.0-56.2-1.2","5e5e5b2488479216d9171d1b","E1","batch5","","681","tol_toboard","","","","tol_peg_2","681","681","0","[[3,2,0],[1,0],[0]]","3","[[2,3,0],[1,0],[0]]","15","0","","","","","","7","","","","","","","","",""
"","","","","","single-stim-button","203","416189","0.0-2.0-56.3-0.3","5e5e5b2488479216d9171d1b","E1","batch5","","950","tol_tohand","","","","tol_peg_1","950","950","0","[[3,0,0],[1,0],[0]]","4","[[2,3,0],[1,0],[0]]","15","0","","","","","","7","","","","","","","","",""
"","","","","","single-stim-button","204","416922","0.0-2.0-56.3-1.3","5e5e5b2488479216d9171d1b","E1","batch5","","733","tol_toboard","","","","tol_peg_2","733","733","0","[[3,0,0],[1,2],[0]]","4","[[2,3,0],[1,0],[0]]","15","0","","","","","","7","","","","","","","","",""
"","","","","","single-stim-button","205","417622","0.0-2.0-56.4-0.4","5e5e5b2488479216d9171d1b","E1","batch5","","700","tol_tohand","","","","tol_peg_1","700","700","0","[[0,0,0],[1,2],[0]]","5","[[2,3,0],[1,0],[0]]","15","0","","","","","","7","","","","","","","","",""
"","","","","","single-stim-button","206","418505","0.0-2.0-56.4-1.4","5e5e5b2488479216d9171d1b","E1","batch5","","882","tol_toboard","","","","tol_peg_3","882","882","0","[[0,0,0],[1,2],[3]]","5","[[2,3,0],[1,0],[0]]","15","0","","","","","","7","","","","","","","","",""
"","","","","","single-stim-button","207","419156","0.0-2.0-56.5-0.5","5e5e5b2488479216d9171d1b","E1","batch5","","650","tol_tohand","","","","tol_peg_2","650","650","0","[[0,0,0],[1,0],[3]]","6","[[2,3,0],[1,0],[0]]","15","0","","","","","","7","","","","","","","","",""
"","","","","","single-stim-button","208","419739","0.0-2.0-56.5-1.5","5e5e5b2488479216d9171d1b","E1","batch5","","582","tol_toboard","","","","tol_peg_1","582","582","0","[[2,0,0],[1,0],[3]]","6","[[2,3,0],[1,0],[0]]","15","0","","","","","","7","","","","","","","","",""
"","","","","","single-stim-button","209","420456","0.0-2.0-56.6-0.6","5e5e5b2488479216d9171d1b","E1","batch5","","717","tol_tohand","","","","tol_peg_3","717","717","0","[[2,0,0],[1,0],[0]]","7","[[2,3,0],[1,0],[0]]","15","0","","","","","","7","","","","","","","","",""
"","","","","","single-stim-button","210","421256","0.0-2.0-56.6-1.6","5e5e5b2488479216d9171d1b","E1","batch5","","799","tol_toboard","","","","tol_peg_1","799","799","0","[[2,3,0],[1,0],[0]]","7","[[2,3,0],[1,0],[0]]","15","0","","","","","","7","","","","","","","","",""
"","","","","","poldrack-single-stim","211","422260","0.0-2.0-57.0","5e5e5b2488479216d9171d1b","E1","batch5","","-1","tol_feedback","","","true","","1000","1000","500","","","","","","-1","none","true","4151","9300","","","","","","","","","",""
"","","","","","html-button-response","212","423189","0.0-2.0-58.0","5e5e5b2488479216d9171d1b","E1","batch5","","928.2999997138977","tol_trial_num","<div class = centerbox><p class = center-block-text>problem <strong>17</strong> out of 25 problems</p></div>","0","","","","","","","","","","","","","","","","","","","","","","","","",""
"","","","","","single-stim-button","213","430240","0.0-2.0-59.0-0.0","5e5e5b2488479216d9171d1b","E1","batch5","","7049","tol_tohand","","","","tol_peg_2","7049","7049","0","[[1,2,0],[0,0],[0]]","1","[[3,1,0],[2,0],[0]]","16","0","","","","","","5","","","","","","","","",""
"","","","","","single-stim-button","214","430824","0.0-2.0-59.0-1.0","5e5e5b2488479216d9171d1b","E1","batch5","","583","tol_toboard","","","","tol_peg_3","583","583","0","[[1,2,0],[0,0],[3]]","1","[[3,1,0],[2,0],[0]]","16","0","","","","","","5","","","","","","","","",""
"","","","","","single-stim-button","215","431657","0.0-2.0-59.1-0.1","5e5e5b2488479216d9171d1b","E1","batch5","","833","tol_tohand","","","","tol_peg_1","833","833","0","[[1,0,0],[0,0],[3]]","2","[[3,1,0],[2,0],[0]]","16","0","","","","","","5","","","","","","","","",""
"","","","","","single-stim-button","216","432907","0.0-2.0-59.1-1.1","5e5e5b2488479216d9171d1b","E1","batch5","","1249","tol_toboard","","","","tol_peg_2","1249","1249","0","[[1,0,0],[2,0],[3]]","2","[[3,1,0],[2,0],[0]]","16","0","","","","","","5","","","","","","","","",""
"","","","","","single-stim-button","217","434957","0.0-2.0-59.2-0.2","5e5e5b2488479216d9171d1b","E1","batch5","","2049","tol_tohand","","","","tol_peg_1","2049","2049","0","[[0,0,0],[2,0],[3]]","3","[[3,1,0],[2,0],[0]]","16","0","","","","","","5","","","","","","","","",""
"","","","","","single-stim-button","218","435707","0.0-2.0-59.2-1.2","5e5e5b2488479216d9171d1b","E1","batch5","","750","tol_toboard","","","","tol_peg_2","750","750","0","[[0,0,0],[2,1],[3]]","3","[[3,1,0],[2,0],[0]]","16","0","","","","","","5","","","","","","","","",""
"","","","","","single-stim-button","219","436407","0.0-2.0-59.3-0.3","5e5e5b2488479216d9171d1b","E1","batch5","","700","tol_tohand","","","","tol_peg_3","700","700","0","[[0,0,0],[2,1],[0]]","4","[[3,1,0],[2,0],[0]]","16","0","","","","","","5","","","","","","","","",""
"","","","","","single-stim-button","220","437591","0.0-2.0-59.3-1.3","5e5e5b2488479216d9171d1b","E1","batch5","","1182","tol_toboard","","","","tol_peg_1","1182","1182","0","[[3,0,0],[2,1],[0]]","4","[[3,1,0],[2,0],[0]]","16","0","","","","","","5","","","","","","","","",""
"","","","","","single-stim-button","221","438290","0.0-2.0-59.4-0.4","5e5e5b2488479216d9171d1b","E1","batch5","","699","tol_tohand","","","","tol_peg_2","699","699","0","[[3,0,0],[2,0],[0]]","5","[[3,1,0],[2,0],[0]]","16","0","","","","","","5","","","","","","","","",""
"","","","","","single-stim-button","222","438857","0.0-2.0-59.4-1.4","5e5e5b2488479216d9171d1b","E1","batch5","","566","tol_toboard","","","","tol_peg_1","566","566","0","[[3,1,0],[2,0],[0]]","5","[[3,1,0],[2,0],[0]]","16","0","","","","","","5","","","","","","","","",""
"","","","","","poldrack-single-stim","223","439867","0.0-2.0-60.0","5e5e5b2488479216d9171d1b","E1","batch5","","-1","tol_feedback","","","true","","1000","1000","500","","","","","","-1","none","true","7049","11330","","","","","","","","","",""
"","","","","","html-button-response","224","440824","0.0-2.0-61.0","5e5e5b2488479216d9171d1b","E1","batch5","","956.3000001907349","tol_trial_num","<div class = centerbox><p class = center-block-text>problem <strong>18</strong> out of 25 problems</p></div>","0","","","","","","","","","","","","","","","","","","","","","","","","",""
"","","","","","single-stim-button","225","446175","0.0-2.0-62.0-0.0","5e5e5b2488479216d9171d1b","E1","batch5","","5350","tol_tohand","","","","tol_peg_1","5350","5350","0","[[1,0,0],[3,0],[0]]","1","[[3,0,0],[2,0],[1]]","17","0","","","","","","5","","","","","","","","",""
"","","","","","single-stim-button","226","446924","0.0-2.0-62.0-1.0","5e5e5b2488479216d9171d1b","E1","batch5","","749","tol_toboard","","","","tol_peg_2","749","749","0","[[1,0,0],[3,2],[0]]","1","[[3,0,0],[2,0],[1]]","17","0","","","","","","5","","","","","","","","",""
"","","","","","single-stim-button","227","447558","0.0-2.0-62.1-0.1","5e5e5b2488479216d9171d1b","E1","batch5","","634","tol_tohand","","","","tol_peg_1","634","634","0","[[0,0,0],[3,2],[0]]","2","[[3,0,0],[2,0],[1]]","17","0","","","","","","5","","","","","","","","",""
"","","","","","single-stim-button","228","448408","0.0-2.0-62.1-1.1","5e5e5b2488479216d9171d1b","E1","batch5","","849","tol_toboard","","","","tol_peg_3","849","849","0","[[0,0,0],[3,2],[1]]","2","[[3,0,0],[2,0],[1]]","17","0","","","","","","5","","","","","","","","",""
"","","","","","single-stim-button","229","454126","0.0-2.0-62.2-0.2","5e5e5b2488479216d9171d1b","E1","batch5","","5716","tol_tohand","","","","tol_peg_2","5716","5716","0","[[0,0,0],[3,0],[1]]","3","[[3,0,0],[2,0],[1]]","17","0","","","","","","5","","","","","","","","",""
"","","","","","single-stim-button","230","454792","0.0-2.0-62.2-1.2","5e5e5b2488479216d9171d1b","E1","batch5","","666","tol_toboard","","","","tol_peg_1","666","666","0","[[2,0,0],[3,0],[1]]","3","[[3,0,0],[2,0],[1]]","17","0","","","","","","5","","","","","","","","",""
"","","","","","single-stim-button","231","455376","0.0-2.0-62.3-0.3","5e5e5b2488479216d9171d1b","E1","batch5","","583","tol_tohand","","","","tol_peg_2","583","583","0","[[2,0,0],[0,0],[1]]","4","[[3,0,0],[2,0],[1]]","17","0","","","","","","5","","","","","","","","",""
"","","","","","single-stim-button","232","456009","0.0-2.0-62.3-1.3","5e5e5b2488479216d9171d1b","E1","batch5","","633","tol_toboard","","","","tol_peg_1","633","633","0","[[2,3,0],[0,0],[1]]","4","[[3,0,0],[2,0],[1]]","17","0","","","","","","5","","","","","","","","",""
"","","","","","single-stim-button","233","456592","0.0-2.0-62.4-0.4","5e5e5b2488479216d9171d1b","E1","batch5","","582","tol_tohand","","","","tol_peg_3","582","582","0","[[2,3,0],[0,0],[0]]","5","[[3,0,0],[2,0],[1]]","17","0","","","","","","5","","","","","","","","",""
"","","","","","single-stim-button","234","457209","0.0-2.0-62.4-1.4","5e5e5b2488479216d9171d1b","E1","batch5","","617","tol_toboard","","","","tol_peg_2","617","617","0","[[2,3,0],[1,0],[0]]","5","[[3,0,0],[2,0],[1]]","17","0","","","","","","5","","","","","","","","",""
"","","","","","single-stim-button","235","460426","0.0-2.0-62.5-0.5","5e5e5b2488479216d9171d1b","E1","batch5","","3217","tol_tohand","","","","tol_peg_1","3217","3217","0","[[2,0,0],[1,0],[0]]","6","[[3,0,0],[2,0],[1]]","17","0","","","","","","5","","","","","","","","",""
"","","","","","single-stim-button","236","461143","0.0-2.0-62.5-1.5","5e5e5b2488479216d9171d1b","E1","batch5","","716","tol_toboard","","","","tol_peg_2","716","716","0","[[2,0,0],[1,3],[0]]","6","[[3,0,0],[2,0],[1]]","17","0","","","","","","5","","","","","","","","",""
"","","","","","single-stim-button","237","461809","0.0-2.0-62.6-0.6","5e5e5b2488479216d9171d1b","E1","batch5","","666","tol_tohand","","","","tol_peg_1","666","666","0","[[0,0,0],[1,3],[0]]","7","[[3,0,0],[2,0],[1]]","17","0","","","","","","5","","","","","","","","",""
"","","","","","single-stim-button","238","463326","0.0-2.0-62.6-1.6","5e5e5b2488479216d9171d1b","E1","batch5","","1516","tol_toboard","","","","tol_peg_3","1516","1516","0","[[0,0,0],[1,3],[2]]","7","[[3,0,0],[2,0],[1]]","17","0","","","","","","5","","","","","","","","",""
"","","","","","single-stim-button","239","467610","0.0-2.0-62.7-0.7","5e5e5b2488479216d9171d1b","E1","batch5","","4282","tol_tohand","","","","tol_peg_2","4282","4282","0","[[0,0,0],[1,0],[2]]","8","[[3,0,0],[2,0],[1]]","17","0","","","","","","5","","","","","","","","",""
"","","","","","single-stim-button","240","468276","0.0-2.0-62.7-1.7","5e5e5b2488479216d9171d1b","E1","batch5","","666","tol_toboard","","","","tol_peg_1","666","666","0","[[3,0,0],[1,0],[2]]","8","[[3,0,0],[2,0],[1]]","17","0","","","","","","5","","","","","","","","",""
"","","","","","single-stim-button","241","468760","0.0-2.0-62.8-0.8","5e5e5b2488479216d9171d1b","E1","batch5","","483","tol_tohand","","","","tol_peg_2","483","483","0","[[3,0,0],[0,0],[2]]","9","[[3,0,0],[2,0],[1]]","17","0","","","","","","5","","","","","","","","",""
"","","","","","single-stim-button","242","469243","0.0-2.0-62.8-1.8","5e5e5b2488479216d9171d1b","E1","batch5","","482","tol_toboard","","","","tol_peg_1","482","482","0","[[3,1,0],[0,0],[2]]","9","[[3,0,0],[2,0],[1]]","17","0","","","","","","5","","","","","","","","",""
"","","","","","single-stim-button","243","469793","0.0-2.0-62.9-0.9","5e5e5b2488479216d9171d1b","E1","batch5","","549","tol_tohand","","","","tol_peg_3","549","549","0","[[3,1,0],[0,0],[0]]","10","[[3,0,0],[2,0],[1]]","17","0","","","","","","5","","","","","","","","",""
"","","","","","single-stim-button","244","470277","0.0-2.0-62.9-1.9","5e5e5b2488479216d9171d1b","E1","batch5","","482","tol_toboard","","","","tol_peg_2","482","482","0","[[3,1,0],[2,0],[0]]","10","[[3,0,0],[2,0],[1]]","17","0","","","","","","5","","","","","","","","",""
"","","","","","single-stim-button","245","470860","0.0-2.0-62.10-0.10","5e5e5b2488479216d9171d1b","E1","batch5","","583","tol_tohand","","","","tol_peg_1","583","583","0","[[3,0,0],[2,0],[0]]","11","[[3,0,0],[2,0],[1]]","17","0","","","","","","5","","","","","","","","",""
"","","","","","single-stim-button","246","471910","0.0-2.0-62.10-1.10","5e5e5b2488479216d9171d1b","E1","batch5","","1050","tol_toboard","","","","tol_peg_3","1050","1050","0","[[3,0,0],[2,0],[1]]","11","[[3,0,0],[2,0],[1]]","17","0","","","","","","5","","","","","","","","",""
"","","","","","poldrack-single-stim","247","472913","0.0-2.0-63.0","5e5e5b2488479216d9171d1b","E1","batch5","","-1","tol_feedback","","","true","","1000","1000","500","","","","","","-1","none","true","5350","22645","","","","","","","","","",""
"","","","","","html-button-response","248","473861","0.0-2.0-64.0","5e5e5b2488479216d9171d1b","E1","batch5","","947.2000002861023","tol_trial_num","<div class = centerbox><p class = center-block-text>problem <strong>19</strong> out of 25 problems</p></div>","0","","","","","","","","","","","","","","","","","","","","","","","","",""
"","","","","","single-stim-button","249","485411","0.0-2.0-65.0-0.0","5e5e5b2488479216d9171d1b","E1","batch5","","11550","tol_tohand","","","","tol_peg_2","11550","11550","0","[[1,2,0],[0,0],[0]]","1","[[0,0,0],[1,2],[3]]","18","0","","","","","","7","","","","","","","","",""
"","","","","","single-stim-button","250","490712","0.0-2.0-65.0-1.0","5e5e5b2488479216d9171d1b","E1","batch5","","5299","tol_toboard","","","","tol_peg_3","5299","5299","0","[[1,2,0],[0,0],[3]]","1","[[0,0,0],[1,2],[3]]","18","0","","","","","","7","","","","","","","","",""
"","","","","","single-stim-button","251","494629","0.0-2.0-65.1-0.1","5e5e5b2488479216d9171d1b","E1","batch5","","3916","tol_tohand","","","","tol_peg_1","3916","3916","0","[[1,0,0],[0,0],[3]]","2","[[0,0,0],[1,2],[3]]","18","0","","","","","","7","","","","","","","","",""
"","","","","","single-stim-button","252","495395","0.0-2.0-65.1-1.1","5e5e5b2488479216d9171d1b","E1","batch5","","766","tol_toboard","","","","tol_peg_2","766","766","0","[[1,0,0],[2,0],[3]]","2","[[0,0,0],[1,2],[3]]","18","0","","","","","","7","","","","","","","","",""
"","","","","","single-stim-button","253","500162","0.0-2.0-65.2-0.2","5e5e5b2488479216d9171d1b","E1","batch5","","4766","tol_tohand","","","","tol_peg_1","4766","4766","0","[[0,0,0],[2,0],[3]]","3","[[0,0,0],[1,2],[3]]","18","0","","","","","","7","","","","","","","","",""
"","","","","","single-stim-button","254","500679","0.0-2.0-65.2-1.2","5e5e5b2488479216d9171d1b","E1","batch5","","516","tol_toboard","","","","tol_peg_2","516","516","0","[[0,0,0],[2,1],[3]]","3","[[0,0,0],[1,2],[3]]","18","0","","","","","","7","","","","","","","","",""
"","","","","","single-stim-button","255","501212","0.0-2.0-65.3-0.3","5e5e5b2488479216d9171d1b","E1","batch5","","532","tol_tohand","","","","tol_peg_3","532","532","0","[[0,0,0],[2,1],[0]]","4","[[0,0,0],[1,2],[3]]","18","0","","","","","","7","","","","","","","","",""
"","","","","","single-stim-button","256","501796","0.0-2.0-65.3-1.3","5e5e5b2488479216d9171d1b","E1","batch5","","583","tol_toboard","","","","tol_peg_1","583","583","0","[[3,0,0],[2,1],[0]]","4","[[0,0,0],[1,2],[3]]","18","0","","","","","","7","","","","","","","","",""
"","","","","","single-stim-button","257","502330","0.0-2.0-65.4-0.4","5e5e5b2488479216d9171d1b","E1","batch5","","532","tol_tohand","","","","tol_peg_2","532","532","0","[[3,0,0],[2,0],[0]]","5","[[0,0,0],[1,2],[3]]","18","0","","","","","","7","","","","","","","","",""
"","","","","","single-stim-button","258","502946","0.0-2.0-65.4-1.4","5e5e5b2488479216d9171d1b","E1","batch5","","616","tol_toboard","","","","tol_peg_3","616","616","0","[[3,0,0],[2,0],[1]]","5","[[0,0,0],[1,2],[3]]","18","0","","","","","","7","","","","","","","","",""
"","","","","","single-stim-button","259","503429","0.0-2.0-65.5-0.5","5e5e5b2488479216d9171d1b","E1","batch5","","482","tol_tohand","","","","tol_peg_2","482","482","0","[[3,0,0],[0,0],[1]]","6","[[0,0,0],[1,2],[3]]","18","0","","","","","","7","","","","","","","","",""
"","","","","","single-stim-button","260","504096","0.0-2.0-65.5-1.5","5e5e5b2488479216d9171d1b","E1","batch5","","666","tol_toboard","","","","tol_peg_1","666","666","0","[[3,2,0],[0,0],[1]]","6","[[0,0,0],[1,2],[3]]","18","0","","","","","","7","","","","","","","","",""
"","","","","","single-stim-button","261","504629","0.0-2.0-65.6-0.6","5e5e5b2488479216d9171d1b","E1","batch5","","532","tol_tohand","","","","tol_peg_3","532","532","0","[[3,2,0],[0,0],[0]]","7","[[0,0,0],[1,2],[3]]","18","0","","","","","","7","","","","","","","","",""
"","","","","","single-stim-button","262","505230","0.0-2.0-65.6-1.6","5e5e5b2488479216d9171d1b","E1","batch5","","599","tol_toboard","","","","tol_peg_2","599","599","0","[[3,2,0],[1,0],[0]]","7","[[0,0,0],[1,2],[3]]","18","0","","","","","","7","","","","","","","","",""
"","","","","","single-stim-button","263","505796","0.0-2.0-65.7-0.7","5e5e5b2488479216d9171d1b","E1","batch5","","566","tol_tohand","","","","tol_peg_1","566","566","0","[[3,0,0],[1,0],[0]]","8","[[0,0,0],[1,2],[3]]","18","0","","","","","","7","","","","","","","","",""
"","","","","","single-stim-button","264","506597","0.0-2.0-65.7-1.7","5e5e5b2488479216d9171d1b","E1","batch5","","799","tol_toboard","","","","tol_peg_2","799","799","0","[[3,0,0],[1,2],[0]]","8","[[0,0,0],[1,2],[3]]","18","0","","","","","","7","","","","","","","","",""
"","","","","","single-stim-button","265","507213","0.0-2.0-65.8-0.8","5e5e5b2488479216d9171d1b","E1","batch5","","616","tol_tohand","","","","tol_peg_1","616","616","0","[[0,0,0],[1,2],[0]]","9","[[0,0,0],[1,2],[3]]","18","0","","","","","","7","","","","","","","","",""
"","","","","","single-stim-button","266","507880","0.0-2.0-65.8-1.8","5e5e5b2488479216d9171d1b","E1","batch5","","667","tol_toboard","","","","tol_peg_3","667","667","0","[[0,0,0],[1,2],[3]]","9","[[0,0,0],[1,2],[3]]","18","0","","","","","","7","","","","","","","","",""
"","","","","","poldrack-single-stim","267","508889","0.0-2.0-66.0","5e5e5b2488479216d9171d1b","E1","batch5","","-1","tol_feedback","","","true","","1000","1000","500","","","","","","-1","none","true","11550","23492","","","","","","","","","",""
"","","","","","html-button-response","268","509896","0.0-2.0-67.0","5e5e5b2488479216d9171d1b","E1","batch5","","1006","tol_trial_num","<div class = centerbox><p class = center-block-text>problem <strong>20</strong> out of 25 problems</p></div>","0","","","","","","","","","","","","","","","","","","","","","","","","",""
"","","","","","single-stim-button","269","518431","0.0-2.0-68.0-0.0","5e5e5b2488479216d9171d1b","E1","batch5","","8534","tol_tohand","","","","tol_peg_1","8534","8534","0","[[1,0,0],[3,0],[0]]","1","[[2,1,0],[0,0],[3]]","19","0","","","","","","5","","","","","","","","",""
"","","","","","single-stim-button","270","518997","0.0-2.0-68.0-1.0","5e5e5b2488479216d9171d1b","E1","batch5","","565","tol_toboard","","","","tol_peg_2","565","565","0","[[1,0,0],[3,2],[0]]","1","[[2,1,0],[0,0],[3]]","19","0","","","","","","5","","","","","","","","",""
"","","","","","single-stim-button","271","519581","0.0-2.0-68.1-0.1","5e5e5b2488479216d9171d1b","E1","batch5","","582","tol_tohand","","","","tol_peg_1","582","582","0","[[0,0,0],[3,2],[0]]","2","[[2,1,0],[0,0],[3]]","19","0","","","","","","5","","","","","","","","",""
"","","","","","single-stim-button","272","520381","0.0-2.0-68.1-1.1","5e5e5b2488479216d9171d1b","E1","batch5","","800","tol_toboard","","","","tol_peg_3","800","800","0","[[0,0,0],[3,2],[1]]","2","[[2,1,0],[0,0],[3]]","19","0","","","","","","5","","","","","","","","",""
"","","","","","single-stim-button","273","521014","0.0-2.0-68.2-0.2","5e5e5b2488479216d9171d1b","E1","batch5","","633","tol_tohand","","","","tol_peg_2","633","633","0","[[0,0,0],[3,0],[1]]","3","[[2,1,0],[0,0],[3]]","19","0","","","","","","5","","","","","","","","",""
"","","","","","single-stim-button","274","521598","0.0-2.0-68.2-1.2","5e5e5b2488479216d9171d1b","E1","batch5","","583","tol_toboard","","","","tol_peg_1","583","583","0","[[2,0,0],[3,0],[1]]","3","[[2,1,0],[0,0],[3]]","19","0","","","","","","5","","","","","","","","",""
"","","","","","single-stim-button","275","522181","0.0-2.0-68.3-0.3","5e5e5b2488479216d9171d1b","E1","batch5","","583","tol_tohand","","","","tol_peg_3","583","583","0","[[2,0,0],[3,0],[0]]","4","[[2,1,0],[0,0],[3]]","19","0","","","","","","5","","","","","","","","",""
"","","","","","single-stim-button","276","522998","0.0-2.0-68.3-1.3","5e5e5b2488479216d9171d1b","E1","batch5","","817","tol_toboard","","","","tol_peg_1","817","817","0","[[2,1,0],[3,0],[0]]","4","[[2,1,0],[0,0],[3]]","19","0","","","","","","5","","","","","","","","",""
"","","","","","single-stim-button","277","523531","0.0-2.0-68.4-0.4","5e5e5b2488479216d9171d1b","E1","batch5","","533","tol_tohand","","","","tol_peg_2","533","533","0","[[2,1,0],[0,0],[0]]","5","[[2,1,0],[0,0],[3]]","19","0","","","","","","5","","","","","","","","",""
"","","","","","single-stim-button","278","524098","0.0-2.0-68.4-1.4","5e5e5b2488479216d9171d1b","E1","batch5","","567","tol_toboard","","","","tol_peg_3","567","567","0","[[2,1,0],[0,0],[3]]","5","[[2,1,0],[0,0],[3]]","19","0","","","","","","5","","","","","","","","",""
"","","","","","poldrack-single-stim","279","525103","0.0-2.0-69.0","5e5e5b2488479216d9171d1b","E1","batch5","","-1","tol_feedback","","","true","","1000","1000","500","","","","","","-1","none","true","8534","10865","","","","","","","","","",""
"","","","","","html-button-response","280","526148","0.0-2.0-70.0","5e5e5b2488479216d9171d1b","E1","batch5","","1044.1999998092651","tol_trial_num","<div class = centerbox><p class = center-block-text>problem <strong>21</strong> out of 25 problems</p></div>","0","","","","","","","","","","","","","","","","","","","","","","","","",""
"","","","","","single-stim-button","281","533632","0.0-2.0-71.0-0.0","5e5e5b2488479216d9171d1b","E1","batch5","","7484","tol_tohand","","","","tol_peg_1","7484","7484","0","[[1,0,0],[3,0],[0]]","1","[[3,2,0],[0,0],[1]]","20","0","","","","","","6","","","","","","","","",""
"","","","","","single-stim-button","282","534349","0.0-2.0-71.0-1.0","5e5e5b2488479216d9171d1b","E1","batch5","","715","tol_toboard","","","","tol_peg_3","715","715","0","[[1,0,0],[3,0],[2]]","1","[[3,2,0],[0,0],[1]]","20","0","","","","","","6","","","","","","","","",""
"","","","","","single-stim-button","283","535115","0.0-2.0-71.1-0.1","5e5e5b2488479216d9171d1b","E1","batch5","","766","tol_tohand","","","","tol_peg_1","766","766","0","[[0,0,0],[3,0],[2]]","2","[[3,2,0],[0,0],[1]]","20","0","","","","","","6","","","","","","","","",""
"","","","","","single-stim-button","284","539082","0.0-2.0-71.1-1.1","5e5e5b2488479216d9171d1b","E1","batch5","","3966","tol_toboard","","","","tol_peg_1","3966","3966","0","[[1,0,0],[3,0],[2]]","2","[[3,2,0],[0,0],[1]]","20","0","","","","","","6","","","","","","","","",""
"","","","","","single-stim-button","285","539816","0.0-2.0-71.2-0.2","5e5e5b2488479216d9171d1b","E1","batch5","","733","tol_tohand","","","","tol_peg_3","733","733","0","[[1,0,0],[3,0],[0]]","3","[[3,2,0],[0,0],[1]]","20","0","","","","","","6","","","","","","","","",""
"","","","","","single-stim-button","286","540499","0.0-2.0-71.2-1.2","5e5e5b2488479216d9171d1b","E1","batch5","","683","tol_toboard","","","","tol_peg_2","683","683","0","[[1,0,0],[3,2],[0]]","3","[[3,2,0],[0,0],[1]]","20","0","","","","","","6","","","","","","","","",""
"","","","","","single-stim-button","287","541216","0.0-2.0-71.3-0.3","5e5e5b2488479216d9171d1b","E1","batch5","","716","tol_tohand","","","","tol_peg_1","716","716","0","[[0,0,0],[3,2],[0]]","4","[[3,2,0],[0,0],[1]]","20","0","","","","","","6","","","","","","","","",""
"","","","","","single-stim-button","288","543565","0.0-2.0-71.3-1.3","5e5e5b2488479216d9171d1b","E1","batch5","","2348","tol_toboard","","","","tol_peg_3","2348","2348","0","[[0,0,0],[3,2],[1]]","4","[[3,2,0],[0,0],[1]]","20","0","","","","","","6","","","","","","","","",""
"","","","","","single-stim-button","289","548717","0.0-2.0-71.4-0.4","5e5e5b2488479216d9171d1b","E1","batch5","","5150","tol_tohand","","","","tol_peg_2","5150","5150","0","[[0,0,0],[3,0],[1]]","5","[[3,2,0],[0,0],[1]]","20","0","","","","","","6","","","","","","","","",""
"","","","","","single-stim-button","290","549317","0.0-2.0-71.4-1.4","5e5e5b2488479216d9171d1b","E1","batch5","","600","tol_toboard","","","","tol_peg_1","600","600","0","[[2,0,0],[3,0],[1]]","5","[[3,2,0],[0,0],[1]]","20","0","","","","","","6","","","","","","","","",""
"","","","","","single-stim-button","291","550233","0.0-2.0-71.5-0.5","5e5e5b2488479216d9171d1b","E1","batch5","","916","tol_tohand","","","","tol_peg_2","916","916","0","[[2,0,0],[0,0],[1]]","6","[[3,2,0],[0,0],[1]]","20","0","","","","","","6","","","","","","","","",""
"","","","","","single-stim-button","292","551066","0.0-2.0-71.5-1.5","5e5e5b2488479216d9171d1b","E1","batch5","","833","tol_toboard","","","","tol_peg_1","833","833","0","[[2,3,0],[0,0],[1]]","6","[[3,2,0],[0,0],[1]]","20","0","","","","","","6","","","","","","","","",""
"","","","","","single-stim-button","293","552034","0.0-2.0-71.6-0.6","5e5e5b2488479216d9171d1b","E1","batch5","","966","tol_tohand","","","","tol_peg_3","966","966","0","[[2,3,0],[0,0],[0]]","7","[[3,2,0],[0,0],[1]]","20","0","","","","","","6","","","","","","","","",""
"","","","","","single-stim-button","294","552701","0.0-2.0-71.6-1.6","5e5e5b2488479216d9171d1b","E1","batch5","","666","tol_toboard","","","","tol_peg_2","666","666","0","[[2,3,0],[1,0],[0]]","7","[[3,2,0],[0,0],[1]]","20","0","","","","","","6","","","","","","","","",""
"","","","","","single-stim-button","295","554434","0.0-2.0-71.7-0.7","5e5e5b2488479216d9171d1b","E1","batch5","","1732","tol_tohand","","","","tol_peg_1","1732","1732","0","[[2,0,0],[1,0],[0]]","8","[[3,2,0],[0,0],[1]]","20","0","","","","","","6","","","","","","","","",""
"","","","","","single-stim-button","296","555200","0.0-2.0-71.7-1.7","5e5e5b2488479216d9171d1b","E1","batch5","","766","tol_toboard","","","","tol_peg_3","766","766","0","[[2,0,0],[1,0],[3]]","8","[[3,2,0],[0,0],[1]]","20","0","","","","","","6","","","","","","","","",""
"","","","","","single-stim-button","297","555817","0.0-2.0-71.8-0.8","5e5e5b2488479216d9171d1b","E1","batch5","","616","tol_tohand","","","","tol_peg_1","616","616","0","[[0,0,0],[1,0],[3]]","9","[[3,2,0],[0,0],[1]]","20","0","","","","","","6","","","","","","","","",""
"","","","","","single-stim-button","298","556484","0.0-2.0-71.8-1.8","5e5e5b2488479216d9171d1b","E1","batch5","","666","tol_toboard","","","","tol_peg_2","666","666","0","[[0,0,0],[1,2],[3]]","9","[[3,2,0],[0,0],[1]]","20","0","","","","","","6","","","","","","","","",""
"","","","","","single-stim-button","299","557051","0.0-2.0-71.9-0.9","5e5e5b2488479216d9171d1b","E1","batch5","","567","tol_tohand","","","","tol_peg_3","567","567","0","[[0,0,0],[1,2],[0]]","10","[[3,2,0],[0,0],[1]]","20","0","","","","","","6","","","","","","","","",""
"","","","","","single-stim-button","300","558451","0.0-2.0-71.9-1.9","5e5e5b2488479216d9171d1b","E1","batch5","","1398","tol_toboard","","","","tol_peg_1","1398","1398","0","[[3,0,0],[1,2],[0]]","10","[[3,2,0],[0,0],[1]]","20","0","","","","","","6","","","","","","","","",""
"","","","","","single-stim-button","301","559134","0.0-2.0-71.10-0.10","5e5e5b2488479216d9171d1b","E1","batch5","","683","tol_tohand","","","","tol_peg_2","683","683","0","[[3,0,0],[1,0],[0]]","11","[[3,2,0],[0,0],[1]]","20","0","","","","","","6","","","","","","","","",""
"","","","","","single-stim-button","302","559951","0.0-2.0-71.10-1.10","5e5e5b2488479216d9171d1b","E1","batch5","","815","tol_toboard","","","","tol_peg_1","815","815","0","[[3,2,0],[1,0],[0]]","11","[[3,2,0],[0,0],[1]]","20","0","","","","","","6","","","","","","","","",""
"","","","","","single-stim-button","303","560734","0.0-2.0-71.11-0.11","5e5e5b2488479216d9171d1b","E1","batch5","","783","tol_tohand","","","","tol_peg_2","783","783","0","[[3,2,0],[0,0],[0]]","12","[[3,2,0],[0,0],[1]]","20","0","","","","","","6","","","","","","","","",""
"","","","","","single-stim-button","304","561385","0.0-2.0-71.11-1.11","5e5e5b2488479216d9171d1b","E1","batch5","","650","tol_toboard","","","","tol_peg_3","650","650","0","[[3,2,0],[0,0],[1]]","12","[[3,2,0],[0,0],[1]]","20","0","","","","","","6","","","","","","","","",""
"","","","","","poldrack-single-stim","305","562394","0.0-2.0-72.0","5e5e5b2488479216d9171d1b","E1","batch5","","-1","tol_feedback","","","true","","1000","1000","500","","","","","","-1","none","true","7484","21112","","","","","","","","","",""
"","","","","","html-button-response","306","563418","0.0-2.0-73.0","5e5e5b2488479216d9171d1b","E1","batch5","","1023.3000001907349","tol_trial_num","<div class = centerbox><p class = center-block-text>problem <strong>22</strong> out of 25 problems</p></div>","0","","","","","","","","","","","","","","","","","","","","","","","","",""
"","","","","","single-stim-button","307","580535","0.0-2.0-74.0-0.0","5e5e5b2488479216d9171d1b","E1","batch5","","17116","tol_tohand","","","","tol_peg_1","17116","17116","0","[[0,0,0],[2,3],[0]]","1","[[0,0,0],[1,2],[3]]","21","0","","","","","","6","","","","","","","","",""
"","","","","","single-stim-button","308","581337","0.0-2.0-74.0-1.0","5e5e5b2488479216d9171d1b","E1","batch5","","800","tol_toboard","","","","tol_peg_3","800","800","0","[[0,0,0],[2,3],[1]]","1","[[0,0,0],[1,2],[3]]","21","0","","","","","","6","","","","","","","","",""
"","","","","","single-stim-button","309","581919","0.0-2.0-74.1-0.1","5e5e5b2488479216d9171d1b","E1","batch5","","582","tol_tohand","","","","tol_peg_2","582","582","0","[[0,0,0],[2,0],[1]]","2","[[0,0,0],[1,2],[3]]","21","0","","","","","","6","","","","","","","","",""
"","","","","","single-stim-button","310","582519","0.0-2.0-74.1-1.1","5e5e5b2488479216d9171d1b","E1","batch5","","599","tol_toboard","","","","tol_peg_1","599","599","0","[[3,0,0],[2,0],[1]]","2","[[0,0,0],[1,2],[3]]","21","0","","","","","","6","","","","","","","","",""
"","","","","","single-stim-button","311","583019","0.0-2.0-74.2-0.2","5e5e5b2488479216d9171d1b","E1","batch5","","500","tol_tohand","","","","tol_peg_2","500","500","0","[[3,0,0],[0,0],[1]]","3","[[0,0,0],[1,2],[3]]","21","0","","","","","","6","","","","","","","","",""
"","","","","","single-stim-button","312","583520","0.0-2.0-74.2-1.2","5e5e5b2488479216d9171d1b","E1","batch5","","499","tol_toboard","","","","tol_peg_1","499","499","0","[[3,2,0],[0,0],[1]]","3","[[0,0,0],[1,2],[3]]","21","0","","","","","","6","","","","","","","","",""
"","","","","","single-stim-button","313","584219","0.0-2.0-74.3-0.3","5e5e5b2488479216d9171d1b","E1","batch5","","699","tol_tohand","","","","tol_peg_3","699","699","0","[[3,2,0],[0,0],[0]]","4","[[0,0,0],[1,2],[3]]","21","0","","","","","","6","","","","","","","","",""
"","","","","","single-stim-button","314","584918","0.0-2.0-74.3-1.3","5e5e5b2488479216d9171d1b","E1","batch5","","698","tol_toboard","","","","tol_peg_2","698","698","0","[[3,2,0],[1,0],[0]]","4","[[0,0,0],[1,2],[3]]","21","0","","","","","","6","","","","","","","","",""
"","","","","","single-stim-button","315","585485","0.0-2.0-74.4-0.4","5e5e5b2488479216d9171d1b","E1","batch5","","566","tol_tohand","","","","tol_peg_1","566","566","0","[[3,0,0],[1,0],[0]]","5","[[0,0,0],[1,2],[3]]","21","0","","","","","","6","","","","","","","","",""
"","","","","","single-stim-button","316","586253","0.0-2.0-74.4-1.4","5e5e5b2488479216d9171d1b","E1","batch5","","767","tol_toboard","","","","tol_peg_2","767","767","0","[[3,0,0],[1,2],[0]]","5","[[0,0,0],[1,2],[3]]","21","0","","","","","","6","","","","","","","","",""
"","","","","","single-stim-button","317","586803","0.0-2.0-74.5-0.5","5e5e5b2488479216d9171d1b","E1","batch5","","549","tol_tohand","","","","tol_peg_1","549","549","0","[[0,0,0],[1,2],[0]]","6","[[0,0,0],[1,2],[3]]","21","0","","","","","","6","","","","","","","","",""
"","","","","","single-stim-button","318","587570","0.0-2.0-74.5-1.5","5e5e5b2488479216d9171d1b","E1","batch5","","767","tol_toboard","","","","tol_peg_3","767","767","0","[[0,0,0],[1,2],[3]]","6","[[0,0,0],[1,2],[3]]","21","0","","","","","","6","","","","","","","","",""
"","","","","","poldrack-single-stim","319","588572","0.0-2.0-75.0","5e5e5b2488479216d9171d1b","E1","batch5","","-1","tol_feedback","","","true","","1000","1000","500","","","","","","-1","none","true","17116","20012","","","","","","","","","",""
"","","","","","html-button-response","320","589453","0.0-2.0-76.0","5e5e5b2488479216d9171d1b","E1","batch5","","879.5999999046326","tol_trial_num","<div class = centerbox><p class = center-block-text>problem <strong>23</strong> out of 25 problems</p></div>","0","","","","","","","","","","","","","","","","","","","","","","","","",""
"","","","","","single-stim-button","321","592903","0.0-2.0-77.0-0.0","5e5e5b2488479216d9171d1b","E1","batch5","","3450","tol_tohand","","","","tol_peg_1","3450","3450","0","[[1,0,0],[3,0],[0]]","1","[[1,3,2],[0,0],[0]]","22","0","","","","","","3","","","","","","","","",""
"","","","","","single-stim-button","322","593570","0.0-2.0-77.0-1.0","5e5e5b2488479216d9171d1b","E1","batch5","","666","tol_toboard","","","","tol_peg_3","666","666","0","[[1,0,0],[3,0],[2]]","1","[[1,3,2],[0,0],[0]]","22","0","","","","","","3","","","","","","","","",""
"","","","","","single-stim-button","323","594187","0.0-2.0-77.1-0.1","5e5e5b2488479216d9171d1b","E1","batch5","","616","tol_tohand","","","","tol_peg_2","616","616","0","[[1,0,0],[0,0],[2]]","2","[[1,3,2],[0,0],[0]]","22","0","","","","","","3","","","","","","","","",""
"","","","","","single-stim-button","324","594738","0.0-2.0-77.1-1.1","5e5e5b2488479216d9171d1b","E1","batch5","","549","tol_toboard","","","","tol_peg_1","549","549","0","[[1,3,0],[0,0],[2]]","2","[[1,3,2],[0,0],[0]]","22","0","","","","","","3","","","","","","","","",""
"","","","","","single-stim-button","325","595336","0.0-2.0-77.2-0.2","5e5e5b2488479216d9171d1b","E1","batch5","","598","tol_tohand","","","","tol_peg_3","598","598","0","[[1,3,0],[0,0],[0]]","3","[[1,3,2],[0,0],[0]]","22","0","","","","","","3","","","","","","","","",""
"","","","","","single-stim-button","326","595921","0.0-2.0-77.2-1.2","5e5e5b2488479216d9171d1b","E1","batch5","","584","tol_toboard","","","","tol_peg_1","584","584","0","[[1,3,2],[0,0],[0]]","3","[[1,3,2],[0,0],[0]]","22","0","","","","","","3","","","","","","","","",""
"","","","","","poldrack-single-stim","327","596926","0.0-2.0-78.0","5e5e5b2488479216d9171d1b","E1","batch5","","-1","tol_feedback","","","true","","1000","1000","500","","","","","","-1","none","true","3450","4664","","","","","","","","","",""
"","","","","","html-button-response","328","597953","0.0-2.0-79.0","5e5e5b2488479216d9171d1b","E1","batch5","","1026.5","tol_trial_num","<div class = centerbox><p class = center-block-text>problem <strong>24</strong> out of 25 problems</p></div>","0","","","","","","","","","","","","","","","","","","","","","","","","",""
"","","","","","single-stim-button","329","614606","0.0-2.0-80.0-0.0","5e5e5b2488479216d9171d1b","E1","batch5","","16652","tol_tohand","","","","tol_peg_2","16652","16652","0","[[0,0,0],[2,0],[1]]","1","[[2,0,0],[3,0],[1]]","23","0","","","","","","7","","","","","","","","",""
"","","","","","single-stim-button","330","615255","0.0-2.0-80.0-1.0","5e5e5b2488479216d9171d1b","E1","batch5","","649","tol_toboard","","","","tol_peg_1","649","649","0","[[3,0,0],[2,0],[1]]","1","[[2,0,0],[3,0],[1]]","23","0","","","","","","7","","","","","","","","",""
"","","","","","single-stim-button","331","615789","0.0-2.0-80.1-0.1","5e5e5b2488479216d9171d1b","E1","batch5","","532","tol_tohand","","","","tol_peg_2","532","532","0","[[3,0,0],[0,0],[1]]","2","[[2,0,0],[3,0],[1]]","23","0","","","","","","7","","","","","","","","",""
"","","","","","single-stim-button","332","616305","0.0-2.0-80.1-1.1","5e5e5b2488479216d9171d1b","E1","batch5","","516","tol_toboard","","","","tol_peg_1","516","516","0","[[3,2,0],[0,0],[1]]","2","[[2,0,0],[3,0],[1]]","23","0","","","","","","7","","","","","","","","",""
"","","","","","single-stim-button","333","616939","0.0-2.0-80.2-0.2","5e5e5b2488479216d9171d1b","E1","batch5","","633","tol_tohand","","","","tol_peg_3","633","633","0","[[3,2,0],[0,0],[0]]","3","[[2,0,0],[3,0],[1]]","23","0","","","","","","7","","","","","","","","",""
"","","","","","single-stim-button","334","617489","0.0-2.0-80.2-1.2","5e5e5b2488479216d9171d1b","E1","batch5","","550","tol_toboard","","","","tol_peg_2","550","550","0","[[3,2,0],[1,0],[0]]","3","[[2,0,0],[3,0],[1]]","23","0","","","","","","7","","","","","","","","",""
"","","","","","single-stim-button","335","618305","0.0-2.0-80.3-0.3","5e5e5b2488479216d9171d1b","E1","batch5","","815","tol_tohand","","","","tol_peg_1","815","815","0","[[3,0,0],[1,0],[0]]","4","[[2,0,0],[3,0],[1]]","23","0","","","","","","7","","","","","","","","",""
"","","","","","single-stim-button","336","618923","0.0-2.0-80.3-1.3","5e5e5b2488479216d9171d1b","E1","batch5","","616","tol_toboard","","","","tol_peg_3","616","616","0","[[3,0,0],[1,0],[2]]","4","[[2,0,0],[3,0],[1]]","23","0","","","","","","7","","","","","","","","",""
"","","","","","single-stim-button","337","619506","0.0-2.0-80.4-0.4","5e5e5b2488479216d9171d1b","E1","batch5","","583","tol_tohand","","","","tol_peg_1","583","583","0","[[0,0,0],[1,0],[2]]","5","[[2,0,0],[3,0],[1]]","23","0","","","","","","7","","","","","","","","",""
"","","","","","single-stim-button","338","620240","0.0-2.0-80.4-1.4","5e5e5b2488479216d9171d1b","E1","batch5","","733","tol_toboard","","","","tol_peg_2","733","733","0","[[0,0,0],[1,3],[2]]","5","[[2,0,0],[3,0],[1]]","23","0","","","","","","7","","","","","","","","",""
"","","","","","single-stim-button","339","620888","0.0-2.0-80.5-0.5","5e5e5b2488479216d9171d1b","E1","batch5","","648","tol_tohand","","","","tol_peg_3","648","648","0","[[0,0,0],[1,3],[0]]","6","[[2,0,0],[3,0],[1]]","23","0","","","","","","7","","","","","","","","",""
"","","","","","single-stim-button","340","621806","0.0-2.0-80.5-1.5","5e5e5b2488479216d9171d1b","E1","batch5","","917","tol_toboard","","","","tol_peg_1","917","917","0","[[2,0,0],[1,3],[0]]","6","[[2,0,0],[3,0],[1]]","23","0","","","","","","7","","","","","","","","",""
"","","","","","single-stim-button","341","622505","0.0-2.0-80.6-0.6","5e5e5b2488479216d9171d1b","E1","batch5","","699","tol_tohand","","","","tol_peg_2","699","699","0","[[2,0,0],[1,0],[0]]","7","[[2,0,0],[3,0],[1]]","23","0","","","","","","7","","","","","","","","",""
"","","","","","single-stim-button","342","623190","0.0-2.0-80.6-1.6","5e5e5b2488479216d9171d1b","E1","batch5","","683","tol_toboard","","","","tol_peg_1","683","683","0","[[2,3,0],[1,0],[0]]","7","[[2,0,0],[3,0],[1]]","23","0","","","","","","7","","","","","","","","",""
"","","","","","single-stim-button","343","623756","0.0-2.0-80.7-0.7","5e5e5b2488479216d9171d1b","E1","batch5","","566","tol_tohand","","","","tol_peg_2","566","566","0","[[2,3,0],[0,0],[0]]","8","[[2,0,0],[3,0],[1]]","23","0","","","","","","7","","","","","","","","",""
"","","","","","single-stim-button","344","624373","0.0-2.0-80.7-1.7","5e5e5b2488479216d9171d1b","E1","batch5","","616","tol_toboard","","","","tol_peg_3","616","616","0","[[2,3,0],[0,0],[1]]","8","[[2,0,0],[3,0],[1]]","23","0","","","","","","7","","","","","","","","",""
"","","","","","single-stim-button","345","625040","0.0-2.0-80.8-0.8","5e5e5b2488479216d9171d1b","E1","batch5","","667","tol_tohand","","","","tol_peg_1","667","667","0","[[2,0,0],[0,0],[1]]","9","[[2,0,0],[3,0],[1]]","23","0","","","","","","7","","","","","","","","",""
"","","","","","single-stim-button","346","625656","0.0-2.0-80.8-1.8","5e5e5b2488479216d9171d1b","E1","batch5","","616","tol_toboard","","","","tol_peg_2","616","616","0","[[2,0,0],[3,0],[1]]","9","[[2,0,0],[3,0],[1]]","23","0","","","","","","7","","","","","","","","",""
"","","","","","poldrack-single-stim","347","626663","0.0-2.0-81.0","5e5e5b2488479216d9171d1b","E1","batch5","","-1","tol_feedback","","","true","","1000","1000","500","","","","","","-1","none","true","16652","21795","","","","","","","","","",""
"","","","","","html-button-response","348","627673","0.0-2.0-82.0","5e5e5b2488479216d9171d1b","E1","batch5","","1009.3000001907349","tol_trial_num","<div class = centerbox><p class = center-block-text>problem <strong>25</strong> out of 25 problems</p></div>","0","","","","","","","","","","","","","","","","","","","","","","","","",""
"","","","","","single-stim-button","349","637357","0.0-2.0-83.0-0.0","5e5e5b2488479216d9171d1b","E1","batch5","","9683","tol_tohand","","","","tol_peg_1","9683","9683","0","[[1,0,0],[3,0],[0]]","1","[[3,0,0],[1,0],[2]]","24","0","","","","","","7","","","","","","","","",""
"","","","","","single-stim-button","350","638007","0.0-2.0-83.0-1.0","5e5e5b2488479216d9171d1b","E1","batch5","","649","tol_toboard","","","","tol_peg_2","649","649","0","[[1,0,0],[3,2],[0]]","1","[[3,0,0],[1,0],[2]]","24","0","","","","","","7","","","","","","","","",""
"","","","","","single-stim-button","351","638657","0.0-2.0-83.1-0.1","5e5e5b2488479216d9171d1b","E1","batch5","","649","tol_tohand","","","","tol_peg_1","649","649","0","[[0,0,0],[3,2],[0]]","2","[[3,0,0],[1,0],[2]]","24","0","","","","","","7","","","","","","","","",""
"","","","","","single-stim-button","352","639606","0.0-2.0-83.1-1.1","5e5e5b2488479216d9171d1b","E1","batch5","","948","tol_toboard","","","","tol_peg_3","948","948","0","[[0,0,0],[3,2],[1]]","2","[[3,0,0],[1,0],[2]]","24","0","","","","","","7","","","","","","","","",""
"","","","","","single-stim-button","353","643341","0.0-2.0-83.2-0.2","5e5e5b2488479216d9171d1b","E1","batch5","","3734","tol_tohand","","","","tol_peg_3","3734","3734","0","[[0,0,0],[3,2],[0]]","3","[[3,0,0],[1,0],[2]]","24","0","","","","","","7","","","","","","","","",""
"","","","","","single-stim-button","354","644107","0.0-2.0-83.2-1.2","5e5e5b2488479216d9171d1b","E1","batch5","","765","tol_toboard","","","","tol_peg_1","765","765","0","[[1,0,0],[3,2],[0]]","3","[[3,0,0],[1,0],[2]]","24","0","","","","","","7","","","","","","","","",""
"","","","","","single-stim-button","355","644708","0.0-2.0-83.3-0.3","5e5e5b2488479216d9171d1b","E1","batch5","","599","tol_tohand","","","","tol_peg_2","599","599","0","[[1,0,0],[3,0],[0]]","4","[[3,0,0],[1,0],[2]]","24","0","","","","","","7","","","","","","","","",""
"","","","","","single-stim-button","356","646008","0.0-2.0-83.3-1.3","5e5e5b2488479216d9171d1b","E1","batch5","","1300","tol_toboard","","","","tol_peg_3","1300","1300","0","[[1,0,0],[3,0],[2]]","4","[[3,0,0],[1,0],[2]]","24","0","","","","","","7","","","","","","","","",""
