"success","timeout","failed_images","failed_audio","failed_video","trial_type","trial_index","time_elapsed","internal_node_id","subject_id","study_id","session_id","task","rt","stimulus","response","item","answer","correct","spm_correct","spm_rt","view_history","mouse_click","stim_duration","block_duration","timing_post_trial","current_position","tol_num_moves_made","tol_target","tol_problem_id","tol_rt","key_press","possible_responses","tol_correct","preplanning","tol_rt_per_trial","tol_min_moves","fiar_detect_rt","fiar_detect_correct","total_correct_fiar_detect","post_trial_gap","choices"
"true","false","[]","[]","[]","preload","0","7503","0.0-0.0","5e69ce2076c4680330657fd6","C3","batch3","","","","","","","","","","","","","","","","","","","","","","","","","","","","","",""
"true","","","","","fullscreen","1","17640","0.0-1.0-0.0","5e69ce2076c4680330657fd6","C3","batch3","","","","","","","","","","","","","","","","","","","","","","","","","","","","","",""
"true","","","","","fullscreen","2","21199","0.0-2.0-0.0","5e69ce2076c4680330657fd6","C3","batch3","spm_fullscreen","","","","","","","","","","","","","","","","","","","","","","","","","","","","",""
"","","","","","html-button-response","3","31125","0.0-2.0-1.0","5e69ce2076c4680330657fd6","C3","batch3","","9923","<p class = block-text><b>Instructions</b> <br>This is a widely used intelligence test in research. <br>In this test, a figure with a missing piece will be presented.<br>Below the figure are alternative pieces to complete the figure, only one of which is correct.<br> Different figures might involve different principles for obtaining the missing piece<br>Your job is to select the most logical piece to complete the figure.</p>","0","","","","","","","","","","","","","","","","","","","","","","","","","",""
"","","","","","html-keyboard-response","4","31934","0.0-2.0-2.0-0.0","5e69ce2076c4680330657fd6","C3","batch3","spm_show_trial_num","null","<p class=block-text>Trial 1 out of 60</p>","null","","","","","","","","","","","","","","","","","","","","","","","","","",""
"","","","","","image-button-response","5","37609","0.0-2.0-2.0-1.0","5e69ce2076c4680330657fd6","C3","batch3","spm_respsonse","5670.200000000186","img/question_1_1.jpeg","3","mat_01","4","1","1","5670.200000000186","","","","","","","","","","","","","","","","","","","","",""
"","","","","","html-keyboard-response","6","38673","0.0-2.0-2.0-0.1","5e69ce2076c4680330657fd6","C3","batch3","spm_show_trial_num","null","<p class=block-text>Trial 2 out of 60</p>","null","","","","","","","","","","","","","","","","","","","","","","","","","",""
"","","","","","image-button-response","7","41371","0.0-2.0-2.0-1.1","5e69ce2076c4680330657fd6","C3","batch3","spm_respsonse","2695.2999999998137","img/question_1_2.jpeg","4","mat_02","5","1","1","2695.2999999998137","","","","","","","","","","","","","","","","","","","","",""
"","","","","","html-keyboard-response","8","42438","0.0-2.0-2.0-0.2","5e69ce2076c4680330657fd6","C3","batch3","spm_show_trial_num","null","<p class=block-text>Trial 3 out of 60</p>","null","","","","","","","","","","","","","","","","","","","","","","","","","",""
"","","","","","image-button-response","9","45522","0.0-2.0-2.0-1.2","5e69ce2076c4680330657fd6","C3","batch3","spm_respsonse","3082.5","img/question_1_3.jpeg","0","mat_03","1","1","1","3082.5","","","","","","","","","","","","","","","","","","","","",""
"","","","","","html-keyboard-response","10","46593","0.0-2.0-2.0-0.3","5e69ce2076c4680330657fd6","C3","batch3","spm_show_trial_num","null","<p class=block-text>Trial 4 out of 60</p>","null","","","","","","","","","","","","","","","","","","","","","","","","","",""
"","","","","","image-button-response","11","49374","0.0-2.0-2.0-1.3","5e69ce2076c4680330657fd6","C3","batch3","spm_respsonse","2778.600000000093","img/question_1_4.jpeg","1","mat_04","2","1","1","2778.600000000093","","","","","","","","","","","","","","","","","","","","",""
"","","","","","html-keyboard-response","12","50441","0.0-2.0-2.0-0.4","5e69ce2076c4680330657fd6","C3","batch3","spm_show_trial_num","null","<p class=block-text>Trial 5 out of 60</p>","null","","","","","","","","","","","","","","","","","","","","","","","","","",""
"","","","","","image-button-response","13","55360","0.0-2.0-2.0-1.4","5e69ce2076c4680330657fd6","C3","batch3","spm_respsonse","4915.5","img/question_1_5.jpeg","5","mat_05","6","1","1","4915.5","","","","","","","","","","","","","","","","","","","","",""
"","","","","","html-keyboard-response","14","56426","0.0-2.0-2.0-0.5","5e69ce2076c4680330657fd6","C3","batch3","spm_show_trial_num","null","<p class=block-text>Trial 6 out of 60</p>","null","","","","","","","","","","","","","","","","","","","","","","","","","",""
"","","","","","image-button-response","15","62049","0.0-2.0-2.0-1.5","5e69ce2076c4680330657fd6","C3","batch3","spm_respsonse","5621.5","img/question_1_6.jpeg","2","mat_06","3","1","1","5621.5","","","","","","","","","","","","","","","","","","","","",""
"","","","","","html-keyboard-response","16","63114","0.0-2.0-2.0-0.6","5e69ce2076c4680330657fd6","C3","batch3","spm_show_trial_num","null","<p class=block-text>Trial 7 out of 60</p>","null","","","","","","","","","","","","","","","","","","","","","","","","","",""
"","","","","","image-button-response","17","68703","0.0-2.0-2.0-1.6","5e69ce2076c4680330657fd6","C3","batch3","spm_respsonse","5585.800000000279","img/question_1_7.jpeg","5","mat_07","6","1","1","5585.800000000279","","","","","","","","","","","","","","","","","","","","",""
"","","","","","html-keyboard-response","18","69766","0.0-2.0-2.0-0.7","5e69ce2076c4680330657fd6","C3","batch3","spm_show_trial_num","null","<p class=block-text>Trial 8 out of 60</p>","null","","","","","","","","","","","","","","","","","","","","","","","","","",""
"","","","","","image-button-response","19","75110","0.0-2.0-2.0-1.7","5e69ce2076c4680330657fd6","C3","batch3","spm_respsonse","5341","img/question_1_8.jpeg","1","mat_08","2","1","1","5341","","","","","","","","","","","","","","","","","","","","",""
"","","","","","html-keyboard-response","20","76175","0.0-2.0-2.0-0.8","5e69ce2076c4680330657fd6","C3","batch3","spm_show_trial_num","null","<p class=block-text>Trial 9 out of 60</p>","null","","","","","","","","","","","","","","","","","","","","","","","","","",""
"","","","","","image-button-response","21","81805","0.0-2.0-2.0-1.8","5e69ce2076c4680330657fd6","C3","batch3","spm_respsonse","5627.200000000186","img/question_1_9.jpeg","0","mat_09","1","1","1","5627.200000000186","","","","","","","","","","","","","","","","","","","","",""
"","","","","","html-keyboard-response","22","82874","0.0-2.0-2.0-0.9","5e69ce2076c4680330657fd6","C3","batch3","spm_show_trial_num","null","<p class=block-text>Trial 10 out of 60</p>","null","","","","","","","","","","","","","","","","","","","","","","","","","",""
"","","","","","image-button-response","23","93277","0.0-2.0-2.0-1.9","5e69ce2076c4680330657fd6","C3","batch3","spm_respsonse","10399.700000000186","img/question_1_10.jpeg","2","mat_10","3","1","1","10399.700000000186","","","","","","","","","","","","","","","","","","","","",""
"","","","","","html-keyboard-response","24","94347","0.0-2.0-2.0-0.10","5e69ce2076c4680330657fd6","C3","batch3","spm_show_trial_num","null","<p class=block-text>Trial 11 out of 60</p>","null","","","","","","","","","","","","","","","","","","","","","","","","","",""
"","","","","","image-button-response","25","109873","0.0-2.0-2.0-1.10","5e69ce2076c4680330657fd6","C3","batch3","spm_respsonse","15523.299999999814","img/question_1_11.jpeg","3","mat_11","4","1","1","15523.299999999814","","","","","","","","","","","","","","","","","","","","",""
"","","","","","html-keyboard-response","26","110936","0.0-2.0-2.0-0.11","5e69ce2076c4680330657fd6","C3","batch3","spm_show_trial_num","null","<p class=block-text>Trial 12 out of 60</p>","null","","","","","","","","","","","","","","","","","","","","","","","","","",""
"","","","","","image-button-response","27","145946","0.0-2.0-2.0-1.11","5e69ce2076c4680330657fd6","C3","batch3","spm_respsonse","35006.10000000009","img/question_1_12.jpeg","5","mat_12","5","0","0","35006.10000000009","","","","","","","","","","","","","","","","","","","","",""
"","","","","","html-keyboard-response","28","147008","0.0-2.0-2.0-0.12","5e69ce2076c4680330657fd6","C3","batch3","spm_show_trial_num","null","<p class=block-text>Trial 13 out of 60</p>","null","","","","","","","","","","","","","","","","","","","","","","","","","",""
"","","","","","image-button-response","29","149551","0.0-2.0-2.0-1.12","5e69ce2076c4680330657fd6","C3","batch3","spm_respsonse","2540.399999999907","img/question_2_1.jpeg","1","mat_13","2","1","1","2540.399999999907","","","","","","","","","","","","","","","","","","","","",""
"","","","","","html-keyboard-response","30","150617","0.0-2.0-2.0-0.13","5e69ce2076c4680330657fd6","C3","batch3","spm_show_trial_num","null","<p class=block-text>Trial 14 out of 60</p>","null","","","","","","","","","","","","","","","","","","","","","","","","","",""
"","","","","","image-button-response","31","160279","0.0-2.0-2.0-1.13","5e69ce2076c4680330657fd6","C3","batch3","spm_respsonse","9658.600000000093","img/question_2_2.jpeg","5","mat_14","6","1","1","9658.600000000093","","","","","","","","","","","","","","","","","","","","",""
"","","","","","html-keyboard-response","32","161346","0.0-2.0-2.0-0.14","5e69ce2076c4680330657fd6","C3","batch3","spm_show_trial_num","null","<p class=block-text>Trial 15 out of 60</p>","null","","","","","","","","","","","","","","","","","","","","","","","","","",""
"","","","","","image-button-response","33","165037","0.0-2.0-2.0-1.14","5e69ce2076c4680330657fd6","C3","batch3","spm_respsonse","3688.5","img/question_2_3.jpeg","0","mat_15","1","1","1","3688.5","","","","","","","","","","","","","","","","","","","","",""
"","","","","","html-keyboard-response","34","166098","0.0-2.0-2.0-0.15","5e69ce2076c4680330657fd6","C3","batch3","spm_show_trial_num","null","<p class=block-text>Trial 16 out of 60</p>","null","","","","","","","","","","","","","","","","","","","","","","","","","",""
"","","","","","image-button-response","35","172002","0.0-2.0-2.0-1.15","5e69ce2076c4680330657fd6","C3","batch3","spm_respsonse","5901.700000000186","img/question_2_4.jpeg","1","mat_16","2","1","1","5901.700000000186","","","","","","","","","","","","","","","","","","","","",""
"","","","","","html-keyboard-response","36","173069","0.0-2.0-2.0-0.16","5e69ce2076c4680330657fd6","C3","batch3","spm_show_trial_num","null","<p class=block-text>Trial 17 out of 60</p>","null","","","","","","","","","","","","","","","","","","","","","","","","","",""
"","","","","","image-button-response","37","178591","0.0-2.0-2.0-1.16","5e69ce2076c4680330657fd6","C3","batch3","spm_respsonse","5519.399999999907","img/question_2_5.jpeg","0","mat_17","1","1","1","5519.399999999907","","","","","","","","","","","","","","","","","","","","",""
"","","","","","html-keyboard-response","38","179658","0.0-2.0-2.0-0.17","5e69ce2076c4680330657fd6","C3","batch3","spm_show_trial_num","null","<p class=block-text>Trial 18 out of 60</p>","null","","","","","","","","","","","","","","","","","","","","","","","","","",""
"","","","","","image-button-response","39","192031","0.0-2.0-2.0-1.17","5e69ce2076c4680330657fd6","C3","batch3","spm_respsonse","12369.399999999907","img/question_2_6.jpeg","2","mat_18","3","1","1","12369.399999999907","","","","","","","","","","","","","","","","","","","","",""
"","","","","","html-keyboard-response","40","193099","0.0-2.0-2.0-0.18","5e69ce2076c4680330657fd6","C3","batch3","spm_show_trial_num","null","<p class=block-text>Trial 19 out of 60</p>","null","","","","","","","","","","","","","","","","","","","","","","","","","",""
"","","","","","image-button-response","41","203218","0.0-2.0-2.0-1.18","5e69ce2076c4680330657fd6","C3","batch3","spm_respsonse","10116.299999999814","img/question_2_7.jpeg","4","mat_19","5","1","1","10116.299999999814","","","","","","","","","","","","","","","","","","","","",""
"","","","","","html-keyboard-response","42","204282","0.0-2.0-2.0-0.19","5e69ce2076c4680330657fd6","C3","batch3","spm_show_trial_num","null","<p class=block-text>Trial 20 out of 60</p>","null","","","","","","","","","","","","","","","","","","","","","","","","","",""
"","","","","","image-button-response","43","215431","0.0-2.0-2.0-1.19","5e69ce2076c4680330657fd6","C3","batch3","spm_respsonse","11145.399999999907","img/question_2_8.jpeg","5","mat_20","6","1","1","11145.399999999907","","","","","","","","","","","","","","","","","","","","",""
"","","","","","html-keyboard-response","44","216499","0.0-2.0-2.0-0.20","5e69ce2076c4680330657fd6","C3","batch3","spm_show_trial_num","null","<p class=block-text>Trial 21 out of 60</p>","null","","","","","","","","","","","","","","","","","","","","","","","","","",""
"","","","","","image-button-response","45","224620","0.0-2.0-2.0-1.20","5e69ce2076c4680330657fd6","C3","batch3","spm_respsonse","8118","img/question_2_9.jpeg","3","mat_21","4","1","1","8118","","","","","","","","","","","","","","","","","","","","",""
"","","","","","html-keyboard-response","46","225687","0.0-2.0-2.0-0.21","5e69ce2076c4680330657fd6","C3","batch3","spm_show_trial_num","null","<p class=block-text>Trial 22 out of 60</p>","null","","","","","","","","","","","","","","","","","","","","","","","","","",""
"","","","","","image-button-response","47","231126","0.0-2.0-2.0-1.21","5e69ce2076c4680330657fd6","C3","batch3","spm_respsonse","5436.399999999907","img/question_2_10.jpeg","2","mat_22","3","1","1","5436.399999999907","","","","","","","","","","","","","","","","","","","","",""
"","","","","","html-keyboard-response","48","232191","0.0-2.0-2.0-0.22","5e69ce2076c4680330657fd6","C3","batch3","spm_show_trial_num","null","<p class=block-text>Trial 23 out of 60</p>","null","","","","","","","","","","","","","","","","","","","","","","","","","",""
"","","","","","image-button-response","49","238609","0.0-2.0-2.0-1.22","5e69ce2076c4680330657fd6","C3","batch3","spm_respsonse","6415.299999999814","img/question_2_11.jpeg","3","mat_23","4","1","1","6415.299999999814","","","","","","","","","","","","","","","","","","","","",""
"","","","","","html-keyboard-response","50","239679","0.0-2.0-2.0-0.23","5e69ce2076c4680330657fd6","C3","batch3","spm_show_trial_num","null","<p class=block-text>Trial 24 out of 60</p>","null","","","","","","","","","","","","","","","","","","","","","","","","","",""
"","","","","","image-button-response","51","254088","0.0-2.0-2.0-1.23","5e69ce2076c4680330657fd6","C3","batch3","spm_respsonse","14405.100000000093","img/question_2_12.jpeg","4","mat_24","5","1","1","14405.100000000093","","","","","","","","","","","","","","","","","","","","",""
"","","","","","html-button-response","52","256377","0.0-2.0-3.0","5e69ce2076c4680330657fd6","C3","batch3","attention_check","2034.7000000001863","<p class = block-text>Attention check: Please choose 1<br></p>","0","","","true","","","","","","","","","","","","","","","","","","","","","","",""
"","","","","","html-keyboard-response","53","257180","0.0-2.0-4.0-0.0","5e69ce2076c4680330657fd6","C3","batch3","spm_show_trial_num","null","<p class=block-text>Trial 25 out of 60</p>","null","","","","","","","","","","","","","","","","","","","","","","","","","",""
"","","","","","image-button-response","54","267200","0.0-2.0-4.0-1.0","5e69ce2076c4680330657fd6","C3","batch3","spm_respsonse","10015.200000000186","img/question_3_1.jpeg","7","mat_25","8","1","1","10015.200000000186","","","","","","","","","","","","","","","","","","","","",""
"","","","","","html-keyboard-response","55","268261","0.0-2.0-4.0-0.1","5e69ce2076c4680330657fd6","C3","batch3","spm_show_trial_num","null","<p class=block-text>Trial 26 out of 60</p>","null","","","","","","","","","","","","","","","","","","","","","","","","","",""
"","","","","","image-button-response","56","282483","0.0-2.0-4.0-1.1","5e69ce2076c4680330657fd6","C3","batch3","spm_respsonse","14219.399999999907","img/question_3_2.jpeg","1","mat_26","2","1","1","14219.399999999907","","","","","","","","","","","","","","","","","","","","",""
"","","","","","html-keyboard-response","57","283552","0.0-2.0-4.0-0.2","5e69ce2076c4680330657fd6","C3","batch3","spm_show_trial_num","null","<p class=block-text>Trial 27 out of 60</p>","null","","","","","","","","","","","","","","","","","","","","","","","","","",""
"","","","","","image-button-response","58","304650","0.0-2.0-4.0-1.2","5e69ce2076c4680330657fd6","C3","batch3","spm_respsonse","21094.80000000028","img/question_3_3.jpeg","2","mat_27","3","1","1","21094.80000000028","","","","","","","","","","","","","","","","","","","","",""
"","","","","","html-keyboard-response","59","305721","0.0-2.0-4.0-0.3","5e69ce2076c4680330657fd6","C3","batch3","spm_show_trial_num","null","<p class=block-text>Trial 28 out of 60</p>","null","","","","","","","","","","","","","","","","","","","","","","","","","",""
"","","","","","image-button-response","60","331280","0.0-2.0-4.0-1.3","5e69ce2076c4680330657fd6","C3","batch3","spm_respsonse","25555.799999999814","img/question_3_4.jpeg","7","mat_28","8","1","1","25555.799999999814","","","","","","","","","","","","","","","","","","","","",""
"","","","","","html-keyboard-response","61","332343","0.0-2.0-4.0-0.4","5e69ce2076c4680330657fd6","C3","batch3","spm_show_trial_num","null","<p class=block-text>Trial 29 out of 60</p>","null","","","","","","","","","","","","","","","","","","","","","","","","","",""
"","","","","","image-button-response","62","383571","0.0-2.0-4.0-1.4","5e69ce2076c4680330657fd6","C3","batch3","spm_respsonse","51223.30000000028","img/question_3_5.jpeg","6","mat_29","7","1","1","51223.30000000028","","","","","","","","","","","","","","","","","","","","",""
"","","","","","html-keyboard-response","63","384630","0.0-2.0-4.0-0.5","5e69ce2076c4680330657fd6","C3","batch3","spm_show_trial_num","null","<p class=block-text>Trial 30 out of 60</p>","null","","","","","","","","","","","","","","","","","","","","","","","","","",""
"","","","","","image-button-response","64","410643","0.0-2.0-4.0-1.5","5e69ce2076c4680330657fd6","C3","batch3","spm_respsonse","26008.600000000093","img/question_3_6.jpeg","3","mat_30","4","1","1","26008.600000000093","","","","","","","","","","","","","","","","","","","","",""
"","","","","","html-keyboard-response","65","411705","0.0-2.0-4.0-0.6","5e69ce2076c4680330657fd6","C3","batch3","spm_show_trial_num","null","<p class=block-text>Trial 31 out of 60</p>","null","","","","","","","","","","","","","","","","","","","","","","","","","",""
"","","","","","image-button-response","66","420148","0.0-2.0-4.0-1.6","5e69ce2076c4680330657fd6","C3","batch3","spm_respsonse","8439.299999999814","img/question_3_7.jpeg","4","mat_31","5","1","1","8439.299999999814","","","","","","","","","","","","","","","","","","","","",""
"","","","","","html-keyboard-response","67","421213","0.0-2.0-4.0-0.7","5e69ce2076c4680330657fd6","C3","batch3","spm_show_trial_num","null","<p class=block-text>Trial 32 out of 60</p>","null","","","","","","","","","","","","","","","","","","","","","","","","","",""
"","","","","","image-button-response","68","511289","0.0-2.0-4.0-1.7","5e69ce2076c4680330657fd6","C3","batch3","spm_respsonse","90071.3999999999","img/question_3_8.jpeg","0","mat_32","1","1","1","90071.3999999999","","","","","","","","","","","","","","","","","","","","",""
"","","","","","html-keyboard-response","69","512359","0.0-2.0-4.0-0.8","5e69ce2076c4680330657fd6","C3","batch3","spm_show_trial_num","null","<p class=block-text>Trial 33 out of 60</p>","null","","","","","","","","","","","","","","","","","","","","","","","","","",""
"","","","","","image-button-response","70","533045","0.0-2.0-4.0-1.8","5e69ce2076c4680330657fd6","C3","batch3","spm_respsonse","20682.200000000186","img/question_3_9.jpeg","6","mat_33","7","1","1","20682.200000000186","","","","","","","","","","","","","","","","","","","","",""
"","","","","","html-keyboard-response","71","534109","0.0-2.0-4.0-0.9","5e69ce2076c4680330657fd6","C3","batch3","spm_show_trial_num","null","<p class=block-text>Trial 34 out of 60</p>","null","","","","","","","","","","","","","","","","","","","","","","","","","",""
"","","","","","image-button-response","72","558105","0.0-2.0-4.0-1.9","5e69ce2076c4680330657fd6","C3","batch3","spm_respsonse","23992.200000000186","img/question_3_10.jpeg","5","mat_34","6","1","1","23992.200000000186","","","","","","","","","","","","","","","","","","","","",""
"","","","","","html-keyboard-response","73","559173","0.0-2.0-4.0-0.10","5e69ce2076c4680330657fd6","C3","batch3","spm_show_trial_num","null","<p class=block-text>Trial 35 out of 60</p>","null","","","","","","","","","","","","","","","","","","","","","","","","","",""
"","","","","","image-button-response","74","595464","0.0-2.0-4.0-1.10","5e69ce2076c4680330657fd6","C3","batch3","spm_respsonse","36288.10000000009","img/question_3_11.jpeg","0","mat_35","1","1","1","36288.10000000009","","","","","","","","","","","","","","","","","","","","",""
"","","","","","html-keyboard-response","75","596525","0.0-2.0-4.0-0.11","5e69ce2076c4680330657fd6","C3","batch3","spm_show_trial_num","null","<p class=block-text>Trial 36 out of 60</p>","null","","","","","","","","","","","","","","","","","","","","","","","","","",""
"","","","","","image-button-response","76","646384","0.0-2.0-4.0-1.11","5e69ce2076c4680330657fd6","C3","batch3","spm_respsonse","49853.80000000028","img/question_3_12.jpeg","1","mat_36","2","1","1","49853.80000000028","","","","","","","","","","","","","","","","","","","","",""
"","","","","","html-keyboard-response","77","647451","0.0-2.0-4.0-0.12","5e69ce2076c4680330657fd6","C3","batch3","spm_show_trial_num","null","<p class=block-text>Trial 37 out of 60</p>","null","","","","","","","","","","","","","","","","","","","","","","","","","",""
"","","","","","image-button-response","78","652368","0.0-2.0-4.0-1.12","5e69ce2076c4680330657fd6","C3","batch3","spm_respsonse","4914.200000000186","img/question_4_1.jpeg","2","mat_37","3","1","1","4914.200000000186","","","","","","","","","","","","","","","","","","","","",""
"","","","","","html-keyboard-response","79","653432","0.0-2.0-4.0-0.13","5e69ce2076c4680330657fd6","C3","batch3","spm_show_trial_num","null","<p class=block-text>Trial 38 out of 60</p>","null","","","","","","","","","","","","","","","","","","","","","","","","","",""
"","","","","","image-button-response","80","700563","0.0-2.0-4.0-1.13","5e69ce2076c4680330657fd6","C3","batch3","spm_respsonse","47126.700000000186","img/question_4_2.jpeg","3","mat_38","4","1","1","47126.700000000186","","","","","","","","","","","","","","","","","","","","",""
"","","","","","html-keyboard-response","81","701629","0.0-2.0-4.0-0.14","5e69ce2076c4680330657fd6","C3","batch3","spm_show_trial_num","null","<p class=block-text>Trial 39 out of 60</p>","null","","","","","","","","","","","","","","","","","","","","","","","","","",""
"","","","","","image-button-response","82","729176","0.0-2.0-4.0-1.14","5e69ce2076c4680330657fd6","C3","batch3","spm_respsonse","27543.399999999907","img/question_4_3.jpeg","2","mat_39","3","1","1","27543.399999999907","","","","","","","","","","","","","","","","","","","","",""
"","","","","","html-keyboard-response","83","730242","0.0-2.0-4.0-0.15","5e69ce2076c4680330657fd6","C3","batch3","spm_show_trial_num","null","<p class=block-text>Trial 40 out of 60</p>","null","","","","","","","","","","","","","","","","","","","","","","","","","",""
"","","","","","image-button-response","84","738275","0.0-2.0-4.0-1.15","5e69ce2076c4680330657fd6","C3","batch3","spm_respsonse","8030.399999999907","img/question_4_4.jpeg","6","mat_40","7","1","1","8030.399999999907","","","","","","","","","","","","","","","","","","","","",""
"","","","","","html-keyboard-response","85","739342","0.0-2.0-4.0-0.16","5e69ce2076c4680330657fd6","C3","batch3","spm_show_trial_num","null","<p class=block-text>Trial 41 out of 60</p>","null","","","","","","","","","","","","","","","","","","","","","","","","","",""
"","","","","","image-button-response","86","754396","0.0-2.0-4.0-1.16","5e69ce2076c4680330657fd6","C3","batch3","spm_respsonse","15050.299999999814","img/question_4_5.jpeg","7","mat_41","8","1","1","15050.299999999814","","","","","","","","","","","","","","","","","","","","",""
"","","","","","html-keyboard-response","87","755463","0.0-2.0-4.0-0.17","5e69ce2076c4680330657fd6","C3","batch3","spm_show_trial_num","null","<p class=block-text>Trial 42 out of 60</p>","null","","","","","","","","","","","","","","","","","","","","","","","","","",""
"","","","","","image-button-response","88","778752","0.0-2.0-4.0-1.17","5e69ce2076c4680330657fd6","C3","batch3","spm_respsonse","23286.399999999907","img/question_4_6.jpeg","5","mat_42","6","1","1","23286.399999999907","","","","","","","","","","","","","","","","","","","","",""
"","","","","","html-keyboard-response","89","779823","0.0-2.0-4.0-0.18","5e69ce2076c4680330657fd6","C3","batch3","spm_show_trial_num","null","<p class=block-text>Trial 43 out of 60</p>","null","","","","","","","","","","","","","","","","","","","","","","","","","",""
"","","","","","image-button-response","90","837211","0.0-2.0-4.0-1.18","5e69ce2076c4680330657fd6","C3","batch3","spm_respsonse","57383.39999999991","img/question_4_7.jpeg","4","mat_43","5","1","1","57383.39999999991","","","","","","","","","","","","","","","","","","","","",""
"","","","","","html-keyboard-response","91","838276","0.0-2.0-4.0-0.19","5e69ce2076c4680330657fd6","C3","batch3","spm_show_trial_num","null","<p class=block-text>Trial 44 out of 60</p>","null","","","","","","","","","","","","","","","","","","","","","","","","","",""
"","","","","","image-button-response","92","877960","0.0-2.0-4.0-1.19","5e69ce2076c4680330657fd6","C3","batch3","spm_respsonse","39680.200000000186","img/question_4_8.jpeg","3","mat_44","4","1","1","39680.200000000186","","","","","","","","","","","","","","","","","","","","",""
"","","","","","html-keyboard-response","93","879026","0.0-2.0-4.0-0.20","5e69ce2076c4680330657fd6","C3","batch3","spm_show_trial_num","null","<p class=block-text>Trial 45 out of 60</p>","null","","","","","","","","","","","","","","","","","","","","","","","","","",""
"","","","","","image-button-response","94","954624","0.0-2.0-4.0-1.20","5e69ce2076c4680330657fd6","C3","batch3","spm_respsonse","75592.5","img/question_4_9.jpeg","0","mat_45","1","1","1","75592.5","","","","","","","","","","","","","","","","","","","","",""
"","","","","","html-keyboard-response","95","955689","0.0-2.0-4.0-0.21","5e69ce2076c4680330657fd6","C3","batch3","spm_show_trial_num","null","<p class=block-text>Trial 46 out of 60</p>","null","","","","","","","","","","","","","","","","","","","","","","","","","",""
"","","","","","image-button-response","96","1023218","0.0-2.0-4.0-1.21","5e69ce2076c4680330657fd6","C3","batch3","spm_respsonse","67511.70000000019","img/question_4_10.jpeg","1","mat_46","2","1","1","67511.70000000019","","","","","","","","","","","","","","","","","","","","",""
"","","","","","html-keyboard-response","97","1024283","0.0-2.0-4.0-0.22","5e69ce2076c4680330657fd6","C3","batch3","spm_show_trial_num","null","<p class=block-text>Trial 47 out of 60</p>","null","","","","","","","","","","","","","","","","","","","","","","","","","",""
"","","","","","image-button-response","98","1116095","0.0-2.0-4.0-1.22","5e69ce2076c4680330657fd6","C3","batch3","spm_respsonse","91804.1000000001","img/question_4_11.jpeg","2","mat_47","5","0","0","91804.1000000001","","","","","","","","","","","","","","","","","","","","",""
"","","","","","html-keyboard-response","99","1117160","0.0-2.0-4.0-0.23","5e69ce2076c4680330657fd6","C3","batch3","spm_show_trial_num","null","<p class=block-text>Trial 48 out of 60</p>","null","","","","","","","","","","","","","","","","","","","","","","","","","",""
"","","","","","image-button-response","100","1168039","0.0-2.0-4.0-1.23","5e69ce2076c4680330657fd6","C3","batch3","spm_respsonse","50874","img/question_4_12.jpeg","7","mat_48","6","0","0","50874","","","","","","","","","","","","","","","","","","","","",""
"","","","","","html-keyboard-response","101","1169102","0.0-2.0-4.0-0.24","5e69ce2076c4680330657fd6","C3","batch3","spm_show_trial_num","null","<p class=block-text>Trial 49 out of 60</p>","null","","","","","","","","","","","","","","","","","","","","","","","","","",""
"","","","","","image-button-response","102","1198262","0.0-2.0-4.0-1.24","5e69ce2076c4680330657fd6","C3","batch3","spm_respsonse","29156.399999999907","img/question_5_1.jpeg","6","mat_49","7","1","1","29156.399999999907","","","","","","","","","","","","","","","","","","","","",""
"","","","","","html-keyboard-response","103","1199331","0.0-2.0-4.0-0.25","5e69ce2076c4680330657fd6","C3","batch3","spm_show_trial_num","null","<p class=block-text>Trial 50 out of 60</p>","null","","","","","","","","","","","","","","","","","","","","","","","","","",""
"","","","","","image-button-response","104","1218429","0.0-2.0-4.0-1.25","5e69ce2076c4680330657fd6","C3","batch3","spm_respsonse","19095","img/question_5_2.jpeg","5","mat_50","6","1","1","19095","","","","","","","","","","","","","","","","","","","","",""
"","","","","","html-keyboard-response","105","1219499","0.0-2.0-4.0-0.26","5e69ce2076c4680330657fd6","C3","batch3","spm_show_trial_num","null","<p class=block-text>Trial 51 out of 60</p>","null","","","","","","","","","","","","","","","","","","","","","","","","","",""
"","","","","","image-button-response","106","1242182","0.0-2.0-4.0-1.26","5e69ce2076c4680330657fd6","C3","batch3","spm_respsonse","22678.599999999627","img/question_5_3.jpeg","7","mat_51","8","1","1","22678.599999999627","","","","","","","","","","","","","","","","","","","","",""
"","","","","","html-keyboard-response","107","1243248","0.0-2.0-4.0-0.27","5e69ce2076c4680330657fd6","C3","batch3","spm_show_trial_num","null","<p class=block-text>Trial 52 out of 60</p>","null","","","","","","","","","","","","","","","","","","","","","","","","","",""
"","","","","","image-button-response","108","1399030","0.0-2.0-4.0-1.27","5e69ce2076c4680330657fd6","C3","batch3","spm_respsonse","155774.69999999972","img/question_5_4.jpeg","4","mat_52","2","0","0","155774.69999999972","","","","","","","","","","","","","","","","","","","","",""
"","","","","","html-keyboard-response","109","1400097","0.0-2.0-4.0-0.28","5e69ce2076c4680330657fd6","C3","batch3","spm_show_trial_num","null","<p class=block-text>Trial 53 out of 60</p>","null","","","","","","","","","","","","","","","","","","","","","","","","","",""
"","","","","","image-button-response","110","1425517","0.0-2.0-4.0-1.28","5e69ce2076c4680330657fd6","C3","batch3","spm_respsonse","25416.69999999972","img/question_5_5.jpeg","0","mat_53","1","1","1","25416.69999999972","","","","","","","","","","","","","","","","","","","","",""
"","","","","","html-keyboard-response","111","1426586","0.0-2.0-4.0-0.29","5e69ce2076c4680330657fd6","C3","batch3","spm_show_trial_num","null","<p class=block-text>Trial 54 out of 60</p>","null","","","","","","","","","","","","","","","","","","","","","","","","","",""
"","","","","","image-button-response","112","1491551","0.0-2.0-4.0-1.29","5e69ce2076c4680330657fd6","C3","batch3","spm_respsonse","64960.59999999963","img/question_5_6.jpeg","4","mat_54","5","1","1","64960.59999999963","","","","","","","","","","","","","","","","","","","","",""
"","","","","","html-keyboard-response","113","1492615","0.0-2.0-4.0-0.30","5e69ce2076c4680330657fd6","C3","batch3","spm_show_trial_num","null","<p class=block-text>Trial 55 out of 60</p>","null","","","","","","","","","","","","","","","","","","","","","","","","","",""
"","","","","","image-button-response","114","1555475","0.0-2.0-4.0-1.30","5e69ce2076c4680330657fd6","C3","batch3","spm_respsonse","62855","img/question_5_7.jpeg","0","mat_55","1","1","1","62855","","","","","","","","","","","","","","","","","","","","",""
"","","","","","html-keyboard-response","115","1556541","0.0-2.0-4.0-0.31","5e69ce2076c4680330657fd6","C3","batch3","spm_show_trial_num","null","<p class=block-text>Trial 56 out of 60</p>","null","","","","","","","","","","","","","","","","","","","","","","","","","",""
"","","","","","image-button-response","116","1569796","0.0-2.0-4.0-1.31","5e69ce2076c4680330657fd6","C3","batch3","spm_respsonse","13251.399999999907","img/question_5_8.jpeg","5","mat_56","6","1","1","13251.399999999907","","","","","","","","","","","","","","","","","","","","",""
"","","","","","html-keyboard-response","117","1570862","0.0-2.0-4.0-0.32","5e69ce2076c4680330657fd6","C3","batch3","spm_show_trial_num","null","<p class=block-text>Trial 57 out of 60</p>","null","","","","","","","","","","","","","","","","","","","","","","","","","",""
"","","","","","image-button-response","118","1659881","0.0-2.0-4.0-1.32","5e69ce2076c4680330657fd6","C3","batch3","spm_respsonse","89014","img/question_5_9.jpeg","7","mat_57","3","0","0","89014","","","","","","","","","","","","","","","","","","","","",""
"","","","","","html-keyboard-response","119","1660949","0.0-2.0-4.0-0.33","5e69ce2076c4680330657fd6","C3","batch3","spm_show_trial_num","null","<p class=block-text>Trial 58 out of 60</p>","null","","","","","","","","","","","","","","","","","","","","","","","","","",""
"","","","","","image-button-response","120","1724215","0.0-2.0-4.0-1.33","5e69ce2076c4680330657fd6","C3","batch3","spm_respsonse","63260.799999999814","img/question_5_10.jpeg","0","mat_58","2","0","0","63260.799999999814","","","","","","","","","","","","","","","","","","","","",""
"","","","","","html-keyboard-response","121","1725279","0.0-2.0-4.0-0.34","5e69ce2076c4680330657fd6","C3","batch3","spm_show_trial_num","null","<p class=block-text>Trial 59 out of 60</p>","null","","","","","","","","","","","","","","","","","","","","","","","","","",""
"","","","","","image-button-response","122","1751578","0.0-2.0-4.0-1.34","5e69ce2076c4680330657fd6","C3","batch3","spm_respsonse","26294.600000000093","img/question_5_11.jpeg","6","mat_59","4","0","0","26294.600000000093","","","","","","","","","","","","","","","","","","","","",""
"","","","","","html-keyboard-response","123","1752639","0.0-2.0-4.0-0.35","5e69ce2076c4680330657fd6","C3","batch3","spm_show_trial_num","null","<p class=block-text>Trial 60 out of 60</p>","null","","","","","","","","","","","","","","","","","","","","","","","","","",""
"","","","","","image-button-response","124","1792776","0.0-2.0-4.0-1.35","5e69ce2076c4680330657fd6","C3","batch3","spm_respsonse","40132.69999999972","img/question_5_12.jpeg","2","mat_60","5","0","0","40132.69999999972","","","","","","","","","","","","","","","","","","","","",""
"","","","","","html-button-response","125","1795430","0.0-2.0-5.0","5e69ce2076c4680330657fd6","C3","batch3","spm_goodbye","2391.7000000001863","<p class= block-text>This concludes the Standard Progressive Matrix game. Thank you for your responses!<br> When you are ready, click the button continue</p>","0","","","","","","","","","","","","","","","","","","","","","","","","","",""
"true","","","","","fullscreen","126","1797941","0.0-3.0-0.0","5e69ce2076c4680330657fd6","C3","batch3","","","","","","","","","","","","","","","","","","","","","","","","","","","","","",""
"","","","","","instructions","127","1827732","0.0-3.0-1.0-0.0-0.0","5e69ce2076c4680330657fd6","C3","batch3","tol-instructions","29789.600000000093","","","","","","","","[{""page_index"":0,""viewing_time"":7506.100000000093},{""page_index"":1,""viewing_time"":2780.7999999998137},{""page_index"":2,""viewing_time"":2189.4000000003725},{""page_index"":3,""viewing_time"":6890.0999999996275},{""page_index"":4,""viewing_time"":3311.2999999998137},{""page_index"":5,""viewing_time"":5089.700000000186},{""page_index"":6,""viewing_time"":2021.9000000003725}]","","","","","","","","","","","","","","","","","","","",""
"","","","","","html-button-response","128","1828765","0.0-3.0-1.0-1.0-0.0","5e69ce2076c4680330657fd6","C3","batch3","tol_enter_quiz","1031.6000000005588","<p class=block-text> Let's answer a few questions <br>","0","","","","","","","","","","","","","","","","","","","","","","","","","",""
"","","","","","html-button-response","129","1832821","0.0-3.0-1.0-1.0-1.0","5e69ce2076c4680330657fd6","C3","batch3","tol_quiz","4054.2000000001863","<p class = block-text>True or False: You can only move the ball on top of a peg. <br></p>","0","","","true","","","","","","","","","","","","","","","","","","","","","","",""
"","","","","","html-button-response","130","1833887","0.0-3.0-1.0-1.0-2.0","5e69ce2076c4680330657fd6","C3","batch3","tol_quiz_feedback","1063.4000000003725","<p class = block-text>Correct! You can only move the ball on top of a peg.</p>","0","","","","","","","","","","","","","","","","","","","","","","","","","",""
"","","","","","html-button-response","131","1835967","0.0-3.0-1.0-1.0-3.0","5e69ce2076c4680330657fd6","C3","batch3","tol_quiz","2078.4000000003725","<p class = block-text>True or False: You should try to match your board with the target board with fewest moves possible. <br></p>","0","","","true","","","","","","","","","","","","","","","","","","","","","","",""
"","","","","","html-button-response","132","1836709","0.0-3.0-1.0-1.0-4.0","5e69ce2076c4680330657fd6","C3","batch3","tol_quiz_feedback","741.0999999996275","<p class = block-text>Correct! </p>","0","","","","","","","","","","","","","","","","","","","","","","","","","",""
"","","","","","html-button-response","133","1838031","0.0-3.0-2.0","5e69ce2076c4680330657fd6","C3","batch3","","1320","<p class=block-text> Now that you've understood the game, let's practice a few easier examples before we start!<br> <br>","0","","","","","","","","","","","","","","","","","","","","","","","","","",""
"","","","","","single-stim-button","134","1842269","0.0-3.0-3.0-0.0","5e69ce2076c4680330657fd6","C3","batch3","tol_practice","4235","","","","","","","","","tol_peg_2","4235","4235","0","[[1,2,0],[0,0],[0]]","1","[[1,2,0],[0,0],[3]]","practice","4235","","","","","","","","","","",""
"","","","","","single-stim-button","135","1843662","0.0-3.0-3.0-1.0","5e69ce2076c4680330657fd6","C3","batch3","tol_practice","1392","","","","","","","","","tol_peg_3","1392","1392","0","[[1,2,0],[0,0],[3]]","1","[[1,2,0],[0,0],[3]]","practice","1392","","","","","","","","","","",""
"","","","","","poldrack-single-stim","136","1844677","0.0-3.0-4.0","5e69ce2076c4680330657fd6","C3","batch3","tol_feedback","-1","","","","","true","","","","","1000","1000","500","","","","","","-1","none","true","","0","","","","","",""
"","","","","","single-stim-button","137","1850754","0.0-3.0-5.0-0.0","5e69ce2076c4680330657fd6","C3","batch3","tol_practice","6076","","","","","","","","","tol_peg_1","6076","6076","0","[[1,0,0],[3,0],[0]]","2","[[0,0,0],[3,1],[2]]","practice","6076","","","","","","","","","","",""
"","","","","","single-stim-button","138","1851744","0.0-3.0-5.0-1.0","5e69ce2076c4680330657fd6","C3","batch3","tol_practice","988","","","","","","","","","tol_peg_3","988","988","0","[[1,0,0],[3,0],[2]]","2","[[0,0,0],[3,1],[2]]","practice","988","","","","","","","","","","",""
"","","","","","single-stim-button","139","1852569","0.0-3.0-5.1-0.1","5e69ce2076c4680330657fd6","C3","batch3","tol_practice","824","","","","","","","","","tol_peg_1","824","824","0","[[0,0,0],[3,0],[2]]","3","[[0,0,0],[3,1],[2]]","practice","824","","","","","","","","","","",""
"","","","","","single-stim-button","140","1853506","0.0-3.0-5.1-1.1","5e69ce2076c4680330657fd6","C3","batch3","tol_practice","936","","","","","","","","","tol_peg_2","936","936","0","[[0,0,0],[3,1],[2]]","3","[[0,0,0],[3,1],[2]]","practice","936","","","","","","","","","","",""
"","","","","","poldrack-single-stim","141","1854518","0.0-3.0-6.0","5e69ce2076c4680330657fd6","C3","batch3","tol_feedback","-1","","","","","true","","","","","1000","1000","500","","","","","","-1","none","true","","0","","","","","",""
"","","","","","single-stim-button","142","1857905","0.0-3.0-7.0-0.0","5e69ce2076c4680330657fd6","C3","batch3","tol_practice","3386","","","","","","","","","tol_peg_2","3386","3386","0","[[1,2,0],[0,0],[0]]","4","[[1,0,0],[2,0],[3]]","practice","3386","","","","","","","","","","",""
"","","","","","single-stim-button","143","1858793","0.0-3.0-7.0-1.0","5e69ce2076c4680330657fd6","C3","batch3","tol_practice","887","","","","","","","","","tol_peg_3","887","887","0","[[1,2,0],[0,0],[3]]","4","[[1,0,0],[2,0],[3]]","practice","887","","","","","","","","","","",""
"","","","","","single-stim-button","144","1859733","0.0-3.0-7.1-0.1","5e69ce2076c4680330657fd6","C3","batch3","tol_practice","938","","","","","","","","","tol_peg_1","938","938","0","[[1,0,0],[0,0],[3]]","5","[[1,0,0],[2,0],[3]]","practice","938","","","","","","","","","","",""
"","","","","","single-stim-button","145","1860429","0.0-3.0-7.1-1.1","5e69ce2076c4680330657fd6","C3","batch3","tol_practice","696","","","","","","","","","tol_peg_2","696","696","0","[[1,0,0],[2,0],[3]]","5","[[1,0,0],[2,0],[3]]","practice","696","","","","","","","","","","",""
"","","","","","poldrack-single-stim","146","1861431","0.0-3.0-8.0","5e69ce2076c4680330657fd6","C3","batch3","tol_feedback","-1","","","","","true","","","","","1000","1000","500","","","","","","-1","none","true","","0","","","","","",""
"","","","","","html-button-response","147","1862510","0.0-3.0-9.0","5e69ce2076c4680330657fd6","C3","batch3","tol_instruction","1078.4000000003725","<div class = centerbox><p class = center-block-text>Great job! You are done with practice trials<br>You are about to start official trials.<br> <br> Problem <strong>1</strong> out of 25 problems</p></div>","0","","","","","","","","","","","","","","","","","","","","","","","","","",""
"","","","","","single-stim-button","148","1869194","0.0-3.0-10.0-0.0","5e69ce2076c4680330657fd6","C3","batch3","tol_tohand","5679","","","","","","","","","tol_peg_1","5679","5679","0","[[1,0,0],[3,0],[0]]","1","[[1,3,0],[2,0],[0]]","0","0","","","","","","3","","","","",""
"","","","","","single-stim-button","149","1870083","0.0-3.0-10.0-1.0","5e69ce2076c4680330657fd6","C3","batch3","tol_toboard","888","","","","","","","","","tol_peg_3","888","888","0","[[1,0,0],[3,0],[2]]","1","[[1,3,0],[2,0],[0]]","0","0","","","","","","3","","","","",""
"","","","","","single-stim-button","150","1870907","0.0-3.0-10.1-0.1","5e69ce2076c4680330657fd6","C3","batch3","tol_tohand","823","","","","","","","","","tol_peg_2","823","823","0","[[1,0,0],[0,0],[2]]","2","[[1,3,0],[2,0],[0]]","0","0","","","","","","3","","","","",""
"","","","","","single-stim-button","151","1871848","0.0-3.0-10.1-1.1","5e69ce2076c4680330657fd6","C3","batch3","tol_toboard","941","","","","","","","","","tol_peg_1","941","941","0","[[1,3,0],[0,0],[2]]","2","[[1,3,0],[2,0],[0]]","0","0","","","","","","3","","","","",""
"","","","","","single-stim-button","152","1872824","0.0-3.0-10.2-0.2","5e69ce2076c4680330657fd6","C3","batch3","tol_tohand","975","","","","","","","","","tol_peg_3","975","975","0","[[1,3,0],[0,0],[0]]","3","[[1,3,0],[2,0],[0]]","0","0","","","","","","3","","","","",""
"","","","","","single-stim-button","153","1873528","0.0-3.0-10.2-1.2","5e69ce2076c4680330657fd6","C3","batch3","tol_toboard","703","","","","","","","","","tol_peg_2","703","703","0","[[1,3,0],[2,0],[0]]","3","[[1,3,0],[2,0],[0]]","0","0","","","","","","3","","","","",""
"","","","","","poldrack-single-stim","154","1874535","0.0-3.0-11.0","5e69ce2076c4680330657fd6","C3","batch3","tol_feedback","-1","","","","","true","","","","","1000","1000","500","","","","","","-1","none","true","5679","7477","","","","","",""
"","","","","","html-button-response","155","1875513","0.0-3.0-12.0","5e69ce2076c4680330657fd6","C3","batch3","tol_trial_num","976","<div class = centerbox><p class = center-block-text>problem <strong>2</strong> out of 25 problems</p></div>","0","","","","","","","","","","","","","","","","","","","","","","","","","",""
"","","","","","single-stim-button","156","1881876","0.0-3.0-13.0-0.0","5e69ce2076c4680330657fd6","C3","batch3","tol_tohand","6361","","","","","","","","","tol_peg_1","6361","6361","0","[[1,0,0],[3,0],[0]]","1","[[2,1,3],[0,0],[0]]","1","0","","","","","","5","","","","",""
"","","","","","single-stim-button","157","1884280","0.0-3.0-13.0-1.0","5e69ce2076c4680330657fd6","C3","batch3","tol_toboard","2404","","","","","","","","","tol_peg_3","2404","2404","0","[[1,0,0],[3,0],[2]]","1","[[2,1,3],[0,0],[0]]","1","0","","","","","","5","","","","",""
"","","","","","single-stim-button","158","1888948","0.0-3.0-13.1-0.1","5e69ce2076c4680330657fd6","C3","batch3","tol_tohand","4666","","","","","","","","","tol_peg_1","4666","4666","0","[[0,0,0],[3,0],[2]]","2","[[2,1,3],[0,0],[0]]","1","0","","","","","","5","","","","",""
"","","","","","single-stim-button","159","1890131","0.0-3.0-13.1-1.1","5e69ce2076c4680330657fd6","C3","batch3","tol_toboard","1183","","","","","","","","","tol_peg_2","1183","1183","0","[[0,0,0],[3,1],[2]]","2","[[2,1,3],[0,0],[0]]","1","0","","","","","","5","","","","",""
"","","","","","single-stim-button","160","1890884","0.0-3.0-13.2-0.2","5e69ce2076c4680330657fd6","C3","batch3","tol_tohand","752","","","","","","","","","tol_peg_3","752","752","0","[[0,0,0],[3,1],[0]]","3","[[2,1,3],[0,0],[0]]","1","0","","","","","","5","","","","",""
"","","","","","single-stim-button","161","1891701","0.0-3.0-13.2-1.2","5e69ce2076c4680330657fd6","C3","batch3","tol_toboard","815","","","","","","","","","tol_peg_1","815","815","0","[[2,0,0],[3,1],[0]]","3","[[2,1,3],[0,0],[0]]","1","0","","","","","","5","","","","",""
"","","","","","single-stim-button","162","1892505","0.0-3.0-13.3-0.3","5e69ce2076c4680330657fd6","C3","batch3","tol_tohand","804","","","","","","","","","tol_peg_2","804","804","0","[[2,0,0],[3,0],[0]]","4","[[2,1,3],[0,0],[0]]","1","0","","","","","","5","","","","",""
"","","","","","single-stim-button","163","1893755","0.0-3.0-13.3-1.3","5e69ce2076c4680330657fd6","C3","batch3","tol_toboard","1250","","","","","","","","","tol_peg_1","1250","1250","0","[[2,1,0],[3,0],[0]]","4","[[2,1,3],[0,0],[0]]","1","0","","","","","","5","","","","",""
"","","","","","single-stim-button","164","1894641","0.0-3.0-13.4-0.4","5e69ce2076c4680330657fd6","C3","batch3","tol_tohand","885","","","","","","","","","tol_peg_2","885","885","0","[[2,1,0],[0,0],[0]]","5","[[2,1,3],[0,0],[0]]","1","0","","","","","","5","","","","",""
"","","","","","single-stim-button","165","1896010","0.0-3.0-13.4-1.4","5e69ce2076c4680330657fd6","C3","batch3","tol_toboard","1367","","","","","","","","","tol_peg_1","1367","1367","0","[[2,1,3],[0,0],[0]]","5","[[2,1,3],[0,0],[0]]","1","0","","","","","","5","","","","",""
"","","","","","poldrack-single-stim","166","1897019","0.0-3.0-14.0","5e69ce2076c4680330657fd6","C3","batch3","tol_feedback","-1","","","","","true","","","","","1000","1000","500","","","","","","-1","none","true","6361","13468","","","","","",""
"","","","","","html-button-response","167","1898031","0.0-3.0-15.0","5e69ce2076c4680330657fd6","C3","batch3","tol_trial_num","1011","<div class = centerbox><p class = center-block-text>problem <strong>3</strong> out of 25 problems</p></div>","0","","","","","","","","","","","","","","","","","","","","","","","","","",""
"","","","","","single-stim-button","168","1902718","0.0-3.0-16.0-0.0","5e69ce2076c4680330657fd6","C3","batch3","tol_tohand","4686","","","","","","","","","tol_peg_1","4686","4686","0","[[2,0,0],[0,0],[1]]","1","[[1,2,0],[3,0],[0]]","2","0","","","","","","4","","","","",""
"","","","","","single-stim-button","169","1903615","0.0-3.0-16.0-1.0","5e69ce2076c4680330657fd6","C3","batch3","tol_toboard","895","","","","","","","","","tol_peg_2","895","895","0","[[2,0,0],[3,0],[1]]","1","[[1,2,0],[3,0],[0]]","2","0","","","","","","4","","","","",""
"","","","","","single-stim-button","170","1911133","0.0-3.0-16.1-0.1","5e69ce2076c4680330657fd6","C3","batch3","tol_tohand","7518","","","","","","","","","tol_peg_3","7518","7518","0","[[2,0,0],[3,0],[0]]","2","[[1,2,0],[3,0],[0]]","2","0","","","","","","4","","","","",""
"","","","","","single-stim-button","171","1911838","0.0-3.0-16.1-1.1","5e69ce2076c4680330657fd6","C3","batch3","tol_toboard","704","","","","","","","","","tol_peg_2","704","704","0","[[2,0,0],[3,1],[0]]","2","[[1,2,0],[3,0],[0]]","2","0","","","","","","4","","","","",""
"","","","","","single-stim-button","172","1912527","0.0-3.0-16.2-0.2","5e69ce2076c4680330657fd6","C3","batch3","tol_tohand","687","","","","","","","","","tol_peg_1","687","687","0","[[0,0,0],[3,1],[0]]","3","[[1,2,0],[3,0],[0]]","2","0","","","","","","4","","","","",""
"","","","","","single-stim-button","173","1913819","0.0-3.0-16.2-1.2","5e69ce2076c4680330657fd6","C3","batch3","tol_toboard","1292","","","","","","","","","tol_peg_3","1292","1292","0","[[0,0,0],[3,1],[2]]","3","[[1,2,0],[3,0],[0]]","2","0","","","","","","4","","","","",""
"","","","","","single-stim-button","174","1914683","0.0-3.0-16.3-0.3","5e69ce2076c4680330657fd6","C3","batch3","tol_tohand","863","","","","","","","","","tol_peg_2","863","863","0","[[0,0,0],[3,0],[2]]","4","[[1,2,0],[3,0],[0]]","2","0","","","","","","4","","","","",""
"","","","","","single-stim-button","175","1915564","0.0-3.0-16.3-1.3","5e69ce2076c4680330657fd6","C3","batch3","tol_toboard","879","","","","","","","","","tol_peg_1","879","879","0","[[1,0,0],[3,0],[2]]","4","[[1,2,0],[3,0],[0]]","2","0","","","","","","4","","","","",""
"","","","","","single-stim-button","176","1917021","0.0-3.0-16.4-0.4","5e69ce2076c4680330657fd6","C3","batch3","tol_tohand","1456","","","","","","","","","tol_peg_3","1456","1456","0","[[1,0,0],[3,0],[0]]","5","[[1,2,0],[3,0],[0]]","2","0","","","","","","4","","","","",""
"","","","","","single-stim-button","177","1917856","0.0-3.0-16.4-1.4","5e69ce2076c4680330657fd6","C3","batch3","tol_toboard","834","","","","","","","","","tol_peg_1","834","834","0","[[1,2,0],[3,0],[0]]","5","[[1,2,0],[3,0],[0]]","2","0","","","","","","4","","","","",""
"","","","","","poldrack-single-stim","178","1918858","0.0-3.0-17.0","5e69ce2076c4680330657fd6","C3","batch3","tol_feedback","-1","","","","","true","","","","","1000","1000","500","","","","","","-1","none","true","4686","15210","","","","","",""
"","","","","","html-button-response","179","1919842","0.0-3.0-18.0","5e69ce2076c4680330657fd6","C3","batch3","tol_trial_num","982.7999999998137","<div class = centerbox><p class = center-block-text>problem <strong>4</strong> out of 25 problems</p></div>","0","","","","","","","","","","","","","","","","","","","","","","","","","",""
"","","","","","single-stim-button","180","1924891","0.0-3.0-19.0-0.0","5e69ce2076c4680330657fd6","C3","batch3","tol_tohand","5048","","","","","","","","","tol_peg_2","5048","5048","0","[[3,0,0],[2,0],[0]]","1","[[3,0,0],[1,0],[2]]","3","0","","","","","","3","","","","",""
"","","","","","single-stim-button","181","1925633","0.0-3.0-19.0-1.0","5e69ce2076c4680330657fd6","C3","batch3","tol_toboard","741","","","","","","","","","tol_peg_1","741","741","0","[[3,1,0],[2,0],[0]]","1","[[3,0,0],[1,0],[2]]","3","0","","","","","","3","","","","",""
"","","","","","single-stim-button","182","1926638","0.0-3.0-19.1-0.1","5e69ce2076c4680330657fd6","C3","batch3","tol_tohand","1003","","","","","","","","","tol_peg_2","1003","1003","0","[[3,1,0],[0,0],[0]]","2","[[3,0,0],[1,0],[2]]","3","0","","","","","","3","","","","",""
"","","","","","single-stim-button","183","1927534","0.0-3.0-19.1-1.1","5e69ce2076c4680330657fd6","C3","batch3","tol_toboard","896","","","","","","","","","tol_peg_3","896","896","0","[[3,1,0],[0,0],[2]]","2","[[3,0,0],[1,0],[2]]","3","0","","","","","","3","","","","",""
"","","","","","single-stim-button","184","1928262","0.0-3.0-19.2-0.2","5e69ce2076c4680330657fd6","C3","batch3","tol_tohand","727","","","","","","","","","tol_peg_1","727","727","0","[[3,0,0],[0,0],[2]]","3","[[3,0,0],[1,0],[2]]","3","0","","","","","","3","","","","",""
"","","","","","single-stim-button","185","1929063","0.0-3.0-19.2-1.2","5e69ce2076c4680330657fd6","C3","batch3","tol_toboard","799","","","","","","","","","tol_peg_2","799","799","0","[[3,0,0],[1,0],[2]]","3","[[3,0,0],[1,0],[2]]","3","0","","","","","","3","","","","",""
"","","","","","poldrack-single-stim","186","1930070","0.0-3.0-20.0","5e69ce2076c4680330657fd6","C3","batch3","tol_feedback","-1","","","","","true","","","","","1000","1000","500","","","","","","-1","none","true","5048","6778","","","","","",""
"","","","","","html-button-response","187","1930971","0.0-3.0-21.0","5e69ce2076c4680330657fd6","C3","batch3","tol_trial_num","899.1000000005588","<div class = centerbox><p class = center-block-text>problem <strong>5</strong> out of 25 problems</p></div>","0","","","","","","","","","","","","","","","","","","","","","","","","","",""
"","","","","","single-stim-button","188","1945049","0.0-3.0-22.0-0.0","5e69ce2076c4680330657fd6","C3","batch3","tol_tohand","14076","","","","","","","","","tol_peg_1","14076","14076","0","[[0,0,0],[2,0],[3]]","1","[[0,0,0],[1,2],[3]]","4","0","","","","","","7","","","","",""
"","","","","","single-stim-button","189","1951292","0.0-3.0-22.0-1.0","5e69ce2076c4680330657fd6","C3","batch3","tol_toboard","6242","","","","","","","","","tol_peg_1","6242","6242","0","[[1,0,0],[2,0],[3]]","1","[[0,0,0],[1,2],[3]]","4","0","","","","","","7","","","","",""
"","","","","","single-stim-button","190","1952084","0.0-3.0-22.1-0.1","5e69ce2076c4680330657fd6","C3","batch3","tol_tohand","791","","","","","","","","","tol_peg_2","791","791","0","[[1,0,0],[0,0],[3]]","2","[[0,0,0],[1,2],[3]]","4","0","","","","","","7","","","","",""
"","","","","","single-stim-button","191","1961657","0.0-3.0-22.1-1.1","5e69ce2076c4680330657fd6","C3","batch3","tol_toboard","9572","","","","","","","","","tol_peg_2","9572","9572","0","[[1,0,0],[2,0],[3]]","2","[[0,0,0],[1,2],[3]]","4","0","","","","","","7","","","","",""
"","","","","","single-stim-button","192","1962890","0.0-3.0-22.2-0.2","5e69ce2076c4680330657fd6","C3","batch3","tol_tohand","1232","","","","","","","","","tol_peg_3","1232","1232","0","[[1,0,0],[2,0],[0]]","3","[[0,0,0],[1,2],[3]]","4","0","","","","","","7","","","","",""
"","","","","","single-stim-button","193","1964434","0.0-3.0-22.2-1.2","5e69ce2076c4680330657fd6","C3","batch3","tol_toboard","1543","","","","","","","","","tol_peg_1","1543","1543","0","[[1,3,0],[2,0],[0]]","3","[[0,0,0],[1,2],[3]]","4","0","","","","","","7","","","","",""
"","","","","","single-stim-button","194","1966624","0.0-3.0-22.3-0.3","5e69ce2076c4680330657fd6","C3","batch3","tol_tohand","2188","","","","","","","","","tol_peg_2","2188","2188","0","[[1,3,0],[0,0],[0]]","4","[[0,0,0],[1,2],[3]]","4","0","","","","","","7","","","","",""
"","","","","","single-stim-button","195","1967464","0.0-3.0-22.3-1.3","5e69ce2076c4680330657fd6","C3","batch3","tol_toboard","840","","","","","","","","","tol_peg_3","840","840","0","[[1,3,0],[0,0],[2]]","4","[[0,0,0],[1,2],[3]]","4","0","","","","","","7","","","","",""
"","","","","","single-stim-button","196","1969049","0.0-3.0-22.4-0.4","5e69ce2076c4680330657fd6","C3","batch3","tol_tohand","1584","","","","","","","","","tol_peg_1","1584","1584","0","[[1,0,0],[0,0],[2]]","5","[[0,0,0],[1,2],[3]]","4","0","","","","","","7","","","","",""
"","","","","","single-stim-button","197","1970847","0.0-3.0-22.4-1.4","5e69ce2076c4680330657fd6","C3","batch3","tol_toboard","1796","","","","","","","","","tol_peg_2","1796","1796","0","[[1,0,0],[3,0],[2]]","5","[[0,0,0],[1,2],[3]]","4","0","","","","","","7","","","","",""
"","","","","","single-stim-button","198","1977534","0.0-3.0-22.5-0.5","5e69ce2076c4680330657fd6","C3","batch3","tol_tohand","6686","","","","","","","","","tol_peg_2","6686","6686","0","[[1,0,0],[0,0],[2]]","6","[[0,0,0],[1,2],[3]]","4","0","","","","","","7","","","","",""
"","","","","","single-stim-button","199","1979986","0.0-3.0-22.5-1.5","5e69ce2076c4680330657fd6","C3","batch3","tol_toboard","2452","","","","","","","","","tol_peg_1","2452","2452","0","[[1,3,0],[0,0],[2]]","6","[[0,0,0],[1,2],[3]]","4","0","","","","","","7","","","","",""
"","","","","","single-stim-button","200","1980699","0.0-3.0-22.6-0.6","5e69ce2076c4680330657fd6","C3","batch3","tol_tohand","712","","","","","","","","","tol_peg_1","712","712","0","[[1,0,0],[0,0],[2]]","7","[[0,0,0],[1,2],[3]]","4","0","","","","","","7","","","","",""
"","","","","","single-stim-button","201","1982360","0.0-3.0-22.6-1.6","5e69ce2076c4680330657fd6","C3","batch3","tol_toboard","1660","","","","","","","","","tol_peg_2","1660","1660","0","[[1,0,0],[3,0],[2]]","7","[[0,0,0],[1,2],[3]]","4","0","","","","","","7","","","","",""
"","","","","","single-stim-button","202","1983087","0.0-3.0-22.7-0.7","5e69ce2076c4680330657fd6","C3","batch3","tol_tohand","725","","","","","","","","","tol_peg_3","725","725","0","[[1,0,0],[3,0],[0]]","8","[[0,0,0],[1,2],[3]]","4","0","","","","","","7","","","","",""
"","","","","","single-stim-button","203","1985553","0.0-3.0-22.7-1.7","5e69ce2076c4680330657fd6","C3","batch3","tol_toboard","2464","","","","","","","","","tol_peg_1","2464","2464","0","[[1,2,0],[3,0],[0]]","8","[[0,0,0],[1,2],[3]]","4","0","","","","","","7","","","","",""
"","","","","","single-stim-button","204","1988848","0.0-3.0-22.8-0.8","5e69ce2076c4680330657fd6","C3","batch3","tol_tohand","3295","","","","","","","","","tol_peg_2","3295","3295","0","[[1,2,0],[0,0],[0]]","9","[[0,0,0],[1,2],[3]]","4","0","","","","","","7","","","","",""
"","","","","","single-stim-button","205","1989808","0.0-3.0-22.8-1.8","5e69ce2076c4680330657fd6","C3","batch3","tol_toboard","958","","","","","","","","","tol_peg_3","958","958","0","[[1,2,0],[0,0],[3]]","9","[[0,0,0],[1,2],[3]]","4","0","","","","","","7","","","","",""
"","","","","","single-stim-button","206","1991182","0.0-3.0-22.9-0.9","5e69ce2076c4680330657fd6","C3","batch3","tol_tohand","1373","","","","","","","","","tol_peg_1","1373","1373","0","[[1,0,0],[0,0],[3]]","10","[[0,0,0],[1,2],[3]]","4","0","","","","","","7","","","","",""
"","","","","","single-stim-button","207","1993053","0.0-3.0-22.9-1.9","5e69ce2076c4680330657fd6","C3","batch3","tol_toboard","1871","","","","","","","","","tol_peg_2","1871","1871","0","[[1,0,0],[2,0],[3]]","10","[[0,0,0],[1,2],[3]]","4","0","","","","","","7","","","","",""
"","","","","","single-stim-button","208","1996181","0.0-3.0-22.10-0.10","5e69ce2076c4680330657fd6","C3","batch3","tol_tohand","3127","","","","","","","","","tol_peg_1","3127","3127","0","[[0,0,0],[2,0],[3]]","11","[[0,0,0],[1,2],[3]]","4","0","","","","","","7","","","","",""
"","","","","","single-stim-button","209","2000321","0.0-3.0-22.10-1.10","5e69ce2076c4680330657fd6","C3","batch3","tol_toboard","4139","","","","","","","","","tol_peg_2","4139","4139","0","[[0,0,0],[2,1],[3]]","11","[[0,0,0],[1,2],[3]]","4","0","","","","","","7","","","","",""
"","","","","","single-stim-button","210","2001097","0.0-3.0-22.11-0.11","5e69ce2076c4680330657fd6","C3","batch3","tol_tohand","775","","","","","","","","","tol_peg_3","775","775","0","[[0,0,0],[2,1],[0]]","12","[[0,0,0],[1,2],[3]]","4","0","","","","","","7","","","","",""
"","","","","","single-stim-button","211","2002034","0.0-3.0-22.11-1.11","5e69ce2076c4680330657fd6","C3","batch3","tol_toboard","935","","","","","","","","","tol_peg_1","935","935","0","[[3,0,0],[2,1],[0]]","12","[[0,0,0],[1,2],[3]]","4","0","","","","","","7","","","","",""
"","","","","","single-stim-button","212","2004951","0.0-3.0-22.12-0.12","5e69ce2076c4680330657fd6","C3","batch3","tol_tohand","2917","","","","","","","","","tol_peg_2","2917","2917","0","[[3,0,0],[2,0],[0]]","13","[[0,0,0],[1,2],[3]]","4","0","","","","","","7","","","","",""
"","","","","","single-stim-button","213","2005696","0.0-3.0-22.12-1.12","5e69ce2076c4680330657fd6","C3","batch3","tol_toboard","743","","","","","","","","","tol_peg_3","743","743","0","[[3,0,0],[2,0],[1]]","13","[[0,0,0],[1,2],[3]]","4","0","","","","","","7","","","","",""
"","","","","","single-stim-button","214","2006920","0.0-3.0-22.13-0.13","5e69ce2076c4680330657fd6","C3","batch3","tol_tohand","1224","","","","","","","","","tol_peg_2","1224","1224","0","[[3,0,0],[0,0],[1]]","14","[[0,0,0],[1,2],[3]]","4","0","","","","","","7","","","","",""
"","","","","","single-stim-button","215","2007708","0.0-3.0-22.13-1.13","5e69ce2076c4680330657fd6","C3","batch3","tol_toboard","788","","","","","","","","","tol_peg_1","788","788","0","[[3,2,0],[0,0],[1]]","14","[[0,0,0],[1,2],[3]]","4","0","","","","","","7","","","","",""
"","","","","","single-stim-button","216","2008652","0.0-3.0-22.14-0.14","5e69ce2076c4680330657fd6","C3","batch3","tol_tohand","943","","","","","","","","","tol_peg_3","943","943","0","[[3,2,0],[0,0],[0]]","15","[[0,0,0],[1,2],[3]]","4","0","","","","","","7","","","","",""
"","","","","","single-stim-button","217","2009429","0.0-3.0-22.14-1.14","5e69ce2076c4680330657fd6","C3","batch3","tol_toboard","776","","","","","","","","","tol_peg_2","776","776","0","[[3,2,0],[1,0],[0]]","15","[[0,0,0],[1,2],[3]]","4","0","","","","","","7","","","","",""
"","","","","","single-stim-button","218","2010373","0.0-3.0-22.15-0.15","5e69ce2076c4680330657fd6","C3","batch3","tol_tohand","943","","","","","","","","","tol_peg_1","943","943","0","[[3,0,0],[1,0],[0]]","16","[[0,0,0],[1,2],[3]]","4","0","","","","","","7","","","","",""
"","","","","","single-stim-button","219","2011021","0.0-3.0-22.15-1.15","5e69ce2076c4680330657fd6","C3","batch3","tol_toboard","647","","","","","","","","","tol_peg_2","647","647","0","[[3,0,0],[1,2],[0]]","16","[[0,0,0],[1,2],[3]]","4","0","","","","","","7","","","","",""
"","","","","","single-stim-button","220","2011598","0.0-3.0-22.16-0.16","5e69ce2076c4680330657fd6","C3","batch3","tol_tohand","575","","","","","","","","","tol_peg_1","575","575","0","[[0,0,0],[1,2],[0]]","17","[[0,0,0],[1,2],[3]]","4","0","","","","","","7","","","","",""
"","","","","","single-stim-button","221","2012490","0.0-3.0-22.16-1.16","5e69ce2076c4680330657fd6","C3","batch3","tol_toboard","892","","","","","","","","","tol_peg_3","892","892","0","[[0,0,0],[1,2],[3]]","17","[[0,0,0],[1,2],[3]]","4","0","","","","","","7","","","","",""
"","","","","","poldrack-single-stim","222","2013497","0.0-3.0-23.0","5e69ce2076c4680330657fd6","C3","batch3","tol_feedback","-1","","","","","true","","","","","1000","1000","500","","","","","","-1","none","true","14076","43166","","","","","",""
"","","","","","html-button-response","223","2014291","0.0-3.0-24.0","5e69ce2076c4680330657fd6","C3","batch3","tol_trial_num","792.7000000001863","<div class = centerbox><p class = center-block-text>problem <strong>6</strong> out of 25 problems</p></div>","0","","","","","","","","","","","","","","","","","","","","","","","","","",""
"","","","","","single-stim-button","224","2031845","0.0-3.0-25.0-0.0","5e69ce2076c4680330657fd6","C3","batch3","tol_tohand","17553","","","","","","","","","tol_peg_2","17553","17553","0","[[0,0,0],[1,0],[3]]","1","[[1,0,0],[2,3],[0]]","5","0","","","","","","6","","","","",""
"","","","","","single-stim-button","225","2035263","0.0-3.0-25.0-1.0","5e69ce2076c4680330657fd6","C3","batch3","tol_toboard","3417","","","","","","","","","tol_peg_1","3417","3417","0","[[2,0,0],[1,0],[3]]","1","[[1,0,0],[2,3],[0]]","5","0","","","","","","6","","","","",""
"","","","","","single-stim-button","226","2036020","0.0-3.0-25.1-0.1","5e69ce2076c4680330657fd6","C3","batch3","tol_tohand","755","","","","","","","","","tol_peg_2","755","755","0","[[2,0,0],[0,0],[3]]","2","[[1,0,0],[2,3],[0]]","5","0","","","","","","6","","","","",""
"","","","","","single-stim-button","227","2038054","0.0-3.0-25.1-1.1","5e69ce2076c4680330657fd6","C3","batch3","tol_toboard","2033","","","","","","","","","tol_peg_1","2033","2033","0","[[2,1,0],[0,0],[3]]","2","[[1,0,0],[2,3],[0]]","5","0","","","","","","6","","","","",""
"","","","","","single-stim-button","228","2040053","0.0-3.0-25.2-0.2","5e69ce2076c4680330657fd6","C3","batch3","tol_tohand","1998","","","","","","","","","tol_peg_1","1998","1998","0","[[2,0,0],[0,0],[3]]","3","[[1,0,0],[2,3],[0]]","5","0","","","","","","6","","","","",""
"","","","","","single-stim-button","229","2041298","0.0-3.0-25.2-1.2","5e69ce2076c4680330657fd6","C3","batch3","tol_toboard","1245","","","","","","","","","tol_peg_2","1245","1245","0","[[2,0,0],[1,0],[3]]","3","[[1,0,0],[2,3],[0]]","5","0","","","","","","6","","","","",""
"","","","","","single-stim-button","230","2042940","0.0-3.0-25.3-0.3","5e69ce2076c4680330657fd6","C3","batch3","tol_tohand","1640","","","","","","","","","tol_peg_1","1640","1640","0","[[0,0,0],[1,0],[3]]","4","[[1,0,0],[2,3],[0]]","5","0","","","","","","6","","","","",""
"","","","","","single-stim-button","231","2044640","0.0-3.0-25.3-1.3","5e69ce2076c4680330657fd6","C3","batch3","tol_toboard","1700","","","","","","","","","tol_peg_2","1700","1700","0","[[0,0,0],[1,2],[3]]","4","[[1,0,0],[2,3],[0]]","5","0","","","","","","6","","","","",""
"","","","","","single-stim-button","232","2045401","0.0-3.0-25.4-0.4","5e69ce2076c4680330657fd6","C3","batch3","tol_tohand","760","","","","","","","","","tol_peg_3","760","760","0","[[0,0,0],[1,2],[0]]","5","[[1,0,0],[2,3],[0]]","5","0","","","","","","6","","","","",""
"","","","","","single-stim-button","233","2046097","0.0-3.0-25.4-1.4","5e69ce2076c4680330657fd6","C3","batch3","tol_toboard","695","","","","","","","","","tol_peg_1","695","695","0","[[3,0,0],[1,2],[0]]","5","[[1,0,0],[2,3],[0]]","5","0","","","","","","6","","","","",""
"","","","","","single-stim-button","234","2050945","0.0-3.0-25.5-0.5","5e69ce2076c4680330657fd6","C3","batch3","tol_tohand","4846","","","","","","","","","tol_peg_2","4846","4846","0","[[3,0,0],[1,0],[0]]","6","[[1,0,0],[2,3],[0]]","5","0","","","","","","6","","","","",""
"","","","","","single-stim-button","235","2051665","0.0-3.0-25.5-1.5","5e69ce2076c4680330657fd6","C3","batch3","tol_toboard","719","","","","","","","","","tol_peg_3","719","719","0","[[3,0,0],[1,0],[2]]","6","[[1,0,0],[2,3],[0]]","5","0","","","","","","6","","","","",""
"","","","","","single-stim-button","236","2060267","0.0-3.0-25.6-0.6","5e69ce2076c4680330657fd6","C3","batch3","tol_tohand","8601","","","","","","","","","tol_peg_2","8601","8601","0","[[3,0,0],[0,0],[2]]","7","[[1,0,0],[2,3],[0]]","5","0","","","","","","6","","","","",""
"","","","","","single-stim-button","237","2060944","0.0-3.0-25.6-1.6","5e69ce2076c4680330657fd6","C3","batch3","tol_toboard","675","","","","","","","","","tol_peg_1","675","675","0","[[3,1,0],[0,0],[2]]","7","[[1,0,0],[2,3],[0]]","5","0","","","","","","6","","","","",""
"","","","","","single-stim-button","238","2061887","0.0-3.0-25.7-0.7","5e69ce2076c4680330657fd6","C3","batch3","tol_tohand","943","","","","","","","","","tol_peg_3","943","943","0","[[3,1,0],[0,0],[0]]","8","[[1,0,0],[2,3],[0]]","5","0","","","","","","6","","","","",""
"","","","","","single-stim-button","239","2062545","0.0-3.0-25.7-1.7","5e69ce2076c4680330657fd6","C3","batch3","tol_toboard","656","","","","","","","","","tol_peg_2","656","656","0","[[3,1,0],[2,0],[0]]","8","[[1,0,0],[2,3],[0]]","5","0","","","","","","6","","","","",""
"","","","","","single-stim-button","240","2063978","0.0-3.0-25.8-0.8","5e69ce2076c4680330657fd6","C3","batch3","tol_tohand","1432","","","","","","","","","tol_peg_1","1432","1432","0","[[3,0,0],[2,0],[0]]","9","[[1,0,0],[2,3],[0]]","5","0","","","","","","6","","","","",""
"","","","","","single-stim-button","241","2064950","0.0-3.0-25.8-1.8","5e69ce2076c4680330657fd6","C3","batch3","tol_toboard","972","","","","","","","","","tol_peg_3","972","972","0","[[3,0,0],[2,0],[1]]","9","[[1,0,0],[2,3],[0]]","5","0","","","","","","6","","","","",""
"","","","","","single-stim-button","242","2065766","0.0-3.0-25.9-0.9","5e69ce2076c4680330657fd6","C3","batch3","tol_tohand","815","","","","","","","","","tol_peg_1","815","815","0","[[0,0,0],[2,0],[1]]","10","[[1,0,0],[2,3],[0]]","5","0","","","","","","6","","","","",""
"","","","","","single-stim-button","243","2066527","0.0-3.0-25.9-1.9","5e69ce2076c4680330657fd6","C3","batch3","tol_toboard","759","","","","","","","","","tol_peg_2","759","759","0","[[0,0,0],[2,3],[1]]","10","[[1,0,0],[2,3],[0]]","5","0","","","","","","6","","","","",""
"","","","","","single-stim-button","244","2067960","0.0-3.0-25.10-0.10","5e69ce2076c4680330657fd6","C3","batch3","tol_tohand","1432","","","","","","","","","tol_peg_3","1432","1432","0","[[0,0,0],[2,3],[0]]","11","[[1,0,0],[2,3],[0]]","5","0","","","","","","6","","","","",""
"","","","","","single-stim-button","245","2068656","0.0-3.0-25.10-1.10","5e69ce2076c4680330657fd6","C3","batch3","tol_toboard","696","","","","","","","","","tol_peg_1","696","696","0","[[1,0,0],[2,3],[0]]","11","[[1,0,0],[2,3],[0]]","5","0","","","","","","6","","","","",""
"","","","","","poldrack-single-stim","246","2069667","0.0-3.0-26.0","5e69ce2076c4680330657fd6","C3","batch3","tol_feedback","-1","","","","","true","","","","","1000","1000","500","","","","","","-1","none","true","17553","40775","","","","","",""
"","","","","","html-button-response","247","2070437","0.0-3.0-27.0","5e69ce2076c4680330657fd6","C3","batch3","tol_trial_num","768.9000000003725","<div class = centerbox><p class = center-block-text>problem <strong>7</strong> out of 25 problems</p></div>","0","","","","","","","","","","","","","","","","","","","","","","","","","",""
"","","","","","single-stim-button","248","2077635","0.0-3.0-28.0-0.0","5e69ce2076c4680330657fd6","C3","batch3","tol_tohand","7197","","","","","","","","","tol_peg_1","7197","7197","0","[[2,0,0],[0,0],[3]]","1","[[1,2,0],[3,0],[0]]","6","0","","","","","","5","","","","",""
"","","","","","single-stim-button","249","2078524","0.0-3.0-28.0-1.0","5e69ce2076c4680330657fd6","C3","batch3","tol_toboard","888","","","","","","","","","tol_peg_2","888","888","0","[[2,0,0],[1,0],[3]]","1","[[1,2,0],[3,0],[0]]","6","0","","","","","","5","","","","",""
"","","","","","single-stim-button","250","2080959","0.0-3.0-28.1-0.1","5e69ce2076c4680330657fd6","C3","batch3","tol_tohand","2433","","","","","","","","","tol_peg_1","2433","2433","0","[[0,0,0],[1,0],[3]]","2","[[1,2,0],[3,0],[0]]","6","0","","","","","","5","","","","",""
"","","","","","single-stim-button","251","2088632","0.0-3.0-28.1-1.1","5e69ce2076c4680330657fd6","C3","batch3","tol_toboard","7673","","","","","","","","","tol_peg_2","7673","7673","0","[[0,0,0],[1,2],[3]]","2","[[1,2,0],[3,0],[0]]","6","0","","","","","","5","","","","",""
"","","","","","single-stim-button","252","2090441","0.0-3.0-28.2-0.2","5e69ce2076c4680330657fd6","C3","batch3","tol_tohand","1808","","","","","","","","","tol_peg_3","1808","1808","0","[[0,0,0],[1,2],[0]]","3","[[1,2,0],[3,0],[0]]","6","0","","","","","","5","","","","",""
"","","","","","single-stim-button","253","2091480","0.0-3.0-28.2-1.2","5e69ce2076c4680330657fd6","C3","batch3","tol_toboard","1038","","","","","","","","","tol_peg_1","1038","1038","0","[[3,0,0],[1,2],[0]]","3","[[1,2,0],[3,0],[0]]","6","0","","","","","","5","","","","",""
"","","","","","single-stim-button","254","2092369","0.0-3.0-28.3-0.3","5e69ce2076c4680330657fd6","C3","batch3","tol_tohand","888","","","","","","","","","tol_peg_2","888","888","0","[[3,0,0],[1,0],[0]]","4","[[1,2,0],[3,0],[0]]","6","0","","","","","","5","","","","",""
"","","","","","single-stim-button","255","2093178","0.0-3.0-28.3-1.3","5e69ce2076c4680330657fd6","C3","batch3","tol_toboard","808","","","","","","","","","tol_peg_3","808","808","0","[[3,0,0],[1,0],[2]]","4","[[1,2,0],[3,0],[0]]","6","0","","","","","","5","","","","",""
"","","","","","single-stim-button","256","2095032","0.0-3.0-28.4-0.4","5e69ce2076c4680330657fd6","C3","batch3","tol_tohand","1853","","","","","","","","","tol_peg_2","1853","1853","0","[[3,0,0],[0,0],[2]]","5","[[1,2,0],[3,0],[0]]","6","0","","","","","","5","","","","",""
"","","","","","single-stim-button","257","2095954","0.0-3.0-28.4-1.4","5e69ce2076c4680330657fd6","C3","batch3","tol_toboard","920","","","","","","","","","tol_peg_1","920","920","0","[[3,1,0],[0,0],[2]]","5","[[1,2,0],[3,0],[0]]","6","0","","","","","","5","","","","",""
"","","","","","single-stim-button","258","2098763","0.0-3.0-28.5-0.5","5e69ce2076c4680330657fd6","C3","batch3","tol_tohand","2809","","","","","","","","","tol_peg_1","2809","2809","0","[[3,0,0],[0,0],[2]]","6","[[1,2,0],[3,0],[0]]","6","0","","","","","","5","","","","",""
"","","","","","single-stim-button","259","2099874","0.0-3.0-28.5-1.5","5e69ce2076c4680330657fd6","C3","batch3","tol_toboard","1109","","","","","","","","","tol_peg_2","1109","1109","0","[[3,0,0],[1,0],[2]]","6","[[1,2,0],[3,0],[0]]","6","0","","","","","","5","","","","",""
"","","","","","single-stim-button","260","2100434","0.0-3.0-28.6-0.6","5e69ce2076c4680330657fd6","C3","batch3","tol_tohand","560","","","","","","","","","tol_peg_1","560","560","0","[[0,0,0],[1,0],[2]]","7","[[1,2,0],[3,0],[0]]","6","0","","","","","","5","","","","",""
"","","","","","single-stim-button","261","2101307","0.0-3.0-28.6-1.6","5e69ce2076c4680330657fd6","C3","batch3","tol_toboard","872","","","","","","","","","tol_peg_2","872","872","0","[[0,0,0],[1,3],[2]]","7","[[1,2,0],[3,0],[0]]","6","0","","","","","","5","","","","",""
"","","","","","single-stim-button","262","2103201","0.0-3.0-28.7-0.7","5e69ce2076c4680330657fd6","C3","batch3","tol_tohand","1892","","","","","","","","","tol_peg_2","1892","1892","0","[[0,0,0],[1,0],[2]]","8","[[1,2,0],[3,0],[0]]","6","0","","","","","","5","","","","",""
"","","","","","single-stim-button","263","2103746","0.0-3.0-28.7-1.7","5e69ce2076c4680330657fd6","C3","batch3","tol_toboard","545","","","","","","","","","tol_peg_1","545","545","0","[[3,0,0],[1,0],[2]]","8","[[1,2,0],[3,0],[0]]","6","0","","","","","","5","","","","",""
"","","","","","single-stim-button","264","2104682","0.0-3.0-28.8-0.8","5e69ce2076c4680330657fd6","C3","batch3","tol_tohand","935","","","","","","","","","tol_peg_3","935","935","0","[[3,0,0],[1,0],[0]]","9","[[1,2,0],[3,0],[0]]","6","0","","","","","","5","","","","",""
"","","","","","single-stim-button","265","2105684","0.0-3.0-28.8-1.8","5e69ce2076c4680330657fd6","C3","batch3","tol_toboard","1000","","","","","","","","","tol_peg_1","1000","1000","0","[[3,2,0],[1,0],[0]]","9","[[1,2,0],[3,0],[0]]","6","0","","","","","","5","","","","",""
"","","","","","single-stim-button","266","2106472","0.0-3.0-28.9-0.9","5e69ce2076c4680330657fd6","C3","batch3","tol_tohand","788","","","","","","","","","tol_peg_2","788","788","0","[[3,2,0],[0,0],[0]]","10","[[1,2,0],[3,0],[0]]","6","0","","","","","","5","","","","",""
"","","","","","single-stim-button","267","2107281","0.0-3.0-28.9-1.9","5e69ce2076c4680330657fd6","C3","batch3","tol_toboard","808","","","","","","","","","tol_peg_3","808","808","0","[[3,2,0],[0,0],[1]]","10","[[1,2,0],[3,0],[0]]","6","0","","","","","","5","","","","",""
"","","","","","single-stim-button","268","2109803","0.0-3.0-28.10-0.10","5e69ce2076c4680330657fd6","C3","batch3","tol_tohand","2521","","","","","","","","","tol_peg_1","2521","2521","0","[[3,0,0],[0,0],[1]]","11","[[1,2,0],[3,0],[0]]","6","0","","","","","","5","","","","",""
"","","","","","single-stim-button","269","2111682","0.0-3.0-28.10-1.10","5e69ce2076c4680330657fd6","C3","batch3","tol_toboard","1877","","","","","","","","","tol_peg_2","1877","1877","0","[[3,0,0],[2,0],[1]]","11","[[1,2,0],[3,0],[0]]","6","0","","","","","","5","","","","",""
"","","","","","single-stim-button","270","2112594","0.0-3.0-28.11-0.11","5e69ce2076c4680330657fd6","C3","batch3","tol_tohand","910","","","","","","","","","tol_peg_1","910","910","0","[[0,0,0],[2,0],[1]]","12","[[1,2,0],[3,0],[0]]","6","0","","","","","","5","","","","",""
"","","","","","single-stim-button","271","2113394","0.0-3.0-28.11-1.11","5e69ce2076c4680330657fd6","C3","batch3","tol_toboard","799","","","","","","","","","tol_peg_2","799","799","0","[[0,0,0],[2,3],[1]]","12","[[1,2,0],[3,0],[0]]","6","0","","","","","","5","","","","",""
"","","","","","single-stim-button","272","2114627","0.0-3.0-28.12-0.12","5e69ce2076c4680330657fd6","C3","batch3","tol_tohand","1232","","","","","","","","","tol_peg_3","1232","1232","0","[[0,0,0],[2,3],[0]]","13","[[1,2,0],[3,0],[0]]","6","0","","","","","","5","","","","",""
"","","","","","single-stim-button","273","2115428","0.0-3.0-28.12-1.12","5e69ce2076c4680330657fd6","C3","batch3","tol_toboard","800","","","","","","","","","tol_peg_1","800","800","0","[[1,0,0],[2,3],[0]]","13","[[1,2,0],[3,0],[0]]","6","0","","","","","","5","","","","",""
"","","","","","single-stim-button","274","2116497","0.0-3.0-28.13-0.13","5e69ce2076c4680330657fd6","C3","batch3","tol_tohand","1068","","","","","","","","","tol_peg_2","1068","1068","0","[[1,0,0],[2,0],[0]]","14","[[1,2,0],[3,0],[0]]","6","0","","","","","","5","","","","",""
"","","","","","single-stim-button","275","2117217","0.0-3.0-28.13-1.13","5e69ce2076c4680330657fd6","C3","batch3","tol_toboard","719","","","","","","","","","tol_peg_3","719","719","0","[[1,0,0],[2,0],[3]]","14","[[1,2,0],[3,0],[0]]","6","0","","","","","","5","","","","",""
"","","","","","single-stim-button","276","2117850","0.0-3.0-28.14-0.14","5e69ce2076c4680330657fd6","C3","batch3","tol_tohand","632","","","","","","","","","tol_peg_2","632","632","0","[[1,0,0],[0,0],[3]]","15","[[1,2,0],[3,0],[0]]","6","0","","","","","","5","","","","",""
"","","","","","single-stim-button","277","2118563","0.0-3.0-28.14-1.14","5e69ce2076c4680330657fd6","C3","batch3","tol_toboard","712","","","","","","","","","tol_peg_1","712","712","0","[[1,2,0],[0,0],[3]]","15","[[1,2,0],[3,0],[0]]","6","0","","","","","","5","","","","",""
"","","","","","single-stim-button","278","2119460","0.0-3.0-28.15-0.15","5e69ce2076c4680330657fd6","C3","batch3","tol_tohand","895","","","","","","","","","tol_peg_3","895","895","0","[[1,2,0],[0,0],[0]]","16","[[1,2,0],[3,0],[0]]","6","0","","","","","","5","","","","",""
"","","","","","single-stim-button","279","2120280","0.0-3.0-28.15-1.15","5e69ce2076c4680330657fd6","C3","batch3","tol_toboard","820","","","","","","","","","tol_peg_2","820","820","0","[[1,2,0],[3,0],[0]]","16","[[1,2,0],[3,0],[0]]","6","0","","","","","","5","","","","",""
"","","","","","poldrack-single-stim","280","2121284","0.0-3.0-29.0","5e69ce2076c4680330657fd6","C3","batch3","tol_feedback","-1","","","","","true","","","","","1000","1000","500","","","","","","-1","none","true","7197","28421","","","","","",""
"","","","","","html-button-response","281","2122089","0.0-3.0-30.0","5e69ce2076c4680330657fd6","C3","batch3","tol_trial_num","803.7999999998137","<div class = centerbox><p class = center-block-text>problem <strong>8</strong> out of 25 problems</p></div>","0","","","","","","","","","","","","","","","","","","","","","","","","","",""
"","","","","","single-stim-button","282","2127241","0.0-3.0-31.0-0.0","5e69ce2076c4680330657fd6","C3","batch3","tol_tohand","5151","","","","","","","","","tol_peg_3","5151","5151","0","[[0,0,0],[2,3],[0]]","1","[[1,2,0],[3,0],[0]]","7","0","","","","","","4","","","","",""
"","","","","","single-stim-button","283","2128106","0.0-3.0-31.0-1.0","5e69ce2076c4680330657fd6","C3","batch3","tol_toboard","863","","","","","","","","","tol_peg_1","863","863","0","[[1,0,0],[2,3],[0]]","1","[[1,2,0],[3,0],[0]]","7","0","","","","","","4","","","","",""
"","","","","","single-stim-button","284","2129463","0.0-3.0-31.1-0.1","5e69ce2076c4680330657fd6","C3","batch3","tol_tohand","1356","","","","","","","","","tol_peg_2","1356","1356","0","[[1,0,0],[2,0],[0]]","2","[[1,2,0],[3,0],[0]]","7","0","","","","","","4","","","","",""
"","","","","","single-stim-button","285","2130215","0.0-3.0-31.1-1.1","5e69ce2076c4680330657fd6","C3","batch3","tol_toboard","752","","","","","","","","","tol_peg_3","752","752","0","[[1,0,0],[2,0],[3]]","2","[[1,2,0],[3,0],[0]]","7","0","","","","","","4","","","","",""
"","","","","","single-stim-button","286","2131015","0.0-3.0-31.2-0.2","5e69ce2076c4680330657fd6","C3","batch3","tol_tohand","799","","","","","","","","","tol_peg_2","799","799","0","[[1,0,0],[0,0],[3]]","3","[[1,2,0],[3,0],[0]]","7","0","","","","","","4","","","","",""
"","","","","","single-stim-button","287","2131824","0.0-3.0-31.2-1.2","5e69ce2076c4680330657fd6","C3","batch3","tol_toboard","807","","","","","","","","","tol_peg_1","807","807","0","[[1,2,0],[0,0],[3]]","3","[[1,2,0],[3,0],[0]]","7","0","","","","","","4","","","","",""
"","","","","","single-stim-button","288","2133405","0.0-3.0-31.3-0.3","5e69ce2076c4680330657fd6","C3","batch3","tol_tohand","1581","","","","","","","","","tol_peg_3","1581","1581","0","[[1,2,0],[0,0],[0]]","4","[[1,2,0],[3,0],[0]]","7","0","","","","","","4","","","","",""
"","","","","","single-stim-button","289","2133974","0.0-3.0-31.3-1.3","5e69ce2076c4680330657fd6","C3","batch3","tol_toboard","567","","","","","","","","","tol_peg_2","567","567","0","[[1,2,0],[3,0],[0]]","4","[[1,2,0],[3,0],[0]]","7","0","","","","","","4","","","","",""
"","","","","","poldrack-single-stim","290","2134982","0.0-3.0-32.0","5e69ce2076c4680330657fd6","C3","batch3","tol_feedback","-1","","","","","true","","","","","1000","1000","500","","","","","","-1","none","true","5151","8887","","","","","",""
"","","","","","html-button-response","291","2135630","0.0-3.0-33.0","5e69ce2076c4680330657fd6","C3","batch3","tol_trial_num","646.5","<div class = centerbox><p class = center-block-text>problem <strong>9</strong> out of 25 problems</p></div>","0","","","","","","","","","","","","","","","","","","","","","","","","","",""
"","","","","","single-stim-button","292","2142742","0.0-3.0-34.0-0.0","5e69ce2076c4680330657fd6","C3","batch3","tol_tohand","7111","","","","","","","","","tol_peg_1","7111","7111","0","[[3,0,0],[0,0],[1]]","1","[[2,1,0],[3,0],[0]]","8","0","","","","","","6","","","","",""
"","","","","","single-stim-button","293","2143606","0.0-3.0-34.0-1.0","5e69ce2076c4680330657fd6","C3","batch3","tol_toboard","863","","","","","","","","","tol_peg_2","863","863","0","[[3,0,0],[2,0],[1]]","1","[[2,1,0],[3,0],[0]]","8","0","","","","","","6","","","","",""
"","","","","","single-stim-button","294","2146709","0.0-3.0-34.1-0.1","5e69ce2076c4680330657fd6","C3","batch3","tol_tohand","3102","","","","","","","","","tol_peg_1","3102","3102","0","[[0,0,0],[2,0],[1]]","2","[[2,1,0],[3,0],[0]]","8","0","","","","","","6","","","","",""
"","","","","","single-stim-button","295","2147565","0.0-3.0-34.1-1.1","5e69ce2076c4680330657fd6","C3","batch3","tol_toboard","855","","","","","","","","","tol_peg_2","855","855","0","[[0,0,0],[2,3],[1]]","2","[[2,1,0],[3,0],[0]]","8","0","","","","","","6","","","","",""
"","","","","","single-stim-button","296","2148326","0.0-3.0-34.2-0.2","5e69ce2076c4680330657fd6","C3","batch3","tol_tohand","759","","","","","","","","","tol_peg_3","759","759","0","[[0,0,0],[2,3],[0]]","3","[[2,1,0],[3,0],[0]]","8","0","","","","","","6","","","","",""
"","","","","","single-stim-button","297","2151836","0.0-3.0-34.2-1.2","5e69ce2076c4680330657fd6","C3","batch3","tol_toboard","3509","","","","","","","","","tol_peg_3","3509","3509","0","[[0,0,0],[2,3],[1]]","3","[[2,1,0],[3,0],[0]]","8","0","","","","","","6","","","","",""
"","","","","","single-stim-button","298","2152653","0.0-3.0-34.3-0.3","5e69ce2076c4680330657fd6","C3","batch3","tol_tohand","816","","","","","","","","","tol_peg_2","816","816","0","[[0,0,0],[2,0],[1]]","4","[[2,1,0],[3,0],[0]]","8","0","","","","","","6","","","","",""
"","","","","","single-stim-button","299","2155794","0.0-3.0-34.3-1.3","5e69ce2076c4680330657fd6","C3","batch3","tol_toboard","3141","","","","","","","","","tol_peg_1","3141","3141","0","[[3,0,0],[2,0],[1]]","4","[[2,1,0],[3,0],[0]]","8","0","","","","","","6","","","","",""
"","","","","","single-stim-button","300","2162912","0.0-3.0-34.4-0.4","5e69ce2076c4680330657fd6","C3","batch3","tol_tohand","7117","","","","","","","","","tol_peg_2","7117","7117","0","[[3,0,0],[0,0],[1]]","5","[[2,1,0],[3,0],[0]]","8","0","","","","","","6","","","","",""
"","","","","","single-stim-button","301","2163729","0.0-3.0-34.4-1.4","5e69ce2076c4680330657fd6","C3","batch3","tol_toboard","816","","","","","","","","","tol_peg_1","816","816","0","[[3,2,0],[0,0],[1]]","5","[[2,1,0],[3,0],[0]]","8","0","","","","","","6","","","","",""
"","","","","","single-stim-button","302","2164814","0.0-3.0-34.5-0.5","5e69ce2076c4680330657fd6","C3","batch3","tol_tohand","1084","","","","","","","","","tol_peg_3","1084","1084","0","[[3,2,0],[0,0],[0]]","6","[[2,1,0],[3,0],[0]]","8","0","","","","","","6","","","","",""
"","","","","","single-stim-button","303","2165382","0.0-3.0-34.5-1.5","5e69ce2076c4680330657fd6","C3","batch3","tol_toboard","568","","","","","","","","","tol_peg_2","568","568","0","[[3,2,0],[1,0],[0]]","6","[[2,1,0],[3,0],[0]]","8","0","","","","","","6","","","","",""
"","","","","","single-stim-button","304","2168083","0.0-3.0-34.6-0.6","5e69ce2076c4680330657fd6","C3","batch3","tol_tohand","2700","","","","","","","","","tol_peg_1","2700","2700","0","[[3,0,0],[1,0],[0]]","7","[[2,1,0],[3,0],[0]]","8","0","","","","","","6","","","","",""
"","","","","","single-stim-button","305","2169141","0.0-3.0-34.6-1.6","5e69ce2076c4680330657fd6","C3","batch3","tol_toboard","1056","","","","","","","","","tol_peg_3","1056","1056","0","[[3,0,0],[1,0],[2]]","7","[[2,1,0],[3,0],[0]]","8","0","","","","","","6","","","","",""
"","","","","","single-stim-button","306","2170261","0.0-3.0-34.7-0.7","5e69ce2076c4680330657fd6","C3","batch3","tol_tohand","1120","","","","","","","","","tol_peg_1","1120","1120","0","[[0,0,0],[1,0],[2]]","8","[[2,1,0],[3,0],[0]]","8","0","","","","","","6","","","","",""
"","","","","","single-stim-button","307","2171190","0.0-3.0-34.7-1.7","5e69ce2076c4680330657fd6","C3","batch3","tol_toboard","927","","","","","","","","","tol_peg_2","927","927","0","[[0,0,0],[1,3],[2]]","8","[[2,1,0],[3,0],[0]]","8","0","","","","","","6","","","","",""
"","","","","","single-stim-button","308","2171946","0.0-3.0-34.8-0.8","5e69ce2076c4680330657fd6","C3","batch3","tol_tohand","756","","","","","","","","","tol_peg_3","756","756","0","[[0,0,0],[1,3],[0]]","9","[[2,1,0],[3,0],[0]]","8","0","","","","","","6","","","","",""
"","","","","","single-stim-button","309","2172827","0.0-3.0-34.8-1.8","5e69ce2076c4680330657fd6","C3","batch3","tol_toboard","879","","","","","","","","","tol_peg_1","879","879","0","[[2,0,0],[1,3],[0]]","9","[[2,1,0],[3,0],[0]]","8","0","","","","","","6","","","","",""
"","","","","","single-stim-button","310","2177783","0.0-3.0-34.9-0.9","5e69ce2076c4680330657fd6","C3","batch3","tol_tohand","4956","","","","","","","","","tol_peg_2","4956","4956","0","[[2,0,0],[1,0],[0]]","10","[[2,1,0],[3,0],[0]]","8","0","","","","","","6","","","","",""
"","","","","","single-stim-button","311","2178929","0.0-3.0-34.9-1.9","5e69ce2076c4680330657fd6","C3","batch3","tol_toboard","1144","","","","","","","","","tol_peg_3","1144","1144","0","[[2,0,0],[1,0],[3]]","10","[[2,1,0],[3,0],[0]]","8","0","","","","","","6","","","","",""
"","","","","","single-stim-button","312","2179480","0.0-3.0-34.10-0.10","5e69ce2076c4680330657fd6","C3","batch3","tol_tohand","551","","","","","","","","","tol_peg_2","551","551","0","[[2,0,0],[0,0],[3]]","11","[[2,1,0],[3,0],[0]]","8","0","","","","","","6","","","","",""
"","","","","","single-stim-button","313","2180181","0.0-3.0-34.10-1.10","5e69ce2076c4680330657fd6","C3","batch3","tol_toboard","699","","","","","","","","","tol_peg_1","699","699","0","[[2,1,0],[0,0],[3]]","11","[[2,1,0],[3,0],[0]]","8","0","","","","","","6","","","","",""
"","","","","","single-stim-button","314","2180989","0.0-3.0-34.11-0.11","5e69ce2076c4680330657fd6","C3","batch3","tol_tohand","808","","","","","","","","","tol_peg_3","808","808","0","[[2,1,0],[0,0],[0]]","12","[[2,1,0],[3,0],[0]]","8","0","","","","","","6","","","","",""
"","","","","","single-stim-button","315","2181622","0.0-3.0-34.11-1.11","5e69ce2076c4680330657fd6","C3","batch3","tol_toboard","631","","","","","","","","","tol_peg_2","631","631","0","[[2,1,0],[3,0],[0]]","12","[[2,1,0],[3,0],[0]]","8","0","","","","","","6","","","","",""
"","","","","","poldrack-single-stim","316","2182636","0.0-3.0-35.0","5e69ce2076c4680330657fd6","C3","batch3","tol_feedback","-1","","","","","true","","","","","1000","1000","500","","","","","","-1","none","true","7111","30880","","","","","",""
"","","","","","html-button-response","317","2183878","0.0-3.0-36.0","5e69ce2076c4680330657fd6","C3","batch3","tol_trial_num","1241.2000000001863","<div class = centerbox><p class = center-block-text>problem <strong>10</strong> out of 25 problems</p></div>","0","","","","","","","","","","","","","","","","","","","","","","","","","",""
"","","","","","single-stim-button","318","2188051","0.0-3.0-37.0-0.0","5e69ce2076c4680330657fd6","C3","batch3","tol_tohand","4172","","","","","","","","","tol_peg_2","4172","4172","0","[[3,0,0],[0,0],[2]]","1","[[3,0,0],[2,1],[0]]","9","0","","","","","","3","","","","",""
"","","","","","single-stim-button","319","2188615","0.0-3.0-37.0-1.0","5e69ce2076c4680330657fd6","C3","batch3","tol_toboard","563","","","","","","","","","tol_peg_1","563","563","0","[[3,1,0],[0,0],[2]]","1","[[3,0,0],[2,1],[0]]","9","0","","","","","","3","","","","",""
"","","","","","single-stim-button","320","2189624","0.0-3.0-37.1-0.1","5e69ce2076c4680330657fd6","C3","batch3","tol_tohand","1008","","","","","","","","","tol_peg_3","1008","1008","0","[[3,1,0],[0,0],[0]]","2","[[3,0,0],[2,1],[0]]","9","0","","","","","","3","","","","",""
"","","","","","single-stim-button","321","2190433","0.0-3.0-37.1-1.1","5e69ce2076c4680330657fd6","C3","batch3","tol_toboard","807","","","","","","","","","tol_peg_2","807","807","0","[[3,1,0],[2,0],[0]]","2","[[3,0,0],[2,1],[0]]","9","0","","","","","","3","","","","",""
"","","","","","single-stim-button","322","2191185","0.0-3.0-37.2-0.2","5e69ce2076c4680330657fd6","C3","batch3","tol_tohand","752","","","","","","","","","tol_peg_1","752","752","0","[[3,0,0],[2,0],[0]]","3","[[3,0,0],[2,1],[0]]","9","0","","","","","","3","","","","",""
"","","","","","single-stim-button","323","2191906","0.0-3.0-37.2-1.2","5e69ce2076c4680330657fd6","C3","batch3","tol_toboard","720","","","","","","","","","tol_peg_2","720","720","0","[[3,0,0],[2,1],[0]]","3","[[3,0,0],[2,1],[0]]","9","0","","","","","","3","","","","",""
"","","","","","poldrack-single-stim","324","2192911","0.0-3.0-38.0","5e69ce2076c4680330657fd6","C3","batch3","tol_feedback","-1","","","","","true","","","","","1000","1000","500","","","","","","-1","none","true","4172","5932","","","","","",""
"","","","","","html-button-response","325","2194360","0.0-3.0-39.0","5e69ce2076c4680330657fd6","C3","batch3","tol_trial_num","1447","<div class = centerbox><p class = center-block-text>problem <strong>11</strong> out of 25 problems</p></div>","0","","","","","","","","","","","","","","","","","","","","","","","","","",""
"","","","","","single-stim-button","326","2205276","0.0-3.0-40.0-0.0","5e69ce2076c4680330657fd6","C3","batch3","tol_tohand","10915","","","","","","","","","tol_peg_2","10915","10915","0","[[1,2,0],[0,0],[0]]","1","[[2,0,0],[1,3],[0]]","10","0","","","","","","6","","","","",""
"","","","","","single-stim-button","327","2206309","0.0-3.0-40.0-1.0","5e69ce2076c4680330657fd6","C3","batch3","tol_toboard","1031","","","","","","","","","tol_peg_3","1031","1031","0","[[1,2,0],[0,0],[3]]","1","[[2,0,0],[1,3],[0]]","10","0","","","","","","6","","","","",""
"","","","","","single-stim-button","328","2208215","0.0-3.0-40.1-0.1","5e69ce2076c4680330657fd6","C3","batch3","tol_tohand","1905","","","","","","","","","tol_peg_1","1905","1905","0","[[1,0,0],[0,0],[3]]","2","[[2,0,0],[1,3],[0]]","10","0","","","","","","6","","","","",""
"","","","","","single-stim-button","329","2210181","0.0-3.0-40.1-1.1","5e69ce2076c4680330657fd6","C3","batch3","tol_toboard","1965","","","","","","","","","tol_peg_2","1965","1965","0","[[1,0,0],[2,0],[3]]","2","[[2,0,0],[1,3],[0]]","10","0","","","","","","6","","","","",""
"","","","","","single-stim-button","330","2222284","0.0-3.0-40.2-0.2","5e69ce2076c4680330657fd6","C3","batch3","tol_tohand","12101","","","","","","","","","tol_peg_3","12101","12101","0","[[1,0,0],[2,0],[0]]","3","[[2,0,0],[1,3],[0]]","10","0","","","","","","6","","","","",""
"","","","","","single-stim-button","331","2222996","0.0-3.0-40.2-1.2","5e69ce2076c4680330657fd6","C3","batch3","tol_toboard","712","","","","","","","","","tol_peg_1","712","712","0","[[1,3,0],[2,0],[0]]","3","[[2,0,0],[1,3],[0]]","10","0","","","","","","6","","","","",""
"","","","","","single-stim-button","332","2224021","0.0-3.0-40.3-0.3","5e69ce2076c4680330657fd6","C3","batch3","tol_tohand","1023","","","","","","","","","tol_peg_2","1023","1023","0","[[1,3,0],[0,0],[0]]","4","[[2,0,0],[1,3],[0]]","10","0","","","","","","6","","","","",""
"","","","","","single-stim-button","333","2224773","0.0-3.0-40.3-1.3","5e69ce2076c4680330657fd6","C3","batch3","tol_toboard","752","","","","","","","","","tol_peg_3","752","752","0","[[1,3,0],[0,0],[2]]","4","[[2,0,0],[1,3],[0]]","10","0","","","","","","6","","","","",""
"","","","","","single-stim-button","334","2226907","0.0-3.0-40.4-0.4","5e69ce2076c4680330657fd6","C3","batch3","tol_tohand","2132","","","","","","","","","tol_peg_1","2132","2132","0","[[1,0,0],[0,0],[2]]","5","[[2,0,0],[1,3],[0]]","10","0","","","","","","6","","","","",""
"","","","","","single-stim-button","335","2227947","0.0-3.0-40.4-1.4","5e69ce2076c4680330657fd6","C3","batch3","tol_toboard","1040","","","","","","","","","tol_peg_2","1040","1040","0","[[1,0,0],[3,0],[2]]","5","[[2,0,0],[1,3],[0]]","10","0","","","","","","6","","","","",""
"","","","","","single-stim-button","336","2228492","0.0-3.0-40.5-0.5","5e69ce2076c4680330657fd6","C3","batch3","tol_tohand","544","","","","","","","","","tol_peg_1","544","544","0","[[0,0,0],[3,0],[2]]","6","[[2,0,0],[1,3],[0]]","10","0","","","","","","6","","","","",""
"","","","","","single-stim-button","337","2229188","0.0-3.0-40.5-1.5","5e69ce2076c4680330657fd6","C3","batch3","tol_toboard","695","","","","","","","","","tol_peg_2","695","695","0","[[0,0,0],[3,1],[2]]","6","[[2,0,0],[1,3],[0]]","10","0","","","","","","6","","","","",""
"","","","","","single-stim-button","338","2230768","0.0-3.0-40.6-0.6","5e69ce2076c4680330657fd6","C3","batch3","tol_tohand","1579","","","","","","","","","tol_peg_3","1579","1579","0","[[0,0,0],[3,1],[0]]","7","[[2,0,0],[1,3],[0]]","10","0","","","","","","6","","","","",""
"","","","","","single-stim-button","339","2231673","0.0-3.0-40.6-1.6","5e69ce2076c4680330657fd6","C3","batch3","tol_toboard","904","","","","","","","","","tol_peg_1","904","904","0","[[2,0,0],[3,1],[0]]","7","[[2,0,0],[1,3],[0]]","10","0","","","","","","6","","","","",""
"","","","","","single-stim-button","340","2233692","0.0-3.0-40.7-0.7","5e69ce2076c4680330657fd6","C3","batch3","tol_tohand","2018","","","","","","","","","tol_peg_2","2018","2018","0","[[2,0,0],[3,0],[0]]","8","[[2,0,0],[1,3],[0]]","10","0","","","","","","6","","","","",""
"","","","","","single-stim-button","341","2234391","0.0-3.0-40.7-1.7","5e69ce2076c4680330657fd6","C3","batch3","tol_toboard","698","","","","","","","","","tol_peg_1","698","698","0","[[2,1,0],[3,0],[0]]","8","[[2,0,0],[1,3],[0]]","10","0","","","","","","6","","","","",""
"","","","","","single-stim-button","342","2235867","0.0-3.0-40.8-0.8","5e69ce2076c4680330657fd6","C3","batch3","tol_tohand","1475","","","","","","","","","tol_peg_2","1475","1475","0","[[2,1,0],[0,0],[0]]","9","[[2,0,0],[1,3],[0]]","10","0","","","","","","6","","","","",""
"","","","","","single-stim-button","343","2236770","0.0-3.0-40.8-1.8","5e69ce2076c4680330657fd6","C3","batch3","tol_toboard","902","","","","","","","","","tol_peg_3","902","902","0","[[2,1,0],[0,0],[3]]","9","[[2,0,0],[1,3],[0]]","10","0","","","","","","6","","","","",""
"","","","","","single-stim-button","344","2237491","0.0-3.0-40.9-0.9","5e69ce2076c4680330657fd6","C3","batch3","tol_tohand","720","","","","","","","","","tol_peg_1","720","720","0","[[2,0,0],[0,0],[3]]","10","[[2,0,0],[1,3],[0]]","10","0","","","","","","6","","","","",""
"","","","","","single-stim-button","345","2238392","0.0-3.0-40.9-1.9","5e69ce2076c4680330657fd6","C3","batch3","tol_toboard","900","","","","","","","","","tol_peg_2","900","900","0","[[2,0,0],[1,0],[3]]","10","[[2,0,0],[1,3],[0]]","10","0","","","","","","6","","","","",""
"","","","","","single-stim-button","346","2239096","0.0-3.0-40.10-0.10","5e69ce2076c4680330657fd6","C3","batch3","tol_tohand","704","","","","","","","","","tol_peg_3","704","704","0","[[2,0,0],[1,0],[0]]","11","[[2,0,0],[1,3],[0]]","10","0","","","","","","6","","","","",""
"","","","","","single-stim-button","347","2239769","0.0-3.0-40.10-1.10","5e69ce2076c4680330657fd6","C3","batch3","tol_toboard","671","","","","","","","","","tol_peg_2","671","671","0","[[2,0,0],[1,3],[0]]","11","[[2,0,0],[1,3],[0]]","10","0","","","","","","6","","","","",""
"","","","","","poldrack-single-stim","348","2240777","0.0-3.0-41.0","5e69ce2076c4680330657fd6","C3","batch3","tol_feedback","-1","","","","","true","","","","","1000","1000","500","","","","","","-1","none","true","10915","35116","","","","","",""
"","","","","","html-button-response","349","2241553","0.0-3.0-42.0","5e69ce2076c4680330657fd6","C3","batch3","tol_trial_num","775","<div class = centerbox><p class = center-block-text>problem <strong>12</strong> out of 25 problems</p></div>","0","","","","","","","","","","","","","","","","","","","","","","","","","",""
"","","","","","single-stim-button","350","2250769","0.0-3.0-43.0-0.0","5e69ce2076c4680330657fd6","C3","batch3","tol_tohand","9214","","","","","","","","","tol_peg_1","9214","9214","0","[[1,0,0],[3,0],[0]]","1","[[2,3,0],[0,0],[1]]","11","0","","","","","","4","","","","",""
"","","","","","single-stim-button","351","2251488","0.0-3.0-43.0-1.0","5e69ce2076c4680330657fd6","C3","batch3","tol_toboard","718","","","","","","","","","tol_peg_2","718","718","0","[[1,0,0],[3,2],[0]]","1","[[2,3,0],[0,0],[1]]","11","0","","","","","","4","","","","",""
"","","","","","single-stim-button","352","2252080","0.0-3.0-43.1-0.1","5e69ce2076c4680330657fd6","C3","batch3","tol_tohand","591","","","","","","","","","tol_peg_1","591","591","0","[[0,0,0],[3,2],[0]]","2","[[2,3,0],[0,0],[1]]","11","0","","","","","","4","","","","",""
"","","","","","single-stim-button","353","2252953","0.0-3.0-43.1-1.1","5e69ce2076c4680330657fd6","C3","batch3","tol_toboard","872","","","","","","","","","tol_peg_3","872","872","0","[[0,0,0],[3,2],[1]]","2","[[2,3,0],[0,0],[1]]","11","0","","","","","","4","","","","",""
"","","","","","single-stim-button","354","2254130","0.0-3.0-43.2-0.2","5e69ce2076c4680330657fd6","C3","batch3","tol_tohand","1176","","","","","","","","","tol_peg_2","1176","1176","0","[[0,0,0],[3,0],[1]]","3","[[2,3,0],[0,0],[1]]","11","0","","","","","","4","","","","",""
