"success","timeout","failed_images","failed_audio","failed_video","trial_type","trial_index","time_elapsed","internal_node_id","subject_id","study_id","session_id","view_history","rt","task","stimulus","response","correct","mouse_click","stim_duration","block_duration","timing_post_trial","current_position","tol_num_moves_made","tol_target","tol_problem_id","tol_rt","key_press","possible_responses","tol_correct","preplanning","tol_rt_per_trial","tol_min_moves","item","answer","spm_correct","spm_rt","fiar_detect_rt","fiar_detect_correct","total_correct_fiar_detect","post_trial_gap","choices"
"true","false","[]","[]","[]","preload","0","1056","0.0-0.0","5e6c0b0fede0271d08d1a3cd","F1","batch6","","","","","","","","","","","","","","","","","","","","","","","","","","","","","",""
"true","","","","","fullscreen","1","6092","0.0-1.0-0.0","5e6c0b0fede0271d08d1a3cd","F1","batch6","","","","","","","","","","","","","","","","","","","","","","","","","","","","","",""
"true","","","","","fullscreen","2","8643","0.0-2.0-0.0","5e6c0b0fede0271d08d1a3cd","F1","batch6","","","","","","","","","","","","","","","","","","","","","","","","","","","","","",""
"","","","","","instructions","3","30735","0.0-2.0-1.0-0.0-0.0","5e6c0b0fede0271d08d1a3cd","F1","batch6","[{""page_index"":0,""viewing_time"":3928.10000000149},{""page_index"":1,""viewing_time"":4422.39999999851},{""page_index"":2,""viewing_time"":3429.5},{""page_index"":3,""viewing_time"":3494.5},{""page_index"":4,""viewing_time"":2084.5},{""page_index"":5,""viewing_time"":2882.7999999970198},{""page_index"":6,""viewing_time"":1847.5}]","22090.29999999702","tol-instructions","","","","","","","","","","","","","","","","","","","","","","","","","","",""
"","","","","","html-button-response","4","31343","0.0-2.0-1.0-1.0-0.0","5e6c0b0fede0271d08d1a3cd","F1","batch6","","605.1999999955297","tol_enter_quiz","<p class=block-text> Let's answer a few questions <br>","0","","","","","","","","","","","","","","","","","","","","","","","","",""
"","","","","","html-button-response","5","36329","0.0-2.0-1.0-1.0-1.0","5e6c0b0fede0271d08d1a3cd","F1","batch6","","4982.89999999851","tol_quiz","<p class = block-text>True or False: You can only move the ball on top of a peg. <br></p>","1","false","","","","","","","","","","","","","","","","","","","","","","","",""
"","","","","","html-button-response","6","37649","0.0-2.0-1.0-1.0-2.0","5e6c0b0fede0271d08d1a3cd","F1","batch6","","1316.2999999970198","tol_quiz_feedback","<p class = block-text>Incorrect. Remember, you can only move the ball on top of a peg.</p>","0","","","","","","","","","","","","","","","","","","","","","","","","",""
"","","","","","html-button-response","7","40563","0.0-2.0-1.0-1.0-3.0","5e6c0b0fede0271d08d1a3cd","F1","batch6","","2911.39999999851","tol_quiz","<p class = block-text>True or False: You should try to match your board with the target board with fewest moves possible. <br></p>","0","true","","","","","","","","","","","","","","","","","","","","","","","",""
"","","","","","html-button-response","8","41059","0.0-2.0-1.0-1.0-4.0","5e6c0b0fede0271d08d1a3cd","F1","batch6","","493.90000000596046","tol_quiz_feedback","<p class = block-text>Correct! </p>","0","","","","","","","","","","","","","","","","","","","","","","","","",""
"","","","","","html-button-response","9","42753","0.0-2.0-1.0-2.0-0.0","5e6c0b0fede0271d08d1a3cd","F1","batch6","","1690.8000000044703","","<p class = block-text>You made too many incorrect choices.</p><p class = block-text>You will now repeat the instructions and quiz</p>","0","","","","","","","","","","","","","","","","","","","","","","","","",""
"","","","","","instructions","10","45843","0.0-2.0-1.1-0.1-0.1","5e6c0b0fede0271d08d1a3cd","F1","batch6","[{""page_index"":0,""viewing_time"":803.5},{""page_index"":1,""viewing_time"":165.80000000447035},{""page_index"":2,""viewing_time"":157.29999999701977},{""page_index"":3,""viewing_time"":167.5},{""page_index"":4,""viewing_time"":373.80000000447035},{""page_index"":5,""viewing_time"":447.19999999552965},{""page_index"":6,""viewing_time"":972.8999999985099}]","3088.9000000059605","tol-instructions","","","","","","","","","","","","","","","","","","","","","","","","","","",""
"","","","","","html-button-response","11","46582","0.0-2.0-1.1-1.1-0.1","5e6c0b0fede0271d08d1a3cd","F1","batch6","","736.1999999955297","tol_enter_quiz","<p class=block-text> Let's answer a few questions <br>","0","","","","","","","","","","","","","","","","","","","","","","","","",""
"","","","","","html-button-response","12","52040","0.0-2.0-1.1-1.1-1.1","5e6c0b0fede0271d08d1a3cd","F1","batch6","","5454.39999999851","tol_quiz","<p class = block-text>True or False: You can only move the ball on top of a peg. <br></p>","0","true","","","","","","","","","","","","","","","","","","","","","","","",""
"","","","","","html-button-response","13","52711","0.0-2.0-1.1-1.1-2.1","5e6c0b0fede0271d08d1a3cd","F1","batch6","","669.3000000044703","tol_quiz_feedback","<p class = block-text>Correct! You can only move the ball on top of a peg.</p>","0","","","","","","","","","","","","","","","","","","","","","","","","",""
"","","","","","html-button-response","14","53949","0.0-2.0-1.1-1.1-3.1","5e6c0b0fede0271d08d1a3cd","F1","batch6","","1235.3999999985099","tol_quiz","<p class = block-text>True or False: You should try to match your board with the target board with fewest moves possible. <br></p>","0","true","","","","","","","","","","","","","","","","","","","","","","","",""
"","","","","","html-button-response","15","54405","0.0-2.0-1.1-1.1-4.1","5e6c0b0fede0271d08d1a3cd","F1","batch6","","453.6000000014901","tol_quiz_feedback","<p class = block-text>Correct! </p>","0","","","","","","","","","","","","","","","","","","","","","","","","",""
"","","","","","html-button-response","16","55339","0.0-2.0-2.0","5e6c0b0fede0271d08d1a3cd","F1","batch6","","931.6999999955297","","<p class=block-text> Now that you've understood the game, let's practice a few easier examples before we start!<br> <br>","0","","","","","","","","","","","","","","","","","","","","","","","","",""
"","","","","","single-stim-button","17","57324","0.0-2.0-3.0-0.0","5e6c0b0fede0271d08d1a3cd","F1","batch6","","1979","tol_practice","","","","tol_peg_2","1979","1979","0","[[1,2,0],[0,0],[0]]","1","[[1,2,0],[0,0],[3]]","practice","1979","","","","","","","","","","","","","","",""
"","","","","","single-stim-button","18","61009","0.0-2.0-3.0-1.0","5e6c0b0fede0271d08d1a3cd","F1","batch6","","3682","tol_practice","","","","tol_peg_3","3682","3682","0","[[1,2,0],[0,0],[3]]","1","[[1,2,0],[0,0],[3]]","practice","3682","","","","","","","","","","","","","","",""
"","","","","","poldrack-single-stim","19","62015","0.0-2.0-4.0","5e6c0b0fede0271d08d1a3cd","F1","batch6","","-1","tol_feedback","","","true","","1000","1000","500","","","","","","-1","none","true","","0","","","","","","","","","",""
"","","","","","single-stim-button","20","65421","0.0-2.0-5.0-0.0","5e6c0b0fede0271d08d1a3cd","F1","batch6","","3403","tol_practice","","","","tol_peg_1","3403","3403","0","[[1,0,0],[3,0],[0]]","2","[[0,0,0],[3,1],[2]]","practice","3403","","","","","","","","","","","","","","",""
"","","","","","single-stim-button","21","66832","0.0-2.0-5.0-1.0","5e6c0b0fede0271d08d1a3cd","F1","batch6","","1408","tol_practice","","","","tol_peg_3","1408","1408","0","[[1,0,0],[3,0],[2]]","2","[[0,0,0],[3,1],[2]]","practice","1408","","","","","","","","","","","","","","",""
"","","","","","single-stim-button","22","69392","0.0-2.0-5.1-0.1","5e6c0b0fede0271d08d1a3cd","F1","batch6","","2557","tol_practice","","","","tol_peg_1","2557","2557","0","[[0,0,0],[3,0],[2]]","3","[[0,0,0],[3,1],[2]]","practice","2557","","","","","","","","","","","","","","",""
"","","","","","single-stim-button","23","70074","0.0-2.0-5.1-1.1","5e6c0b0fede0271d08d1a3cd","F1","batch6","","679","tol_practice","","","","tol_peg_2","679","679","0","[[0,0,0],[3,1],[2]]","3","[[0,0,0],[3,1],[2]]","practice","679","","","","","","","","","","","","","","",""
"","","","","","poldrack-single-stim","24","71078","0.0-2.0-6.0","5e6c0b0fede0271d08d1a3cd","F1","batch6","","-1","tol_feedback","","","true","","1000","1000","500","","","","","","-1","none","true","","0","","","","","","","","","",""
"","","","","","single-stim-button","25","74967","0.0-2.0-7.0-0.0","5e6c0b0fede0271d08d1a3cd","F1","batch6","","3887","tol_practice","","","","tol_peg_2","3887","3887","0","[[1,2,0],[0,0],[0]]","4","[[1,0,0],[2,0],[3]]","practice","3887","","","","","","","","","","","","","","",""
"","","","","","single-stim-button","26","75573","0.0-2.0-7.0-1.0","5e6c0b0fede0271d08d1a3cd","F1","batch6","","604","tol_practice","","","","tol_peg_3","604","604","0","[[1,2,0],[0,0],[3]]","4","[[1,0,0],[2,0],[3]]","practice","604","","","","","","","","","","","","","","",""
"","","","","","single-stim-button","27","77662","0.0-2.0-7.1-0.1","5e6c0b0fede0271d08d1a3cd","F1","batch6","","2086","tol_practice","","","","tol_peg_1","2086","2086","0","[[1,0,0],[0,0],[3]]","5","[[1,0,0],[2,0],[3]]","practice","2086","","","","","","","","","","","","","","",""
"","","","","","single-stim-button","28","78214","0.0-2.0-7.1-1.1","5e6c0b0fede0271d08d1a3cd","F1","batch6","","549","tol_practice","","","","tol_peg_2","549","549","0","[[1,0,0],[2,0],[3]]","5","[[1,0,0],[2,0],[3]]","practice","549","","","","","","","","","","","","","","",""
"","","","","","poldrack-single-stim","29","79218","0.0-2.0-8.0","5e6c0b0fede0271d08d1a3cd","F1","batch6","","-1","tol_feedback","","","true","","1000","1000","500","","","","","","-1","none","true","","0","","","","","","","","","",""
"","","","","","html-button-response","30","79918","0.0-2.0-9.0","5e6c0b0fede0271d08d1a3cd","F1","batch6","","697.7999999970198","tol_instruction","<div class = centerbox><p class = center-block-text>Great job! You are done with practice trials<br>You are about to start official trials.<br> <br> Problem <strong>1</strong> out of 25 problems</p></div>","0","","","","","","","","","","","","","","","","","","","","","","","","",""
"","","","","","single-stim-button","31","86956","0.0-2.0-10.0-0.0","5e6c0b0fede0271d08d1a3cd","F1","batch6","","6034","tol_tohand","","","","tol_peg_2","6034","6034","0","[[1,2,0],[0,0],[0]]","1","[[1,3,0],[2,0],[0]]","0","0","","","","","","3","","","","","","","","",""
"","","","","","single-stim-button","32","89031","0.0-2.0-10.0-1.0","5e6c0b0fede0271d08d1a3cd","F1","batch6","","2073","tol_toboard","","","","tol_peg_2","2073","2073","0","[[1,2,0],[3,0],[0]]","1","[[1,3,0],[2,0],[0]]","0","0","","","","","","3","","","","","","","","",""
"","","","","","single-stim-button","33","89572","0.0-2.0-10.1-0.1","5e6c0b0fede0271d08d1a3cd","F1","batch6","","539","tol_tohand","","","","tol_peg_1","539","539","0","[[1,0,0],[3,0],[0]]","2","[[1,3,0],[2,0],[0]]","0","0","","","","","","3","","","","","","","","",""
"","","","","","single-stim-button","34","91024","0.0-2.0-10.1-1.1","5e6c0b0fede0271d08d1a3cd","F1","batch6","","1450","tol_toboard","","","","tol_peg_3","1450","1450","0","[[1,0,0],[3,0],[2]]","2","[[1,3,0],[2,0],[0]]","0","0","","","","","","3","","","","","","","","",""
"","","","","","single-stim-button","35","91400","0.0-2.0-10.2-0.2","5e6c0b0fede0271d08d1a3cd","F1","batch6","","373","tol_tohand","","","","tol_peg_2","373","373","0","[[1,0,0],[0,0],[2]]","3","[[1,3,0],[2,0],[0]]","0","0","","","","","","3","","","","","","","","",""
"","","","","","single-stim-button","36","91682","0.0-2.0-10.2-1.2","5e6c0b0fede0271d08d1a3cd","F1","batch6","","280","tol_toboard","","","","tol_peg_1","280","280","0","[[1,3,0],[0,0],[2]]","3","[[1,3,0],[2,0],[0]]","0","0","","","","","","3","","","","","","","","",""
"","","","","","single-stim-button","37","92213","0.0-2.0-10.3-0.3","5e6c0b0fede0271d08d1a3cd","F1","batch6","","529","tol_tohand","","","","tol_peg_3","529","529","0","[[1,3,0],[0,0],[0]]","4","[[1,3,0],[2,0],[0]]","0","0","","","","","","3","","","","","","","","",""
"","","","","","single-stim-button","38","92547","0.0-2.0-10.3-1.3","5e6c0b0fede0271d08d1a3cd","F1","batch6","","331","tol_toboard","","","","tol_peg_2","331","331","0","[[1,3,0],[2,0],[0]]","4","[[1,3,0],[2,0],[0]]","0","0","","","","","","3","","","","","","","","",""
"","","","","","poldrack-single-stim","39","93551","0.0-2.0-11.0","5e6c0b0fede0271d08d1a3cd","F1","batch6","","-1","tol_feedback","","","true","","1000","1000","500","","","","","","-1","none","true","6034","7475","","","","","","","","","",""
"","","","","","html-button-response","40","94166","0.0-2.0-12.0","5e6c0b0fede0271d08d1a3cd","F1","batch6","","612.5","tol_trial_num","<div class = centerbox><p class = center-block-text>problem <strong>2</strong> out of 25 problems</p></div>","0","","","","","","","","","","","","","","","","","","","","","","","","",""
"","","","","","single-stim-button","41","98636","0.0-2.0-13.0-0.0","5e6c0b0fede0271d08d1a3cd","F1","batch6","","4468","tol_tohand","","","","tol_peg_2","4468","4468","0","[[1,2,0],[0,0],[0]]","1","[[2,1,3],[0,0],[0]]","1","0","","","","","","5","","","","","","","","",""
"","","","","","single-stim-button","42","103247","0.0-2.0-13.0-1.0","5e6c0b0fede0271d08d1a3cd","F1","batch6","","4608","tol_toboard","","","","tol_peg_2","4608","4608","0","[[1,2,0],[3,0],[0]]","1","[[2,1,3],[0,0],[0]]","1","0","","","","","","5","","","","","","","","",""
"","","","","","single-stim-button","43","103839","0.0-2.0-13.1-0.1","5e6c0b0fede0271d08d1a3cd","F1","batch6","","589","tol_tohand","","","","tol_peg_1","589","589","0","[[1,0,0],[3,0],[0]]","2","[[2,1,3],[0,0],[0]]","1","0","","","","","","5","","","","","","","","",""
"","","","","","single-stim-button","44","106507","0.0-2.0-13.1-1.1","5e6c0b0fede0271d08d1a3cd","F1","batch6","","2666","tol_toboard","","","","tol_peg_3","2666","2666","0","[[1,0,0],[3,0],[2]]","2","[[2,1,3],[0,0],[0]]","1","0","","","","","","5","","","","","","","","",""
"","","","","","single-stim-button","45","111290","0.0-2.0-13.2-0.2","5e6c0b0fede0271d08d1a3cd","F1","batch6","","4781","tol_tohand","","","","tol_peg_1","4781","4781","0","[[0,0,0],[3,0],[2]]","3","[[2,1,3],[0,0],[0]]","1","0","","","","","","5","","","","","","","","",""
"","","","","","single-stim-button","46","112395","0.0-2.0-13.2-1.2","5e6c0b0fede0271d08d1a3cd","F1","batch6","","1102","tol_toboard","","","","tol_peg_2","1102","1102","0","[[0,0,0],[3,1],[2]]","3","[[2,1,3],[0,0],[0]]","1","0","","","","","","5","","","","","","","","",""
"","","","","","single-stim-button","47","113085","0.0-2.0-13.3-0.3","5e6c0b0fede0271d08d1a3cd","F1","batch6","","687","tol_tohand","","","","tol_peg_2","687","687","0","[[0,0,0],[3,0],[2]]","4","[[2,1,3],[0,0],[0]]","1","0","","","","","","5","","","","","","","","",""
"","","","","","single-stim-button","48","114430","0.0-2.0-13.3-1.3","5e6c0b0fede0271d08d1a3cd","F1","batch6","","1343","tol_toboard","","","","tol_peg_1","1343","1343","0","[[1,0,0],[3,0],[2]]","4","[[2,1,3],[0,0],[0]]","1","0","","","","","","5","","","","","","","","",""
"","","","","","single-stim-button","49","114904","0.0-2.0-13.4-0.4","5e6c0b0fede0271d08d1a3cd","F1","batch6","","472","tol_tohand","","","","tol_peg_2","472","472","0","[[1,0,0],[0,0],[2]]","5","[[2,1,3],[0,0],[0]]","1","0","","","","","","5","","","","","","","","",""
"","","","","","single-stim-button","50","117397","0.0-2.0-13.4-1.4","5e6c0b0fede0271d08d1a3cd","F1","batch6","","2491","tol_toboard","","","","tol_peg_2","2491","2491","0","[[1,0,0],[3,0],[2]]","5","[[2,1,3],[0,0],[0]]","1","0","","","","","","5","","","","","","","","",""
"","","","","","single-stim-button","51","119283","0.0-2.0-13.5-0.5","5e6c0b0fede0271d08d1a3cd","F1","batch6","","1883","tol_tohand","","","","tol_peg_3","1883","1883","0","[[1,0,0],[3,0],[0]]","6","[[2,1,3],[0,0],[0]]","1","0","","","","","","5","","","","","","","","",""
"","","","","","single-stim-button","52","119573","0.0-2.0-13.5-1.5","5e6c0b0fede0271d08d1a3cd","F1","batch6","","287","tol_toboard","","","","tol_peg_2","287","287","0","[[1,0,0],[3,2],[0]]","6","[[2,1,3],[0,0],[0]]","1","0","","","","","","5","","","","","","","","",""
"","","","","","single-stim-button","53","119990","0.0-2.0-13.6-0.6","5e6c0b0fede0271d08d1a3cd","F1","batch6","","414","tol_tohand","","","","tol_peg_1","414","414","0","[[0,0,0],[3,2],[0]]","7","[[2,1,3],[0,0],[0]]","1","0","","","","","","5","","","","","","","","",""
"","","","","","single-stim-button","54","120412","0.0-2.0-13.6-1.6","5e6c0b0fede0271d08d1a3cd","F1","batch6","","419","tol_toboard","","","","tol_peg_3","419","419","0","[[0,0,0],[3,2],[1]]","7","[[2,1,3],[0,0],[0]]","1","0","","","","","","5","","","","","","","","",""
"","","","","","single-stim-button","55","121685","0.0-2.0-13.7-0.7","5e6c0b0fede0271d08d1a3cd","F1","batch6","","1270","tol_tohand","","","","tol_peg_2","1270","1270","0","[[0,0,0],[3,0],[1]]","8","[[2,1,3],[0,0],[0]]","1","0","","","","","","5","","","","","","","","",""
"","","","","","single-stim-button","56","122033","0.0-2.0-13.7-1.7","5e6c0b0fede0271d08d1a3cd","F1","batch6","","345","tol_toboard","","","","tol_peg_1","345","345","0","[[2,0,0],[3,0],[1]]","8","[[2,1,3],[0,0],[0]]","1","0","","","","","","5","","","","","","","","",""
"","","","","","single-stim-button","57","123063","0.0-2.0-13.8-0.8","5e6c0b0fede0271d08d1a3cd","F1","batch6","","1028","tol_tohand","","","","tol_peg_2","1028","1028","0","[[2,0,0],[0,0],[1]]","9","[[2,1,3],[0,0],[0]]","1","0","","","","","","5","","","","","","","","",""
"","","","","","single-stim-button","58","124343","0.0-2.0-13.8-1.8","5e6c0b0fede0271d08d1a3cd","F1","batch6","","1277","tol_toboard","","","","tol_peg_2","1277","1277","0","[[2,0,0],[3,0],[1]]","9","[[2,1,3],[0,0],[0]]","1","0","","","","","","5","","","","","","","","",""
"","","","","","single-stim-button","59","124708","0.0-2.0-13.9-0.9","5e6c0b0fede0271d08d1a3cd","F1","batch6","","362","tol_tohand","","","","tol_peg_3","362","362","0","[[2,0,0],[3,0],[0]]","10","[[2,1,3],[0,0],[0]]","1","0","","","","","","5","","","","","","","","",""
"","","","","","single-stim-button","60","125106","0.0-2.0-13.9-1.9","5e6c0b0fede0271d08d1a3cd","F1","batch6","","397","tol_toboard","","","","tol_peg_1","397","397","0","[[2,1,0],[3,0],[0]]","10","[[2,1,3],[0,0],[0]]","1","0","","","","","","5","","","","","","","","",""
"","","","","","single-stim-button","61","125531","0.0-2.0-13.10-0.10","5e6c0b0fede0271d08d1a3cd","F1","batch6","","422","tol_tohand","","","","tol_peg_2","422","422","0","[[2,1,0],[0,0],[0]]","11","[[2,1,3],[0,0],[0]]","1","0","","","","","","5","","","","","","","","",""
"","","","","","single-stim-button","62","125837","0.0-2.0-13.10-1.10","5e6c0b0fede0271d08d1a3cd","F1","batch6","","304","tol_toboard","","","","tol_peg_1","304","304","0","[[2,1,3],[0,0],[0]]","11","[[2,1,3],[0,0],[0]]","1","0","","","","","","5","","","","","","","","",""
"","","","","","poldrack-single-stim","63","126841","0.0-2.0-14.0","5e6c0b0fede0271d08d1a3cd","F1","batch6","","-1","tol_feedback","","","true","","1000","1000","500","","","","","","-1","none","true","4468","16376","","","","","","","","","",""
"","","","","","html-button-response","64","127526","0.0-2.0-15.0","5e6c0b0fede0271d08d1a3cd","F1","batch6","","681.5","tol_trial_num","<div class = centerbox><p class = center-block-text>problem <strong>3</strong> out of 25 problems</p></div>","0","","","","","","","","","","","","","","","","","","","","","","","","",""
"","","","","","single-stim-button","65","131947","0.0-2.0-16.0-0.0","5e6c0b0fede0271d08d1a3cd","F1","batch6","","4419","tol_tohand","","","","tol_peg_1","4419","4419","0","[[2,0,0],[0,0],[1]]","1","[[1,2,0],[3,0],[0]]","2","0","","","","","","4","","","","","","","","",""
"","","","","","single-stim-button","66","132377","0.0-2.0-16.0-1.0","5e6c0b0fede0271d08d1a3cd","F1","batch6","","427","tol_toboard","","","","tol_peg_2","427","427","0","[[2,0,0],[3,0],[1]]","1","[[1,2,0],[3,0],[0]]","2","0","","","","","","4","","","","","","","","",""
"","","","","","single-stim-button","67","134287","0.0-2.0-16.1-0.1","5e6c0b0fede0271d08d1a3cd","F1","batch6","","1907","tol_tohand","","","","tol_peg_1","1907","1907","0","[[0,0,0],[3,0],[1]]","2","[[1,2,0],[3,0],[0]]","2","0","","","","","","4","","","","","","","","",""
"","","","","","single-stim-button","68","135128","0.0-2.0-16.1-1.1","5e6c0b0fede0271d08d1a3cd","F1","batch6","","839","tol_toboard","","","","tol_peg_1","839","839","0","[[2,0,0],[3,0],[1]]","2","[[1,2,0],[3,0],[0]]","2","0","","","","","","4","","","","","","","","",""
"","","","","","single-stim-button","69","135799","0.0-2.0-16.2-0.2","5e6c0b0fede0271d08d1a3cd","F1","batch6","","669","tol_tohand","","","","tol_peg_1","669","669","0","[[0,0,0],[3,0],[1]]","3","[[1,2,0],[3,0],[0]]","2","0","","","","","","4","","","","","","","","",""
"","","","","","single-stim-button","70","136023","0.0-2.0-16.2-1.2","5e6c0b0fede0271d08d1a3cd","F1","batch6","","222","tol_toboard","","","","tol_peg_2","222","222","0","[[0,0,0],[3,2],[1]]","3","[[1,2,0],[3,0],[0]]","2","0","","","","","","4","","","","","","","","",""
"","","","","","single-stim-button","71","136356","0.0-2.0-16.3-0.3","5e6c0b0fede0271d08d1a3cd","F1","batch6","","330","tol_tohand","","","","tol_peg_3","330","330","0","[[0,0,0],[3,2],[0]]","4","[[1,2,0],[3,0],[0]]","2","0","","","","","","4","","","","","","","","",""
"","","","","","single-stim-button","72","136687","0.0-2.0-16.3-1.3","5e6c0b0fede0271d08d1a3cd","F1","batch6","","329","tol_toboard","","","","tol_peg_1","329","329","0","[[1,0,0],[3,2],[0]]","4","[[1,2,0],[3,0],[0]]","2","0","","","","","","4","","","","","","","","",""
"","","","","","single-stim-button","73","137052","0.0-2.0-16.4-0.4","5e6c0b0fede0271d08d1a3cd","F1","batch6","","363","tol_tohand","","","","tol_peg_2","363","363","0","[[1,0,0],[3,0],[0]]","5","[[1,2,0],[3,0],[0]]","2","0","","","","","","4","","","","","","","","",""
"","","","","","single-stim-button","74","137253","0.0-2.0-16.4-1.4","5e6c0b0fede0271d08d1a3cd","F1","batch6","","199","tol_toboard","","","","tol_peg_1","199","199","0","[[1,2,0],[3,0],[0]]","5","[[1,2,0],[3,0],[0]]","2","0","","","","","","4","","","","","","","","",""
"","","","","","poldrack-single-stim","75","138257","0.0-2.0-17.0","5e6c0b0fede0271d08d1a3cd","F1","batch6","","-1","tol_feedback","","","true","","1000","1000","500","","","","","","-1","none","true","4419","7688","","","","","","","","","",""
"","","","","","html-button-response","76","138873","0.0-2.0-18.0","5e6c0b0fede0271d08d1a3cd","F1","batch6","","612.7000000029802","tol_trial_num","<div class = centerbox><p class = center-block-text>problem <strong>4</strong> out of 25 problems</p></div>","0","","","","","","","","","","","","","","","","","","","","","","","","",""
"","","","","","single-stim-button","77","143186","0.0-2.0-19.0-0.0","5e6c0b0fede0271d08d1a3cd","F1","batch6","","4310","tol_tohand","","","","tol_peg_2","4310","4310","0","[[3,0,0],[2,0],[0]]","1","[[3,0,0],[1,0],[2]]","3","0","","","","","","3","","","","","","","","",""
"","","","","","single-stim-button","78","143767","0.0-2.0-19.0-1.0","5e6c0b0fede0271d08d1a3cd","F1","batch6","","579","tol_toboard","","","","tol_peg_1","579","579","0","[[3,1,0],[2,0],[0]]","1","[[3,0,0],[1,0],[2]]","3","0","","","","","","3","","","","","","","","",""
"","","","","","single-stim-button","79","144174","0.0-2.0-19.1-0.1","5e6c0b0fede0271d08d1a3cd","F1","batch6","","405","tol_tohand","","","","tol_peg_2","405","405","0","[[3,1,0],[0,0],[0]]","2","[[3,0,0],[1,0],[2]]","3","0","","","","","","3","","","","","","","","",""
"","","","","","single-stim-button","80","144457","0.0-2.0-19.1-1.1","5e6c0b0fede0271d08d1a3cd","F1","batch6","","280","tol_toboard","","","","tol_peg_3","280","280","0","[[3,1,0],[0,0],[2]]","2","[[3,0,0],[1,0],[2]]","3","0","","","","","","3","","","","","","","","",""
"","","","","","single-stim-button","81","145030","0.0-2.0-19.2-0.2","5e6c0b0fede0271d08d1a3cd","F1","batch6","","570","tol_tohand","","","","tol_peg_1","570","570","0","[[3,0,0],[0,0],[2]]","3","[[3,0,0],[1,0],[2]]","3","0","","","","","","3","","","","","","","","",""
"","","","","","single-stim-button","82","145320","0.0-2.0-19.2-1.2","5e6c0b0fede0271d08d1a3cd","F1","batch6","","288","tol_toboard","","","","tol_peg_2","288","288","0","[[3,0,0],[1,0],[2]]","3","[[3,0,0],[1,0],[2]]","3","0","","","","","","3","","","","","","","","",""
"","","","","","poldrack-single-stim","83","146325","0.0-2.0-20.0","5e6c0b0fede0271d08d1a3cd","F1","batch6","","-1","tol_feedback","","","true","","1000","1000","500","","","","","","-1","none","true","4310","5285","","","","","","","","","",""
"","","","","","html-button-response","84","147572","0.0-2.0-21.0","5e6c0b0fede0271d08d1a3cd","F1","batch6","","1244.8999999985099","tol_trial_num","<div class = centerbox><p class = center-block-text>problem <strong>5</strong> out of 25 problems</p></div>","0","","","","","","","","","","","","","","","","","","","","","","","","",""
"","","","","","single-stim-button","85","160100","0.0-2.0-22.0-0.0","5e6c0b0fede0271d08d1a3cd","F1","batch6","","12525","tol_tohand","","","","tol_peg_2","12525","12525","0","[[1,0,0],[0,0],[3]]","1","[[0,0,0],[1,2],[3]]","4","0","","","","","","7","","","","","","","","",""
"","","","","","single-stim-button","86","160515","0.0-2.0-22.0-1.0","5e6c0b0fede0271d08d1a3cd","F1","batch6","","412","tol_toboard","","","","tol_peg_1","412","412","0","[[1,2,0],[0,0],[3]]","1","[[0,0,0],[1,2],[3]]","4","0","","","","","","7","","","","","","","","",""
"","","","","","single-stim-button","87","160923","0.0-2.0-22.1-0.1","5e6c0b0fede0271d08d1a3cd","F1","batch6","","406","tol_tohand","","","","tol_peg_3","406","406","0","[[1,2,0],[0,0],[0]]","2","[[0,0,0],[1,2],[3]]","4","0","","","","","","7","","","","","","","","",""
"","","","","","single-stim-button","88","161272","0.0-2.0-22.1-1.1","5e6c0b0fede0271d08d1a3cd","F1","batch6","","346","tol_toboard","","","","tol_peg_2","346","346","0","[[1,2,0],[3,0],[0]]","2","[[0,0,0],[1,2],[3]]","4","0","","","","","","7","","","","","","","","",""
"","","","","","single-stim-button","89","165633","0.0-2.0-22.2-0.2","5e6c0b0fede0271d08d1a3cd","F1","batch6","","4359","tol_tohand","","","","tol_peg_2","4359","4359","0","[[1,2,0],[0,0],[0]]","3","[[0,0,0],[1,2],[3]]","4","0","","","","","","7","","","","","","","","",""
"","","","","","single-stim-button","90","165916","0.0-2.0-22.2-1.2","5e6c0b0fede0271d08d1a3cd","F1","batch6","","280","tol_toboard","","","","tol_peg_3","280","280","0","[[1,2,0],[0,0],[3]]","3","[[0,0,0],[1,2],[3]]","4","0","","","","","","7","","","","","","","","",""
"","","","","","single-stim-button","91","166406","0.0-2.0-22.3-0.3","5e6c0b0fede0271d08d1a3cd","F1","batch6","","487","tol_tohand","","","","tol_peg_1","487","487","0","[[1,0,0],[0,0],[3]]","4","[[0,0,0],[1,2],[3]]","4","0","","","","","","7","","","","","","","","",""
"","","","","","single-stim-button","92","166914","0.0-2.0-22.3-1.3","5e6c0b0fede0271d08d1a3cd","F1","batch6","","505","tol_toboard","","","","tol_peg_2","505","505","0","[[1,0,0],[2,0],[3]]","4","[[0,0,0],[1,2],[3]]","4","0","","","","","","7","","","","","","","","",""
"","","","","","single-stim-button","93","167735","0.0-2.0-22.4-0.4","5e6c0b0fede0271d08d1a3cd","F1","batch6","","818","tol_tohand","","","","tol_peg_1","818","818","0","[[0,0,0],[2,0],[3]]","5","[[0,0,0],[1,2],[3]]","4","0","","","","","","7","","","","","","","","",""
"","","","","","single-stim-button","94","168824","0.0-2.0-22.4-1.4","5e6c0b0fede0271d08d1a3cd","F1","batch6","","1086","tol_toboard","","","","tol_peg_1","1086","1086","0","[[1,0,0],[2,0],[3]]","5","[[0,0,0],[1,2],[3]]","4","0","","","","","","7","","","","","","","","",""
"","","","","","single-stim-button","95","170413","0.0-2.0-22.5-0.5","5e6c0b0fede0271d08d1a3cd","F1","batch6","","1586","tol_tohand","","","","tol_peg_3","1586","1586","0","[[1,0,0],[2,0],[0]]","6","[[0,0,0],[1,2],[3]]","4","0","","","","","","7","","","","","","","","",""
"","","","","","single-stim-button","96","170852","0.0-2.0-22.5-1.5","5e6c0b0fede0271d08d1a3cd","F1","batch6","","437","tol_toboard","","","","tol_peg_1","437","437","0","[[1,3,0],[2,0],[0]]","6","[[0,0,0],[1,2],[3]]","4","0","","","","","","7","","","","","","","","",""
"","","","","","single-stim-button","97","172513","0.0-2.0-22.6-0.6","5e6c0b0fede0271d08d1a3cd","F1","batch6","","1658","tol_tohand","","","","tol_peg_2","1658","1658","0","[[1,3,0],[0,0],[0]]","7","[[0,0,0],[1,2],[3]]","4","0","","","","","","7","","","","","","","","",""
"","","","","","single-stim-button","98","172821","0.0-2.0-22.6-1.6","5e6c0b0fede0271d08d1a3cd","F1","batch6","","305","tol_toboard","","","","tol_peg_3","305","305","0","[[1,3,0],[0,0],[2]]","7","[[0,0,0],[1,2],[3]]","4","0","","","","","","7","","","","","","","","",""
"","","","","","single-stim-button","99","173263","0.0-2.0-22.7-0.7","5e6c0b0fede0271d08d1a3cd","F1","batch6","","439","tol_tohand","","","","tol_peg_1","439","439","0","[[1,0,0],[0,0],[2]]","8","[[0,0,0],[1,2],[3]]","4","0","","","","","","7","","","","","","","","",""
"","","","","","single-stim-button","100","173701","0.0-2.0-22.7-1.7","5e6c0b0fede0271d08d1a3cd","F1","batch6","","437","tol_toboard","","","","tol_peg_2","437","437","0","[[1,0,0],[3,0],[2]]","8","[[0,0,0],[1,2],[3]]","4","0","","","","","","7","","","","","","","","",""
"","","","","","single-stim-button","101","178395","0.0-2.0-22.8-0.8","5e6c0b0fede0271d08d1a3cd","F1","batch6","","4691","tol_tohand","","","","tol_peg_2","4691","4691","0","[[1,0,0],[0,0],[2]]","9","[[0,0,0],[1,2],[3]]","4","0","","","","","","7","","","","","","","","",""
"","","","","","single-stim-button","102","181685","0.0-2.0-22.8-1.8","5e6c0b0fede0271d08d1a3cd","F1","batch6","","3288","tol_toboard","","","","tol_peg_2","3288","3288","0","[[1,0,0],[3,0],[2]]","9","[[0,0,0],[1,2],[3]]","4","0","","","","","","7","","","","","","","","",""
"","","","","","single-stim-button","103","182266","0.0-2.0-22.9-0.9","5e6c0b0fede0271d08d1a3cd","F1","batch6","","579","tol_tohand","","","","tol_peg_1","579","579","0","[[0,0,0],[3,0],[2]]","10","[[0,0,0],[1,2],[3]]","4","0","","","","","","7","","","","","","","","",""
"","","","","","single-stim-button","104","182649","0.0-2.0-22.9-1.9","5e6c0b0fede0271d08d1a3cd","F1","batch6","","380","tol_toboard","","","","tol_peg_2","380","380","0","[[0,0,0],[3,1],[2]]","10","[[0,0,0],[1,2],[3]]","4","0","","","","","","7","","","","","","","","",""
"","","","","","single-stim-button","105","183953","0.0-2.0-22.10-0.10","5e6c0b0fede0271d08d1a3cd","F1","batch6","","1301","tol_tohand","","","","tol_peg_3","1301","1301","0","[[0,0,0],[3,1],[0]]","11","[[0,0,0],[1,2],[3]]","4","0","","","","","","7","","","","","","","","",""
"","","","","","single-stim-button","106","184228","0.0-2.0-22.10-1.10","5e6c0b0fede0271d08d1a3cd","F1","batch6","","273","tol_toboard","","","","tol_peg_1","273","273","0","[[2,0,0],[3,1],[0]]","11","[[0,0,0],[1,2],[3]]","4","0","","","","","","7","","","","","","","","",""
"","","","","","single-stim-button","107","184584","0.0-2.0-22.11-0.11","5e6c0b0fede0271d08d1a3cd","F1","batch6","","353","tol_tohand","","","","tol_peg_2","353","353","0","[[2,0,0],[3,0],[0]]","12","[[0,0,0],[1,2],[3]]","4","0","","","","","","7","","","","","","","","",""
"","","","","","single-stim-button","108","184825","0.0-2.0-22.11-1.11","5e6c0b0fede0271d08d1a3cd","F1","batch6","","239","tol_toboard","","","","tol_peg_3","239","239","0","[[2,0,0],[3,0],[1]]","12","[[0,0,0],[1,2],[3]]","4","0","","","","","","7","","","","","","","","",""
"","","","","","single-stim-button","109","187076","0.0-2.0-22.12-0.12","5e6c0b0fede0271d08d1a3cd","F1","batch6","","2249","tol_tohand","","","","tol_peg_2","2249","2249","0","[[2,0,0],[0,0],[1]]","13","[[0,0,0],[1,2],[3]]","4","0","","","","","","7","","","","","","","","",""
"","","","","","single-stim-button","110","187276","0.0-2.0-22.12-1.12","5e6c0b0fede0271d08d1a3cd","F1","batch6","","198","tol_toboard","","","","tol_peg_1","198","198","0","[[2,3,0],[0,0],[1]]","13","[[0,0,0],[1,2],[3]]","4","0","","","","","","7","","","","","","","","",""
"","","","","","single-stim-button","111","188663","0.0-2.0-22.13-0.13","5e6c0b0fede0271d08d1a3cd","F1","batch6","","1384","tol_tohand","","","","tol_peg_3","1384","1384","0","[[2,3,0],[0,0],[0]]","14","[[0,0,0],[1,2],[3]]","4","0","","","","","","7","","","","","","","","",""
"","","","","","single-stim-button","112","188971","0.0-2.0-22.13-1.13","5e6c0b0fede0271d08d1a3cd","F1","batch6","","305","tol_toboard","","","","tol_peg_2","305","305","0","[[2,3,0],[1,0],[0]]","14","[[0,0,0],[1,2],[3]]","4","0","","","","","","7","","","","","","","","",""
"","","","","","single-stim-button","113","190051","0.0-2.0-22.14-0.14","5e6c0b0fede0271d08d1a3cd","F1","batch6","","1077","tol_tohand","","","","tol_peg_1","1077","1077","0","[[2,0,0],[1,0],[0]]","15","[[0,0,0],[1,2],[3]]","4","0","","","","","","7","","","","","","","","",""
"","","","","","single-stim-button","114","190525","0.0-2.0-22.14-1.14","5e6c0b0fede0271d08d1a3cd","F1","batch6","","471","tol_toboard","","","","tol_peg_3","471","471","0","[[2,0,0],[1,0],[3]]","15","[[0,0,0],[1,2],[3]]","4","0","","","","","","7","","","","","","","","",""
"","","","","","single-stim-button","115","190882","0.0-2.0-22.15-0.15","5e6c0b0fede0271d08d1a3cd","F1","batch6","","354","tol_tohand","","","","tol_peg_1","354","354","0","[[0,0,0],[1,0],[3]]","16","[[0,0,0],[1,2],[3]]","4","0","","","","","","7","","","","","","","","",""
"","","","","","single-stim-button","116","191074","0.0-2.0-22.15-1.15","5e6c0b0fede0271d08d1a3cd","F1","batch6","","189","tol_toboard","","","","tol_peg_2","189","189","0","[[0,0,0],[1,2],[3]]","16","[[0,0,0],[1,2],[3]]","4","0","","","","","","7","","","","","","","","",""
"","","","","","poldrack-single-stim","117","192079","0.0-2.0-23.0","5e6c0b0fede0271d08d1a3cd","F1","batch6","","-1","tol_feedback","","","true","","1000","1000","500","","","","","","-1","none","true","12525","34266","","","","","","","","","",""
"","","","","","html-button-response","118","192819","0.0-2.0-24.0","5e6c0b0fede0271d08d1a3cd","F1","batch6","","736.7000000029802","tol_trial_num","<div class = centerbox><p class = center-block-text>problem <strong>6</strong> out of 25 problems</p></div>","0","","","","","","","","","","","","","","","","","","","","","","","","",""
"","","","","","single-stim-button","119","207936","0.0-2.0-25.0-0.0","5e6c0b0fede0271d08d1a3cd","F1","batch6","","15114","tol_tohand","","","","tol_peg_2","15114","15114","0","[[0,0,0],[1,0],[3]]","1","[[1,0,0],[2,3],[0]]","5","0","","","","","","6","","","","","","","","",""
"","","","","","single-stim-button","120","211094","0.0-2.0-25.0-1.0","5e6c0b0fede0271d08d1a3cd","F1","batch6","","3155","tol_toboard","","","","tol_peg_1","3155","3155","0","[[2,0,0],[1,0],[3]]","1","[[1,0,0],[2,3],[0]]","5","0","","","","","","6","","","","","","","","",""
"","","","","","single-stim-button","121","212688","0.0-2.0-25.1-0.1","5e6c0b0fede0271d08d1a3cd","F1","batch6","","1592","tol_tohand","","","","tol_peg_3","1592","1592","0","[[2,0,0],[1,0],[0]]","2","[[1,0,0],[2,3],[0]]","5","0","","","","","","6","","","","","","","","",""
"","","","","","single-stim-button","122","213378","0.0-2.0-25.1-1.1","5e6c0b0fede0271d08d1a3cd","F1","batch6","","687","tol_toboard","","","","tol_peg_1","687","687","0","[[2,3,0],[1,0],[0]]","2","[[1,0,0],[2,3],[0]]","5","0","","","","","","6","","","","","","","","",""
"","","","","","single-stim-button","123","213753","0.0-2.0-25.2-0.2","5e6c0b0fede0271d08d1a3cd","F1","batch6","","373","tol_tohand","","","","tol_peg_2","373","373","0","[[2,3,0],[0,0],[0]]","3","[[1,0,0],[2,3],[0]]","5","0","","","","","","6","","","","","","","","",""
"","","","","","single-stim-button","124","214059","0.0-2.0-25.2-1.2","5e6c0b0fede0271d08d1a3cd","F1","batch6","","303","tol_toboard","","","","tol_peg_3","303","303","0","[[2,3,0],[0,0],[1]]","3","[[1,0,0],[2,3],[0]]","5","0","","","","","","6","","","","","","","","",""
"","","","","","single-stim-button","125","215953","0.0-2.0-25.3-0.3","5e6c0b0fede0271d08d1a3cd","F1","batch6","","1891","tol_tohand","","","","tol_peg_1","1891","1891","0","[[2,0,0],[0,0],[1]]","4","[[1,0,0],[2,3],[0]]","5","0","","","","","","6","","","","","","","","",""
"","","","","","single-stim-button","126","216336","0.0-2.0-25.3-1.3","5e6c0b0fede0271d08d1a3cd","F1","batch6","","379","tol_toboard","","","","tol_peg_2","379","379","0","[[2,0,0],[3,0],[1]]","4","[[1,0,0],[2,3],[0]]","5","0","","","","","","6","","","","","","","","",""
"","","","","","single-stim-button","127","217010","0.0-2.0-25.4-0.4","5e6c0b0fede0271d08d1a3cd","F1","batch6","","671","tol_tohand","","","","tol_peg_1","671","671","0","[[0,0,0],[3,0],[1]]","5","[[1,0,0],[2,3],[0]]","5","0","","","","","","6","","","","","","","","",""
"","","","","","single-stim-button","128","217273","0.0-2.0-25.4-1.4","5e6c0b0fede0271d08d1a3cd","F1","batch6","","261","tol_toboard","","","","tol_peg_2","261","261","0","[[0,0,0],[3,2],[1]]","5","[[1,0,0],[2,3],[0]]","5","0","","","","","","6","","","","","","","","",""
"","","","","","single-stim-button","129","217655","0.0-2.0-25.5-0.5","5e6c0b0fede0271d08d1a3cd","F1","batch6","","380","tol_tohand","","","","tol_peg_3","380","380","0","[[0,0,0],[3,2],[0]]","6","[[1,0,0],[2,3],[0]]","5","0","","","","","","6","","","","","","","","",""
"","","","","","single-stim-button","130","217979","0.0-2.0-25.5-1.5","5e6c0b0fede0271d08d1a3cd","F1","batch6","","322","tol_toboard","","","","tol_peg_1","322","322","0","[[1,0,0],[3,2],[0]]","6","[[1,0,0],[2,3],[0]]","5","0","","","","","","6","","","","","","","","",""
"","","","","","single-stim-button","131","219534","0.0-2.0-25.6-0.6","5e6c0b0fede0271d08d1a3cd","F1","batch6","","1552","tol_tohand","","","","tol_peg_2","1552","1552","0","[[1,0,0],[3,0],[0]]","7","[[1,0,0],[2,3],[0]]","5","0","","","","","","6","","","","","","","","",""
"","","","","","single-stim-button","132","219775","0.0-2.0-25.6-1.6","5e6c0b0fede0271d08d1a3cd","F1","batch6","","239","tol_toboard","","","","tol_peg_1","239","239","0","[[1,2,0],[3,0],[0]]","7","[[1,0,0],[2,3],[0]]","5","0","","","","","","6","","","","","","","","",""
"","","","","","single-stim-button","133","220572","0.0-2.0-25.7-0.7","5e6c0b0fede0271d08d1a3cd","F1","batch6","","794","tol_tohand","","","","tol_peg_2","794","794","0","[[1,2,0],[0,0],[0]]","8","[[1,0,0],[2,3],[0]]","5","0","","","","","","6","","","","","","","","",""
"","","","","","single-stim-button","134","220928","0.0-2.0-25.7-1.7","5e6c0b0fede0271d08d1a3cd","F1","batch6","","355","tol_toboard","","","","tol_peg_3","355","355","0","[[1,2,0],[0,0],[3]]","8","[[1,0,0],[2,3],[0]]","5","0","","","","","","6","","","","","","","","",""
"","","","","","single-stim-button","135","221293","0.0-2.0-25.8-0.8","5e6c0b0fede0271d08d1a3cd","F1","batch6","","363","tol_tohand","","","","tol_peg_1","363","363","0","[[1,0,0],[0,0],[3]]","9","[[1,0,0],[2,3],[0]]","5","0","","","","","","6","","","","","","","","",""
"","","","","","single-stim-button","136","221694","0.0-2.0-25.8-1.8","5e6c0b0fede0271d08d1a3cd","F1","batch6","","398","tol_toboard","","","","tol_peg_2","398","398","0","[[1,0,0],[2,0],[3]]","9","[[1,0,0],[2,3],[0]]","5","0","","","","","","6","","","","","","","","",""
"","","","","","single-stim-button","137","222101","0.0-2.0-25.9-0.9","5e6c0b0fede0271d08d1a3cd","F1","batch6","","405","tol_tohand","","","","tol_peg_3","405","405","0","[[1,0,0],[2,0],[0]]","10","[[1,0,0],[2,3],[0]]","5","0","","","","","","6","","","","","","","","",""
"","","","","","single-stim-button","138","222332","0.0-2.0-25.9-1.9","5e6c0b0fede0271d08d1a3cd","F1","batch6","","228","tol_toboard","","","","tol_peg_2","228","228","0","[[1,0,0],[2,3],[0]]","10","[[1,0,0],[2,3],[0]]","5","0","","","","","","6","","","","","","","","",""
"","","","","","poldrack-single-stim","139","223335","0.0-2.0-26.0","5e6c0b0fede0271d08d1a3cd","F1","batch6","","-1","tol_feedback","","","true","","1000","1000","500","","","","","","-1","none","true","15114","23135","","","","","","","","","",""
"","","","","","html-button-response","140","223961","0.0-2.0-27.0","5e6c0b0fede0271d08d1a3cd","F1","batch6","","623.6999999955297","tol_trial_num","<div class = centerbox><p class = center-block-text>problem <strong>7</strong> out of 25 problems</p></div>","0","","","","","","","","","","","","","","","","","","","","","","","","",""
"","","","","","single-stim-button","141","228713","0.0-2.0-28.0-0.0","5e6c0b0fede0271d08d1a3cd","F1","batch6","","4749","tol_tohand","","","","tol_peg_3","4749","4749","0","[[2,1,0],[0,0],[0]]","1","[[1,2,0],[3,0],[0]]","6","0","","","","","","5","","","","","","","","",""
"","","","","","single-stim-button","142","229162","0.0-2.0-28.0-1.0","5e6c0b0fede0271d08d1a3cd","F1","batch6","","447","tol_toboard","","","","tol_peg_2","447","447","0","[[2,1,0],[3,0],[0]]","1","[[1,2,0],[3,0],[0]]","6","0","","","","","","5","","","","","","","","",""
"","","","","","single-stim-button","143","229561","0.0-2.0-28.1-0.1","5e6c0b0fede0271d08d1a3cd","F1","batch6","","395","tol_tohand","","","","tol_peg_1","395","395","0","[[2,0,0],[3,0],[0]]","2","[[1,2,0],[3,0],[0]]","6","0","","","","","","5","","","","","","","","",""
"","","","","","single-stim-button","144","230274","0.0-2.0-28.1-1.1","5e6c0b0fede0271d08d1a3cd","F1","batch6","","711","tol_toboard","","","","tol_peg_3","711","711","0","[[2,0,0],[3,0],[1]]","2","[[1,2,0],[3,0],[0]]","6","0","","","","","","5","","","","","","","","",""
"","","","","","single-stim-button","145","231218","0.0-2.0-28.2-0.2","5e6c0b0fede0271d08d1a3cd","F1","batch6","","942","tol_tohand","","","","tol_peg_1","942","942","0","[[0,0,0],[3,0],[1]]","3","[[1,2,0],[3,0],[0]]","6","0","","","","","","5","","","","","","","","",""
"","","","","","single-stim-button","146","231595","0.0-2.0-28.2-1.2","5e6c0b0fede0271d08d1a3cd","F1","batch6","","374","tol_toboard","","","","tol_peg_2","374","374","0","[[0,0,0],[3,2],[1]]","3","[[1,2,0],[3,0],[0]]","6","0","","","","","","5","","","","","","","","",""
"","","","","","single-stim-button","147","232010","0.0-2.0-28.3-0.3","5e6c0b0fede0271d08d1a3cd","F1","batch6","","414","tol_tohand","","","","tol_peg_3","414","414","0","[[0,0,0],[3,2],[0]]","4","[[1,2,0],[3,0],[0]]","6","0","","","","","","5","","","","","","","","",""
"","","","","","single-stim-button","148","232410","0.0-2.0-28.3-1.3","5e6c0b0fede0271d08d1a3cd","F1","batch6","","397","tol_toboard","","","","tol_peg_1","397","397","0","[[1,0,0],[3,2],[0]]","4","[[1,2,0],[3,0],[0]]","6","0","","","","","","5","","","","","","","","",""
"","","","","","single-stim-button","149","232907","0.0-2.0-28.4-0.4","5e6c0b0fede0271d08d1a3cd","F1","batch6","","494","tol_tohand","","","","tol_peg_2","494","494","0","[[1,0,0],[3,0],[0]]","5","[[1,2,0],[3,0],[0]]","6","0","","","","","","5","","","","","","","","",""
"","","","","","single-stim-button","150","233281","0.0-2.0-28.4-1.4","5e6c0b0fede0271d08d1a3cd","F1","batch6","","373","tol_toboard","","","","tol_peg_1","373","373","0","[[1,2,0],[3,0],[0]]","5","[[1,2,0],[3,0],[0]]","6","0","","","","","","5","","","","","","","","",""
"","","","","","poldrack-single-stim","151","234284","0.0-2.0-29.0","5e6c0b0fede0271d08d1a3cd","F1","batch6","","-1","tol_feedback","","","true","","1000","1000","500","","","","","","-1","none","true","4749","6994","","","","","","","","","",""
"","","","","","html-button-response","152","234859","0.0-2.0-30.0","5e6c0b0fede0271d08d1a3cd","F1","batch6","","573.8000000044703","tol_trial_num","<div class = centerbox><p class = center-block-text>problem <strong>8</strong> out of 25 problems</p></div>","0","","","","","","","","","","","","","","","","","","","","","","","","",""
"","","","","","single-stim-button","153","240110","0.0-2.0-31.0-0.0","5e6c0b0fede0271d08d1a3cd","F1","batch6","","5248","tol_tohand","","","","tol_peg_3","5248","5248","0","[[0,0,0],[2,3],[0]]","1","[[1,2,0],[3,0],[0]]","7","0","","","","","","4","","","","","","","","",""
"","","","","","single-stim-button","154","240575","0.0-2.0-31.0-1.0","5e6c0b0fede0271d08d1a3cd","F1","batch6","","462","tol_toboard","","","","tol_peg_1","462","462","0","[[1,0,0],[2,3],[0]]","1","[[1,2,0],[3,0],[0]]","7","0","","","","","","4","","","","","","","","",""
"","","","","","single-stim-button","155","241017","0.0-2.0-31.1-0.1","5e6c0b0fede0271d08d1a3cd","F1","batch6","","439","tol_tohand","","","","tol_peg_2","439","439","0","[[1,0,0],[2,0],[0]]","2","[[1,2,0],[3,0],[0]]","7","0","","","","","","4","","","","","","","","",""
"","","","","","single-stim-button","156","241464","0.0-2.0-31.1-1.1","5e6c0b0fede0271d08d1a3cd","F1","batch6","","444","tol_toboard","","","","tol_peg_3","444","444","0","[[1,0,0],[2,0],[3]]","2","[[1,2,0],[3,0],[0]]","7","0","","","","","","4","","","","","","","","",""
"","","","","","single-stim-button","157","241978","0.0-2.0-31.2-0.2","5e6c0b0fede0271d08d1a3cd","F1","batch6","","512","tol_tohand","","","","tol_peg_2","512","512","0","[[1,0,0],[0,0],[3]]","3","[[1,2,0],[3,0],[0]]","7","0","","","","","","4","","","","","","","","",""
"","","","","","single-stim-button","158","242270","0.0-2.0-31.2-1.2","5e6c0b0fede0271d08d1a3cd","F1","batch6","","289","tol_toboard","","","","tol_peg_1","289","289","0","[[1,2,0],[0,0],[3]]","3","[[1,2,0],[3,0],[0]]","7","0","","","","","","4","","","","","","","","",""
"","","","","","single-stim-button","159","242651","0.0-2.0-31.3-0.3","5e6c0b0fede0271d08d1a3cd","F1","batch6","","380","tol_tohand","","","","tol_peg_3","380","380","0","[[1,2,0],[0,0],[0]]","4","[[1,2,0],[3,0],[0]]","7","0","","","","","","4","","","","","","","","",""
"","","","","","single-stim-button","160","242943","0.0-2.0-31.3-1.3","5e6c0b0fede0271d08d1a3cd","F1","batch6","","289","tol_toboard","","","","tol_peg_2","289","289","0","[[1,2,0],[3,0],[0]]","4","[[1,2,0],[3,0],[0]]","7","0","","","","","","4","","","","","","","","",""
"","","","","","poldrack-single-stim","161","243947","0.0-2.0-32.0","5e6c0b0fede0271d08d1a3cd","F1","batch6","","-1","tol_feedback","","","true","","1000","1000","500","","","","","","-1","none","true","5248","6579","","","","","","","","","",""
"","","","","","html-button-response","162","244472","0.0-2.0-33.0","5e6c0b0fede0271d08d1a3cd","F1","batch6","","523.6000000014901","tol_trial_num","<div class = centerbox><p class = center-block-text>problem <strong>9</strong> out of 25 problems</p></div>","0","","","","","","","","","","","","","","","","","","","","","","","","",""
"","","","","","single-stim-button","163","252393","0.0-2.0-34.0-0.0","5e6c0b0fede0271d08d1a3cd","F1","batch6","","7919","tol_tohand","","","","tol_peg_3","7919","7919","0","[[3,2,0],[0,0],[0]]","1","[[2,1,0],[3,0],[0]]","8","0","","","","","","6","","","","","","","","",""
"","","","","","single-stim-button","164","252979","0.0-2.0-34.0-1.0","5e6c0b0fede0271d08d1a3cd","F1","batch6","","583","tol_toboard","","","","tol_peg_2","583","583","0","[[3,2,0],[1,0],[0]]","1","[[2,1,0],[3,0],[0]]","8","0","","","","","","6","","","","","","","","",""
"","","","","","single-stim-button","165","253459","0.0-2.0-34.1-0.1","5e6c0b0fede0271d08d1a3cd","F1","batch6","","477","tol_tohand","","","","tol_peg_1","477","477","0","[[3,0,0],[1,0],[0]]","2","[[2,1,0],[3,0],[0]]","8","0","","","","","","6","","","","","","","","",""
"","","","","","single-stim-button","166","255669","0.0-2.0-34.1-1.1","5e6c0b0fede0271d08d1a3cd","F1","batch6","","2209","tol_toboard","","","","tol_peg_3","2209","2209","0","[[3,0,0],[1,0],[2]]","2","[[2,1,0],[3,0],[0]]","8","0","","","","","","6","","","","","","","","",""
"","","","","","single-stim-button","167","258286","0.0-2.0-34.2-0.2","5e6c0b0fede0271d08d1a3cd","F1","batch6","","2614","tol_tohand","","","","tol_peg_1","2614","2614","0","[[0,0,0],[1,0],[2]]","3","[[2,1,0],[3,0],[0]]","8","0","","","","","","6","","","","","","","","",""
"","","","","","single-stim-button","168","259865","0.0-2.0-34.2-1.2","5e6c0b0fede0271d08d1a3cd","F1","batch6","","1576","tol_toboard","","","","tol_peg_1","1576","1576","0","[[3,0,0],[1,0],[2]]","3","[[2,1,0],[3,0],[0]]","8","0","","","","","","6","","","","","","","","",""
"","","","","","single-stim-button","169","263197","0.0-2.0-34.3-0.3","5e6c0b0fede0271d08d1a3cd","F1","batch6","","3329","tol_tohand","","","","tol_peg_3","3329","3329","0","[[3,0,0],[1,0],[0]]","4","[[2,1,0],[3,0],[0]]","8","0","","","","","","6","","","","","","","","",""
"","","","","","single-stim-button","170","263569","0.0-2.0-34.3-1.3","5e6c0b0fede0271d08d1a3cd","F1","batch6","","370","tol_toboard","","","","tol_peg_2","370","370","0","[[3,0,0],[1,2],[0]]","4","[[2,1,0],[3,0],[0]]","8","0","","","","","","6","","","","","","","","",""
"","","","","","single-stim-button","171","263902","0.0-2.0-34.4-0.4","5e6c0b0fede0271d08d1a3cd","F1","batch6","","331","tol_tohand","","","","tol_peg_1","331","331","0","[[0,0,0],[1,2],[0]]","5","[[2,1,0],[3,0],[0]]","8","0","","","","","","6","","","","","","","","",""
"","","","","","single-stim-button","172","264467","0.0-2.0-34.4-1.4","5e6c0b0fede0271d08d1a3cd","F1","batch6","","562","tol_toboard","","","","tol_peg_3","562","562","0","[[0,0,0],[1,2],[3]]","5","[[2,1,0],[3,0],[0]]","8","0","","","","","","6","","","","","","","","",""
"","","","","","single-stim-button","173","265572","0.0-2.0-34.5-0.5","5e6c0b0fede0271d08d1a3cd","F1","batch6","","1102","tol_tohand","","","","tol_peg_2","1102","1102","0","[[0,0,0],[1,0],[3]]","6","[[2,1,0],[3,0],[0]]","8","0","","","","","","6","","","","","","","","",""
"","","","","","single-stim-button","174","265870","0.0-2.0-34.5-1.5","5e6c0b0fede0271d08d1a3cd","F1","batch6","","295","tol_toboard","","","","tol_peg_1","295","295","0","[[2,0,0],[1,0],[3]]","6","[[2,1,0],[3,0],[0]]","8","0","","","","","","6","","","","","","","","",""
"","","","","","single-stim-button","175","266220","0.0-2.0-34.6-0.6","5e6c0b0fede0271d08d1a3cd","F1","batch6","","347","tol_tohand","","","","tol_peg_2","347","347","0","[[2,0,0],[0,0],[3]]","7","[[2,1,0],[3,0],[0]]","8","0","","","","","","6","","","","","","","","",""
"","","","","","single-stim-button","176","266461","0.0-2.0-34.6-1.6","5e6c0b0fede0271d08d1a3cd","F1","batch6","","239","tol_toboard","","","","tol_peg_1","239","239","0","[[2,1,0],[0,0],[3]]","7","[[2,1,0],[3,0],[0]]","8","0","","","","","","6","","","","","","","","",""
"","","","","","single-stim-button","177","266835","0.0-2.0-34.7-0.7","5e6c0b0fede0271d08d1a3cd","F1","batch6","","371","tol_tohand","","","","tol_peg_3","371","371","0","[[2,1,0],[0,0],[0]]","8","[[2,1,0],[3,0],[0]]","8","0","","","","","","6","","","","","","","","",""
"","","","","","single-stim-button","178","267102","0.0-2.0-34.7-1.7","5e6c0b0fede0271d08d1a3cd","F1","batch6","","264","tol_toboard","","","","tol_peg_2","264","264","0","[[2,1,0],[3,0],[0]]","8","[[2,1,0],[3,0],[0]]","8","0","","","","","","6","","","","","","","","",""
"","","","","","poldrack-single-stim","179","268107","0.0-2.0-35.0","5e6c0b0fede0271d08d1a3cd","F1","batch6","","-1","tol_feedback","","","true","","1000","1000","500","","","","","","-1","none","true","7919","16490","","","","","","","","","",""
"","","","","","html-button-response","180","268638","0.0-2.0-36.0","5e6c0b0fede0271d08d1a3cd","F1","batch6","","528.5","tol_trial_num","<div class = centerbox><p class = center-block-text>problem <strong>10</strong> out of 25 problems</p></div>","0","","","","","","","","","","","","","","","","","","","","","","","","",""
"","","","","","single-stim-button","181","272469","0.0-2.0-37.0-0.0","5e6c0b0fede0271d08d1a3cd","F1","batch6","","3829","tol_tohand","","","","tol_peg_2","3829","3829","0","[[3,0,0],[0,0],[2]]","1","[[3,0,0],[2,1],[0]]","9","0","","","","","","3","","","","","","","","",""
"","","","","","single-stim-button","182","272734","0.0-2.0-37.0-1.0","5e6c0b0fede0271d08d1a3cd","F1","batch6","","262","tol_toboard","","","","tol_peg_1","262","262","0","[[3,1,0],[0,0],[2]]","1","[[3,0,0],[2,1],[0]]","9","0","","","","","","3","","","","","","","","",""
"","","","","","single-stim-button","183","273240","0.0-2.0-37.1-0.1","5e6c0b0fede0271d08d1a3cd","F1","batch6","","503","tol_tohand","","","","tol_peg_3","503","503","0","[[3,1,0],[0,0],[0]]","2","[[3,0,0],[2,1],[0]]","9","0","","","","","","3","","","","","","","","",""
"","","","","","single-stim-button","184","273514","0.0-2.0-37.1-1.1","5e6c0b0fede0271d08d1a3cd","F1","batch6","","271","tol_toboard","","","","tol_peg_2","271","271","0","[[3,1,0],[2,0],[0]]","2","[[3,0,0],[2,1],[0]]","9","0","","","","","","3","","","","","","","","",""
"","","","","","single-stim-button","185","273904","0.0-2.0-37.2-0.2","5e6c0b0fede0271d08d1a3cd","F1","batch6","","387","tol_tohand","","","","tol_peg_1","387","387","0","[[3,0,0],[2,0],[0]]","3","[[3,0,0],[2,1],[0]]","9","0","","","","","","3","","","","","","","","",""
"","","","","","single-stim-button","186","274303","0.0-2.0-37.2-1.2","5e6c0b0fede0271d08d1a3cd","F1","batch6","","396","tol_toboard","","","","tol_peg_2","396","396","0","[[3,0,0],[2,1],[0]]","3","[[3,0,0],[2,1],[0]]","9","0","","","","","","3","","","","","","","","",""
"","","","","","poldrack-single-stim","187","275307","0.0-2.0-38.0","5e6c0b0fede0271d08d1a3cd","F1","batch6","","-1","tol_feedback","","","true","","1000","1000","500","","","","","","-1","none","true","3829","4719","","","","","","","","","",""
"","","","","","html-button-response","188","275881","0.0-2.0-39.0","5e6c0b0fede0271d08d1a3cd","F1","batch6","","571.1999999955297","tol_trial_num","<div class = centerbox><p class = center-block-text>problem <strong>11</strong> out of 25 problems</p></div>","0","","","","","","","","","","","","","","","","","","","","","","","","",""
"","","","","","single-stim-button","189","282253","0.0-2.0-40.0-0.0","5e6c0b0fede0271d08d1a3cd","F1","batch6","","6370","tol_tohand","","","","tol_peg_2","6370","6370","0","[[1,2,0],[0,0],[0]]","1","[[2,0,0],[1,3],[0]]","10","0","","","","","","6","","","","","","","","",""
"","","","","","single-stim-button","190","283391","0.0-2.0-40.0-1.0","5e6c0b0fede0271d08d1a3cd","F1","batch6","","1136","tol_toboard","","","","tol_peg_3","1136","1136","0","[[1,2,0],[0,0],[3]]","1","[[2,0,0],[1,3],[0]]","10","0","","","","","","6","","","","","","","","",""
"","","","","","single-stim-button","191","285161","0.0-2.0-40.1-0.1","5e6c0b0fede0271d08d1a3cd","F1","batch6","","1767","tol_tohand","","","","tol_peg_1","1767","1767","0","[[1,0,0],[0,0],[3]]","2","[[2,0,0],[1,3],[0]]","10","0","","","","","","6","","","","","","","","",""
"","","","","","single-stim-button","192","287627","0.0-2.0-40.1-1.1","5e6c0b0fede0271d08d1a3cd","F1","batch6","","2464","tol_toboard","","","","tol_peg_2","2464","2464","0","[[1,0,0],[2,0],[3]]","2","[[2,0,0],[1,3],[0]]","10","0","","","","","","6","","","","","","","","",""
"","","","","","single-stim-button","193","288557","0.0-2.0-40.2-0.2","5e6c0b0fede0271d08d1a3cd","F1","batch6","","928","tol_tohand","","","","tol_peg_3","928","928","0","[[1,0,0],[2,0],[0]]","3","[[2,0,0],[1,3],[0]]","10","0","","","","","","6","","","","","","","","",""
"","","","","","single-stim-button","194","290469","0.0-2.0-40.2-1.2","5e6c0b0fede0271d08d1a3cd","F1","batch6","","1909","tol_toboard","","","","tol_peg_1","1909","1909","0","[[1,3,0],[2,0],[0]]","3","[[2,0,0],[1,3],[0]]","10","0","","","","","","6","","","","","","","","",""
"","","","","","single-stim-button","195","290788","0.0-2.0-40.3-0.3","5e6c0b0fede0271d08d1a3cd","F1","batch6","","316","tol_tohand","","","","tol_peg_2","316","316","0","[[1,3,0],[0,0],[0]]","4","[[2,0,0],[1,3],[0]]","10","0","","","","","","6","","","","","","","","",""
"","","","","","single-stim-button","196","291149","0.0-2.0-40.3-1.3","5e6c0b0fede0271d08d1a3cd","F1","batch6","","359","tol_toboard","","","","tol_peg_3","359","359","0","[[1,3,0],[0,0],[2]]","4","[[2,0,0],[1,3],[0]]","10","0","","","","","","6","","","","","","","","",""
"","","","","","single-stim-button","197","294350","0.0-2.0-40.4-0.4","5e6c0b0fede0271d08d1a3cd","F1","batch6","","3198","tol_tohand","","","","tol_peg_1","3198","3198","0","[[1,0,0],[0,0],[2]]","5","[[2,0,0],[1,3],[0]]","10","0","","","","","","6","","","","","","","","",""
"","","","","","single-stim-button","198","294740","0.0-2.0-40.4-1.4","5e6c0b0fede0271d08d1a3cd","F1","batch6","","387","tol_toboard","","","","tol_peg_2","387","387","0","[[1,0,0],[3,0],[2]]","5","[[2,0,0],[1,3],[0]]","10","0","","","","","","6","","","","","","","","",""
"","","","","","single-stim-button","199","295196","0.0-2.0-40.5-0.5","5e6c0b0fede0271d08d1a3cd","F1","batch6","","453","tol_tohand","","","","tol_peg_1","453","453","0","[[0,0,0],[3,0],[2]]","6","[[2,0,0],[1,3],[0]]","10","0","","","","","","6","","","","","","","","",""
"","","","","","single-stim-button","200","295471","0.0-2.0-40.5-1.5","5e6c0b0fede0271d08d1a3cd","F1","batch6","","272","tol_toboard","","","","tol_peg_2","272","272","0","[[0,0,0],[3,1],[2]]","6","[[2,0,0],[1,3],[0]]","10","0","","","","","","6","","","","","","","","",""
"","","","","","single-stim-button","201","296160","0.0-2.0-40.6-0.6","5e6c0b0fede0271d08d1a3cd","F1","batch6","","686","tol_tohand","","","","tol_peg_3","686","686","0","[[0,0,0],[3,1],[0]]","7","[[2,0,0],[1,3],[0]]","10","0","","","","","","6","","","","","","","","",""
"","","","","","single-stim-button","202","296509","0.0-2.0-40.6-1.6","5e6c0b0fede0271d08d1a3cd","F1","batch6","","347","tol_toboard","","","","tol_peg_1","347","347","0","[[2,0,0],[3,1],[0]]","7","[[2,0,0],[1,3],[0]]","10","0","","","","","","6","","","","","","","","",""
"","","","","","single-stim-button","203","297247","0.0-2.0-40.7-0.7","5e6c0b0fede0271d08d1a3cd","F1","batch6","","735","tol_tohand","","","","tol_peg_2","735","735","0","[[2,0,0],[3,0],[0]]","8","[[2,0,0],[1,3],[0]]","10","0","","","","","","6","","","","","","","","",""
"","","","","","single-stim-button","204","297989","0.0-2.0-40.7-1.7","5e6c0b0fede0271d08d1a3cd","F1","batch6","","740","tol_toboard","","","","tol_peg_3","740","740","0","[[2,0,0],[3,0],[1]]","8","[[2,0,0],[1,3],[0]]","10","0","","","","","","6","","","","","","","","",""
"","","","","","single-stim-button","205","299972","0.0-2.0-40.8-0.8","5e6c0b0fede0271d08d1a3cd","F1","batch6","","1980","tol_tohand","","","","tol_peg_2","1980","1980","0","[[2,0,0],[0,0],[1]]","9","[[2,0,0],[1,3],[0]]","10","0","","","","","","6","","","","","","","","",""
"","","","","","single-stim-button","206","300246","0.0-2.0-40.8-1.8","5e6c0b0fede0271d08d1a3cd","F1","batch6","","273","tol_toboard","","","","tol_peg_1","273","273","0","[[2,3,0],[0,0],[1]]","9","[[2,0,0],[1,3],[0]]","10","0","","","","","","6","","","","","","","","",""
"","","","","","single-stim-button","207","300596","0.0-2.0-40.9-0.9","5e6c0b0fede0271d08d1a3cd","F1","batch6","","347","tol_tohand","","","","tol_peg_3","347","347","0","[[2,3,0],[0,0],[0]]","10","[[2,0,0],[1,3],[0]]","10","0","","","","","","6","","","","","","","","",""
"","","","","","single-stim-button","208","300853","0.0-2.0-40.9-1.9","5e6c0b0fede0271d08d1a3cd","F1","batch6","","255","tol_toboard","","","","tol_peg_2","255","255","0","[[2,3,0],[1,0],[0]]","10","[[2,0,0],[1,3],[0]]","10","0","","","","","","6","","","","","","","","",""
"","","","","","single-stim-button","209","301109","0.0-2.0-40.10-0.10","5e6c0b0fede0271d08d1a3cd","F1","batch6","","254","tol_tohand","","","","tol_peg_1","254","254","0","[[2,0,0],[1,0],[0]]","11","[[2,0,0],[1,3],[0]]","10","0","","","","","","6","","","","","","","","",""
"","","","","","single-stim-button","210","301559","0.0-2.0-40.10-1.10","5e6c0b0fede0271d08d1a3cd","F1","batch6","","447","tol_toboard","","","","tol_peg_2","447","447","0","[[2,0,0],[1,3],[0]]","11","[[2,0,0],[1,3],[0]]","10","0","","","","","","6","","","","","","","","",""
"","","","","","poldrack-single-stim","211","302562","0.0-2.0-41.0","5e6c0b0fede0271d08d1a3cd","F1","batch6","","-1","tol_feedback","","","true","","1000","1000","500","","","","","","-1","none","true","6370","17034","","","","","","","","","",""
"","","","","","html-button-response","212","303128","0.0-2.0-42.0","5e6c0b0fede0271d08d1a3cd","F1","batch6","","563.4000000059605","tol_trial_num","<div class = centerbox><p class = center-block-text>problem <strong>12</strong> out of 25 problems</p></div>","0","","","","","","","","","","","","","","","","","","","","","","","","",""
"","","","","","single-stim-button","213","309907","0.0-2.0-43.0-0.0","5e6c0b0fede0271d08d1a3cd","F1","batch6","","6777","tol_tohand","","","","tol_peg_1","6777","6777","0","[[1,0,0],[3,0],[0]]","1","[[2,3,0],[0,0],[1]]","11","0","","","","","","4","","","","","","","","",""
"","","","","","single-stim-button","214","310321","0.0-2.0-43.0-1.0","5e6c0b0fede0271d08d1a3cd","F1","batch6","","412","tol_toboard","","","","tol_peg_3","412","412","0","[[1,0,0],[3,0],[2]]","1","[[2,3,0],[0,0],[1]]","11","0","","","","","","4","","","","","","","","",""
"","","","","","single-stim-button","215","312234","0.0-2.0-43.1-0.1","5e6c0b0fede0271d08d1a3cd","F1","batch6","","1910","tol_tohand","","","","tol_peg_1","1910","1910","0","[[0,0,0],[3,0],[2]]","2","[[2,3,0],[0,0],[1]]","11","0","","","","","","4","","","","","","","","",""
"","","","","","single-stim-button","216","312508","0.0-2.0-43.1-1.1","5e6c0b0fede0271d08d1a3cd","F1","batch6","","271","tol_toboard","","","","tol_peg_2","271","271","0","[[0,0,0],[3,1],[2]]","2","[[2,3,0],[0,0],[1]]","11","0","","","","","","4","","","","","","","","",""
"","","","","","single-stim-button","217","313903","0.0-2.0-43.2-0.2","5e6c0b0fede0271d08d1a3cd","F1","batch6","","1392","tol_tohand","","","","tol_peg_3","1392","1392","0","[[0,0,0],[3,1],[0]]","3","[[2,3,0],[0,0],[1]]","11","0","","","","","","4","","","","","","","","",""
"","","","","","single-stim-button","218","314434","0.0-2.0-43.2-1.2","5e6c0b0fede0271d08d1a3cd","F1","batch6","","528","tol_toboard","","","","tol_peg_1","528","528","0","[[2,0,0],[3,1],[0]]","3","[[2,3,0],[0,0],[1]]","11","0","","","","","","4","","","","","","","","",""
"","","","","","single-stim-button","219","315024","0.0-2.0-43.3-0.3","5e6c0b0fede0271d08d1a3cd","F1","batch6","","588","tol_tohand","","","","tol_peg_2","588","588","0","[[2,0,0],[3,0],[0]]","4","[[2,3,0],[0,0],[1]]","11","0","","","","","","4","","","","","","","","",""
"","","","","","single-stim-button","220","315482","0.0-2.0-43.3-1.3","5e6c0b0fede0271d08d1a3cd","F1","batch6","","455","tol_toboard","","","","tol_peg_3","455","455","0","[[2,0,0],[3,0],[1]]","4","[[2,3,0],[0,0],[1]]","11","0","","","","","","4","","","","","","","","",""
"","","","","","single-stim-button","221","315845","0.0-2.0-43.4-0.4","5e6c0b0fede0271d08d1a3cd","F1","batch6","","362","tol_tohand","","","","tol_peg_2","362","362","0","[[2,0,0],[0,0],[1]]","5","[[2,3,0],[0,0],[1]]","11","0","","","","","","4","","","","","","","","",""
"","","","","","single-stim-button","222","316321","0.0-2.0-43.4-1.4","5e6c0b0fede0271d08d1a3cd","F1","batch6","","473","tol_toboard","","","","tol_peg_1","473","473","0","[[2,3,0],[0,0],[1]]","5","[[2,3,0],[0,0],[1]]","11","0","","","","","","4","","","","","","","","",""
"","","","","","poldrack-single-stim","223","317324","0.0-2.0-44.0","5e6c0b0fede0271d08d1a3cd","F1","batch6","","-1","tol_feedback","","","true","","1000","1000","500","","","","","","-1","none","true","6777","11029","","","","","","","","","",""
"","","","","","html-button-response","224","317874","0.0-2.0-45.0","5e6c0b0fede0271d08d1a3cd","F1","batch6","","548.5","tol_trial_num","<div class = centerbox><p class = center-block-text>problem <strong>13</strong> out of 25 problems</p></div>","0","","","","","","","","","","","","","","","","","","","","","","","","",""
"","","","","","single-stim-button","225","326937","0.0-2.0-46.0-0.0","5e6c0b0fede0271d08d1a3cd","F1","batch6","","9060","tol_tohand","","","","tol_peg_1","9060","9060","0","[[1,0,0],[3,0],[0]]","1","[[0,0,0],[2,3],[1]]","12","0","","","","","","4","","","","","","","","",""
"","","","","","single-stim-button","226","327418","0.0-2.0-46.0-1.0","5e6c0b0fede0271d08d1a3cd","F1","batch6","","479","tol_toboard","","","","tol_peg_3","479","479","0","[[1,0,0],[3,0],[2]]","1","[[0,0,0],[2,3],[1]]","12","0","","","","","","4","","","","","","","","",""
"","","","","","single-stim-button","227","334197","0.0-2.0-46.1-0.1","5e6c0b0fede0271d08d1a3cd","F1","batch6","","6777","tol_tohand","","","","tol_peg_3","6777","6777","0","[[1,0,0],[3,0],[0]]","2","[[0,0,0],[2,3],[1]]","12","0","","","","","","4","","","","","","","","",""
"","","","","","single-stim-button","228","334695","0.0-2.0-46.1-1.1","5e6c0b0fede0271d08d1a3cd","F1","batch6","","495","tol_toboard","","","","tol_peg_2","495","495","0","[[1,0,0],[3,2],[0]]","2","[[0,0,0],[2,3],[1]]","12","0","","","","","","4","","","","","","","","",""
"","","","","","single-stim-button","229","335086","0.0-2.0-46.2-0.2","5e6c0b0fede0271d08d1a3cd","F1","batch6","","389","tol_tohand","","","","tol_peg_1","389","389","0","[[0,0,0],[3,2],[0]]","3","[[0,0,0],[2,3],[1]]","12","0","","","","","","4","","","","","","","","",""
"","","","","","single-stim-button","230","335460","0.0-2.0-46.2-1.2","5e6c0b0fede0271d08d1a3cd","F1","batch6","","372","tol_toboard","","","","tol_peg_3","372","372","0","[[0,0,0],[3,2],[1]]","3","[[0,0,0],[2,3],[1]]","12","0","","","","","","4","","","","","","","","",""
"","","","","","single-stim-button","231","336407","0.0-2.0-46.3-0.3","5e6c0b0fede0271d08d1a3cd","F1","batch6","","944","tol_tohand","","","","tol_peg_2","944","944","0","[[0,0,0],[3,0],[1]]","4","[[0,0,0],[2,3],[1]]","12","0","","","","","","4","","","","","","","","",""
"","","","","","single-stim-button","232","336814","0.0-2.0-46.3-1.3","5e6c0b0fede0271d08d1a3cd","F1","batch6","","404","tol_toboard","","","","tol_peg_1","404","404","0","[[2,0,0],[3,0],[1]]","4","[[0,0,0],[2,3],[1]]","12","0","","","","","","4","","","","","","","","",""
"","","","","","single-stim-button","233","337179","0.0-2.0-46.4-0.4","5e6c0b0fede0271d08d1a3cd","F1","batch6","","363","tol_tohand","","","","tol_peg_2","363","363","0","[[2,0,0],[0,0],[1]]","5","[[0,0,0],[2,3],[1]]","12","0","","","","","","4","","","","","","","","",""
"","","","","","single-stim-button","234","338907","0.0-2.0-46.4-1.4","5e6c0b0fede0271d08d1a3cd","F1","batch6","","1725","tol_toboard","","","","tol_peg_1","1725","1725","0","[[2,3,0],[0,0],[1]]","5","[[0,0,0],[2,3],[1]]","12","0","","","","","","4","","","","","","","","",""
"","","","","","single-stim-button","235","339614","0.0-2.0-46.5-0.5","5e6c0b0fede0271d08d1a3cd","F1","batch6","","704","tol_tohand","","","","tol_peg_1","704","704","0","[[2,0,0],[0,0],[1]]","6","[[0,0,0],[2,3],[1]]","12","0","","","","","","4","","","","","","","","",""
"","","","","","single-stim-button","236","340659","0.0-2.0-46.5-1.5","5e6c0b0fede0271d08d1a3cd","F1","batch6","","1043","tol_toboard","","","","tol_peg_2","1043","1043","0","[[2,0,0],[3,0],[1]]","6","[[0,0,0],[2,3],[1]]","12","0","","","","","","4","","","","","","","","",""
"","","","","","single-stim-button","237","342180","0.0-2.0-46.6-0.6","5e6c0b0fede0271d08d1a3cd","F1","batch6","","1518","tol_tohand","","","","tol_peg_1","1518","1518","0","[[0,0,0],[3,0],[1]]","7","[[0,0,0],[2,3],[1]]","12","0","","","","","","4","","","","","","","","",""
"","","","","","single-stim-button","238","342398","0.0-2.0-46.6-1.6","5e6c0b0fede0271d08d1a3cd","F1","batch6","","215","tol_toboard","","","","tol_peg_2","215","215","0","[[0,0,0],[3,2],[1]]","7","[[0,0,0],[2,3],[1]]","12","0","","","","","","4","","","","","","","","",""
"","","","","","single-stim-button","239","343294","0.0-2.0-46.7-0.7","5e6c0b0fede0271d08d1a3cd","F1","batch6","","893","tol_tohand","","","","tol_peg_3","893","893","0","[[0,0,0],[3,2],[0]]","8","[[0,0,0],[2,3],[1]]","12","0","","","","","","4","","","","","","","","",""
"","","","","","single-stim-button","240","343559","0.0-2.0-46.7-1.7","5e6c0b0fede0271d08d1a3cd","F1","batch6","","262","tol_toboard","","","","tol_peg_1","262","262","0","[[1,0,0],[3,2],[0]]","8","[[0,0,0],[2,3],[1]]","12","0","","","","","","4","","","","","","","","",""
"","","","","","single-stim-button","241","343950","0.0-2.0-46.8-0.8","5e6c0b0fede0271d08d1a3cd","F1","batch6","","388","tol_tohand","","","","tol_peg_2","388","388","0","[[1,0,0],[3,0],[0]]","9","[[0,0,0],[2,3],[1]]","12","0","","","","","","4","","","","","","","","",""
"","","","","","single-stim-button","242","344405","0.0-2.0-46.8-1.8","5e6c0b0fede0271d08d1a3cd","F1","batch6","","454","tol_toboard","","","","tol_peg_3","454","454","0","[[1,0,0],[3,0],[2]]","9","[[0,0,0],[2,3],[1]]","12","0","","","","","","4","","","","","","","","",""
"","","","","","single-stim-button","243","347424","0.0-2.0-46.9-0.9","5e6c0b0fede0271d08d1a3cd","F1","batch6","","3016","tol_tohand","","","","tol_peg_3","3016","3016","0","[[1,0,0],[3,0],[0]]","10","[[0,0,0],[2,3],[1]]","12","0","","","","","","4","","","","","","","","",""
"","","","","","single-stim-button","244","347704","0.0-2.0-46.9-1.9","5e6c0b0fede0271d08d1a3cd","F1","batch6","","277","tol_toboard","","","","tol_peg_1","277","277","0","[[1,2,0],[3,0],[0]]","10","[[0,0,0],[2,3],[1]]","12","0","","","","","","4","","","","","","","","",""
"","","","","","single-stim-button","245","348037","0.0-2.0-46.10-0.10","5e6c0b0fede0271d08d1a3cd","F1","batch6","","331","tol_tohand","","","","tol_peg_2","331","331","0","[[1,2,0],[0,0],[0]]","11","[[0,0,0],[2,3],[1]]","12","0","","","","","","4","","","","","","","","",""
"","","","","","single-stim-button","246","348262","0.0-2.0-46.10-1.10","5e6c0b0fede0271d08d1a3cd","F1","batch6","","222","tol_toboard","","","","tol_peg_3","222","222","0","[[1,2,0],[0,0],[3]]","11","[[0,0,0],[2,3],[1]]","12","0","","","","","","4","","","","","","","","",""
"","","","","","single-stim-button","247","348651","0.0-2.0-46.11-0.11","5e6c0b0fede0271d08d1a3cd","F1","batch6","","387","tol_tohand","","","","tol_peg_1","387","387","0","[[1,0,0],[0,0],[3]]","12","[[0,0,0],[2,3],[1]]","12","0","","","","","","4","","","","","","","","",""
"","","","","","single-stim-button","248","348893","0.0-2.0-46.11-1.11","5e6c0b0fede0271d08d1a3cd","F1","batch6","","239","tol_toboard","","","","tol_peg_2","239","239","0","[[1,0,0],[2,0],[3]]","12","[[0,0,0],[2,3],[1]]","12","0","","","","","","4","","","","","","","","",""
"","","","","","single-stim-button","249","350273","0.0-2.0-46.12-0.12","5e6c0b0fede0271d08d1a3cd","F1","batch6","","1378","tol_tohand","","","","tol_peg_3","1378","1378","0","[[1,0,0],[2,0],[0]]","13","[[0,0,0],[2,3],[1]]","12","0","","","","","","4","","","","","","","","",""
"","","","","","single-stim-button","250","350579","0.0-2.0-46.12-1.12","5e6c0b0fede0271d08d1a3cd","F1","batch6","","304","tol_toboard","","","","tol_peg_2","304","304","0","[[1,0,0],[2,3],[0]]","13","[[0,0,0],[2,3],[1]]","12","0","","","","","","4","","","","","","","","",""
"","","","","","single-stim-button","251","350869","0.0-2.0-46.13-0.13","5e6c0b0fede0271d08d1a3cd","F1","batch6","","288","tol_tohand","","","","tol_peg_1","288","288","0","[[0,0,0],[2,3],[0]]","14","[[0,0,0],[2,3],[1]]","12","0","","","","","","4","","","","","","","","",""
"","","","","","single-stim-button","252","351095","0.0-2.0-46.13-1.13","5e6c0b0fede0271d08d1a3cd","F1","batch6","","223","tol_toboard","","","","tol_peg_3","223","223","0","[[0,0,0],[2,3],[1]]","14","[[0,0,0],[2,3],[1]]","12","0","","","","","","4","","","","","","","","",""
"","","","","","poldrack-single-stim","253","352099","0.0-2.0-47.0","5e6c0b0fede0271d08d1a3cd","F1","batch6","","-1","tol_feedback","","","true","","1000","1000","500","","","","","","-1","none","true","9060","26436","","","","","","","","","",""
"","","","","","html-button-response","254","353954","0.0-2.0-48.0","5e6c0b0fede0271d08d1a3cd","F1","batch6","","1852.6999999955297","attention_check","<p class = block-text>How many balls are in your board<br></p>","1","true","","","","","","","","","","","","","","","","","","","","","","","",""
"","","","","","html-button-response","255","354649","0.0-2.0-49.0","5e6c0b0fede0271d08d1a3cd","F1","batch6","","692","tol_trial_num","<div class = centerbox><p class = center-block-text>problem <strong>14</strong> out of 25 problems</p></div>","0","","","","","","","","","","","","","","","","","","","","","","","","",""
"","","","","","single-stim-button","256","359102","0.0-2.0-50.0-0.0","5e6c0b0fede0271d08d1a3cd","F1","batch6","","4450","tol_tohand","","","","tol_peg_1","4450","4450","0","[[2,0,0],[3,0],[0]]","1","[[1,2,0],[3,0],[0]]","13","0","","","","","","4","","","","","","","","",""
"","","","","","single-stim-button","257","360298","0.0-2.0-50.0-1.0","5e6c0b0fede0271d08d1a3cd","F1","batch6","","1193","tol_toboard","","","","tol_peg_3","1193","1193","0","[[2,0,0],[3,0],[1]]","1","[[1,2,0],[3,0],[0]]","13","0","","","","","","4","","","","","","","","",""
"","","","","","single-stim-button","258","360700","0.0-2.0-50.1-0.1","5e6c0b0fede0271d08d1a3cd","F1","batch6","","399","tol_tohand","","","","tol_peg_1","399","399","0","[[0,0,0],[3,0],[1]]","2","[[1,2,0],[3,0],[0]]","13","0","","","","","","4","","","","","","","","",""
"","","","","","single-stim-button","259","361004","0.0-2.0-50.1-1.1","5e6c0b0fede0271d08d1a3cd","F1","batch6","","302","tol_toboard","","","","tol_peg_2","302","302","0","[[0,0,0],[3,2],[1]]","2","[[1,2,0],[3,0],[0]]","13","0","","","","","","4","","","","","","","","",""
"","","","","","single-stim-button","260","361336","0.0-2.0-50.2-0.2","5e6c0b0fede0271d08d1a3cd","F1","batch6","","329","tol_tohand","","","","tol_peg_3","329","329","0","[[0,0,0],[3,2],[0]]","3","[[1,2,0],[3,0],[0]]","13","0","","","","","","4","","","","","","","","",""
"","","","","","single-stim-button","261","361695","0.0-2.0-50.2-1.2","5e6c0b0fede0271d08d1a3cd","F1","batch6","","357","tol_toboard","","","","tol_peg_1","357","357","0","[[1,0,0],[3,2],[0]]","3","[[1,2,0],[3,0],[0]]","13","0","","","","","","4","","","","","","","","",""
"","","","","","single-stim-button","262","362017","0.0-2.0-50.3-0.3","5e6c0b0fede0271d08d1a3cd","F1","batch6","","319","tol_tohand","","","","tol_peg_2","319","319","0","[[1,0,0],[3,0],[0]]","4","[[1,2,0],[3,0],[0]]","13","0","","","","","","4","","","","","","","","",""
"","","","","","single-stim-button","263","362243","0.0-2.0-50.3-1.3","5e6c0b0fede0271d08d1a3cd","F1","batch6","","223","tol_toboard","","","","tol_peg_1","223","223","0","[[1,2,0],[3,0],[0]]","4","[[1,2,0],[3,0],[0]]","13","0","","","","","","4","","","","","","","","",""
"","","","","","poldrack-single-stim","264","363245","0.0-2.0-51.0","5e6c0b0fede0271d08d1a3cd","F1","batch6","","-1","tol_feedback","","","true","","1000","1000","500","","","","","","-1","none","true","4450","5497","","","","","","","","","",""
"","","","","","html-button-response","265","363779","0.0-2.0-52.0","5e6c0b0fede0271d08d1a3cd","F1","batch6","","531.1000000014901","tol_trial_num","<div class = centerbox><p class = center-block-text>problem <strong>15</strong> out of 25 problems</p></div>","0","","","","","","","","","","","","","","","","","","","","","","","","",""
"","","","","","single-stim-button","266","368779","0.0-2.0-53.0-0.0","5e6c0b0fede0271d08d1a3cd","F1","batch6","","4998","tol_tohand","","","","tol_peg_1","4998","4998","0","[[1,0,0],[3,0],[0]]","1","[[2,0,0],[3,0],[1]]","14","0","","","","","","3","","","","","","","","",""
"","","","","","single-stim-button","267","370134","0.0-2.0-53.0-1.0","5e6c0b0fede0271d08d1a3cd","F1","batch6","","1352","tol_toboard","","","","tol_peg_2","1352","1352","0","[[1,0,0],[3,2],[0]]","1","[[2,0,0],[3,0],[1]]","14","0","","","","","","3","","","","","","","","",""
"","","","","","single-stim-button","268","370541","0.0-2.0-53.1-0.1","5e6c0b0fede0271d08d1a3cd","F1","batch6","","403","tol_tohand","","","","tol_peg_1","403","403","0","[[0,0,0],[3,2],[0]]","2","[[2,0,0],[3,0],[1]]","14","0","","","","","","3","","","","","","","","",""
"","","","","","single-stim-button","269","370873","0.0-2.0-53.1-1.1","5e6c0b0fede0271d08d1a3cd","F1","batch6","","329","tol_toboard","","","","tol_peg_3","329","329","0","[[0,0,0],[3,2],[1]]","2","[[2,0,0],[3,0],[1]]","14","0","","","","","","3","","","","","","","","",""
"","","","","","single-stim-button","270","371339","0.0-2.0-53.2-0.2","5e6c0b0fede0271d08d1a3cd","F1","batch6","","464","tol_tohand","","","","tol_peg_2","464","464","0","[[0,0,0],[3,0],[1]]","3","[[2,0,0],[3,0],[1]]","14","0","","","","","","3","","","","","","","","",""
"","","","","","single-stim-button","271","371729","0.0-2.0-53.2-1.2","5e6c0b0fede0271d08d1a3cd","F1","batch6","","387","tol_toboard","","","","tol_peg_1","387","387","0","[[2,0,0],[3,0],[1]]","3","[[2,0,0],[3,0],[1]]","14","0","","","","","","3","","","","","","","","",""
"","","","","","poldrack-single-stim","272","372733","0.0-2.0-54.0","5e6c0b0fede0271d08d1a3cd","F1","batch6","","-1","tol_feedback","","","true","","1000","1000","500","","","","","","-1","none","true","4998","5865","","","","","","","","","",""
"","","","","","html-button-response","273","373307","0.0-2.0-55.0","5e6c0b0fede0271d08d1a3cd","F1","batch6","","570.8999999985099","tol_trial_num","<div class = centerbox><p class = center-block-text>problem <strong>16</strong> out of 25 problems</p></div>","0","","","","","","","","","","","","","","","","","","","","","","","","",""
"","","","","","single-stim-button","274","383102","0.0-2.0-56.0-0.0","5e6c0b0fede0271d08d1a3cd","F1","batch6","","9792","tol_tohand","","","","tol_peg_2","9792","9792","0","[[0,0,0],[2,0],[1]]","1","[[2,3,0],[1,0],[0]]","15","0","","","","","","7","","","","","","","","",""
"","","","","","single-stim-button","275","383351","0.0-2.0-56.0-1.0","5e6c0b0fede0271d08d1a3cd","F1","batch6","","246","tol_toboard","","","","tol_peg_1","246","246","0","[[3,0,0],[2,0],[1]]","1","[[2,3,0],[1,0],[0]]","15","0","","","","","","7","","","","","","","","",""
"","","","","","single-stim-button","276","383787","0.0-2.0-56.1-0.1","5e6c0b0fede0271d08d1a3cd","F1","batch6","","434","tol_tohand","","","","tol_peg_2","434","434","0","[[3,0,0],[0,0],[1]]","2","[[2,3,0],[1,0],[0]]","15","0","","","","","","7","","","","","","","","",""
"","","","","","single-stim-button","277","385179","0.0-2.0-56.1-1.1","5e6c0b0fede0271d08d1a3cd","F1","batch6","","1389","tol_toboard","","","","tol_peg_1","1389","1389","0","[[3,2,0],[0,0],[1]]","2","[[2,3,0],[1,0],[0]]","15","0","","","","","","7","","","","","","","","",""
"","","","","","single-stim-button","278","385645","0.0-2.0-56.2-0.2","5e6c0b0fede0271d08d1a3cd","F1","batch6","","463","tol_tohand","","","","tol_peg_3","463","463","0","[[3,2,0],[0,0],[0]]","3","[[2,3,0],[1,0],[0]]","15","0","","","","","","7","","","","","","","","",""
"","","","","","single-stim-button","279","385925","0.0-2.0-56.2-1.2","5e6c0b0fede0271d08d1a3cd","F1","batch6","","279","tol_toboard","","","","tol_peg_2","279","279","0","[[3,2,0],[1,0],[0]]","3","[[2,3,0],[1,0],[0]]","15","0","","","","","","7","","","","","","","","",""
"","","","","","single-stim-button","280","386425","0.0-2.0-56.3-0.3","5e6c0b0fede0271d08d1a3cd","F1","batch6","","497","tol_tohand","","","","tol_peg_1","497","497","0","[[3,0,0],[1,0],[0]]","4","[[2,3,0],[1,0],[0]]","15","0","","","","","","7","","","","","","","","",""
"","","","","","single-stim-button","281","387140","0.0-2.0-56.3-1.3","5e6c0b0fede0271d08d1a3cd","F1","batch6","","713","tol_toboard","","","","tol_peg_2","713","713","0","[[3,0,0],[1,2],[0]]","4","[[2,3,0],[1,0],[0]]","15","0","","","","","","7","","","","","","","","",""
"","","","","","single-stim-button","282","387754","0.0-2.0-56.4-0.4","5e6c0b0fede0271d08d1a3cd","F1","batch6","","612","tol_tohand","","","","tol_peg_1","612","612","0","[[0,0,0],[1,2],[0]]","5","[[2,3,0],[1,0],[0]]","15","0","","","","","","7","","","","","","","","",""
"","","","","","single-stim-button","283","388153","0.0-2.0-56.4-1.4","5e6c0b0fede0271d08d1a3cd","F1","batch6","","396","tol_toboard","","","","tol_peg_3","396","396","0","[[0,0,0],[1,2],[3]]","5","[[2,3,0],[1,0],[0]]","15","0","","","","","","7","","","","","","","","",""
"","","","","","single-stim-button","284","388827","0.0-2.0-56.5-0.5","5e6c0b0fede0271d08d1a3cd","F1","batch6","","671","tol_tohand","","","","tol_peg_2","671","671","0","[[0,0,0],[1,0],[3]]","6","[[2,3,0],[1,0],[0]]","15","0","","","","","","7","","","","","","","","",""
"","","","","","single-stim-button","285","389207","0.0-2.0-56.5-1.5","5e6c0b0fede0271d08d1a3cd","F1","batch6","","377","tol_toboard","","","","tol_peg_1","377","377","0","[[2,0,0],[1,0],[3]]","6","[[2,3,0],[1,0],[0]]","15","0","","","","","","7","","","","","","","","",""
"","","","","","single-stim-button","286","390527","0.0-2.0-56.6-0.6","5e6c0b0fede0271d08d1a3cd","F1","batch6","","1318","tol_tohand","","","","tol_peg_3","1318","1318","0","[[2,0,0],[1,0],[0]]","7","[[2,3,0],[1,0],[0]]","15","0","","","","","","7","","","","","","","","",""
"","","","","","single-stim-button","287","390812","0.0-2.0-56.6-1.6","5e6c0b0fede0271d08d1a3cd","F1","batch6","","282","tol_toboard","","","","tol_peg_1","282","282","0","[[2,3,0],[1,0],[0]]","7","[[2,3,0],[1,0],[0]]","15","0","","","","","","7","","","","","","","","",""
"","","","","","poldrack-single-stim","288","391817","0.0-2.0-57.0","5e6c0b0fede0271d08d1a3cd","F1","batch6","","-1","tol_feedback","","","true","","1000","1000","500","","","","","","-1","none","true","9792","13787","","","","","","","","","",""
"","","","","","html-button-response","289","392382","0.0-2.0-58.0","5e6c0b0fede0271d08d1a3cd","F1","batch6","","562.5","tol_trial_num","<div class = centerbox><p class = center-block-text>problem <strong>17</strong> out of 25 problems</p></div>","0","","","","","","","","","","","","","","","","","","","","","","","","",""
"","","","","","single-stim-button","290","399144","0.0-2.0-59.0-0.0","5e6c0b0fede0271d08d1a3cd","F1","batch6","","6759","tol_tohand","","","","tol_peg_1","6759","6759","0","[[1,0,0],[3,0],[0]]","1","[[3,1,0],[2,0],[0]]","16","0","","","","","","5","","","","","","","","",""
"","","","","","single-stim-button","291","399625","0.0-2.0-59.0-1.0","5e6c0b0fede0271d08d1a3cd","F1","batch6","","478","tol_toboard","","","","tol_peg_3","478","478","0","[[1,0,0],[3,0],[2]]","1","[[3,1,0],[2,0],[0]]","16","0","","","","","","5","","","","","","","","",""
"","","","","","single-stim-button","292","404577","0.0-2.0-59.1-0.1","5e6c0b0fede0271d08d1a3cd","F1","batch6","","4950","tol_tohand","","","","tol_peg_3","4950","4950","0","[[1,0,0],[3,0],[0]]","2","[[3,1,0],[2,0],[0]]","16","0","","","","","","5","","","","","","","","",""
"","","","","","single-stim-button","293","405349","0.0-2.0-59.1-1.1","5e6c0b0fede0271d08d1a3cd","F1","batch6","","769","tol_toboard","","","","tol_peg_2","769","769","0","[[1,0,0],[3,2],[0]]","2","[[3,1,0],[2,0],[0]]","16","0","","","","","","5","","","","","","","","",""
"","","","","","single-stim-button","294","406022","0.0-2.0-59.2-0.2","5e6c0b0fede0271d08d1a3cd","F1","batch6","","672","tol_tohand","","","","tol_peg_1","672","672","0","[[0,0,0],[3,2],[0]]","3","[[3,1,0],[2,0],[0]]","16","0","","","","","","5","","","","","","","","",""
"","","","","","single-stim-button","295","406346","0.0-2.0-59.2-1.2","5e6c0b0fede0271d08d1a3cd","F1","batch6","","321","tol_toboard","","","","tol_peg_3","321","321","0","[[0,0,0],[3,2],[1]]","3","[[3,1,0],[2,0],[0]]","16","0","","","","","","5","","","","","","","","",""
"","","","","","single-stim-button","296","407875","0.0-2.0-59.3-0.3","5e6c0b0fede0271d08d1a3cd","F1","batch6","","1526","tol_tohand","","","","tol_peg_2","1526","1526","0","[[0,0,0],[3,0],[1]]","4","[[3,1,0],[2,0],[0]]","16","0","","","","","","5","","","","","","","","",""
"","","","","","single-stim-button","297","408231","0.0-2.0-59.3-1.3","5e6c0b0fede0271d08d1a3cd","F1","batch6","","354","tol_toboard","","","","tol_peg_1","354","354","0","[[2,0,0],[3,0],[1]]","4","[[3,1,0],[2,0],[0]]","16","0","","","","","","5","","","","","","","","",""
"","","","","","single-stim-button","298","410425","0.0-2.0-59.4-0.4","5e6c0b0fede0271d08d1a3cd","F1","batch6","","2192","tol_tohand","","","","tol_peg_3","2192","2192","0","[[2,0,0],[3,0],[0]]","5","[[3,1,0],[2,0],[0]]","16","0","","","","","","5","","","","","","","","",""
"","","","","","single-stim-button","299","410676","0.0-2.0-59.4-1.4","5e6c0b0fede0271d08d1a3cd","F1","batch6","","249","tol_toboard","","","","tol_peg_2","249","249","0","[[2,0,0],[3,1],[0]]","5","[[3,1,0],[2,0],[0]]","16","0","","","","","","5","","","","","","","","",""
"","","","","","single-stim-button","300","413034","0.0-2.0-59.5-0.5","5e6c0b0fede0271d08d1a3cd","F1","batch6","","2355","tol_tohand","","","","tol_peg_1","2355","2355","0","[[0,0,0],[3,1],[0]]","6","[[3,1,0],[2,0],[0]]","16","0","","","","","","5","","","","","","","","",""
"","","","","","single-stim-button","301","413374","0.0-2.0-59.5-1.5","5e6c0b0fede0271d08d1a3cd","F1","batch6","","337","tol_toboard","","","","tol_peg_3","337","337","0","[[0,0,0],[3,1],[2]]","6","[[3,1,0],[2,0],[0]]","16","0","","","","","","5","","","","","","","","",""
"","","","","","single-stim-button","302","416597","0.0-2.0-59.6-0.6","5e6c0b0fede0271d08d1a3cd","F1","batch6","","3221","tol_tohand","","","","tol_peg_2","3221","3221","0","[[0,0,0],[3,0],[2]]","7","[[3,1,0],[2,0],[0]]","16","0","","","","","","5","","","","","","","","",""
"","","","","","single-stim-button","303","417745","0.0-2.0-59.6-1.6","5e6c0b0fede0271d08d1a3cd","F1","batch6","","1144","tol_toboard","","","","tol_peg_1","1144","1144","0","[[1,0,0],[3,0],[2]]","7","[[3,1,0],[2,0],[0]]","16","0","","","","","","5","","","","","","","","",""
"","","","","","single-stim-button","304","418667","0.0-2.0-59.7-0.7","5e6c0b0fede0271d08d1a3cd","F1","batch6","","920","tol_tohand","","","","tol_peg_2","920","920","0","[[1,0,0],[0,0],[2]]","8","[[3,1,0],[2,0],[0]]","16","0","","","","","","5","","","","","","","","",""
"","","","","","single-stim-button","305","418857","0.0-2.0-59.7-1.7","5e6c0b0fede0271d08d1a3cd","F1","batch6","","188","tol_toboard","","","","tol_peg_1","188","188","0","[[1,3,0],[0,0],[2]]","8","[[3,1,0],[2,0],[0]]","16","0","","","","","","5","","","","","","","","",""
"","","","","","single-stim-button","306","421964","0.0-2.0-59.8-0.8","5e6c0b0fede0271d08d1a3cd","F1","batch6","","3105","tol_tohand","","","","tol_peg_3","3105","3105","0","[[1,3,0],[0,0],[0]]","9","[[3,1,0],[2,0],[0]]","16","0","","","","","","5","","","","","","","","",""
"","","","","","single-stim-button","307","422413","0.0-2.0-59.8-1.8","5e6c0b0fede0271d08d1a3cd","F1","batch6","","446","tol_toboard","","","","tol_peg_2","446","446","0","[[1,3,0],[2,0],[0]]","9","[[3,1,0],[2,0],[0]]","16","0","","","","","","5","","","","","","","","",""
"","","","","","single-stim-button","308","423533","0.0-2.0-59.9-0.9","5e6c0b0fede0271d08d1a3cd","F1","batch6","","1117","tol_tohand","","","","tol_peg_1","1117","1117","0","[[1,0,0],[2,0],[0]]","10","[[3,1,0],[2,0],[0]]","16","0","","","","","","5","","","","","","","","",""
"","","","","","single-stim-button","309","423907","0.0-2.0-59.9-1.9","5e6c0b0fede0271d08d1a3cd","F1","batch6","","372","tol_toboard","","","","tol_peg_3","372","372","0","[[1,0,0],[2,0],[3]]","10","[[3,1,0],[2,0],[0]]","16","0","","","","","","5","","","","","","","","",""
"","","","","","single-stim-button","310","424955","0.0-2.0-59.10-0.10","5e6c0b0fede0271d08d1a3cd","F1","batch6","","1045","tol_tohand","","","","tol_peg_1","1045","1045","0","[[0,0,0],[2,0],[3]]","11","[[3,1,0],[2,0],[0]]","16","0","","","","","","5","","","","","","","","",""
"","","","","","single-stim-button","311","425138","0.0-2.0-59.10-1.10","5e6c0b0fede0271d08d1a3cd","F1","batch6","","180","tol_toboard","","","","tol_peg_2","180","180","0","[[0,0,0],[2,1],[3]]","11","[[3,1,0],[2,0],[0]]","16","0","","","","","","5","","","","","","","","",""
"","","","","","single-stim-button","312","425486","0.0-2.0-59.11-0.11","5e6c0b0fede0271d08d1a3cd","F1","batch6","","346","tol_tohand","","","","tol_peg_3","346","346","0","[[0,0,0],[2,1],[0]]","12","[[3,1,0],[2,0],[0]]","16","0","","","","","","5","","","","","","","","",""
"","","","","","single-stim-button","313","425811","0.0-2.0-59.11-1.11","5e6c0b0fede0271d08d1a3cd","F1","batch6","","322","tol_toboard","","","","tol_peg_1","322","322","0","[[3,0,0],[2,1],[0]]","12","[[3,1,0],[2,0],[0]]","16","0","","","","","","5","","","","","","","","",""
"","","","","","single-stim-button","314","426362","0.0-2.0-59.12-0.12","5e6c0b0fede0271d08d1a3cd","F1","batch6","","548","tol_tohand","","","","tol_peg_2","548","548","0","[[3,0,0],[2,0],[0]]","13","[[3,1,0],[2,0],[0]]","16","0","","","","","","5","","","","","","","","",""
"","","","","","single-stim-button","315","426525","0.0-2.0-59.12-1.12","5e6c0b0fede0271d08d1a3cd","F1","batch6","","161","tol_toboard","","","","tol_peg_1","161","161","0","[[3,1,0],[2,0],[0]]","13","[[3,1,0],[2,0],[0]]","16","0","","","","","","5","","","","","","","","",""
"","","","","","poldrack-single-stim","316","427528","0.0-2.0-60.0","5e6c0b0fede0271d08d1a3cd","F1","batch6","","-1","tol_feedback","","","true","","1000","1000","500","","","","","","-1","none","true","6759","28756","","","","","","","","","",""
"","","","","","html-button-response","317","428146","0.0-2.0-61.0","5e6c0b0fede0271d08d1a3cd","F1","batch6","","615.7000000029802","tol_trial_num","<div class = centerbox><p class = center-block-text>problem <strong>18</strong> out of 25 problems</p></div>","0","","","","","","","","","","","","","","","","","","","","","","","","",""
"","","","","","single-stim-button","318","437964","0.0-2.0-62.0-0.0","5e6c0b0fede0271d08d1a3cd","F1","batch6","","9816","tol_tohand","","","","tol_peg_1","9816","9816","0","[[1,0,0],[3,0],[0]]","1","[[3,0,0],[2,0],[1]]","17","0","","","","","","5","","","","","","","","",""
"","","","","","single-stim-button","319","438263","0.0-2.0-62.0-1.0","5e6c0b0fede0271d08d1a3cd","F1","batch6","","295","tol_toboard","","","","tol_peg_3","295","295","0","[[1,0,0],[3,0],[2]]","1","[[3,0,0],[2,0],[1]]","17","0","","","","","","5","","","","","","","","",""
"","","","","","single-stim-button","320","438629","0.0-2.0-62.1-0.1","5e6c0b0fede0271d08d1a3cd","F1","batch6","","363","tol_tohand","","","","tol_peg_1","363","363","0","[[0,0,0],[3,0],[2]]","2","[[3,0,0],[2,0],[1]]","17","0","","","","","","5","","","","","","","","",""
"","","","","","single-stim-button","321","439195","0.0-2.0-62.1-1.1","5e6c0b0fede0271d08d1a3cd","F1","batch6","","565","tol_toboard","","","","tol_peg_2","565","565","0","[[0,0,0],[3,1],[2]]","2","[[3,0,0],[2,0],[1]]","17","0","","","","","","5","","","","","","","","",""
"","","","","","single-stim-button","322","441809","0.0-2.0-62.2-0.2","5e6c0b0fede0271d08d1a3cd","F1","batch6","","2611","tol_tohand","","","","tol_peg_3","2611","2611","0","[[0,0,0],[3,1],[0]]","3","[[3,0,0],[2,0],[1]]","17","0","","","","","","5","","","","","","","","",""
"","","","","","single-stim-button","323","442133","0.0-2.0-62.2-1.2","5e6c0b0fede0271d08d1a3cd","F1","batch6","","321","tol_toboard","","","","tol_peg_1","321","321","0","[[2,0,0],[3,1],[0]]","3","[[3,0,0],[2,0],[1]]","17","0","","","","","","5","","","","","","","","",""
"","","","","","single-stim-button","324","442615","0.0-2.0-62.3-0.3","5e6c0b0fede0271d08d1a3cd","F1","batch6","","479","tol_tohand","","","","tol_peg_2","479","479","0","[[2,0,0],[3,0],[0]]","4","[[3,0,0],[2,0],[1]]","17","0","","","","","","5","","","","","","","","",""
"","","","","","single-stim-button","325","442891","0.0-2.0-62.3-1.3","5e6c0b0fede0271d08d1a3cd","F1","batch6","","273","tol_toboard","","","","tol_peg_3","273","273","0","[[2,0,0],[3,0],[1]]","4","[[3,0,0],[2,0],[1]]","17","0","","","","","","5","","","","","","","","",""
"","","","","","single-stim-button","326","447277","0.0-2.0-62.4-0.4","5e6c0b0fede0271d08d1a3cd","F1","batch6","","4383","tol_tohand","","","","tol_peg_1","4383","4383","0","[[0,0,0],[3,0],[1]]","5","[[3,0,0],[2,0],[1]]","17","0","","","","","","5","","","","","","","","",""
"","","","","","single-stim-button","327","447468","0.0-2.0-62.4-1.4","5e6c0b0fede0271d08d1a3cd","F1","batch6","","188","tol_toboard","","","","tol_peg_2","188","188","0","[[0,0,0],[3,2],[1]]","5","[[3,0,0],[2,0],[1]]","17","0","","","","","","5","","","","","","","","",""
"","","","","","single-stim-button","328","448581","0.0-2.0-62.5-0.5","5e6c0b0fede0271d08d1a3cd","F1","batch6","","1110","tol_tohand","","","","tol_peg_2","1110","1110","0","[[0,0,0],[3,0],[1]]","6","[[3,0,0],[2,0],[1]]","17","0","","","","","","5","","","","","","","","",""
"","","","","","single-stim-button","329","448921","0.0-2.0-62.5-1.5","5e6c0b0fede0271d08d1a3cd","F1","batch6","","339","tol_toboard","","","","tol_peg_1","339","339","0","[[2,0,0],[3,0],[1]]","6","[[3,0,0],[2,0],[1]]","17","0","","","","","","5","","","","","","","","",""
"","","","","","single-stim-button","330","449314","0.0-2.0-62.6-0.6","5e6c0b0fede0271d08d1a3cd","F1","batch6","","390","tol_tohand","","","","tol_peg_2","390","390","0","[[2,0,0],[0,0],[1]]","7","[[3,0,0],[2,0],[1]]","17","0","","","","","","5","","","","","","","","",""
"","","","","","single-stim-button","331","450052","0.0-2.0-62.6-1.6","5e6c0b0fede0271d08d1a3cd","F1","batch6","","735","tol_toboard","","","","tol_peg_1","735","735","0","[[2,3,0],[0,0],[1]]","7","[[3,0,0],[2,0],[1]]","17","0","","","","","","5","","","","","","","","",""
"","","","","","single-stim-button","332","450856","0.0-2.0-62.7-0.7","5e6c0b0fede0271d08d1a3cd","F1","batch6","","802","tol_tohand","","","","tol_peg_3","802","802","0","[[2,3,0],[0,0],[0]]","8","[[3,0,0],[2,0],[1]]","17","0","","","","","","5","","","","","","","","",""
"","","","","","single-stim-button","333","451172","0.0-2.0-62.7-1.7","5e6c0b0fede0271d08d1a3cd","F1","batch6","","314","tol_toboard","","","","tol_peg_2","314","314","0","[[2,3,0],[1,0],[0]]","8","[[3,0,0],[2,0],[1]]","17","0","","","","","","5","","","","","","","","",""
"","","","","","single-stim-button","334","451970","0.0-2.0-62.8-0.8","5e6c0b0fede0271d08d1a3cd","F1","batch6","","795","tol_tohand","","","","tol_peg_1","795","795","0","[[2,0,0],[1,0],[0]]","9","[[3,0,0],[2,0],[1]]","17","0","","","","","","5","","","","","","","","",""
"","","","","","single-stim-button","335","452235","0.0-2.0-62.8-1.8","5e6c0b0fede0271d08d1a3cd","F1","batch6","","263","tol_toboard","","","","tol_peg_3","263","263","0","[[2,0,0],[1,0],[3]]","9","[[3,0,0],[2,0],[1]]","17","0","","","","","","5","","","","","","","","",""
"","","","","","single-stim-button","336","452943","0.0-2.0-62.9-0.9","5e6c0b0fede0271d08d1a3cd","F1","batch6","","705","tol_tohand","","","","tol_peg_1","705","705","0","[[0,0,0],[1,0],[3]]","10","[[3,0,0],[2,0],[1]]","17","0","","","","","","5","","","","","","","","",""
"","","","","","single-stim-button","337","453200","0.0-2.0-62.9-1.9","5e6c0b0fede0271d08d1a3cd","F1","batch6","","256","tol_toboard","","","","tol_peg_2","256","256","0","[[0,0,0],[1,2],[3]]","10","[[3,0,0],[2,0],[1]]","17","0","","","","","","5","","","","","","","","",""
"","","","","","single-stim-button","338","454412","0.0-2.0-62.10-0.10","5e6c0b0fede0271d08d1a3cd","F1","batch6","","1208","tol_tohand","","","","tol_peg_3","1208","1208","0","[[0,0,0],[1,2],[0]]","11","[[3,0,0],[2,0],[1]]","17","0","","","","","","5","","","","","","","","",""
"","","","","","single-stim-button","339","454787","0.0-2.0-62.10-1.10","5e6c0b0fede0271d08d1a3cd","F1","batch6","","372","tol_toboard","","","","tol_peg_1","372","372","0","[[3,0,0],[1,2],[0]]","11","[[3,0,0],[2,0],[1]]","17","0","","","","","","5","","","","","","","","",""
"","","","","","single-stim-button","340","455567","0.0-2.0-62.11-0.11","5e6c0b0fede0271d08d1a3cd","F1","batch6","","777","tol_tohand","","","","tol_peg_2","777","777","0","[[3,0,0],[1,0],[0]]","12","[[3,0,0],[2,0],[1]]","17","0","","","","","","5","","","","","","","","",""
"","","","","","single-stim-button","341","456058","0.0-2.0-62.11-1.11","5e6c0b0fede0271d08d1a3cd","F1","batch6","","487","tol_toboard","","","","tol_peg_3","487","487","0","[[3,0,0],[1,0],[2]]","12","[[3,0,0],[2,0],[1]]","17","0","","","","","","5","","","","","","","","",""
"","","","","","single-stim-button","342","456955","0.0-2.0-62.12-0.12","5e6c0b0fede0271d08d1a3cd","F1","batch6","","894","tol_tohand","","","","tol_peg_2","894","894","0","[[3,0,0],[0,0],[2]]","13","[[3,0,0],[2,0],[1]]","17","0","","","","","","5","","","","","","","","",""
"","","","","","single-stim-button","343","457145","0.0-2.0-62.12-1.12","5e6c0b0fede0271d08d1a3cd","F1","batch6","","187","tol_toboard","","","","tol_peg_1","187","187","0","[[3,1,0],[0,0],[2]]","13","[[3,0,0],[2,0],[1]]","17","0","","","","","","5","","","","","","","","",""
"","","","","","single-stim-button","344","457494","0.0-2.0-62.13-0.13","5e6c0b0fede0271d08d1a3cd","F1","batch6","","347","tol_tohand","","","","tol_peg_3","347","347","0","[[3,1,0],[0,0],[0]]","14","[[3,0,0],[2,0],[1]]","17","0","","","","","","5","","","","","","","","",""
"","","","","","single-stim-button","345","457718","0.0-2.0-62.13-1.13","5e6c0b0fede0271d08d1a3cd","F1","batch6","","221","tol_toboard","","","","tol_peg_2","221","221","0","[[3,1,0],[2,0],[0]]","14","[[3,0,0],[2,0],[1]]","17","0","","","","","","5","","","","","","","","",""
"","","","","","single-stim-button","346","457959","0.0-2.0-62.14-0.14","5e6c0b0fede0271d08d1a3cd","F1","batch6","","239","tol_tohand","","","","tol_peg_1","239","239","0","[[3,0,0],[2,0],[0]]","15","[[3,0,0],[2,0],[1]]","17","0","","","","","","5","","","","","","","","",""
"","","","","","single-stim-button","347","458301","0.0-2.0-62.14-1.14","5e6c0b0fede0271d08d1a3cd","F1","batch6","","339","tol_toboard","","","","tol_peg_3","339","339","0","[[3,0,0],[2,0],[1]]","15","[[3,0,0],[2,0],[1]]","17","0","","","","","","5","","","","","","","","",""
"","","","","","poldrack-single-stim","348","459306","0.0-2.0-63.0","5e6c0b0fede0271d08d1a3cd","F1","batch6","","-1","tol_feedback","","","true","","1000","1000","500","","","","","","-1","none","true","9816","24919","","","","","","","","","",""
"","","","","","html-button-response","349","459912","0.0-2.0-64.0","5e6c0b0fede0271d08d1a3cd","F1","batch6","","603.5","tol_trial_num","<div class = centerbox><p class = center-block-text>problem <strong>19</strong> out of 25 problems</p></div>","0","","","","","","","","","","","","","","","","","","","","","","","","",""
"","","","","","single-stim-button","350","464431","0.0-2.0-65.0-0.0","5e6c0b0fede0271d08d1a3cd","F1","batch6","","4516","tol_tohand","","","","tol_peg_2","4516","4516","0","[[1,2,0],[0,0],[0]]","1","[[0,0,0],[1,2],[3]]","18","0","","","","","","7","","","","","","","","",""
"","","","","","single-stim-button","351","464655","0.0-2.0-65.0-1.0","5e6c0b0fede0271d08d1a3cd","F1","batch6","","221","tol_toboard","","","","tol_peg_3","221","221","0","[[1,2,0],[0,0],[3]]","1","[[0,0,0],[1,2],[3]]","18","0","","","","","","7","","","","","","","","",""
"","","","","","single-stim-button","352","465004","0.0-2.0-65.1-0.1","5e6c0b0fede0271d08d1a3cd","F1","batch6","","346","tol_tohand","","","","tol_peg_1","346","346","0","[[1,0,0],[0,0],[3]]","2","[[0,0,0],[1,2],[3]]","18","0","","","","","","7","","","","","","","","",""
"","","","","","single-stim-button","353","465204","0.0-2.0-65.1-1.1","5e6c0b0fede0271d08d1a3cd","F1","batch6","","197","tol_toboard","","","","tol_peg_2","197","197","0","[[1,0,0],[2,0],[3]]","2","[[0,0,0],[1,2],[3]]","18","0","","","","","","7","","","","","","","","",""
"","","","","","single-stim-button","354","468285","0.0-2.0-65.2-0.2","5e6c0b0fede0271d08d1a3cd","F1","batch6","","3078","tol_tohand","","","","tol_peg_3","3078","3078","0","[[1,0,0],[2,0],[0]]","3","[[0,0,0],[1,2],[3]]","18","0","","","","","","7","","","","","","","","",""
