"success","timeout","failed_images","failed_audio","failed_video","trial_type","trial_index","time_elapsed","internal_node_id","subject_id","study_id","session_id","view_history","rt","stimulus","response","task","correct","answer","item","fiar_detect_rt","fiar_detect_correct","total_correct_fiar_detect","post_trial_gap","choices","mouse_click","stim_duration","block_duration","timing_post_trial","current_position","tol_num_moves_made","tol_target","tol_problem_id","tol_rt","key_press","possible_responses","tol_correct","preplanning","tol_rt_per_trial","tol_min_moves","spm_correct","spm_rt"
"true","false","[]","[]","[]","preload","0","8346","0.0-0.0","5e6ec2818808e6486e268039","B2","batch2","","","","","","","","","","","","","","","","","","","","","","","","","","","","","",""
"true","","","","","fullscreen","1","30510","0.0-1.0-0.0","5e6ec2818808e6486e268039","B2","batch2","","","","","","","","","","","","","","","","","","","","","","","","","","","","","",""
"true","","","","","fullscreen","2","35390","0.0-2.0-0.0","5e6ec2818808e6486e268039","B2","batch2","","","","","","","","","","","","","","","","","","","","","","","","","","","","","",""
"","","","","","instructions","3","64019","0.0-2.0-1.0-0.0","5e6ec2818808e6486e268039","B2","batch2","[{""page_index"":0,""viewing_time"":19751.19999998808},{""page_index"":1,""viewing_time"":8876.800000011921}]","28628.09999999404","","","","","","","","","","","","","","","","","","","","","","","","","","","",""
"","","","","","html-button-response","4","67036","0.0-2.0-1.0-1.0-0.0","5e6ec2818808e6486e268039","B2","batch2","","3016.800000011921","<p class=block-text> Let's answer a few questions <br>","0","pattern_enter_quiz","","","","","","","","","","","","","","","","","","","","","","","","",""
"","","","","","html-button-response","5","80857","0.0-2.0-1.0-1.0-1.0","5e6ec2818808e6486e268039","B2","batch2","","13820.700000017881","<p class = block-text>True or False: You will have as much time as you want to make each choice. <br></p>","1","pattern_quiz","true","","","","","","","","","","","","","","","","","","","","","","","",""
"","","","","","html-button-response","6","83706","0.0-2.0-1.0-1.0-2.0","5e6ec2818808e6486e268039","B2","batch2","","2847.800000011921","<p class = block-text>Correct! You should make your choice <strong> as fast as you can</strong>.</p>","0","pattern_quiz_feedback","","","","","","","","","","","","","","","","","","","","","","","","",""
"","","","","","html-button-response","7","91079","0.0-2.0-1.0-1.0-3.0","5e6ec2818808e6486e268039","B2","batch2","","7372.699999988079","<p class = block-text>True or False: You will look for 4 pieces in black or white color connected in a row either horizontally, vertically or diagonally. <br></p>","0","pattern_quiz","true","","","","","","","","","","","","","","","","","","","","","","","",""
"","","","","","html-button-response","8","92504","0.0-2.0-1.0-1.0-4.0","5e6ec2818808e6486e268039","B2","batch2","","1424.199999988079","<p class = block-text>Correct! </p>","0","pattern_quiz_feedback","","","","","","","","","","","","","","","","","","","","","","","","",""
"","","","","","html-button-response","9","96447","0.0-2.0-2.0","5e6ec2818808e6486e268039","B2","batch2","","3941.9000000059605","<p class=block-text> Now that you've understood the game, let's do a few practice trials before we start!<br> <br>","0","pattern_enter_practice","","","","","","","","","","","","","","","","","","","","","","","","",""
"","","","","","image-keyboard-response","10","98451","0.0-2.0-3.0-0.0","5e6ec2818808e6486e268039","B2","batch2","","2002","stim/prac_yes_16_ver_w1.png","f","pattern_practice","true","f","","","","","","","","","","","","","","","","","","","","","","",""
"","","","","","html-keyboard-response","11","99452","0.0-2.0-3.0-1.0","5e6ec2818808e6486e268039","B2","batch2","","null","<p style=""font-size:30px;color:green;"">Correct!</p>","null","pattern_feedback","","","","","","","","","","","","","","","","","","","","","","","","",""
"","","","","","image-keyboard-response","12","101958","0.0-2.0-3.0-0.1","5e6ec2818808e6486e268039","B2","batch2","","2505.300000011921","stim/prac_no_16_1.png","j","pattern_practice","true","j","","","","","","","","","","","","","","","","","","","","","","",""
"","","","","","html-keyboard-response","13","102959","0.0-2.0-3.0-1.1","5e6ec2818808e6486e268039","B2","batch2","","null","<p style=""font-size:30px;color:green;"">Correct!</p>","null","pattern_feedback","","","","","","","","","","","","","","","","","","","","","","","","",""
"","","","","","image-keyboard-response","14","104751","0.0-2.0-3.0-0.2","5e6ec2818808e6486e268039","B2","batch2","","1791.2999999821186","stim/prac_yes_18_hor_w1.png","f","pattern_practice","true","f","","","","","","","","","","","","","","","","","","","","","","",""
"","","","","","html-keyboard-response","15","105753","0.0-2.0-3.0-1.2","5e6ec2818808e6486e268039","B2","batch2","","null","<p style=""font-size:30px;color:green;"">Correct!</p>","null","pattern_feedback","","","","","","","","","","","","","","","","","","","","","","","","",""
"","","","","","image-keyboard-response","16","107188","0.0-2.0-3.0-0.3","5e6ec2818808e6486e268039","B2","batch2","","1434.800000011921","stim/prac_no_18_1.png","j","pattern_practice","true","j","","","","","","","","","","","","","","","","","","","","","","",""
"","","","","","html-keyboard-response","17","108190","0.0-2.0-3.0-1.3","5e6ec2818808e6486e268039","B2","batch2","","null","<p style=""font-size:30px;color:green;"">Correct!</p>","null","pattern_feedback","","","","","","","","","","","","","","","","","","","","","","","","",""
"","","","","","image-keyboard-response","18","110063","0.0-2.0-3.0-0.4","5e6ec2818808e6486e268039","B2","batch2","","1873","stim/prac_yes_20_dia_b1.png","f","pattern_practice","true","f","","","","","","","","","","","","","","","","","","","","","","",""
"","","","","","html-keyboard-response","19","111066","0.0-2.0-3.0-1.4","5e6ec2818808e6486e268039","B2","batch2","","null","<p style=""font-size:30px;color:green;"">Correct!</p>","null","pattern_feedback","","","","","","","","","","","","","","","","","","","","","","","","",""
"","","","","","html-button-response","20","120960","0.0-2.0-4.0","5e6ec2818808e6486e268039","B2","batch2","","9894.299999982119","<p class=block-text> Good job! You are done with practice trials!<br>
        You responded correctly on 100% of the trials.<br>
        Press the button below to start official trials. Now you won't see any feedback about your response</p>","0","pattern_enter_official_trials","","","","","","","","","","","","","","","","","","","","","","","","",""
"","","","","","html-keyboard-response","21","121762","0.0-2.0-5.0-0.0","5e6ec2818808e6486e268039","B2","batch2","","null","<p class=block-text>Trial 1 out of 78</p>","null","pattern_show_trial_num","","","","","","","","","","","","","","","","","","","","","","","","",""
"","","","","","image-keyboard-response","22","126671","0.0-2.0-5.0-1.0","5e6ec2818808e6486e268039","B2","batch2","","4908.0999999940395","stim/yes_46_ver_b1_b.png","j","pattern_response","false","f","pattern_68","4908.0999999940395","false","0","","","","","","","","","","","","","","","","","","",""
"","","","","","html-keyboard-response","23","127973","0.0-2.0-5.0-0.1","5e6ec2818808e6486e268039","B2","batch2","","null","<p class=block-text>Trial 2 out of 78</p>","null","pattern_show_trial_num","","","","","","","","","","","","","","","","","","","","","","","","",""
"","","","","","image-keyboard-response","24","129519","0.0-2.0-5.0-1.1","5e6ec2818808e6486e268039","B2","batch2","","1545.300000011921","stim/no_12_1.png","j","pattern_response","true","j","pattern_01","1545.300000011921","true","1","","","","","","","","","","","","","","","","","","",""
"","","","","","html-keyboard-response","25","130821","0.0-2.0-5.0-0.2","5e6ec2818808e6486e268039","B2","batch2","","null","<p class=block-text>Trial 3 out of 78</p>","null","pattern_show_trial_num","","","","","","","","","","","","","","","","","","","","","","","","",""
"","","","","","image-keyboard-response","26","139345","0.0-2.0-5.0-1.2","5e6ec2818808e6486e268039","B2","batch2","","8523.800000011921","stim/yes_58_dia_w1_w.png","f","pattern_response","true","f","pattern_76","8523.800000011921","true","2","","","","","","","","","","","","","","","","","","",""
"","","","","","html-keyboard-response","27","140646","0.0-2.0-5.0-0.3","5e6ec2818808e6486e268039","B2","batch2","","null","<p class=block-text>Trial 4 out of 78</p>","null","pattern_show_trial_num","","","","","","","","","","","","","","","","","","","","","","","","",""
"","","","","","image-keyboard-response","28","143587","0.0-2.0-5.0-1.3","5e6ec2818808e6486e268039","B2","batch2","","2939.5","stim/no_18_1_b.png","j","pattern_response","true","j","pattern_05","2939.5","true","3","","","","","","","","","","","","","","","","","","",""
"","","","","","html-keyboard-response","29","144888","0.0-2.0-5.0-0.4","5e6ec2818808e6486e268039","B2","batch2","","null","<p class=block-text>Trial 5 out of 78</p>","null","pattern_show_trial_num","","","","","","","","","","","","","","","","","","","","","","","","",""
"","","","","","image-keyboard-response","30","150104","0.0-2.0-5.0-1.4","5e6ec2818808e6486e268039","B2","batch2","","5215.199999988079","stim/no_33_1_b.png","j","pattern_response","true","j","pattern_15","5215.199999988079","true","4","","","","","","","","","","","","","","","","","","",""
"","","","","","html-keyboard-response","31","151405","0.0-2.0-5.0-0.5","5e6ec2818808e6486e268039","B2","batch2","","null","<p class=block-text>Trial 6 out of 78</p>","null","pattern_show_trial_num","","","","","","","","","","","","","","","","","","","","","","","","",""
"","","","","","image-keyboard-response","32","159184","0.0-2.0-5.0-1.5","5e6ec2818808e6486e268039","B2","batch2","","7777.300000011921","stim/no_36_1_b.png","j","pattern_response","true","j","pattern_17","7777.300000011921","true","5","","","","","","","","","","","","","","","","","","",""
"","","","","","html-keyboard-response","33","160485","0.0-2.0-5.0-0.6","5e6ec2818808e6486e268039","B2","batch2","","null","<p class=block-text>Trial 7 out of 78</p>","null","pattern_show_trial_num","","","","","","","","","","","","","","","","","","","","","","","","",""
"","","","","","image-keyboard-response","34","161627","0.0-2.0-5.0-1.6","5e6ec2818808e6486e268039","B2","batch2","","1140.9000000059605","stim/yes_26_dia_w2_w.png","f","pattern_response","true","f","pattern_50","1140.9000000059605","true","6","","","","","","","","","","","","","","","","","","",""
"","","","","","html-keyboard-response","35","162929","0.0-2.0-5.0-0.7","5e6ec2818808e6486e268039","B2","batch2","","null","<p class=block-text>Trial 8 out of 78</p>","null","pattern_show_trial_num","","","","","","","","","","","","","","","","","","","","","","","","",""
"","","","","","image-keyboard-response","36","169869","0.0-2.0-5.0-1.7","5e6ec2818808e6486e268039","B2","batch2","","6940","stim/no_58_1_w.png","j","pattern_response","true","j","pattern_35","6940","true","7","","","","","","","","","","","","","","","","","","",""
"","","","","","html-keyboard-response","37","171172","0.0-2.0-5.0-0.8","5e6ec2818808e6486e268039","B2","batch2","","null","<p class=block-text>Trial 9 out of 78</p>","null","pattern_show_trial_num","","","","","","","","","","","","","","","","","","","","","","","","",""
"","","","","","image-keyboard-response","38","176064","0.0-2.0-5.0-1.8","5e6ec2818808e6486e268039","B2","batch2","","4890.700000017881","stim/no_28_2.png","j","pattern_response","true","j","pattern_11","4890.700000017881","true","8","","","","","","","","","","","","","","","","","","",""
"","","","","","html-keyboard-response","39","177365","0.0-2.0-5.0-0.9","5e6ec2818808e6486e268039","B2","batch2","","null","<p class=block-text>Trial 10 out of 78</p>","null","pattern_show_trial_num","","","","","","","","","","","","","","","","","","","","","","","","",""
"","","","","","image-keyboard-response","40","181653","0.0-2.0-5.0-1.9","5e6ec2818808e6486e268039","B2","batch2","","4287.200000017881","stim/yes_44_ver_w1_w.png","f","pattern_response","true","f","pattern_66","4287.200000017881","true","9","","","","","","","","","","","","","","","","","","",""
"","","","","","html-keyboard-response","41","182956","0.0-2.0-5.0-0.10","5e6ec2818808e6486e268039","B2","batch2","","null","<p class=block-text>Trial 11 out of 78</p>","null","pattern_show_trial_num","","","","","","","","","","","","","","","","","","","","","","","","",""
"","","","","","image-keyboard-response","42","183753","0.0-2.0-5.0-1.10","5e6ec2818808e6486e268039","B2","batch2","","796.2999999821186","stim/yes_37_hor_w1_w.png","f","pattern_response","true","f","pattern_60","796.2999999821186","true","10","","","","","","","","","","","","","","","","","","",""
"","","","","","html-keyboard-response","43","185054","0.0-2.0-5.0-0.11","5e6ec2818808e6486e268039","B2","batch2","","null","<p class=block-text>Trial 12 out of 78</p>","null","pattern_show_trial_num","","","","","","","","","","","","","","","","","","","","","","","","",""
"","","","","","image-keyboard-response","44","191902","0.0-2.0-5.0-1.11","5e6ec2818808e6486e268039","B2","batch2","","6846.5","stim/no_47_1_b.png","j","pattern_response","true","j","pattern_27","6846.5","true","11","","","","","","","","","","","","","","","","","","",""
"","","","","","html-keyboard-response","45","193204","0.0-2.0-5.0-0.12","5e6ec2818808e6486e268039","B2","batch2","","null","<p class=block-text>Trial 13 out of 78</p>","null","pattern_show_trial_num","","","","","","","","","","","","","","","","","","","","","","","","",""
"","","","","","image-keyboard-response","46","195187","0.0-2.0-5.0-1.12","5e6ec2818808e6486e268039","B2","batch2","","1981.7000000178814","stim/yes_63_dia_b1.png","f","pattern_response","true","f","pattern_78","1981.7000000178814","true","12","","","","","","","","","","","","","","","","","","",""
"","","","","","html-keyboard-response","47","196488","0.0-2.0-5.0-0.13","5e6ec2818808e6486e268039","B2","batch2","","null","<p class=block-text>Trial 14 out of 78</p>","null","pattern_show_trial_num","","","","","","","","","","","","","","","","","","","","","","","","",""
"","","","","","image-keyboard-response","48","204357","0.0-2.0-5.0-1.13","5e6ec2818808e6486e268039","B2","batch2","","7867.5","stim/no_49_2_b.png","j","pattern_response","true","j","pattern_29","7867.5","true","13","","","","","","","","","","","","","","","","","","",""
"","","","","","html-keyboard-response","49","205658","0.0-2.0-5.0-0.14","5e6ec2818808e6486e268039","B2","batch2","","null","<p class=block-text>Trial 15 out of 78</p>","null","pattern_show_trial_num","","","","","","","","","","","","","","","","","","","","","","","","",""
"","","","","","image-keyboard-response","50","206816","0.0-2.0-5.0-1.14","5e6ec2818808e6486e268039","B2","batch2","","1156.5999999940395","stim/yes_15_dia_b1u_b.png","f","pattern_response","true","f","pattern_44","1156.5999999940395","true","14","","","","","","","","","","","","","","","","","","",""
"","","","","","html-keyboard-response","51","208117","0.0-2.0-5.0-0.15","5e6ec2818808e6486e268039","B2","batch2","","null","<p class=block-text>Trial 16 out of 78</p>","null","pattern_show_trial_num","","","","","","","","","","","","","","","","","","","","","","","","",""
"","","","","","image-keyboard-response","52","219303","0.0-2.0-5.0-1.15","5e6ec2818808e6486e268039","B2","batch2","","11185.200000017881","stim/yes_70_ver_b1.png","f","pattern_response","true","f","pattern_80","11185.200000017881","true","15","","","","","","","","","","","","","","","","","","",""
"","","","","","html-keyboard-response","53","220605","0.0-2.0-5.0-0.16","5e6ec2818808e6486e268039","B2","batch2","","null","<p class=block-text>Trial 17 out of 78</p>","null","pattern_show_trial_num","","","","","","","","","","","","","","","","","","","","","","","","",""
"","","","","","image-keyboard-response","54","236520","0.0-2.0-5.0-1.16","5e6ec2818808e6486e268039","B2","batch2","","15914.199999988079","stim/no_67_1.png","j","pattern_response","true","j","pattern_39","15914.199999988079","true","16","","","","","","","","","","","","","","","","","","",""
"","","","","","html-keyboard-response","55","237822","0.0-2.0-5.0-0.17","5e6ec2818808e6486e268039","B2","batch2","","null","<p class=block-text>Trial 18 out of 78</p>","null","pattern_show_trial_num","","","","","","","","","","","","","","","","","","","","","","","","",""
"","","","","","image-keyboard-response","56","244960","0.0-2.0-5.0-1.17","5e6ec2818808e6486e268039","B2","batch2","","7136.9000000059605","stim/no_37_2_w.png","j","pattern_response","true","j","pattern_19","7136.9000000059605","true","17","","","","","","","","","","","","","","","","","","",""
"","","","","","html-keyboard-response","57","246261","0.0-2.0-5.0-0.18","5e6ec2818808e6486e268039","B2","batch2","","null","<p class=block-text>Trial 19 out of 78</p>","null","pattern_show_trial_num","","","","","","","","","","","","","","","","","","","","","","","","",""
"","","","","","image-keyboard-response","58","247517","0.0-2.0-5.0-1.18","5e6ec2818808e6486e268039","B2","batch2","","1255.5","stim/yes_53_ver_b1_b.png","f","pattern_response","true","f","pattern_74","1255.5","true","18","","","","","","","","","","","","","","","","","","",""
"","","","","","html-keyboard-response","59","248819","0.0-2.0-5.0-0.19","5e6ec2818808e6486e268039","B2","batch2","","null","<p class=block-text>Trial 20 out of 78</p>","null","pattern_show_trial_num","","","","","","","","","","","","","","","","","","","","","","","","",""
"","","","","","image-keyboard-response","60","249750","0.0-2.0-5.0-1.19","5e6ec2818808e6486e268039","B2","batch2","","930","stim/yes_51_dia_b1.png","f","pattern_response","true","f","pattern_72","930","true","19","","","","","","","","","","","","","","","","","","",""
"","","","","","html-keyboard-response","61","251051","0.0-2.0-5.0-0.20","5e6ec2818808e6486e268039","B2","batch2","","null","<p class=block-text>Trial 21 out of 78</p>","null","pattern_show_trial_num","","","","","","","","","","","","","","","","","","","","","","","","",""
"","","","","","image-keyboard-response","62","252235","0.0-2.0-5.0-1.20","5e6ec2818808e6486e268039","B2","batch2","","1183.5","stim/yes_39_hor_w1_w.png","f","pattern_response","true","f","pattern_62","1183.5","true","20","","","","","","","","","","","","","","","","","","",""
"","","","","","html-keyboard-response","63","253537","0.0-2.0-5.0-0.21","5e6ec2818808e6486e268039","B2","batch2","","null","<p class=block-text>Trial 22 out of 78</p>","null","pattern_show_trial_num","","","","","","","","","","","","","","","","","","","","","","","","",""
"","","","","","image-keyboard-response","64","254555","0.0-2.0-5.0-1.21","5e6ec2818808e6486e268039","B2","batch2","","1017.2000000178814","stim/yes_30_ver_b1_b.png","f","pattern_response","true","f","pattern_54","1017.2000000178814","true","21","","","","","","","","","","","","","","","","","","",""
"","","","","","html-keyboard-response","65","255858","0.0-2.0-5.0-0.22","5e6ec2818808e6486e268039","B2","batch2","","null","<p class=block-text>Trial 23 out of 78</p>","null","pattern_show_trial_num","","","","","","","","","","","","","","","","","","","","","","","","",""
"","","","","","image-keyboard-response","66","256790","0.0-2.0-5.0-1.22","5e6ec2818808e6486e268039","B2","batch2","","932","stim/yes_12_hor_w1_w.png","f","pattern_response","true","f","pattern_42","932","true","22","","","","","","","","","","","","","","","","","","",""
"","","","","","html-keyboard-response","67","258092","0.0-2.0-5.0-0.23","5e6ec2818808e6486e268039","B2","batch2","","null","<p class=block-text>Trial 24 out of 78</p>","null","pattern_show_trial_num","","","","","","","","","","","","","","","","","","","","","","","","",""
"","","","","","image-keyboard-response","68","261312","0.0-2.0-5.0-1.23","5e6ec2818808e6486e268039","B2","batch2","","3219","stim/yes_33_dia_w1_w.png","f","pattern_response","true","f","pattern_56","3219","true","23","","","","","","","","","","","","","","","","","","",""
"","","","","","html-keyboard-response","69","262613","0.0-2.0-5.0-0.24","5e6ec2818808e6486e268039","B2","batch2","","null","<p class=block-text>Trial 25 out of 78</p>","null","pattern_show_trial_num","","","","","","","","","","","","","","","","","","","","","","","","",""
"","","","","","image-keyboard-response","70","271387","0.0-2.0-5.0-1.24","5e6ec2818808e6486e268039","B2","batch2","","8773.199999988079","stim/yes_42_dia_w1_w.png","f","pattern_response","true","f","pattern_64","8773.199999988079","true","24","","","","","","","","","","","","","","","","","","",""
"","","","","","html-keyboard-response","71","272689","0.0-2.0-5.0-0.25","5e6ec2818808e6486e268039","B2","batch2","","null","<p class=block-text>Trial 26 out of 78</p>","null","pattern_show_trial_num","","","","","","","","","","","","","","","","","","","","","","","","",""
"","","","","","image-keyboard-response","72","273784","0.0-2.0-5.0-1.25","5e6ec2818808e6486e268039","B2","batch2","","1094.4000000059605","stim/yes_36_ver_w1_w.png","f","pattern_response","true","f","pattern_58","1094.4000000059605","true","25","","","","","","","","","","","","","","","","","","",""
"","","","","","html-keyboard-response","73","275087","0.0-2.0-5.0-0.26","5e6ec2818808e6486e268039","B2","batch2","","null","<p class=block-text>Trial 27 out of 78</p>","null","pattern_show_trial_num","","","","","","","","","","","","","","","","","","","","","","","","",""
"","","","","","image-keyboard-response","74","283721","0.0-2.0-5.0-1.26","5e6ec2818808e6486e268039","B2","batch2","","8633.90000000596","stim/no_51_1.png","j","pattern_response","true","j","pattern_31","8633.90000000596","true","26","","","","","","","","","","","","","","","","","","",""
"","","","","","html-keyboard-response","75","285023","0.0-2.0-5.0-0.27","5e6ec2818808e6486e268039","B2","batch2","","null","<p class=block-text>Trial 28 out of 78</p>","null","pattern_show_trial_num","","","","","","","","","","","","","","","","","","","","","","","","",""
"","","","","","image-keyboard-response","76","288738","0.0-2.0-5.0-1.27","5e6ec2818808e6486e268039","B2","batch2","","3714.2000000178814","stim/no_25_1_b.png","j","pattern_response","true","j","pattern_09","3714.2000000178814","true","27","","","","","","","","","","","","","","","","","","",""
"","","","","","html-keyboard-response","77","290039","0.0-2.0-5.0-0.28","5e6ec2818808e6486e268039","B2","batch2","","null","<p class=block-text>Trial 29 out of 78</p>","null","pattern_show_trial_num","","","","","","","","","","","","","","","","","","","","","","","","",""
"","","","","","image-keyboard-response","78","300074","0.0-2.0-5.0-1.28","5e6ec2818808e6486e268039","B2","batch2","","10034.59999999404","stim/no_39_1_w.png","j","pattern_response","true","j","pattern_21","10034.59999999404","true","28","","","","","","","","","","","","","","","","","","",""
"","","","","","html-keyboard-response","79","301377","0.0-2.0-5.0-0.29","5e6ec2818808e6486e268039","B2","batch2","","null","<p class=block-text>Trial 30 out of 78</p>","null","pattern_show_trial_num","","","","","","","","","","","","","","","","","","","","","","","","",""
"","","","","","image-keyboard-response","80","310295","0.0-2.0-5.0-1.29","5e6ec2818808e6486e268039","B2","batch2","","8917.300000011921","stim/no_45_1_w.png","j","pattern_response","true","j","pattern_25","8917.300000011921","true","29","","","","","","","","","","","","","","","","","","",""
"","","","","","html-keyboard-response","81","311597","0.0-2.0-5.0-0.30","5e6ec2818808e6486e268039","B2","batch2","","null","<p class=block-text>Trial 31 out of 78</p>","null","pattern_show_trial_num","","","","","","","","","","","","","","","","","","","","","","","","",""
"","","","","","image-keyboard-response","82","312417","0.0-2.0-5.0-1.30","5e6ec2818808e6486e268039","B2","batch2","","818.9000000059605","stim/yes_17_ver_b1_b.png","f","pattern_response","true","f","pattern_46","818.9000000059605","true","30","","","","","","","","","","","","","","","","","","",""
"","","","","","html-keyboard-response","83","313719","0.0-2.0-5.0-0.31","5e6ec2818808e6486e268039","B2","batch2","","null","<p class=block-text>Trial 32 out of 78</p>","null","pattern_show_trial_num","","","","","","","","","","","","","","","","","","","","","","","","",""
"","","","","","image-keyboard-response","84","321538","0.0-2.0-5.0-1.31","5e6ec2818808e6486e268039","B2","batch2","","7817.699999988079","stim/no_30_1_b.png","j","pattern_response","true","j","pattern_13","7817.699999988079","true","31","","","","","","","","","","","","","","","","","","",""
"","","","","","html-keyboard-response","85","322839","0.0-2.0-5.0-0.32","5e6ec2818808e6486e268039","B2","batch2","","null","<p class=block-text>Trial 33 out of 78</p>","null","pattern_show_trial_num","","","","","","","","","","","","","","","","","","","","","","","","",""
"","","","","","image-keyboard-response","86","334298","0.0-2.0-5.0-1.32","5e6ec2818808e6486e268039","B2","batch2","","11457.699999988079","stim/no_43_2_b.png","j","pattern_response","true","j","pattern_23","11457.699999988079","true","32","","","","","","","","","","","","","","","","","","",""
"","","","","","html-keyboard-response","87","335600","0.0-2.0-5.0-0.33","5e6ec2818808e6486e268039","B2","batch2","","null","<p class=block-text>Trial 34 out of 78</p>","null","pattern_show_trial_num","","","","","","","","","","","","","","","","","","","","","","","","",""
"","","","","","image-keyboard-response","88","336884","0.0-2.0-5.0-1.33","5e6ec2818808e6486e268039","B2","batch2","","1283","stim/yes_23_ver_b1.png","f","pattern_response","true","f","pattern_48","1283","true","33","","","","","","","","","","","","","","","","","","",""
"","","","","","html-keyboard-response","89","338185","0.0-2.0-5.0-0.34","5e6ec2818808e6486e268039","B2","batch2","","null","<p class=block-text>Trial 35 out of 78</p>","null","pattern_show_trial_num","","","","","","","","","","","","","","","","","","","","","","","","",""
"","","","","","image-keyboard-response","90","342829","0.0-2.0-5.0-1.34","5e6ec2818808e6486e268039","B2","batch2","","4643.5999999940395","stim/no_22_1_b.png","j","pattern_response","true","j","pattern_07","4643.5999999940395","true","34","","","","","","","","","","","","","","","","","","",""
"","","","","","html-keyboard-response","91","344131","0.0-2.0-5.0-0.35","5e6ec2818808e6486e268039","B2","batch2","","null","<p class=block-text>Trial 36 out of 78</p>","null","pattern_show_trial_num","","","","","","","","","","","","","","","","","","","","","","","","",""
"","","","","","image-keyboard-response","92","359286","0.0-2.0-5.0-1.35","5e6ec2818808e6486e268039","B2","batch2","","15154.40000000596","stim/no_53_1_b.png","j","pattern_response","true","j","pattern_33","15154.40000000596","true","35","","","","","","","","","","","","","","","","","","",""
"","","","","","html-keyboard-response","93","360589","0.0-2.0-5.0-0.36","5e6ec2818808e6486e268039","B2","batch2","","null","<p class=block-text>Trial 37 out of 78</p>","null","pattern_show_trial_num","","","","","","","","","","","","","","","","","","","","","","","","",""
"","","","","","image-keyboard-response","94","361826","0.0-2.0-5.0-1.36","5e6ec2818808e6486e268039","B2","batch2","","1236.4000000059605","stim/yes_49_hor_w1_b.png","f","pattern_response","true","f","pattern_70","1236.4000000059605","true","36","","","","","","","","","","","","","","","","","","",""
"","","","","","html-keyboard-response","95","363127","0.0-2.0-5.0-0.37","5e6ec2818808e6486e268039","B2","batch2","","null","<p class=block-text>Trial 38 out of 78</p>","null","pattern_show_trial_num","","","","","","","","","","","","","","","","","","","","","","","","",""
"","","","","","image-keyboard-response","96","365952","0.0-2.0-5.0-1.37","5e6ec2818808e6486e268039","B2","batch2","","2824.300000011921","stim/no_15_1_w.png","j","pattern_response","true","j","pattern_03","2824.300000011921","true","37","","","","","","","","","","","","","","","","","","",""
"","","","","","html-keyboard-response","97","367252","0.0-2.0-5.0-0.38","5e6ec2818808e6486e268039","B2","batch2","","null","<p class=block-text>Trial 39 out of 78</p>","null","pattern_show_trial_num","","","","","","","","","","","","","","","","","","","","","","","","",""
"","","","","","image-keyboard-response","98","368082","0.0-2.0-5.0-1.38","5e6ec2818808e6486e268039","B2","batch2","","829","stim/yes_29_hor_b1_b.png","f","pattern_response","true","f","pattern_52","829","true","38","","","","","","","","","","","","","","","","","","",""
"","","","","","image-keyboard-response","99","372302","0.0-2.0-6.0","5e6ec2818808e6486e268039","B2","batch2","","3717.800000011921","stim/empty_board.png","j","attention_check","true","j","","","","","500","[""f"",""j""]","","","","","","","","","","","","","","","","",""
"","","","","","html-keyboard-response","100","373104","0.0-2.0-7.0-0.0","5e6ec2818808e6486e268039","B2","batch2","","null","<p class=block-text>Trial 40 out of 78</p>","null","pattern_show_trial_num","","","","","","","","","","","","","","","","","","","","","","","","",""
"","","","","","image-keyboard-response","101","382604","0.0-2.0-7.0-1.0","5e6ec2818808e6486e268039","B2","batch2","","9498.699999988079","stim/no_38_1_b.png","j","pattern_response","true","j","pattern_20","9498.699999988079","true","39","","","","","","","","","","","","","","","","","","",""
"","","","","","html-keyboard-response","102","383906","0.0-2.0-7.0-0.1","5e6ec2818808e6486e268039","B2","batch2","","null","<p class=block-text>Trial 41 out of 78</p>","null","pattern_show_trial_num","","","","","","","","","","","","","","","","","","","","","","","","",""
"","","","","","image-keyboard-response","103","384754","0.0-2.0-7.0-1.1","5e6ec2818808e6486e268039","B2","batch2","","847.2000000178814","stim/yes_14_hor_b1_w.png","f","pattern_response","true","f","pattern_43","847.2000000178814","true","40","","","","","","","","","","","","","","","","","","",""
"","","","","","html-keyboard-response","104","386056","0.0-2.0-7.0-0.2","5e6ec2818808e6486e268039","B2","batch2","","null","<p class=block-text>Trial 42 out of 78</p>","null","pattern_show_trial_num","","","","","","","","","","","","","","","","","","","","","","","","",""
"","","","","","image-keyboard-response","105","400444","0.0-2.0-7.0-1.2","5e6ec2818808e6486e268039","B2","batch2","","14386.700000017881","stim/no_55_1_w.png","j","pattern_response","true","j","pattern_34","14386.700000017881","true","41","","","","","","","","","","","","","","","","","","",""
"","","","","","html-keyboard-response","106","401746","0.0-2.0-7.0-0.3","5e6ec2818808e6486e268039","B2","batch2","","null","<p class=block-text>Trial 43 out of 78</p>","null","pattern_show_trial_num","","","","","","","","","","","","","","","","","","","","","","","","",""
"","","","","","image-keyboard-response","107","403042","0.0-2.0-7.0-1.3","5e6ec2818808e6486e268039","B2","batch2","","1295.199999988079","stim/yes_55_hor_w1_w.png","f","pattern_response","true","f","pattern_75","1295.199999988079","true","42","","","","","","","","","","","","","","","","","","",""
"","","","","","html-keyboard-response","108","404343","0.0-2.0-7.0-0.4","5e6ec2818808e6486e268039","B2","batch2","","null","<p class=block-text>Trial 44 out of 78</p>","null","pattern_show_trial_num","","","","","","","","","","","","","","","","","","","","","","","","",""
"","","","","","image-keyboard-response","109","408417","0.0-2.0-7.0-1.4","5e6ec2818808e6486e268039","B2","batch2","","4072.800000011921","stim/yes_35_dia_b1.png","f","pattern_response","true","f","pattern_57","4072.800000011921","true","43","","","","","","","","","","","","","","","","","","",""
"","","","","","html-keyboard-response","110","409719","0.0-2.0-7.0-0.5","5e6ec2818808e6486e268039","B2","batch2","","null","<p class=block-text>Trial 45 out of 78</p>","null","pattern_show_trial_num","","","","","","","","","","","","","","","","","","","","","","","","",""
"","","","","","image-keyboard-response","111","410910","0.0-2.0-7.0-1.5","5e6ec2818808e6486e268039","B2","batch2","","1190.4000000059605","stim/yes_31_hor_b1.png","f","pattern_response","true","f","pattern_55","1190.4000000059605","true","44","","","","","","","","","","","","","","","","","","",""
"","","","","","html-keyboard-response","112","412212","0.0-2.0-7.0-0.6","5e6ec2818808e6486e268039","B2","batch2","","null","<p class=block-text>Trial 46 out of 78</p>","null","pattern_show_trial_num","","","","","","","","","","","","","","","","","","","","","","","","",""
"","","","","","image-keyboard-response","113","424026","0.0-2.0-7.0-1.6","5e6ec2818808e6486e268039","B2","batch2","","11813.40000000596","stim/no_29_1_b.png","j","pattern_response","true","j","pattern_12","11813.40000000596","true","45","","","","","","","","","","","","","","","","","","",""
"","","","","","html-keyboard-response","114","425328","0.0-2.0-7.0-0.7","5e6ec2818808e6486e268039","B2","batch2","","null","<p class=block-text>Trial 47 out of 78</p>","null","pattern_show_trial_num","","","","","","","","","","","","","","","","","","","","","","","","",""
"","","","","","image-keyboard-response","115","434927","0.0-2.0-7.0-1.7","5e6ec2818808e6486e268039","B2","batch2","","9597.699999988079","stim/no_48_1_w.png","j","pattern_response","true","j","pattern_28","9597.699999988079","true","46","","","","","","","","","","","","","","","","","","",""
"","","","","","html-keyboard-response","116","436229","0.0-2.0-7.0-0.8","5e6ec2818808e6486e268039","B2","batch2","","null","<p class=block-text>Trial 48 out of 78</p>","null","pattern_show_trial_num","","","","","","","","","","","","","","","","","","","","","","","","",""
"","","","","","image-keyboard-response","117","444005","0.0-2.0-7.0-1.8","5e6ec2818808e6486e268039","B2","batch2","","7775.300000011921","stim/yes_40_dia_b1_b.png","j","pattern_response","false","f","pattern_63","7775.300000011921","false","46","","","","","","","","","","","","","","","","","","",""
"","","","","","html-keyboard-response","118","445306","0.0-2.0-7.0-0.9","5e6ec2818808e6486e268039","B2","batch2","","null","<p class=block-text>Trial 49 out of 78</p>","null","pattern_show_trial_num","","","","","","","","","","","","","","","","","","","","","","","","",""
"","","","","","image-keyboard-response","119","469398","0.0-2.0-7.0-1.9","5e6ec2818808e6486e268039","B2","batch2","","24091.09999999404","stim/no_70_2.png","j","pattern_response","true","j","pattern_40","24091.09999999404","true","47","","","","","","","","","","","","","","","","","","",""
"","","","","","html-keyboard-response","120","470700","0.0-2.0-7.0-0.10","5e6ec2818808e6486e268039","B2","batch2","","null","<p class=block-text>Trial 50 out of 78</p>","null","pattern_show_trial_num","","","","","","","","","","","","","","","","","","","","","","","","",""
"","","","","","image-keyboard-response","121","471500","0.0-2.0-7.0-1.10","5e6ec2818808e6486e268039","B2","batch2","","799.0999999940395","stim/yes_25_hor_b1_b.png","f","pattern_response","true","f","pattern_49","799.0999999940395","true","48","","","","","","","","","","","","","","","","","","",""
"","","","","","html-keyboard-response","122","472801","0.0-2.0-7.0-0.11","5e6ec2818808e6486e268039","B2","batch2","","null","<p class=block-text>Trial 51 out of 78</p>","null","pattern_show_trial_num","","","","","","","","","","","","","","","","","","","","","","","","",""
"","","","","","image-keyboard-response","123","475681","0.0-2.0-7.0-1.11","5e6ec2818808e6486e268039","B2","batch2","","2878.9000000059605","stim/yes_37_dia_w1.png","f","pattern_response","true","f","pattern_59","2878.9000000059605","true","49","","","","","","","","","","","","","","","","","","",""
"","","","","","html-keyboard-response","124","476982","0.0-2.0-7.0-0.12","5e6ec2818808e6486e268039","B2","batch2","","null","<p class=block-text>Trial 52 out of 78</p>","null","pattern_show_trial_num","","","","","","","","","","","","","","","","","","","","","","","","",""
"","","","","","image-keyboard-response","125","478270","0.0-2.0-7.0-1.12","5e6ec2818808e6486e268039","B2","batch2","","1286.3999999761581","stim/yes_38_hor_b1_b.png","f","pattern_response","true","f","pattern_61","1286.3999999761581","true","50","","","","","","","","","","","","","","","","","","",""
"","","","","","html-keyboard-response","126","479572","0.0-2.0-7.0-0.13","5e6ec2818808e6486e268039","B2","batch2","","null","<p class=block-text>Trial 53 out of 78</p>","null","pattern_show_trial_num","","","","","","","","","","","","","","","","","","","","","","","","",""
"","","","","","image-keyboard-response","127","482176","0.0-2.0-7.0-1.13","5e6ec2818808e6486e268039","B2","batch2","","2604","stim/yes_48_dia_w1_w.png","f","pattern_response","true","f","pattern_69","2604","true","51","","","","","","","","","","","","","","","","","","",""
"","","","","","html-keyboard-response","128","483479","0.0-2.0-7.0-0.14","5e6ec2818808e6486e268039","B2","batch2","","null","<p class=block-text>Trial 54 out of 78</p>","null","pattern_show_trial_num","","","","","","","","","","","","","","","","","","","","","","","","",""
"","","","","","image-keyboard-response","129","484689","0.0-2.0-7.0-1.14","5e6ec2818808e6486e268039","B2","batch2","","1209.9000000059605","stim/yes_22_ver_w1.png","f","pattern_response","true","f","pattern_47","1209.9000000059605","true","52","","","","","","","","","","","","","","","","","","",""
"","","","","","html-keyboard-response","130","485990","0.0-2.0-7.0-0.15","5e6ec2818808e6486e268039","B2","batch2","","null","<p class=block-text>Trial 55 out of 78</p>","null","pattern_show_trial_num","","","","","","","","","","","","","","","","","","","","","","","","",""
"","","","","","image-keyboard-response","131","490028","0.0-2.0-7.0-1.15","5e6ec2818808e6486e268039","B2","batch2","","4037.9000000059605","stim/no_13_2_b.png","j","pattern_response","true","j","pattern_02","4037.9000000059605","true","53","","","","","","","","","","","","","","","","","","",""
"","","","","","html-keyboard-response","132","491330","0.0-2.0-7.0-0.16","5e6ec2818808e6486e268039","B2","batch2","","null","<p class=block-text>Trial 56 out of 78</p>","null","pattern_show_trial_num","","","","","","","","","","","","","","","","","","","","","","","","",""
"","","","","","image-keyboard-response","133","504691","0.0-2.0-7.0-1.16","5e6ec2818808e6486e268039","B2","batch2","","13360.5","stim/no_52_1.png","j","pattern_response","true","j","pattern_32","13360.5","true","54","","","","","","","","","","","","","","","","","","",""
"","","","","","html-keyboard-response","134","505994","0.0-2.0-7.0-0.17","5e6ec2818808e6486e268039","B2","batch2","","null","<p class=block-text>Trial 57 out of 78</p>","null","pattern_show_trial_num","","","","","","","","","","","","","","","","","","","","","","","","",""
"","","","","","image-keyboard-response","135","513401","0.0-2.0-7.0-1.17","5e6ec2818808e6486e268039","B2","batch2","","7406.4000000059605","stim/no_32_1_w.png","j","pattern_response","true","j","pattern_14","7406.4000000059605","true","55","","","","","","","","","","","","","","","","","","",""
"","","","","","html-keyboard-response","136","514702","0.0-2.0-7.0-0.18","5e6ec2818808e6486e268039","B2","batch2","","null","<p class=block-text>Trial 58 out of 78</p>","null","pattern_show_trial_num","","","","","","","","","","","","","","","","","","","","","","","","",""
"","","","","","image-keyboard-response","137","516145","0.0-2.0-7.0-1.18","5e6ec2818808e6486e268039","B2","batch2","","1442","stim/yes_17_dia_w1.png","f","pattern_response","true","f","pattern_45","1442","true","56","","","","","","","","","","","","","","","","","","",""
"","","","","","html-keyboard-response","138","517448","0.0-2.0-7.0-0.19","5e6ec2818808e6486e268039","B2","batch2","","null","<p class=block-text>Trial 59 out of 78</p>","null","pattern_show_trial_num","","","","","","","","","","","","","","","","","","","","","","","","",""
"","","","","","image-keyboard-response","139","528424","0.0-2.0-7.0-1.19","5e6ec2818808e6486e268039","B2","batch2","","10975.90000000596","stim/no_42_1_w.png","j","pattern_response","true","j","pattern_22","10975.90000000596","true","57","","","","","","","","","","","","","","","","","","",""
"","","","","","html-keyboard-response","140","529726","0.0-2.0-7.0-0.20","5e6ec2818808e6486e268039","B2","batch2","","null","<p class=block-text>Trial 60 out of 78</p>","null","pattern_show_trial_num","","","","","","","","","","","","","","","","","","","","","","","","",""
"","","","","","image-keyboard-response","141","543109","0.0-2.0-7.0-1.20","5e6ec2818808e6486e268039","B2","batch2","","13381.899999976158","stim/no_46_1_b.png","j","pattern_response","true","j","pattern_26","13381.899999976158","true","58","","","","","","","","","","","","","","","","","","",""
"","","","","","html-keyboard-response","142","544411","0.0-2.0-7.0-0.21","5e6ec2818808e6486e268039","B2","batch2","","null","<p class=block-text>Trial 61 out of 78</p>","null","pattern_show_trial_num","","","","","","","","","","","","","","","","","","","","","","","","",""
"","","","","","image-keyboard-response","143","545581","0.0-2.0-7.0-1.21","5e6ec2818808e6486e268039","B2","batch2","","1169.5999999940395","stim/yes_29_ver_w1.png","f","pattern_response","true","f","pattern_53","1169.5999999940395","true","59","","","","","","","","","","","","","","","","","","",""
"","","","","","html-keyboard-response","144","546883","0.0-2.0-7.0-0.22","5e6ec2818808e6486e268039","B2","batch2","","null","<p class=block-text>Trial 62 out of 78</p>","null","pattern_show_trial_num","","","","","","","","","","","","","","","","","","","","","","","","",""
"","","","","","image-keyboard-response","145","547924","0.0-2.0-7.0-1.22","5e6ec2818808e6486e268039","B2","batch2","","1040.7999999821186","stim/yes_67_hor_b1.png","f","pattern_response","true","f","pattern_79","1040.7999999821186","true","60","","","","","","","","","","","","","","","","","","",""
"","","","","","html-keyboard-response","146","549226","0.0-2.0-7.0-0.23","5e6ec2818808e6486e268039","B2","batch2","","null","<p class=block-text>Trial 63 out of 78</p>","null","pattern_show_trial_num","","","","","","","","","","","","","","","","","","","","","","","","",""
"","","","","","image-keyboard-response","147","568467","0.0-2.0-7.0-1.23","5e6ec2818808e6486e268039","B2","batch2","","19240.90000000596","stim/no_62_1_w.png","j","pattern_response","true","j","pattern_36","19240.90000000596","true","61","","","","","","","","","","","","","","","","","","",""
"","","","","","html-keyboard-response","148","569769","0.0-2.0-7.0-0.24","5e6ec2818808e6486e268039","B2","batch2","","null","<p class=block-text>Trial 64 out of 78</p>","null","pattern_show_trial_num","","","","","","","","","","","","","","","","","","","","","","","","",""
"","","","","","image-keyboard-response","149","581469","0.0-2.0-7.0-1.24","5e6ec2818808e6486e268039","B2","batch2","","11699.200000017881","stim/no_50_1.png","j","pattern_response","true","j","pattern_30","11699.200000017881","true","62","","","","","","","","","","","","","","","","","","",""
"","","","","","html-keyboard-response","150","582770","0.0-2.0-7.0-0.25","5e6ec2818808e6486e268039","B2","batch2","","null","<p class=block-text>Trial 65 out of 78</p>","null","pattern_show_trial_num","","","","","","","","","","","","","","","","","","","","","","","","",""
"","","","","","image-keyboard-response","151","588029","0.0-2.0-7.0-1.25","5e6ec2818808e6486e268039","B2","batch2","","5258.100000023842","stim/no_36_2_w.png","j","pattern_response","true","j","pattern_18","5258.100000023842","true","63","","","","","","","","","","","","","","","","","","",""
"","","","","","html-keyboard-response","152","589331","0.0-2.0-7.0-0.26","5e6ec2818808e6486e268039","B2","batch2","","null","<p class=block-text>Trial 66 out of 78</p>","null","pattern_show_trial_num","","","","","","","","","","","","","","","","","","","","","","","","",""
"","","","","","image-keyboard-response","153","603447","0.0-2.0-7.0-1.26","5e6ec2818808e6486e268039","B2","batch2","","14115.699999988079","stim/yes_50_dia_w1.png","j","pattern_response","false","f","pattern_71","14115.699999988079","false","63","","","","","","","","","","","","","","","","","","",""
"","","","","","html-keyboard-response","154","604748","0.0-2.0-7.0-0.27","5e6ec2818808e6486e268039","B2","batch2","","null","<p class=block-text>Trial 67 out of 78</p>","null","pattern_show_trial_num","","","","","","","","","","","","","","","","","","","","","","","","",""
"","","","","","image-keyboard-response","155","611587","0.0-2.0-7.0-1.27","5e6ec2818808e6486e268039","B2","batch2","","6837.5999999940395","stim/no_34_1_b.png","j","pattern_response","true","j","pattern_16","6837.5999999940395","true","64","","","","","","","","","","","","","","","","","","",""
"","","","","","html-keyboard-response","156","612890","0.0-2.0-7.0-0.28","5e6ec2818808e6486e268039","B2","batch2","","null","<p class=block-text>Trial 68 out of 78</p>","null","pattern_show_trial_num","","","","","","","","","","","","","","","","","","","","","","","","",""
"","","","","","image-keyboard-response","157","614619","0.0-2.0-7.0-1.28","5e6ec2818808e6486e268039","B2","batch2","","1728","stim/yes_45_hor_b2_b.png","f","pattern_response","true","f","pattern_67","1728","true","65","","","","","","","","","","","","","","","","","","",""
"","","","","","html-keyboard-response","158","615920","0.0-2.0-7.0-0.29","5e6ec2818808e6486e268039","B2","batch2","","null","<p class=block-text>Trial 69 out of 78</p>","null","pattern_show_trial_num","","","","","","","","","","","","","","","","","","","","","","","","",""
"","","","","","image-keyboard-response","159","617630","0.0-2.0-7.0-1.29","5e6ec2818808e6486e268039","B2","batch2","","1709","stim/no_17_1_w.png","j","pattern_response","true","j","pattern_04","1709","true","66","","","","","","","","","","","","","","","","","","",""
"","","","","","html-keyboard-response","160","618932","0.0-2.0-7.0-0.30","5e6ec2818808e6486e268039","B2","batch2","","null","<p class=block-text>Trial 70 out of 78</p>","null","pattern_show_trial_num","","","","","","","","","","","","","","","","","","","","","","","","",""
"","","","","","image-keyboard-response","161","620295","0.0-2.0-7.0-1.30","5e6ec2818808e6486e268039","B2","batch2","","1361.9000000059605","stim/yes_52_ver_w1.png","f","pattern_response","true","f","pattern_73","1361.9000000059605","true","67","","","","","","","","","","","","","","","","","","",""
"","","","","","html-keyboard-response","162","621597","0.0-2.0-7.0-0.31","5e6ec2818808e6486e268039","B2","batch2","","null","<p class=block-text>Trial 71 out of 78</p>","null","pattern_show_trial_num","","","","","","","","","","","","","","","","","","","","","","","","",""
"","","","","","image-keyboard-response","163","625787","0.0-2.0-7.0-1.31","5e6ec2818808e6486e268039","B2","batch2","","4189.5999999940395","stim/no_26_1_w.png","j","pattern_response","true","j","pattern_10","4189.5999999940395","true","68","","","","","","","","","","","","","","","","","","",""
"","","","","","html-keyboard-response","164","627089","0.0-2.0-7.0-0.32","5e6ec2818808e6486e268039","B2","batch2","","null","<p class=block-text>Trial 72 out of 78</p>","null","pattern_show_trial_num","","","","","","","","","","","","","","","","","","","","","","","","",""
"","","","","","image-keyboard-response","165","632503","0.0-2.0-7.0-1.32","5e6ec2818808e6486e268039","B2","batch2","","5413.600000023842","stim/no_20_1_w.png","j","pattern_response","true","j","pattern_06","5413.600000023842","true","69","","","","","","","","","","","","","","","","","","",""
"","","","","","html-keyboard-response","166","633804","0.0-2.0-7.0-0.33","5e6ec2818808e6486e268039","B2","batch2","","null","<p class=block-text>Trial 73 out of 78</p>","null","pattern_show_trial_num","","","","","","","","","","","","","","","","","","","","","","","","",""
"","","","","","image-keyboard-response","167","651738","0.0-2.0-7.0-1.33","5e6ec2818808e6486e268039","B2","batch2","","17932.80000001192","stim/no_44_1.png","j","pattern_response","true","j","pattern_24","17932.80000001192","true","70","","","","","","","","","","","","","","","","","","",""
"","","","","","html-keyboard-response","168","653040","0.0-2.0-7.0-0.34","5e6ec2818808e6486e268039","B2","batch2","","null","<p class=block-text>Trial 74 out of 78</p>","null","pattern_show_trial_num","","","","","","","","","","","","","","","","","","","","","","","","",""
"","","","","","image-keyboard-response","169","655088","0.0-2.0-7.0-1.34","5e6ec2818808e6486e268039","B2","batch2","","2047.6000000238419","stim/yes_60_ver_b1_b.png","j","pattern_response","false","f","pattern_77","2047.6000000238419","false","70","","","","","","","","","","","","","","","","","","",""
"","","","","","html-keyboard-response","170","656391","0.0-2.0-7.0-0.35","5e6ec2818808e6486e268039","B2","batch2","","null","<p class=block-text>Trial 75 out of 78</p>","null","pattern_show_trial_num","","","","","","","","","","","","","","","","","","","","","","","","",""
"","","","","","image-keyboard-response","171","680756","0.0-2.0-7.0-1.35","5e6ec2818808e6486e268039","B2","batch2","","24364.5","stim/no_65_1_b.png","j","pattern_response","true","j","pattern_38","24364.5","true","71","","","","","","","","","","","","","","","","","","",""
"","","","","","html-keyboard-response","172","682058","0.0-2.0-7.0-0.36","5e6ec2818808e6486e268039","B2","batch2","","null","<p class=block-text>Trial 76 out of 78</p>","null","pattern_show_trial_num","","","","","","","","","","","","","","","","","","","","","","","","",""
"","","","","","image-keyboard-response","173","683298","0.0-2.0-7.0-1.36","5e6ec2818808e6486e268039","B2","batch2","","1238.9000000059605","stim/yes_28_ver_b1.png","f","pattern_response","true","f","pattern_51","1238.9000000059605","true","72","","","","","","","","","","","","","","","","","","",""
"","","","","","html-keyboard-response","174","684600","0.0-2.0-7.0-0.37","5e6ec2818808e6486e268039","B2","batch2","","null","<p class=block-text>Trial 77 out of 78</p>","null","pattern_show_trial_num","","","","","","","","","","","","","","","","","","","","","","","","",""
"","","","","","image-keyboard-response","175","689907","0.0-2.0-7.0-1.37","5e6ec2818808e6486e268039","B2","batch2","","5306","stim/no_23_1.png","j","pattern_response","true","j","pattern_08","5306","true","73","","","","","","","","","","","","","","","","","","",""
"","","","","","html-keyboard-response","176","691209","0.0-2.0-7.0-0.38","5e6ec2818808e6486e268039","B2","batch2","","null","<p class=block-text>Trial 78 out of 78</p>","null","pattern_show_trial_num","","","","","","","","","","","","","","","","","","","","","","","","",""
"","","","","","image-keyboard-response","177","692530","0.0-2.0-7.0-1.38","5e6ec2818808e6486e268039","B2","batch2","","1319.699999988079","stim/yes_43_ver_w1_w.png","f","pattern_response","true","f","pattern_65","1319.699999988079","true","74","","","","","","","","","","","","","","","","","","",""
"","","","","","html-button-response","178","699318","0.0-2.0-8.0","5e6ec2818808e6486e268039","B2","batch2","","6286.699999988079","<p class = block-text>This concludes the 4-in-a-row detection game.Thank you for your responses!<br>
            You responded correctly on 95% of the trials.<br>
            When you are ready, press ""Continue"" button to continue </p>","0","","","","","","","","","","","","","","","","","","","","","","","","","",""
"true","","","","","fullscreen","179","712714","0.0-3.0-0.0","5e6ec2818808e6486e268039","B2","batch2","","","","","","","","","","","","","","","","","","","","","","","","","","","","","",""
"","","","","","instructions","180","818645","0.0-3.0-1.0-0.0-0.0","5e6ec2818808e6486e268039","B2","batch2","[{""page_index"":0,""viewing_time"":30437.899999976158},{""page_index"":1,""viewing_time"":10248.90000000596},{""page_index"":2,""viewing_time"":6926.700000017881},{""page_index"":3,""viewing_time"":10828.699999988079},{""page_index"":4,""viewing_time"":19037.19999998808},{""page_index"":5,""viewing_time"":22963.100000023842},{""page_index"":6,""viewing_time"":5487.299999982119}]","105929.89999997616","","","tol-instructions","","","","","","","","","","","","","","","","","","","","","","","","",""
"","","","","","html-button-response","181","821599","0.0-3.0-1.0-1.0-0.0","5e6ec2818808e6486e268039","B2","batch2","","2954.100000023842","<p class=block-text> Let's answer a few questions <br>","0","tol_enter_quiz","","","","","","","","","","","","","","","","","","","","","","","","",""
"","","","","","html-button-response","182","836407","0.0-3.0-1.0-1.0-1.0","5e6ec2818808e6486e268039","B2","batch2","","14807","<p class = block-text>True or False: You can only move the ball on top of a peg. <br></p>","1","tol_quiz","false","","","","","","","","","","","","","","","","","","","","","","","",""
"","","","","","html-button-response","183","839553","0.0-3.0-1.0-1.0-2.0","5e6ec2818808e6486e268039","B2","batch2","","3145.100000023842","<p class = block-text>Incorrect. Remember, you can only move the ball on top of a peg.</p>","0","tol_quiz_feedback","","","","","","","","","","","","","","","","","","","","","","","","",""
"","","","","","html-button-response","184","844825","0.0-3.0-1.0-1.0-3.0","5e6ec2818808e6486e268039","B2","batch2","","5271.199999988079","<p class = block-text>True or False: You should try to match your board with the target board with fewest moves possible. <br></p>","0","tol_quiz","true","","","","","","","","","","","","","","","","","","","","","","","",""
"","","","","","html-button-response","185","846123","0.0-3.0-1.0-1.0-4.0","5e6ec2818808e6486e268039","B2","batch2","","1298.199999988079","<p class = block-text>Correct! </p>","0","tol_quiz_feedback","","","","","","","","","","","","","","","","","","","","","","","","",""
"","","","","","html-button-response","186","849845","0.0-3.0-1.0-2.0-0.0","5e6ec2818808e6486e268039","B2","batch2","","3720.9000000059605","<p class = block-text>You made too many incorrect choices.</p><p class = block-text>You will now repeat the instructions and quiz</p>","0","","","","","","","","","","","","","","","","","","","","","","","","","",""
"","","","","","instructions","187","874429","0.0-3.0-1.1-0.1-0.1","5e6ec2818808e6486e268039","B2","batch2","[{""page_index"":0,""viewing_time"":2482.5999999940395},{""page_index"":1,""viewing_time"":1516.199999988079},{""page_index"":2,""viewing_time"":2627.5},{""page_index"":3,""viewing_time"":4337.9000000059605},{""page_index"":4,""viewing_time"":2345},{""page_index"":5,""viewing_time"":5863.5},{""page_index"":6,""viewing_time"":5410.5999999940395}]","24583.5","","","tol-instructions","","","","","","","","","","","","","","","","","","","","","","","","",""
"","","","","","html-button-response","188","875869","0.0-3.0-1.1-1.1-0.1","5e6ec2818808e6486e268039","B2","batch2","","1439.199999988079","<p class=block-text> Let's answer a few questions <br>","0","tol_enter_quiz","","","","","","","","","","","","","","","","","","","","","","","","",""
"","","","","","html-button-response","189","878734","0.0-3.0-1.1-1.1-1.1","5e6ec2818808e6486e268039","B2","batch2","","2864.0999999940395","<p class = block-text>True or False: You can only move the ball on top of a peg. <br></p>","0","tol_quiz","true","","","","","","","","","","","","","","","","","","","","","","","",""
"","","","","","html-button-response","190","880509","0.0-3.0-1.1-1.1-2.1","5e6ec2818808e6486e268039","B2","batch2","","1774.9000000059605","<p class = block-text>Correct! You can only move the ball on top of a peg.</p>","0","tol_quiz_feedback","","","","","","","","","","","","","","","","","","","","","","","","",""
"","","","","","html-button-response","191","885466","0.0-3.0-1.1-1.1-3.1","5e6ec2818808e6486e268039","B2","batch2","","4956.100000023842","<p class = block-text>True or False: You should try to match your board with the target board with fewest moves possible. <br></p>","0","tol_quiz","true","","","","","","","","","","","","","","","","","","","","","","","",""
"","","","","","html-button-response","192","886545","0.0-3.0-1.1-1.1-4.1","5e6ec2818808e6486e268039","B2","batch2","","1079.0999999940395","<p class = block-text>Correct! </p>","0","tol_quiz_feedback","","","","","","","","","","","","","","","","","","","","","","","","",""
"","","","","","html-button-response","193","888992","0.0-3.0-2.0","5e6ec2818808e6486e268039","B2","batch2","","2446.5","<p class=block-text> Now that you've understood the game, let's practice a few easier examples before we start!<br> <br>","0","","","","","","","","","","","","","","","","","","","","","","","","","",""
"","","","","","single-stim-button","194","893976","0.0-3.0-3.0-0.0","5e6ec2818808e6486e268039","B2","batch2","","4983","","","tol_practice","","","","","","","","","tol_peg_2","4983","4983","0","[[1,2,0],[0,0],[0]]","1","[[1,2,0],[0,0],[3]]","practice","4983","","","","","","","",""
"","","","","","single-stim-button","195","896191","0.0-3.0-3.0-1.0","5e6ec2818808e6486e268039","B2","batch2","","2214","","","tol_practice","","","","","","","","","tol_peg_3","2214","2214","0","[[1,2,0],[0,0],[3]]","1","[[1,2,0],[0,0],[3]]","practice","2214","","","","","","","",""
"","","","","","poldrack-single-stim","196","897193","0.0-3.0-4.0","5e6ec2818808e6486e268039","B2","batch2","","-1","","","tol_feedback","true","","","","","","","","","1000","1000","500","","","","","","-1","none","true","","0","","",""
"","","","","","single-stim-button","197","901321","0.0-3.0-5.0-0.0","5e6ec2818808e6486e268039","B2","batch2","","4128","","","tol_practice","","","","","","","","","tol_peg_1","4128","4128","0","[[1,0,0],[3,0],[0]]","2","[[0,0,0],[3,1],[2]]","practice","4128","","","","","","","",""
"","","","","","single-stim-button","198","902785","0.0-3.0-5.0-1.0","5e6ec2818808e6486e268039","B2","batch2","","1463","","","tol_practice","","","","","","","","","tol_peg_3","1463","1463","0","[[1,0,0],[3,0],[2]]","2","[[0,0,0],[3,1],[2]]","practice","1463","","","","","","","",""
"","","","","","single-stim-button","199","904064","0.0-3.0-5.1-0.1","5e6ec2818808e6486e268039","B2","batch2","","1279","","","tol_practice","","","","","","","","","tol_peg_1","1279","1279","0","[[0,0,0],[3,0],[2]]","3","[[0,0,0],[3,1],[2]]","practice","1279","","","","","","","",""
"","","","","","single-stim-button","200","905178","0.0-3.0-5.1-1.1","5e6ec2818808e6486e268039","B2","batch2","","1113","","","tol_practice","","","","","","","","","tol_peg_2","1113","1113","0","[[0,0,0],[3,1],[2]]","3","[[0,0,0],[3,1],[2]]","practice","1113","","","","","","","",""
"","","","","","poldrack-single-stim","201","906179","0.0-3.0-6.0","5e6ec2818808e6486e268039","B2","batch2","","-1","","","tol_feedback","true","","","","","","","","","1000","1000","500","","","","","","-1","none","true","","0","","",""
"","","","","","single-stim-button","202","910662","0.0-3.0-7.0-0.0","5e6ec2818808e6486e268039","B2","batch2","","4483","","","tol_practice","","","","","","","","","tol_peg_2","4483","4483","0","[[1,2,0],[0,0],[0]]","4","[[1,0,0],[2,0],[3]]","practice","4483","","","","","","","",""
"","","","","","single-stim-button","203","912039","0.0-3.0-7.0-1.0","5e6ec2818808e6486e268039","B2","batch2","","1377","","","tol_practice","","","","","","","","","tol_peg_3","1377","1377","0","[[1,2,0],[0,0],[3]]","4","[[1,0,0],[2,0],[3]]","practice","1377","","","","","","","",""
"","","","","","single-stim-button","204","913376","0.0-3.0-7.1-0.1","5e6ec2818808e6486e268039","B2","batch2","","1336","","","tol_practice","","","","","","","","","tol_peg_1","1336","1336","0","[[1,0,0],[0,0],[3]]","5","[[1,0,0],[2,0],[3]]","practice","1336","","","","","","","",""
"","","","","","single-stim-button","205","914514","0.0-3.0-7.1-1.1","5e6ec2818808e6486e268039","B2","batch2","","1138","","","tol_practice","","","","","","","","","tol_peg_2","1138","1138","0","[[1,0,0],[2,0],[3]]","5","[[1,0,0],[2,0],[3]]","practice","1138","","","","","","","",""
"","","","","","poldrack-single-stim","206","915515","0.0-3.0-8.0","5e6ec2818808e6486e268039","B2","batch2","","-1","","","tol_feedback","true","","","","","","","","","1000","1000","500","","","","","","-1","none","true","","0","","",""
"","","","","","html-button-response","207","919746","0.0-3.0-9.0","5e6ec2818808e6486e268039","B2","batch2","","4230.9000000059605","<div class = centerbox><p class = center-block-text>Great job! You are done with practice trials<br>You are about to start official trials.<br> <br> Problem <strong>1</strong> out of 25 problems</p></div>","0","tol_instruction","","","","","","","","","","","","","","","","","","","","","","","","",""
"","","","","","single-stim-button","208","930524","0.0-3.0-10.0-0.0","5e6ec2818808e6486e268039","B2","batch2","","9775","","","tol_tohand","","","","","","","","","tol_peg_1","9775","9775","0","[[1,0,0],[3,0],[0]]","1","[[1,3,0],[2,0],[0]]","0","0","","","","","","3","",""
"","","","","","single-stim-button","209","932103","0.0-3.0-10.0-1.0","5e6ec2818808e6486e268039","B2","batch2","","1579","","","tol_toboard","","","","","","","","","tol_peg_3","1579","1579","0","[[1,0,0],[3,0],[2]]","1","[[1,3,0],[2,0],[0]]","0","0","","","","","","3","",""
"","","","","","single-stim-button","210","933260","0.0-3.0-10.1-0.1","5e6ec2818808e6486e268039","B2","batch2","","1157","","","tol_tohand","","","","","","","","","tol_peg_2","1157","1157","0","[[1,0,0],[0,0],[2]]","2","[[1,3,0],[2,0],[0]]","0","0","","","","","","3","",""
"","","","","","single-stim-button","211","934665","0.0-3.0-10.1-1.1","5e6ec2818808e6486e268039","B2","batch2","","1405","","","tol_toboard","","","","","","","","","tol_peg_1","1405","1405","0","[[1,3,0],[0,0],[2]]","2","[[1,3,0],[2,0],[0]]","0","0","","","","","","3","",""
"","","","","","single-stim-button","212","935944","0.0-3.0-10.2-0.2","5e6ec2818808e6486e268039","B2","batch2","","1279","","","tol_tohand","","","","","","","","","tol_peg_3","1279","1279","0","[[1,3,0],[0,0],[0]]","3","[[1,3,0],[2,0],[0]]","0","0","","","","","","3","",""
"","","","","","single-stim-button","213","937053","0.0-3.0-10.2-1.2","5e6ec2818808e6486e268039","B2","batch2","","1108","","","tol_toboard","","","","","","","","","tol_peg_2","1108","1108","0","[[1,3,0],[2,0],[0]]","3","[[1,3,0],[2,0],[0]]","0","0","","","","","","3","",""
"","","","","","poldrack-single-stim","214","938054","0.0-3.0-11.0","5e6ec2818808e6486e268039","B2","batch2","","-1","","","tol_feedback","true","","","","","","","","","1000","1000","500","","","","","","-1","none","true","9775","12211","","",""
"","","","","","html-button-response","215","939531","0.0-3.0-12.0","5e6ec2818808e6486e268039","B2","batch2","","1475.9000000059605","<div class = centerbox><p class = center-block-text>problem <strong>2</strong> out of 25 problems</p></div>","0","tol_trial_num","","","","","","","","","","","","","","","","","","","","","","","","",""
"","","","","","single-stim-button","216","947271","0.0-3.0-13.0-0.0","5e6ec2818808e6486e268039","B2","batch2","","7740","","","tol_tohand","","","","","","","","","tol_peg_1","7740","7740","0","[[1,0,0],[3,0],[0]]","1","[[2,1,3],[0,0],[0]]","1","0","","","","","","5","",""
"","","","","","single-stim-button","217","950427","0.0-3.0-13.0-1.0","5e6ec2818808e6486e268039","B2","batch2","","3155","","","tol_toboard","","","","","","","","","tol_peg_3","3155","3155","0","[[1,0,0],[3,0],[2]]","1","[[2,1,3],[0,0],[0]]","1","0","","","","","","5","",""
"","","","","","single-stim-button","218","951799","0.0-3.0-13.1-0.1","5e6ec2818808e6486e268039","B2","batch2","","1371","","","tol_tohand","","","","","","","","","tol_peg_1","1371","1371","0","[[0,0,0],[3,0],[2]]","2","[[2,1,3],[0,0],[0]]","1","0","","","","","","5","",""
"","","","","","single-stim-button","219","952909","0.0-3.0-13.1-1.1","5e6ec2818808e6486e268039","B2","batch2","","1110","","","tol_toboard","","","","","","","","","tol_peg_2","1110","1110","0","[[0,0,0],[3,1],[2]]","2","[[2,1,3],[0,0],[0]]","1","0","","","","","","5","",""
"","","","","","single-stim-button","220","953994","0.0-3.0-13.2-0.2","5e6ec2818808e6486e268039","B2","batch2","","1084","","","tol_tohand","","","","","","","","","tol_peg_3","1084","1084","0","[[0,0,0],[3,1],[0]]","3","[[2,1,3],[0,0],[0]]","1","0","","","","","","5","",""
"","","","","","single-stim-button","221","955321","0.0-3.0-13.2-1.2","5e6ec2818808e6486e268039","B2","batch2","","1327","","","tol_toboard","","","","","","","","","tol_peg_1","1327","1327","0","[[2,0,0],[3,1],[0]]","3","[[2,1,3],[0,0],[0]]","1","0","","","","","","5","",""
"","","","","","single-stim-button","222","956346","0.0-3.0-13.3-0.3","5e6ec2818808e6486e268039","B2","batch2","","1025","","","tol_tohand","","","","","","","","","tol_peg_2","1025","1025","0","[[2,0,0],[3,0],[0]]","4","[[2,1,3],[0,0],[0]]","1","0","","","","","","5","",""
"","","","","","single-stim-button","223","957480","0.0-3.0-13.3-1.3","5e6ec2818808e6486e268039","B2","batch2","","1134","","","tol_toboard","","","","","","","","","tol_peg_1","1134","1134","0","[[2,1,0],[3,0],[0]]","4","[[2,1,3],[0,0],[0]]","1","0","","","","","","5","",""
"","","","","","single-stim-button","224","958532","0.0-3.0-13.4-0.4","5e6ec2818808e6486e268039","B2","batch2","","1052","","","tol_tohand","","","","","","","","","tol_peg_2","1052","1052","0","[[2,1,0],[0,0],[0]]","5","[[2,1,3],[0,0],[0]]","1","0","","","","","","5","",""
"","","","","","single-stim-button","225","959785","0.0-3.0-13.4-1.4","5e6ec2818808e6486e268039","B2","batch2","","1252","","","tol_toboard","","","","","","","","","tol_peg_1","1252","1252","0","[[2,1,3],[0,0],[0]]","5","[[2,1,3],[0,0],[0]]","1","0","","","","","","5","",""
"","","","","","poldrack-single-stim","226","960786","0.0-3.0-14.0","5e6ec2818808e6486e268039","B2","batch2","","-1","","","tol_feedback","true","","","","","","","","","1000","1000","500","","","","","","-1","none","true","7740","12272","","",""
"","","","","","html-button-response","227","961829","0.0-3.0-15.0","5e6ec2818808e6486e268039","B2","batch2","","1042.4000000059605","<div class = centerbox><p class = center-block-text>problem <strong>3</strong> out of 25 problems</p></div>","0","tol_trial_num","","","","","","","","","","","","","","","","","","","","","","","","",""
"","","","","","single-stim-button","228","967144","0.0-3.0-16.0-0.0","5e6ec2818808e6486e268039","B2","batch2","","5314","","","tol_tohand","","","","","","","","","tol_peg_1","5314","5314","0","[[2,0,0],[0,0],[1]]","1","[[1,2,0],[3,0],[0]]","2","0","","","","","","4","",""
"","","","","","single-stim-button","229","968246","0.0-3.0-16.0-1.0","5e6ec2818808e6486e268039","B2","batch2","","1102","","","tol_toboard","","","","","","","","","tol_peg_2","1102","1102","0","[[2,0,0],[3,0],[1]]","1","[[1,2,0],[3,0],[0]]","2","0","","","","","","4","",""
"","","","","","single-stim-button","230","970392","0.0-3.0-16.1-0.1","5e6ec2818808e6486e268039","B2","batch2","","2146","","","tol_tohand","","","","","","","","","tol_peg_1","2146","2146","0","[[0,0,0],[3,0],[1]]","2","[[1,2,0],[3,0],[0]]","2","0","","","","","","4","",""
"","","","","","single-stim-button","231","971451","0.0-3.0-16.1-1.1","5e6ec2818808e6486e268039","B2","batch2","","1058","","","tol_toboard","","","","","","","","","tol_peg_2","1058","1058","0","[[0,0,0],[3,2],[1]]","2","[[1,2,0],[3,0],[0]]","2","0","","","","","","4","",""
"","","","","","single-stim-button","232","972558","0.0-3.0-16.2-0.2","5e6ec2818808e6486e268039","B2","batch2","","1107","","","tol_tohand","","","","","","","","","tol_peg_3","1107","1107","0","[[0,0,0],[3,2],[0]]","3","[[1,2,0],[3,0],[0]]","2","0","","","","","","4","",""
"","","","","","single-stim-button","233","973854","0.0-3.0-16.2-1.2","5e6ec2818808e6486e268039","B2","batch2","","1296","","","tol_toboard","","","","","","","","","tol_peg_1","1296","1296","0","[[1,0,0],[3,2],[0]]","3","[[1,2,0],[3,0],[0]]","2","0","","","","","","4","",""
"","","","","","single-stim-button","234","974864","0.0-3.0-16.3-0.3","5e6ec2818808e6486e268039","B2","batch2","","1010","","","tol_tohand","","","","","","","","","tol_peg_2","1010","1010","0","[[1,0,0],[3,0],[0]]","4","[[1,2,0],[3,0],[0]]","2","0","","","","","","4","",""
"","","","","","single-stim-button","235","975907","0.0-3.0-16.3-1.3","5e6ec2818808e6486e268039","B2","batch2","","1042","","","tol_toboard","","","","","","","","","tol_peg_1","1042","1042","0","[[1,2,0],[3,0],[0]]","4","[[1,2,0],[3,0],[0]]","2","0","","","","","","4","",""
"","","","","","poldrack-single-stim","236","976908","0.0-3.0-17.0","5e6ec2818808e6486e268039","B2","batch2","","-1","","","tol_feedback","true","","","","","","","","","1000","1000","500","","","","","","-1","none","true","5314","9577","","",""
"","","","","","html-button-response","237","978198","0.0-3.0-18.0","5e6ec2818808e6486e268039","B2","batch2","","1289","<div class = centerbox><p class = center-block-text>problem <strong>4</strong> out of 25 problems</p></div>","0","tol_trial_num","","","","","","","","","","","","","","","","","","","","","","","","",""
"","","","","","single-stim-button","238","985651","0.0-3.0-19.0-0.0","5e6ec2818808e6486e268039","B2","batch2","","7453","","","tol_tohand","","","","","","","","","tol_peg_2","7453","7453","0","[[3,0,0],[2,0],[0]]","1","[[3,0,0],[1,0],[2]]","3","0","","","","","","3","",""
"","","","","","single-stim-button","239","986880","0.0-3.0-19.0-1.0","5e6ec2818808e6486e268039","B2","batch2","","1229","","","tol_toboard","","","","","","","","","tol_peg_1","1229","1229","0","[[3,1,0],[2,0],[0]]","1","[[3,0,0],[1,0],[2]]","3","0","","","","","","3","",""
"","","","","","single-stim-button","240","988012","0.0-3.0-19.1-0.1","5e6ec2818808e6486e268039","B2","batch2","","1132","","","tol_tohand","","","","","","","","","tol_peg_2","1132","1132","0","[[3,1,0],[0,0],[0]]","2","[[3,0,0],[1,0],[2]]","3","0","","","","","","3","",""
"","","","","","single-stim-button","241","989225","0.0-3.0-19.1-1.1","5e6ec2818808e6486e268039","B2","batch2","","1213","","","tol_toboard","","","","","","","","","tol_peg_3","1213","1213","0","[[3,1,0],[0,0],[2]]","2","[[3,0,0],[1,0],[2]]","3","0","","","","","","3","",""
"","","","","","single-stim-button","242","990413","0.0-3.0-19.2-0.2","5e6ec2818808e6486e268039","B2","batch2","","1188","","","tol_tohand","","","","","","","","","tol_peg_1","1188","1188","0","[[3,0,0],[0,0],[2]]","3","[[3,0,0],[1,0],[2]]","3","0","","","","","","3","",""
"","","","","","single-stim-button","243","991600","0.0-3.0-19.2-1.2","5e6ec2818808e6486e268039","B2","batch2","","1186","","","tol_toboard","","","","","","","","","tol_peg_2","1186","1186","0","[[3,0,0],[1,0],[2]]","3","[[3,0,0],[1,0],[2]]","3","0","","","","","","3","",""
"","","","","","poldrack-single-stim","244","992601","0.0-3.0-20.0","5e6ec2818808e6486e268039","B2","batch2","","-1","","","tol_feedback","true","","","","","","","","","1000","1000","500","","","","","","-1","none","true","7453","9773","","",""
"","","","","","html-button-response","245","993623","0.0-3.0-21.0","5e6ec2818808e6486e268039","B2","batch2","","1021.6999999880791","<div class = centerbox><p class = center-block-text>problem <strong>5</strong> out of 25 problems</p></div>","0","tol_trial_num","","","","","","","","","","","","","","","","","","","","","","","","",""
"","","","","","single-stim-button","246","1023032","0.0-3.0-22.0-0.0","5e6ec2818808e6486e268039","B2","batch2","","29409","","","tol_tohand","","","","","","","","","tol_peg_3","29409","29409","0","[[1,0,0],[2,0],[0]]","1","[[0,0,0],[1,2],[3]]","4","0","","","","","","7","",""
"","","","","","single-stim-button","247","1024245","0.0-3.0-22.0-1.0","5e6ec2818808e6486e268039","B2","batch2","","1213","","","tol_toboard","","","","","","","","","tol_peg_2","1213","1213","0","[[1,0,0],[2,3],[0]]","1","[[0,0,0],[1,2],[3]]","4","0","","","","","","7","",""
"","","","","","single-stim-button","248","1026836","0.0-3.0-22.1-0.1","5e6ec2818808e6486e268039","B2","batch2","","2591","","","tol_tohand","","","","","","","","","tol_peg_1","2591","2591","0","[[0,0,0],[2,3],[0]]","2","[[0,0,0],[1,2],[3]]","4","0","","","","","","7","",""
"","","","","","single-stim-button","249","1029998","0.0-3.0-22.1-1.1","5e6ec2818808e6486e268039","B2","batch2","","3162","","","tol_toboard","","","","","","","","","tol_peg_3","3162","3162","0","[[0,0,0],[2,3],[1]]","2","[[0,0,0],[1,2],[3]]","4","0","","","","","","7","",""
"","","","","","single-stim-button","250","1034023","0.0-3.0-22.2-0.2","5e6ec2818808e6486e268039","B2","batch2","","4024","","","tol_tohand","","","","","","","","","tol_peg_2","4024","4024","0","[[0,0,0],[2,0],[1]]","3","[[0,0,0],[1,2],[3]]","4","0","","","","","","7","",""
"","","","","","single-stim-button","251","1036254","0.0-3.0-22.2-1.2","5e6ec2818808e6486e268039","B2","batch2","","2231","","","tol_toboard","","","","","","","","","tol_peg_1","2231","2231","0","[[3,0,0],[2,0],[1]]","3","[[0,0,0],[1,2],[3]]","4","0","","","","","","7","",""
"","","","","","single-stim-button","252","1037467","0.0-3.0-22.3-0.3","5e6ec2818808e6486e268039","B2","batch2","","1213","","","tol_tohand","","","","","","","","","tol_peg_2","1213","1213","0","[[3,0,0],[0,0],[1]]","4","[[0,0,0],[1,2],[3]]","4","0","","","","","","7","",""
"","","","","","single-stim-button","253","1038556","0.0-3.0-22.3-1.3","5e6ec2818808e6486e268039","B2","batch2","","1089","","","tol_toboard","","","","","","","","","tol_peg_1","1089","1089","0","[[3,2,0],[0,0],[1]]","4","[[0,0,0],[1,2],[3]]","4","0","","","","","","7","",""
"","","","","","single-stim-button","254","1039974","0.0-3.0-22.4-0.4","5e6ec2818808e6486e268039","B2","batch2","","1417","","","tol_tohand","","","","","","","","","tol_peg_3","1417","1417","0","[[3,2,0],[0,0],[0]]","5","[[0,0,0],[1,2],[3]]","4","0","","","","","","7","",""
"","","","","","single-stim-button","255","1041143","0.0-3.0-22.4-1.4","5e6ec2818808e6486e268039","B2","batch2","","1168","","","tol_toboard","","","","","","","","","tol_peg_2","1168","1168","0","[[3,2,0],[1,0],[0]]","5","[[0,0,0],[1,2],[3]]","4","0","","","","","","7","",""
"","","","","","single-stim-button","256","1042164","0.0-3.0-22.5-0.5","5e6ec2818808e6486e268039","B2","batch2","","1020","","","tol_tohand","","","","","","","","","tol_peg_1","1020","1020","0","[[3,0,0],[1,0],[0]]","6","[[0,0,0],[1,2],[3]]","4","0","","","","","","7","",""
"","","","","","single-stim-button","257","1043236","0.0-3.0-22.5-1.5","5e6ec2818808e6486e268039","B2","batch2","","1072","","","tol_toboard","","","","","","","","","tol_peg_2","1072","1072","0","[[3,0,0],[1,2],[0]]","6","[[0,0,0],[1,2],[3]]","4","0","","","","","","7","",""
"","","","","","single-stim-button","258","1044341","0.0-3.0-22.6-0.6","5e6ec2818808e6486e268039","B2","batch2","","1104","","","tol_tohand","","","","","","","","","tol_peg_1","1104","1104","0","[[0,0,0],[1,2],[0]]","7","[[0,0,0],[1,2],[3]]","4","0","","","","","","7","",""
"","","","","","single-stim-button","259","1045558","0.0-3.0-22.6-1.6","5e6ec2818808e6486e268039","B2","batch2","","1217","","","tol_toboard","","","","","","","","","tol_peg_3","1217","1217","0","[[0,0,0],[1,2],[3]]","7","[[0,0,0],[1,2],[3]]","4","0","","","","","","7","",""
"","","","","","poldrack-single-stim","260","1046559","0.0-3.0-23.0","5e6ec2818808e6486e268039","B2","batch2","","-1","","","tol_feedback","true","","","","","","","","","1000","1000","500","","","","","","-1","none","true","29409","40778","","",""
"","","","","","html-button-response","261","1049475","0.0-3.0-24.0","5e6ec2818808e6486e268039","B2","batch2","","2915.2999999821186","<div class = centerbox><p class = center-block-text>problem <strong>6</strong> out of 25 problems</p></div>","0","tol_trial_num","","","","","","","","","","","","","","","","","","","","","","","","",""
"","","","","","single-stim-button","262","1071218","0.0-3.0-25.0-0.0","5e6ec2818808e6486e268039","B2","batch2","","21742","","","tol_tohand","","","","","","","","","tol_peg_3","21742","21742","0","[[0,0,0],[1,2],[0]]","1","[[1,0,0],[2,3],[0]]","5","0","","","","","","6","",""
"","","","","","single-stim-button","263","1085505","0.0-3.0-25.0-1.0","5e6ec2818808e6486e268039","B2","batch2","","14287","","","tol_toboard","","","","","","","","","tol_peg_1","14287","14287","0","[[3,0,0],[1,2],[0]]","1","[[1,0,0],[2,3],[0]]","5","0","","","","","","6","",""
"","","","","","single-stim-button","264","1086501","0.0-3.0-25.1-0.1","5e6ec2818808e6486e268039","B2","batch2","","995","","","tol_tohand","","","","","","","","","tol_peg_2","995","995","0","[[3,0,0],[1,0],[0]]","2","[[1,0,0],[2,3],[0]]","5","0","","","","","","6","",""
"","","","","","single-stim-button","265","1087699","0.0-3.0-25.1-1.1","5e6ec2818808e6486e268039","B2","batch2","","1198","","","tol_toboard","","","","","","","","","tol_peg_3","1198","1198","0","[[3,0,0],[1,0],[2]]","2","[[1,0,0],[2,3],[0]]","5","0","","","","","","6","",""
"","","","","","single-stim-button","266","1088905","0.0-3.0-25.2-0.2","5e6ec2818808e6486e268039","B2","batch2","","1205","","","tol_tohand","","","","","","","","","tol_peg_2","1205","1205","0","[[3,0,0],[0,0],[2]]","3","[[1,0,0],[2,3],[0]]","5","0","","","","","","6","",""
"","","","","","single-stim-button","267","1090109","0.0-3.0-25.2-1.2","5e6ec2818808e6486e268039","B2","batch2","","1203","","","tol_toboard","","","","","","","","","tol_peg_1","1203","1203","0","[[3,1,0],[0,0],[2]]","3","[[1,0,0],[2,3],[0]]","5","0","","","","","","6","",""
"","","","","","single-stim-button","268","1091301","0.0-3.0-25.3-0.3","5e6ec2818808e6486e268039","B2","batch2","","1192","","","tol_tohand","","","","","","","","","tol_peg_3","1192","1192","0","[[3,1,0],[0,0],[0]]","4","[[1,0,0],[2,3],[0]]","5","0","","","","","","6","",""
"","","","","","single-stim-button","269","1092484","0.0-3.0-25.3-1.3","5e6ec2818808e6486e268039","B2","batch2","","1181","","","tol_toboard","","","","","","","","","tol_peg_2","1181","1181","0","[[3,1,0],[2,0],[0]]","4","[[1,0,0],[2,3],[0]]","5","0","","","","","","6","",""
"","","","","","single-stim-button","270","1094754","0.0-3.0-25.4-0.4","5e6ec2818808e6486e268039","B2","batch2","","2270","","","tol_tohand","","","","","","","","","tol_peg_1","2270","2270","0","[[3,0,0],[2,0],[0]]","5","[[1,0,0],[2,3],[0]]","5","0","","","","","","6","",""
"","","","","","single-stim-button","271","1095827","0.0-3.0-25.4-1.4","5e6ec2818808e6486e268039","B2","batch2","","1073","","","tol_toboard","","","","","","","","","tol_peg_3","1073","1073","0","[[3,0,0],[2,0],[1]]","5","[[1,0,0],[2,3],[0]]","5","0","","","","","","6","",""
"","","","","","single-stim-button","272","1097149","0.0-3.0-25.5-0.5","5e6ec2818808e6486e268039","B2","batch2","","1321","","","tol_tohand","","","","","","","","","tol_peg_1","1321","1321","0","[[0,0,0],[2,0],[1]]","6","[[1,0,0],[2,3],[0]]","5","0","","","","","","6","",""
"","","","","","single-stim-button","273","1098195","0.0-3.0-25.5-1.5","5e6ec2818808e6486e268039","B2","batch2","","1046","","","tol_toboard","","","","","","","","","tol_peg_2","1046","1046","0","[[0,0,0],[2,3],[1]]","6","[[1,0,0],[2,3],[0]]","5","0","","","","","","6","",""
"","","","","","single-stim-button","274","1099322","0.0-3.0-25.6-0.6","5e6ec2818808e6486e268039","B2","batch2","","1127","","","tol_tohand","","","","","","","","","tol_peg_3","1127","1127","0","[[0,0,0],[2,3],[0]]","7","[[1,0,0],[2,3],[0]]","5","0","","","","","","6","",""
"","","","","","single-stim-button","275","1100505","0.0-3.0-25.6-1.6","5e6ec2818808e6486e268039","B2","batch2","","1183","","","tol_toboard","","","","","","","","","tol_peg_1","1183","1183","0","[[1,0,0],[2,3],[0]]","7","[[1,0,0],[2,3],[0]]","5","0","","","","","","6","",""
"","","","","","poldrack-single-stim","276","1101505","0.0-3.0-26.0","5e6ec2818808e6486e268039","B2","batch2","","-1","","","tol_feedback","true","","","","","","","","","1000","1000","500","","","","","","-1","none","true","21742","29852","","",""
"","","","","","html-button-response","277","1102596","0.0-3.0-27.0","5e6ec2818808e6486e268039","B2","batch2","","1090.6000000238419","<div class = centerbox><p class = center-block-text>problem <strong>7</strong> out of 25 problems</p></div>","0","tol_trial_num","","","","","","","","","","","","","","","","","","","","","","","","",""
"","","","","","single-stim-button","278","1109377","0.0-3.0-28.0-0.0","5e6ec2818808e6486e268039","B2","batch2","","6780","","","tol_tohand","","","","","","","","","tol_peg_3","6780","6780","0","[[2,1,0],[0,0],[0]]","1","[[1,2,0],[3,0],[0]]","6","0","","","","","","5","",""
"","","","","","single-stim-button","279","1110456","0.0-3.0-28.0-1.0","5e6ec2818808e6486e268039","B2","batch2","","1079","","","tol_toboard","","","","","","","","","tol_peg_2","1079","1079","0","[[2,1,0],[3,0],[0]]","1","[[1,2,0],[3,0],[0]]","6","0","","","","","","5","",""
"","","","","","single-stim-button","280","1115821","0.0-3.0-28.1-0.1","5e6ec2818808e6486e268039","B2","batch2","","5365","","","tol_tohand","","","","","","","","","tol_peg_1","5365","5365","0","[[2,0,0],[3,0],[0]]","2","[[1,2,0],[3,0],[0]]","6","0","","","","","","5","",""
"","","","","","single-stim-button","281","1117010","0.0-3.0-28.1-1.1","5e6ec2818808e6486e268039","B2","batch2","","1188","","","tol_toboard","","","","","","","","","tol_peg_2","1188","1188","0","[[2,0,0],[3,1],[0]]","2","[[1,2,0],[3,0],[0]]","6","0","","","","","","5","",""
"","","","","","single-stim-button","282","1118430","0.0-3.0-28.2-0.2","5e6ec2818808e6486e268039","B2","batch2","","1419","","","tol_tohand","","","","","","","","","tol_peg_1","1419","1419","0","[[0,0,0],[3,1],[0]]","3","[[1,2,0],[3,0],[0]]","6","0","","","","","","5","",""
"","","","","","single-stim-button","283","1119777","0.0-3.0-28.2-1.2","5e6ec2818808e6486e268039","B2","batch2","","1347","","","tol_toboard","","","","","","","","","tol_peg_3","1347","1347","0","[[0,0,0],[3,1],[2]]","3","[[1,2,0],[3,0],[0]]","6","0","","","","","","5","",""
"","","","","","single-stim-button","284","1121269","0.0-3.0-28.3-0.3","5e6ec2818808e6486e268039","B2","batch2","","1492","","","tol_tohand","","","","","","","","","tol_peg_2","1492","1492","0","[[0,0,0],[3,0],[2]]","4","[[1,2,0],[3,0],[0]]","6","0","","","","","","5","",""
"","","","","","single-stim-button","285","1122404","0.0-3.0-28.3-1.3","5e6ec2818808e6486e268039","B2","batch2","","1134","","","tol_toboard","","","","","","","","","tol_peg_1","1134","1134","0","[[1,0,0],[3,0],[2]]","4","[[1,2,0],[3,0],[0]]","6","0","","","","","","5","",""
"","","","","","single-stim-button","286","1123446","0.0-3.0-28.4-0.4","5e6ec2818808e6486e268039","B2","batch2","","1042","","","tol_tohand","","","","","","","","","tol_peg_3","1042","1042","0","[[1,0,0],[3,0],[0]]","5","[[1,2,0],[3,0],[0]]","6","0","","","","","","5","",""
"","","","","","single-stim-button","287","1124630","0.0-3.0-28.4-1.4","5e6ec2818808e6486e268039","B2","batch2","","1183","","","tol_toboard","","","","","","","","","tol_peg_1","1183","1183","0","[[1,2,0],[3,0],[0]]","5","[[1,2,0],[3,0],[0]]","6","0","","","","","","5","",""
"","","","","","poldrack-single-stim","288","1125631","0.0-3.0-29.0","5e6ec2818808e6486e268039","B2","batch2","","-1","","","tol_feedback","true","","","","","","","","","1000","1000","500","","","","","","-1","none","true","6780","16098","","",""
"","","","","","html-button-response","289","1126574","0.0-3.0-30.0","5e6ec2818808e6486e268039","B2","batch2","","942.5999999940395","<div class = centerbox><p class = center-block-text>problem <strong>8</strong> out of 25 problems</p></div>","0","tol_trial_num","","","","","","","","","","","","","","","","","","","","","","","","",""
"","","","","","single-stim-button","290","1131627","0.0-3.0-31.0-0.0","5e6ec2818808e6486e268039","B2","batch2","","5053","","","tol_tohand","","","","","","","","","tol_peg_3","5053","5053","0","[[0,0,0],[2,3],[0]]","1","[[1,2,0],[3,0],[0]]","7","0","","","","","","4","",""
"","","","","","single-stim-button","291","1132875","0.0-3.0-31.0-1.0","5e6ec2818808e6486e268039","B2","batch2","","1247","","","tol_toboard","","","","","","","","","tol_peg_1","1247","1247","0","[[1,0,0],[2,3],[0]]","1","[[1,2,0],[3,0],[0]]","7","0","","","","","","4","",""
"","","","","","single-stim-button","292","1134650","0.0-3.0-31.1-0.1","5e6ec2818808e6486e268039","B2","batch2","","1774","","","tol_tohand","","","","","","","","","tol_peg_2","1774","1774","0","[[1,0,0],[2,0],[0]]","2","[[1,2,0],[3,0],[0]]","7","0","","","","","","4","",""
"","","","","","single-stim-button","293","1135886","0.0-3.0-31.1-1.1","5e6ec2818808e6486e268039","B2","batch2","","1235","","","tol_toboard","","","","","","","","","tol_peg_3","1235","1235","0","[[1,0,0],[2,0],[3]]","2","[[1,2,0],[3,0],[0]]","7","0","","","","","","4","",""
"","","","","","single-stim-button","294","1136885","0.0-3.0-31.2-0.2","5e6ec2818808e6486e268039","B2","batch2","","999","","","tol_tohand","","","","","","","","","tol_peg_2","999","999","0","[[1,0,0],[0,0],[3]]","3","[[1,2,0],[3,0],[0]]","7","0","","","","","","4","",""
"","","","","","single-stim-button","295","1137977","0.0-3.0-31.2-1.2","5e6ec2818808e6486e268039","B2","batch2","","1092","","","tol_toboard","","","","","","","","","tol_peg_1","1092","1092","0","[[1,2,0],[0,0],[3]]","3","[[1,2,0],[3,0],[0]]","7","0","","","","","","4","",""
"","","","","","single-stim-button","296","1138987","0.0-3.0-31.3-0.3","5e6ec2818808e6486e268039","B2","batch2","","1010","","","tol_tohand","","","","","","","","","tol_peg_3","1010","1010","0","[[1,2,0],[0,0],[0]]","4","[[1,2,0],[3,0],[0]]","7","0","","","","","","4","",""
"","","","","","single-stim-button","297","1140091","0.0-3.0-31.3-1.3","5e6ec2818808e6486e268039","B2","batch2","","1104","","","tol_toboard","","","","","","","","","tol_peg_2","1104","1104","0","[[1,2,0],[3,0],[0]]","4","[[1,2,0],[3,0],[0]]","7","0","","","","","","4","",""
"","","","","","poldrack-single-stim","298","1141092","0.0-3.0-32.0","5e6ec2818808e6486e268039","B2","batch2","","-1","","","tol_feedback","true","","","","","","","","","1000","1000","500","","","","","","-1","none","true","5053","8836","","",""
"","","","","","html-button-response","299","1142245","0.0-3.0-33.0","5e6ec2818808e6486e268039","B2","batch2","","1151.7999999821186","<div class = centerbox><p class = center-block-text>problem <strong>9</strong> out of 25 problems</p></div>","0","tol_trial_num","","","","","","","","","","","","","","","","","","","","","","","","",""
"","","","","","single-stim-button","300","1171603","0.0-3.0-34.0-0.0","5e6ec2818808e6486e268039","B2","batch2","","29358","","","tol_tohand","","","","","","","","","tol_peg_3","29358","29358","0","[[3,2,0],[0,0],[0]]","1","[[2,1,0],[3,0],[0]]","8","0","","","","","","6","",""
"","","","","","single-stim-button","301","1172667","0.0-3.0-34.0-1.0","5e6ec2818808e6486e268039","B2","batch2","","1063","","","tol_toboard","","","","","","","","","tol_peg_2","1063","1063","0","[[3,2,0],[1,0],[0]]","1","[[2,1,0],[3,0],[0]]","8","0","","","","","","6","",""
"","","","","","single-stim-button","302","1173777","0.0-3.0-34.1-0.1","5e6ec2818808e6486e268039","B2","batch2","","1109","","","tol_tohand","","","","","","","","","tol_peg_1","1109","1109","0","[[3,0,0],[1,0],[0]]","2","[[2,1,0],[3,0],[0]]","8","0","","","","","","6","",""
"","","","","","single-stim-button","303","1177573","0.0-3.0-34.1-1.1","5e6ec2818808e6486e268039","B2","batch2","","3796","","","tol_toboard","","","","","","","","","tol_peg_2","3796","3796","0","[[3,0,0],[1,2],[0]]","2","[[2,1,0],[3,0],[0]]","8","0","","","","","","6","",""
"","","","","","single-stim-button","304","1178679","0.0-3.0-34.2-0.2","5e6ec2818808e6486e268039","B2","batch2","","1106","","","tol_tohand","","","","","","","","","tol_peg_1","1106","1106","0","[[0,0,0],[1,2],[0]]","3","[[2,1,0],[3,0],[0]]","8","0","","","","","","6","",""
"","","","","","single-stim-button","305","1179814","0.0-3.0-34.2-1.2","5e6ec2818808e6486e268039","B2","batch2","","1134","","","tol_toboard","","","","","","","","","tol_peg_3","1134","1134","0","[[0,0,0],[1,2],[3]]","3","[[2,1,0],[3,0],[0]]","8","0","","","","","","6","",""
"","","","","","single-stim-button","306","1180888","0.0-3.0-34.3-0.3","5e6ec2818808e6486e268039","B2","batch2","","1073","","","tol_tohand","","","","","","","","","tol_peg_2","1073","1073","0","[[0,0,0],[1,0],[3]]","4","[[2,1,0],[3,0],[0]]","8","0","","","","","","6","",""
"","","","","","single-stim-button","307","1181944","0.0-3.0-34.3-1.3","5e6ec2818808e6486e268039","B2","batch2","","1055","","","tol_toboard","","","","","","","","","tol_peg_1","1055","1055","0","[[2,0,0],[1,0],[3]]","4","[[2,1,0],[3,0],[0]]","8","0","","","","","","6","",""
"","","","","","single-stim-button","308","1182897","0.0-3.0-34.4-0.4","5e6ec2818808e6486e268039","B2","batch2","","952","","","tol_tohand","","","","","","","","","tol_peg_2","952","952","0","[[2,0,0],[0,0],[3]]","5","[[2,1,0],[3,0],[0]]","8","0","","","","","","6","",""
"","","","","","single-stim-button","309","1183865","0.0-3.0-34.4-1.4","5e6ec2818808e6486e268039","B2","batch2","","967","","","tol_toboard","","","","","","","","","tol_peg_1","967","967","0","[[2,1,0],[0,0],[3]]","5","[[2,1,0],[3,0],[0]]","8","0","","","","","","6","",""
"","","","","","single-stim-button","310","1184844","0.0-3.0-34.5-0.5","5e6ec2818808e6486e268039","B2","batch2","","979","","","tol_tohand","","","","","","","","","tol_peg_3","979","979","0","[[2,1,0],[0,0],[0]]","6","[[2,1,0],[3,0],[0]]","8","0","","","","","","6","",""
"","","","","","single-stim-button","311","1185869","0.0-3.0-34.5-1.5","5e6ec2818808e6486e268039","B2","batch2","","1024","","","tol_toboard","","","","","","","","","tol_peg_2","1024","1024","0","[[2,1,0],[3,0],[0]]","6","[[2,1,0],[3,0],[0]]","8","0","","","","","","6","",""
"","","","","","poldrack-single-stim","312","1186870","0.0-3.0-35.0","5e6ec2818808e6486e268039","B2","batch2","","-1","","","tol_feedback","true","","","","","","","","","1000","1000","500","","","","","","-1","none","true","29358","34577","","",""
"","","","","","html-button-response","313","1187927","0.0-3.0-36.0","5e6ec2818808e6486e268039","B2","batch2","","1056.0999999940395","<div class = centerbox><p class = center-block-text>problem <strong>10</strong> out of 25 problems</p></div>","0","tol_trial_num","","","","","","","","","","","","","","","","","","","","","","","","",""
"","","","","","single-stim-button","314","1204065","0.0-3.0-37.0-0.0","5e6ec2818808e6486e268039","B2","batch2","","16138","","","tol_tohand","","","","","","","","","tol_peg_2","16138","16138","0","[[3,0,0],[0,0],[2]]","1","[[3,0,0],[2,1],[0]]","9","0","","","","","","3","",""
"","","","","","single-stim-button","315","1204934","0.0-3.0-37.0-1.0","5e6ec2818808e6486e268039","B2","batch2","","868","","","tol_toboard","","","","","","","","","tol_peg_1","868","868","0","[[3,1,0],[0,0],[2]]","1","[[3,0,0],[2,1],[0]]","9","0","","","","","","3","",""
"","","","","","single-stim-button","316","1205898","0.0-3.0-37.1-0.1","5e6ec2818808e6486e268039","B2","batch2","","963","","","tol_tohand","","","","","","","","","tol_peg_3","963","963","0","[[3,1,0],[0,0],[0]]","2","[[3,0,0],[2,1],[0]]","9","0","","","","","","3","",""
"","","","","","single-stim-button","317","1207451","0.0-3.0-37.1-1.1","5e6ec2818808e6486e268039","B2","batch2","","1552","","","tol_toboard","","","","","","","","","tol_peg_2","1552","1552","0","[[3,1,0],[2,0],[0]]","2","[[3,0,0],[2,1],[0]]","9","0","","","","","","3","",""
"","","","","","single-stim-button","318","1208598","0.0-3.0-37.2-0.2","5e6ec2818808e6486e268039","B2","batch2","","1147","","","tol_tohand","","","","","","","","","tol_peg_1","1147","1147","0","[[3,0,0],[2,0],[0]]","3","[[3,0,0],[2,1],[0]]","9","0","","","","","","3","",""
"","","","","","single-stim-button","319","1209796","0.0-3.0-37.2-1.2","5e6ec2818808e6486e268039","B2","batch2","","1198","","","tol_toboard","","","","","","","","","tol_peg_2","1198","1198","0","[[3,0,0],[2,1],[0]]","3","[[3,0,0],[2,1],[0]]","9","0","","","","","","3","",""
"","","","","","poldrack-single-stim","320","1210797","0.0-3.0-38.0","5e6ec2818808e6486e268039","B2","batch2","","-1","","","tol_feedback","true","","","","","","","","","1000","1000","500","","","","","","-1","none","true","16138","18248","","",""
"","","","","","html-button-response","321","1211939","0.0-3.0-39.0","5e6ec2818808e6486e268039","B2","batch2","","1142.2000000178814","<div class = centerbox><p class = center-block-text>problem <strong>11</strong> out of 25 problems</p></div>","0","tol_trial_num","","","","","","","","","","","","","","","","","","","","","","","","",""
"","","","","","single-stim-button","322","1218603","0.0-3.0-40.0-0.0","5e6ec2818808e6486e268039","B2","batch2","","6663","","","tol_tohand","","","","","","","","","tol_peg_2","6663","6663","0","[[1,2,0],[0,0],[0]]","1","[[2,0,0],[1,3],[0]]","10","0","","","","","","6","",""
"","","","","","single-stim-button","323","1244257","0.0-3.0-40.0-1.0","5e6ec2818808e6486e268039","B2","batch2","","25654","","","tol_toboard","","","","","","","","","tol_peg_2","25654","25654","0","[[1,2,0],[3,0],[0]]","1","[[2,0,0],[1,3],[0]]","10","0","","","","","","6","",""
"","","","","","single-stim-button","324","1256883","0.0-3.0-40.1-0.1","5e6ec2818808e6486e268039","B2","batch2","","12625","","","tol_tohand","","","","","","","","","tol_peg_1","12625","12625","0","[[1,0,0],[3,0],[0]]","2","[[2,0,0],[1,3],[0]]","10","0","","","","","","6","",""
"","","","","","single-stim-button","325","1257983","0.0-3.0-40.1-1.1","5e6ec2818808e6486e268039","B2","batch2","","1099","","","tol_toboard","","","","","","","","","tol_peg_3","1099","1099","0","[[1,0,0],[3,0],[2]]","2","[[2,0,0],[1,3],[0]]","10","0","","","","","","6","",""
"","","","","","single-stim-button","326","1259326","0.0-3.0-40.2-0.2","5e6ec2818808e6486e268039","B2","batch2","","1342","","","tol_tohand","","","","","","","","","tol_peg_1","1342","1342","0","[[0,0,0],[3,0],[2]]","3","[[2,0,0],[1,3],[0]]","10","0","","","","","","6","",""
"","","","","","single-stim-button","327","1260335","0.0-3.0-40.2-1.2","5e6ec2818808e6486e268039","B2","batch2","","1009","","","tol_toboard","","","","","","","","","tol_peg_2","1009","1009","0","[[0,0,0],[3,1],[2]]","3","[[2,0,0],[1,3],[0]]","10","0","","","","","","6","",""
"","","","","","single-stim-button","328","1261268","0.0-3.0-40.3-0.3","5e6ec2818808e6486e268039","B2","batch2","","932","","","tol_tohand","","","","","","","","","tol_peg_3","932","932","0","[[0,0,0],[3,1],[0]]","4","[[2,0,0],[1,3],[0]]","10","0","","","","","","6","",""
"","","","","","single-stim-button","329","1262438","0.0-3.0-40.3-1.3","5e6ec2818808e6486e268039","B2","batch2","","1170","","","tol_toboard","","","","","","","","","tol_peg_1","1170","1170","0","[[2,0,0],[3,1],[0]]","4","[[2,0,0],[1,3],[0]]","10","0","","","","","","6","",""
"","","","","","single-stim-button","330","1264557","0.0-3.0-40.4-0.4","5e6ec2818808e6486e268039","B2","batch2","","2119","","","tol_tohand","","","","","","","","","tol_peg_2","2119","2119","0","[[2,0,0],[3,0],[0]]","5","[[2,0,0],[1,3],[0]]","10","0","","","","","","6","",""
"","","","","","single-stim-button","331","1265711","0.0-3.0-40.4-1.4","5e6ec2818808e6486e268039","B2","batch2","","1153","","","tol_toboard","","","","","","","","","tol_peg_3","1153","1153","0","[[2,0,0],[3,0],[1]]","5","[[2,0,0],[1,3],[0]]","10","0","","","","","","6","",""
"","","","","","single-stim-button","332","1266921","0.0-3.0-40.5-0.5","5e6ec2818808e6486e268039","B2","batch2","","1210","","","tol_tohand","","","","","","","","","tol_peg_2","1210","1210","0","[[2,0,0],[0,0],[1]]","6","[[2,0,0],[1,3],[0]]","10","0","","","","","","6","",""
"","","","","","single-stim-button","333","1267936","0.0-3.0-40.5-1.5","5e6ec2818808e6486e268039","B2","batch2","","1014","","","tol_toboard","","","","","","","","","tol_peg_1","1014","1014","0","[[2,3,0],[0,0],[1]]","6","[[2,0,0],[1,3],[0]]","10","0","","","","","","6","",""
"","","","","","single-stim-button","334","1268852","0.0-3.0-40.6-0.6","5e6ec2818808e6486e268039","B2","batch2","","915","","","tol_tohand","","","","","","","","","tol_peg_3","915","915","0","[[2,3,0],[0,0],[0]]","7","[[2,0,0],[1,3],[0]]","10","0","","","","","","6","",""
"","","","","","single-stim-button","335","1270018","0.0-3.0-40.6-1.6","5e6ec2818808e6486e268039","B2","batch2","","1165","","","tol_toboard","","","","","","","","","tol_peg_2","1165","1165","0","[[2,3,0],[1,0],[0]]","7","[[2,0,0],[1,3],[0]]","10","0","","","","","","6","",""
"","","","","","single-stim-button","336","1270906","0.0-3.0-40.7-0.7","5e6ec2818808e6486e268039","B2","batch2","","886","","","tol_tohand","","","","","","","","","tol_peg_1","886","886","0","[[2,0,0],[1,0],[0]]","8","[[2,0,0],[1,3],[0]]","10","0","","","","","","6","",""
"","","","","","single-stim-button","337","1271854","0.0-3.0-40.7-1.7","5e6ec2818808e6486e268039","B2","batch2","","948","","","tol_toboard","","","","","","","","","tol_peg_2","948","948","0","[[2,0,0],[1,3],[0]]","8","[[2,0,0],[1,3],[0]]","10","0","","","","","","6","",""
"","","","","","poldrack-single-stim","338","1272855","0.0-3.0-41.0","5e6ec2818808e6486e268039","B2","batch2","","-1","","","tol_feedback","true","","","","","","","","","1000","1000","500","","","","","","-1","none","true","6663","26692","","",""
"","","","","","html-button-response","339","1274414","0.0-3.0-42.0","5e6ec2818808e6486e268039","B2","batch2","","1558.7000000178814","<div class = centerbox><p class = center-block-text>problem <strong>12</strong> out of 25 problems</p></div>","0","tol_trial_num","","","","","","","","","","","","","","","","","","","","","","","","",""
"","","","","","single-stim-button","340","1281539","0.0-3.0-43.0-0.0","5e6ec2818808e6486e268039","B2","batch2","","7125","","","tol_tohand","","","","","","","","","tol_peg_1","7125","7125","0","[[1,0,0],[3,0],[0]]","1","[[2,3,0],[0,0],[1]]","11","0","","","","","","4","",""
"","","","","","single-stim-button","341","1282577","0.0-3.0-43.0-1.0","5e6ec2818808e6486e268039","B2","batch2","","1038","","","tol_toboard","","","","","","","","","tol_peg_2","1038","1038","0","[[1,0,0],[3,2],[0]]","1","[[2,3,0],[0,0],[1]]","11","0","","","","","","4","",""
"","","","","","single-stim-button","342","1283491","0.0-3.0-43.1-0.1","5e6ec2818808e6486e268039","B2","batch2","","914","","","tol_tohand","","","","","","","","","tol_peg_1","914","914","0","[[0,0,0],[3,2],[0]]","2","[[2,3,0],[0,0],[1]]","11","0","","","","","","4","",""
"","","","","","single-stim-button","343","1284549","0.0-3.0-43.1-1.1","5e6ec2818808e6486e268039","B2","batch2","","1057","","","tol_toboard","","","","","","","","","tol_peg_3","1057","1057","0","[[0,0,0],[3,2],[1]]","2","[[2,3,0],[0,0],[1]]","11","0","","","","","","4","",""
"","","","","","single-stim-button","344","1285545","0.0-3.0-43.2-0.2","5e6ec2818808e6486e268039","B2","batch2","","996","","","tol_tohand","","","","","","","","","tol_peg_2","996","996","0","[[0,0,0],[3,0],[1]]","3","[[2,3,0],[0,0],[1]]","11","0","","","","","","4","",""
"","","","","","single-stim-button","345","1286542","0.0-3.0-43.2-1.2","5e6ec2818808e6486e268039","B2","batch2","","997","","","tol_toboard","","","","","","","","","tol_peg_1","997","997","0","[[2,0,0],[3,0],[1]]","3","[[2,3,0],[0,0],[1]]","11","0","","","","","","4","",""
