"success","timeout","failed_images","failed_audio","failed_video","trial_type","trial_index","time_elapsed","internal_node_id","subject_id","study_id","session_id","view_history","rt","stimulus","response","task","correct","answer","item","fiar_detect_rt","fiar_detect_correct","total_correct_fiar_detect","post_trial_gap","choices","mouse_click","stim_duration","block_duration","timing_post_trial","current_position","tol_num_moves_made","tol_target","tol_problem_id","tol_rt","key_press","possible_responses","tol_correct","preplanning","tol_rt_per_trial","tol_min_moves","spm_correct","spm_rt"
"true","false","[]","[]","[]","preload","0","4346","0.0-0.0","5e76c87c0fd39b22d52eba04","B2","batch2","","","","","","","","","","","","","","","","","","","","","","","","","","","","","",""
"true","","","","","fullscreen","1","40732","0.0-1.0-0.0","5e76c87c0fd39b22d52eba04","B2","batch2","","","","","","","","","","","","","","","","","","","","","","","","","","","","","",""
"true","","","","","fullscreen","2","47201","0.0-2.0-0.0","5e76c87c0fd39b22d52eba04","B2","batch2","","","","","","","","","","","","","","","","","","","","","","","","","","","","","",""
"","","","","","instructions","3","97977","0.0-2.0-1.0-0.0","5e76c87c0fd39b22d52eba04","B2","batch2","[{""page_index"":0,""viewing_time"":30485.299999952316},{""page_index"":1,""viewing_time"":20278.300000071526}]","50764.10000002384","","","","","","","","","","","","","","","","","","","","","","","","","","","",""
"","","","","","html-button-response","4","100497","0.0-2.0-1.0-1.0-0.0","5e76c87c0fd39b22d52eba04","B2","batch2","","2519.2000000476837","<p class=block-text> Let's answer a few questions <br>","0","pattern_enter_quiz","","","","","","","","","","","","","","","","","","","","","","","","",""
"","","","","","html-button-response","5","106314","0.0-2.0-1.0-1.0-1.0","5e76c87c0fd39b22d52eba04","B2","batch2","","5816","<p class = block-text>True or False: You will have as much time as you want to make each choice. <br></p>","1","pattern_quiz","true","","","","","","","","","","","","","","","","","","","","","","","",""
"","","","","","html-button-response","6","109463","0.0-2.0-1.0-1.0-2.0","5e76c87c0fd39b22d52eba04","B2","batch2","","3146.7999999523163","<p class = block-text>Correct! You should make your choice <strong> as fast as you can</strong>.</p>","0","pattern_quiz_feedback","","","","","","","","","","","","","","","","","","","","","","","","",""
"","","","","","html-button-response","7","130594","0.0-2.0-1.0-1.0-3.0","5e76c87c0fd39b22d52eba04","B2","batch2","","21142.600000023842","<p class = block-text>True or False: You will look for 4 pieces in black or white color connected in a row either horizontally, vertically or diagonally. <br></p>","0","pattern_quiz","true","","","","","","","","","","","","","","","","","","","","","","","",""
"","","","","","html-button-response","8","132438","0.0-2.0-1.0-1.0-4.0","5e76c87c0fd39b22d52eba04","B2","batch2","","1843","<p class = block-text>Correct! </p>","0","pattern_quiz_feedback","","","","","","","","","","","","","","","","","","","","","","","","",""
"","","","","","html-button-response","9","138384","0.0-2.0-2.0","5e76c87c0fd39b22d52eba04","B2","batch2","","5944.5","<p class=block-text> Now that you've understood the game, let's do a few practice trials before we start!<br> <br>","0","pattern_enter_practice","","","","","","","","","","","","","","","","","","","","","","","","",""
"","","","","","image-keyboard-response","10","142630","0.0-2.0-3.0-0.0","5e76c87c0fd39b22d52eba04","B2","batch2","","4219.399999976158","stim/prac_no_16_1.png","j","pattern_practice","true","j","","","","","","","","","","","","","","","","","","","","","","",""
"","","","","","html-keyboard-response","11","143657","0.0-2.0-3.0-1.0","5e76c87c0fd39b22d52eba04","B2","batch2","","null","<p style=""font-size:30px;color:green;"">Correct!</p>","null","pattern_feedback","","","","","","","","","","","","","","","","","","","","","","","","",""
"","","","","","image-keyboard-response","12","147081","0.0-2.0-3.0-0.1","5e76c87c0fd39b22d52eba04","B2","batch2","","3422.1999999284744","stim/prac_no_18_1.png","j","pattern_practice","true","j","","","","","","","","","","","","","","","","","","","","","","",""
"","","","","","html-keyboard-response","13","148111","0.0-2.0-3.0-1.1","5e76c87c0fd39b22d52eba04","B2","batch2","","null","<p style=""font-size:30px;color:green;"">Correct!</p>","null","pattern_feedback","","","","","","","","","","","","","","","","","","","","","","","","",""
"","","","","","image-keyboard-response","14","150310","0.0-2.0-3.0-0.2","5e76c87c0fd39b22d52eba04","B2","batch2","","2195.600000023842","stim/prac_yes_20_dia_b1.png","f","pattern_practice","true","f","","","","","","","","","","","","","","","","","","","","","","",""
"","","","","","html-keyboard-response","15","151328","0.0-2.0-3.0-1.2","5e76c87c0fd39b22d52eba04","B2","batch2","","null","<p style=""font-size:30px;color:green;"">Correct!</p>","null","pattern_feedback","","","","","","","","","","","","","","","","","","","","","","","","",""
"","","","","","image-keyboard-response","16","152823","0.0-2.0-3.0-0.3","5e76c87c0fd39b22d52eba04","B2","batch2","","1492.1999999284744","stim/prac_yes_18_hor_w1.png","f","pattern_practice","true","f","","","","","","","","","","","","","","","","","","","","","","",""
"","","","","","html-keyboard-response","17","153841","0.0-2.0-3.0-1.3","5e76c87c0fd39b22d52eba04","B2","batch2","","null","<p style=""font-size:30px;color:green;"">Correct!</p>","null","pattern_feedback","","","","","","","","","","","","","","","","","","","","","","","","",""
"","","","","","image-keyboard-response","18","154790","0.0-2.0-3.0-0.4","5e76c87c0fd39b22d52eba04","B2","batch2","","936.1000000238419","stim/prac_yes_16_ver_w1.png","f","pattern_practice","true","f","","","","","","","","","","","","","","","","","","","","","","",""
"","","","","","html-keyboard-response","19","155802","0.0-2.0-3.0-1.4","5e76c87c0fd39b22d52eba04","B2","batch2","","null","<p style=""font-size:30px;color:green;"">Correct!</p>","null","pattern_feedback","","","","","","","","","","","","","","","","","","","","","","","","",""
"","","","","","html-button-response","20","171592","0.0-2.0-4.0","5e76c87c0fd39b22d52eba04","B2","batch2","","15787.800000071526","<p class=block-text> Good job! You are done with practice trials!<br>
        You responded correctly on 100% of the trials.<br>
        Press the button below to start official trials. Now you won't see any feedback about your response</p>","0","pattern_enter_official_trials","","","","","","","","","","","","","","","","","","","","","","","","",""
"","","","","","html-keyboard-response","21","172396","0.0-2.0-5.0-0.0","5e76c87c0fd39b22d52eba04","B2","batch2","","null","<p class=block-text>Trial 1 out of 78</p>","null","pattern_show_trial_num","","","","","","","","","","","","","","","","","","","","","","","","",""
"","","","","","image-keyboard-response","22","176698","0.0-2.0-5.0-1.0","5e76c87c0fd39b22d52eba04","B2","batch2","","4298.100000023842","stim/no_45_1_w.png","j","pattern_response","true","j","pattern_25","4298.100000023842","true","1","","","","","","","","","","","","","","","","","","",""
"","","","","","html-keyboard-response","23","178030","0.0-2.0-5.0-0.1","5e76c87c0fd39b22d52eba04","B2","batch2","","null","<p class=block-text>Trial 2 out of 78</p>","null","pattern_show_trial_num","","","","","","","","","","","","","","","","","","","","","","","","",""
"","","","","","image-keyboard-response","24","180107","0.0-2.0-5.0-1.1","5e76c87c0fd39b22d52eba04","B2","batch2","","2075.3000000715256","stim/no_15_1_w.png","j","pattern_response","true","j","pattern_03","2075.3000000715256","true","2","","","","","","","","","","","","","","","","","","",""
"","","","","","html-keyboard-response","25","181429","0.0-2.0-5.0-0.2","5e76c87c0fd39b22d52eba04","B2","batch2","","null","<p class=block-text>Trial 3 out of 78</p>","null","pattern_show_trial_num","","","","","","","","","","","","","","","","","","","","","","","","",""
"","","","","","image-keyboard-response","26","182830","0.0-2.0-5.0-1.2","5e76c87c0fd39b22d52eba04","B2","batch2","","1397.1999999284744","stim/yes_53_ver_b1_b.png","f","pattern_response","true","f","pattern_74","1397.1999999284744","true","3","","","","","","","","","","","","","","","","","","",""
"","","","","","html-keyboard-response","27","184158","0.0-2.0-5.0-0.3","5e76c87c0fd39b22d52eba04","B2","batch2","","null","<p class=block-text>Trial 4 out of 78</p>","null","pattern_show_trial_num","","","","","","","","","","","","","","","","","","","","","","","","",""
"","","","","","image-keyboard-response","28","185834","0.0-2.0-5.0-1.3","5e76c87c0fd39b22d52eba04","B2","batch2","","1672.5","stim/yes_37_hor_w1_w.png","f","pattern_response","true","f","pattern_60","1672.5","true","4","","","","","","","","","","","","","","","","","","",""
"","","","","","html-keyboard-response","29","187167","0.0-2.0-5.0-0.4","5e76c87c0fd39b22d52eba04","B2","batch2","","null","<p class=block-text>Trial 5 out of 78</p>","null","pattern_show_trial_num","","","","","","","","","","","","","","","","","","","","","","","","",""
"","","","","","image-keyboard-response","30","192078","0.0-2.0-5.0-1.4","5e76c87c0fd39b22d52eba04","B2","batch2","","4908.100000023842","stim/no_49_2_b.png","j","pattern_response","true","j","pattern_29","4908.100000023842","true","5","","","","","","","","","","","","","","","","","","",""
"","","","","","html-keyboard-response","31","193399","0.0-2.0-5.0-0.5","5e76c87c0fd39b22d52eba04","B2","batch2","","null","<p class=block-text>Trial 6 out of 78</p>","null","pattern_show_trial_num","","","","","","","","","","","","","","","","","","","","","","","","",""
"","","","","","image-keyboard-response","32","197320","0.0-2.0-5.0-1.5","5e76c87c0fd39b22d52eba04","B2","batch2","","3919","stim/no_33_1_b.png","j","pattern_response","true","j","pattern_15","3919","true","6","","","","","","","","","","","","","","","","","","",""
"","","","","","html-keyboard-response","33","198635","0.0-2.0-5.0-0.6","5e76c87c0fd39b22d52eba04","B2","batch2","","null","<p class=block-text>Trial 7 out of 78</p>","null","pattern_show_trial_num","","","","","","","","","","","","","","","","","","","","","","","","",""
"","","","","","image-keyboard-response","34","203277","0.0-2.0-5.0-1.6","5e76c87c0fd39b22d52eba04","B2","batch2","","4638.200000047684","stim/yes_51_dia_b1.png","j","pattern_response","false","f","pattern_72","4638.200000047684","false","6","","","","","","","","","","","","","","","","","","",""
"","","","","","html-keyboard-response","35","204605","0.0-2.0-5.0-0.7","5e76c87c0fd39b22d52eba04","B2","batch2","","null","<p class=block-text>Trial 8 out of 78</p>","null","pattern_show_trial_num","","","","","","","","","","","","","","","","","","","","","","","","",""
"","","","","","image-keyboard-response","36","206001","0.0-2.0-5.0-1.7","5e76c87c0fd39b22d52eba04","B2","batch2","","1392.6000000238419","stim/yes_15_dia_b1u_b.png","f","pattern_response","true","f","pattern_44","1392.6000000238419","true","7","","","","","","","","","","","","","","","","","","",""
"","","","","","html-keyboard-response","37","207319","0.0-2.0-5.0-0.8","5e76c87c0fd39b22d52eba04","B2","batch2","","null","<p class=block-text>Trial 9 out of 78</p>","null","pattern_show_trial_num","","","","","","","","","","","","","","","","","","","","","","","","",""
"","","","","","image-keyboard-response","38","208259","0.0-2.0-5.0-1.8","5e76c87c0fd39b22d52eba04","B2","batch2","","937.3999999761581","stim/yes_36_ver_w1_w.png","f","pattern_response","true","f","pattern_58","937.3999999761581","true","8","","","","","","","","","","","","","","","","","","",""
"","","","","","html-keyboard-response","39","209578","0.0-2.0-5.0-0.9","5e76c87c0fd39b22d52eba04","B2","batch2","","null","<p class=block-text>Trial 10 out of 78</p>","null","pattern_show_trial_num","","","","","","","","","","","","","","","","","","","","","","","","",""
"","","","","","image-keyboard-response","40","212361","0.0-2.0-5.0-1.9","5e76c87c0fd39b22d52eba04","B2","batch2","","2779.8000000715256","stim/yes_63_dia_b1.png","f","pattern_response","true","f","pattern_78","2779.8000000715256","true","9","","","","","","","","","","","","","","","","","","",""
"","","","","","html-keyboard-response","41","213689","0.0-2.0-5.0-0.10","5e76c87c0fd39b22d52eba04","B2","batch2","","null","<p class=block-text>Trial 11 out of 78</p>","null","pattern_show_trial_num","","","","","","","","","","","","","","","","","","","","","","","","",""
"","","","","","image-keyboard-response","42","218915","0.0-2.0-5.0-1.10","5e76c87c0fd39b22d52eba04","B2","batch2","","5220.899999976158","stim/no_37_2_w.png","j","pattern_response","true","j","pattern_19","5220.899999976158","true","10","","","","","","","","","","","","","","","","","","",""
"","","","","","html-keyboard-response","43","220233","0.0-2.0-5.0-0.11","5e76c87c0fd39b22d52eba04","B2","batch2","","null","<p class=block-text>Trial 12 out of 78</p>","null","pattern_show_trial_num","","","","","","","","","","","","","","","","","","","","","","","","",""
"","","","","","image-keyboard-response","44","223483","0.0-2.0-5.0-1.11","5e76c87c0fd39b22d52eba04","B2","batch2","","3246.2999999523163","stim/no_22_1_b.png","j","pattern_response","true","j","pattern_07","3246.2999999523163","true","11","","","","","","","","","","","","","","","","","","",""
"","","","","","html-keyboard-response","45","224848","0.0-2.0-5.0-0.12","5e76c87c0fd39b22d52eba04","B2","batch2","","null","<p class=block-text>Trial 13 out of 78</p>","null","pattern_show_trial_num","","","","","","","","","","","","","","","","","","","","","","","","",""
"","","","","","image-keyboard-response","46","229174","0.0-2.0-5.0-1.12","5e76c87c0fd39b22d52eba04","B2","batch2","","4322.199999928474","stim/yes_33_dia_w1_w.png","f","pattern_response","true","f","pattern_56","4322.199999928474","true","12","","","","","","","","","","","","","","","","","","",""
"","","","","","html-keyboard-response","47","230494","0.0-2.0-5.0-0.13","5e76c87c0fd39b22d52eba04","B2","batch2","","null","<p class=block-text>Trial 14 out of 78</p>","null","pattern_show_trial_num","","","","","","","","","","","","","","","","","","","","","","","","",""
"","","","","","image-keyboard-response","48","236981","0.0-2.0-5.0-1.13","5e76c87c0fd39b22d52eba04","B2","batch2","","6484.399999976158","stim/no_43_2_b.png","j","pattern_response","true","j","pattern_23","6484.399999976158","true","13","","","","","","","","","","","","","","","","","","",""
"","","","","","html-keyboard-response","49","238302","0.0-2.0-5.0-0.14","5e76c87c0fd39b22d52eba04","B2","batch2","","null","<p class=block-text>Trial 15 out of 78</p>","null","pattern_show_trial_num","","","","","","","","","","","","","","","","","","","","","","","","",""
"","","","","","image-keyboard-response","50","245251","0.0-2.0-5.0-1.14","5e76c87c0fd39b22d52eba04","B2","batch2","","6944.899999976158","stim/no_58_1_w.png","j","pattern_response","true","j","pattern_35","6944.899999976158","true","14","","","","","","","","","","","","","","","","","","",""
"","","","","","html-keyboard-response","51","246570","0.0-2.0-5.0-0.15","5e76c87c0fd39b22d52eba04","B2","batch2","","null","<p class=block-text>Trial 16 out of 78</p>","null","pattern_show_trial_num","","","","","","","","","","","","","","","","","","","","","","","","",""
"","","","","","image-keyboard-response","52","247731","0.0-2.0-5.0-1.15","5e76c87c0fd39b22d52eba04","B2","batch2","","1160.6000000238419","stim/yes_39_hor_w1_w.png","f","pattern_response","true","f","pattern_62","1160.6000000238419","true","15","","","","","","","","","","","","","","","","","","",""
"","","","","","html-keyboard-response","53","249061","0.0-2.0-5.0-0.16","5e76c87c0fd39b22d52eba04","B2","batch2","","null","<p class=block-text>Trial 17 out of 78</p>","null","pattern_show_trial_num","","","","","","","","","","","","","","","","","","","","","","","","",""
"","","","","","image-keyboard-response","54","255877","0.0-2.0-5.0-1.16","5e76c87c0fd39b22d52eba04","B2","batch2","","6812.399999976158","stim/no_28_2.png","j","pattern_response","true","j","pattern_11","6812.399999976158","true","16","","","","","","","","","","","","","","","","","","",""
"","","","","","html-keyboard-response","55","257204","0.0-2.0-5.0-0.17","5e76c87c0fd39b22d52eba04","B2","batch2","","null","<p class=block-text>Trial 18 out of 78</p>","null","pattern_show_trial_num","","","","","","","","","","","","","","","","","","","","","","","","",""
"","","","","","image-keyboard-response","56","264180","0.0-2.0-5.0-1.17","5e76c87c0fd39b22d52eba04","B2","batch2","","6972.299999952316","stim/no_47_1_b.png","j","pattern_response","true","j","pattern_27","6972.299999952316","true","17","","","","","","","","","","","","","","","","","","",""
"","","","","","html-keyboard-response","57","265497","0.0-2.0-5.0-0.18","5e76c87c0fd39b22d52eba04","B2","batch2","","null","<p class=block-text>Trial 19 out of 78</p>","null","pattern_show_trial_num","","","","","","","","","","","","","","","","","","","","","","","","",""
"","","","","","image-keyboard-response","58","267023","0.0-2.0-5.0-1.18","5e76c87c0fd39b22d52eba04","B2","batch2","","1523","stim/yes_23_ver_b1.png","f","pattern_response","true","f","pattern_48","1523","true","18","","","","","","","","","","","","","","","","","","",""
"","","","","","html-keyboard-response","59","268350","0.0-2.0-5.0-0.19","5e76c87c0fd39b22d52eba04","B2","batch2","","null","<p class=block-text>Trial 20 out of 78</p>","null","pattern_show_trial_num","","","","","","","","","","","","","","","","","","","","","","","","",""
"","","","","","image-keyboard-response","60","272840","0.0-2.0-5.0-1.19","5e76c87c0fd39b22d52eba04","B2","batch2","","4486.799999952316","stim/no_25_1_b.png","j","pattern_response","true","j","pattern_09","4486.799999952316","true","19","","","","","","","","","","","","","","","","","","",""
"","","","","","html-keyboard-response","61","274152","0.0-2.0-5.0-0.20","5e76c87c0fd39b22d52eba04","B2","batch2","","null","<p class=block-text>Trial 21 out of 78</p>","null","pattern_show_trial_num","","","","","","","","","","","","","","","","","","","","","","","","",""
"","","","","","image-keyboard-response","62","277205","0.0-2.0-5.0-1.20","5e76c87c0fd39b22d52eba04","B2","batch2","","3050.600000023842","stim/yes_70_ver_b1.png","f","pattern_response","true","f","pattern_80","3050.600000023842","true","20","","","","","","","","","","","","","","","","","","",""
"","","","","","html-keyboard-response","63","278545","0.0-2.0-5.0-0.21","5e76c87c0fd39b22d52eba04","B2","batch2","","null","<p class=block-text>Trial 22 out of 78</p>","null","pattern_show_trial_num","","","","","","","","","","","","","","","","","","","","","","","","",""
"","","","","","image-keyboard-response","64","279833","0.0-2.0-5.0-1.21","5e76c87c0fd39b22d52eba04","B2","batch2","","1285.5","stim/yes_17_ver_b1_b.png","f","pattern_response","true","f","pattern_46","1285.5","true","21","","","","","","","","","","","","","","","","","","",""
"","","","","","html-keyboard-response","65","281150","0.0-2.0-5.0-0.22","5e76c87c0fd39b22d52eba04","B2","batch2","","null","<p class=block-text>Trial 23 out of 78</p>","null","pattern_show_trial_num","","","","","","","","","","","","","","","","","","","","","","","","",""
"","","","","","image-keyboard-response","66","282392","0.0-2.0-5.0-1.22","5e76c87c0fd39b22d52eba04","B2","batch2","","1236.7000000476837","stim/yes_12_hor_w1_w.png","f","pattern_response","true","f","pattern_42","1236.7000000476837","true","22","","","","","","","","","","","","","","","","","","",""
"","","","","","html-keyboard-response","67","283696","0.0-2.0-5.0-0.23","5e76c87c0fd39b22d52eba04","B2","batch2","","null","<p class=block-text>Trial 24 out of 78</p>","null","pattern_show_trial_num","","","","","","","","","","","","","","","","","","","","","","","","",""
"","","","","","image-keyboard-response","68","291275","0.0-2.0-5.0-1.23","5e76c87c0fd39b22d52eba04","B2","batch2","","7576.599999904633","stim/no_36_1_b.png","j","pattern_response","true","j","pattern_17","7576.599999904633","true","23","","","","","","","","","","","","","","","","","","",""
"","","","","","html-keyboard-response","69","292597","0.0-2.0-5.0-0.24","5e76c87c0fd39b22d52eba04","B2","batch2","","null","<p class=block-text>Trial 25 out of 78</p>","null","pattern_show_trial_num","","","","","","","","","","","","","","","","","","","","","","","","",""
"","","","","","image-keyboard-response","70","300489","0.0-2.0-5.0-1.24","5e76c87c0fd39b22d52eba04","B2","batch2","","7889.700000047684","stim/yes_42_dia_w1_w.png","f","pattern_response","true","f","pattern_64","7889.700000047684","true","24","","","","","","","","","","","","","","","","","","",""
"","","","","","html-keyboard-response","71","301805","0.0-2.0-5.0-0.25","5e76c87c0fd39b22d52eba04","B2","batch2","","null","<p class=block-text>Trial 26 out of 78</p>","null","pattern_show_trial_num","","","","","","","","","","","","","","","","","","","","","","","","",""
"","","","","","image-keyboard-response","72","304062","0.0-2.0-5.0-1.25","5e76c87c0fd39b22d52eba04","B2","batch2","","2255.5","stim/yes_30_ver_b1_b.png","f","pattern_response","true","f","pattern_54","2255.5","true","25","","","","","","","","","","","","","","","","","","",""
"","","","","","html-keyboard-response","73","305364","0.0-2.0-5.0-0.26","5e76c87c0fd39b22d52eba04","B2","batch2","","null","<p class=block-text>Trial 27 out of 78</p>","null","pattern_show_trial_num","","","","","","","","","","","","","","","","","","","","","","","","",""
"","","","","","image-keyboard-response","74","308526","0.0-2.0-5.0-1.26","5e76c87c0fd39b22d52eba04","B2","batch2","","3158.1999999284744","stim/no_18_1_b.png","j","pattern_response","true","j","pattern_05","3158.1999999284744","true","26","","","","","","","","","","","","","","","","","","",""
"","","","","","html-keyboard-response","75","309857","0.0-2.0-5.0-0.27","5e76c87c0fd39b22d52eba04","B2","batch2","","null","<p class=block-text>Trial 28 out of 78</p>","null","pattern_show_trial_num","","","","","","","","","","","","","","","","","","","","","","","","",""
"","","","","","image-keyboard-response","76","314860","0.0-2.0-5.0-1.27","5e76c87c0fd39b22d52eba04","B2","batch2","","4999.899999976158","stim/yes_26_dia_w2_w.png","f","pattern_response","true","f","pattern_50","4999.899999976158","true","27","","","","","","","","","","","","","","","","","","",""
"","","","","","html-keyboard-response","77","316179","0.0-2.0-5.0-0.28","5e76c87c0fd39b22d52eba04","B2","batch2","","null","<p class=block-text>Trial 29 out of 78</p>","null","pattern_show_trial_num","","","","","","","","","","","","","","","","","","","","","","","","",""
"","","","","","image-keyboard-response","78","317786","0.0-2.0-5.0-1.28","5e76c87c0fd39b22d52eba04","B2","batch2","","1603.3999999761581","stim/yes_49_hor_w1_b.png","f","pattern_response","true","f","pattern_70","1603.3999999761581","true","28","","","","","","","","","","","","","","","","","","",""
"","","","","","html-keyboard-response","79","319114","0.0-2.0-5.0-0.29","5e76c87c0fd39b22d52eba04","B2","batch2","","null","<p class=block-text>Trial 30 out of 78</p>","null","pattern_show_trial_num","","","","","","","","","","","","","","","","","","","","","","","","",""
"","","","","","image-keyboard-response","80","321946","0.0-2.0-5.0-1.29","5e76c87c0fd39b22d52eba04","B2","batch2","","2828.7000000476837","stim/yes_46_ver_b1_b.png","f","pattern_response","true","f","pattern_68","2828.7000000476837","true","29","","","","","","","","","","","","","","","","","","",""
"","","","","","html-keyboard-response","81","323271","0.0-2.0-5.0-0.30","5e76c87c0fd39b22d52eba04","B2","batch2","","null","<p class=block-text>Trial 31 out of 78</p>","null","pattern_show_trial_num","","","","","","","","","","","","","","","","","","","","","","","","",""
"","","","","","image-keyboard-response","82","326461","0.0-2.0-5.0-1.30","5e76c87c0fd39b22d52eba04","B2","batch2","","3187.7999999523163","stim/no_12_1.png","j","pattern_response","true","j","pattern_01","3187.7999999523163","true","30","","","","","","","","","","","","","","","","","","",""
"","","","","","html-keyboard-response","83","327808","0.0-2.0-5.0-0.31","5e76c87c0fd39b22d52eba04","B2","batch2","","null","<p class=block-text>Trial 32 out of 78</p>","null","pattern_show_trial_num","","","","","","","","","","","","","","","","","","","","","","","","",""
"","","","","","image-keyboard-response","84","331769","0.0-2.0-5.0-1.31","5e76c87c0fd39b22d52eba04","B2","batch2","","3957.5","stim/yes_44_ver_w1_w.png","f","pattern_response","true","f","pattern_66","3957.5","true","31","","","","","","","","","","","","","","","","","","",""
"","","","","","html-keyboard-response","85","333082","0.0-2.0-5.0-0.32","5e76c87c0fd39b22d52eba04","B2","batch2","","null","<p class=block-text>Trial 33 out of 78</p>","null","pattern_show_trial_num","","","","","","","","","","","","","","","","","","","","","","","","",""
"","","","","","image-keyboard-response","86","342451","0.0-2.0-5.0-1.32","5e76c87c0fd39b22d52eba04","B2","batch2","","9366.299999952316","stim/no_53_1_b.png","j","pattern_response","true","j","pattern_33","9366.299999952316","true","32","","","","","","","","","","","","","","","","","","",""
"","","","","","html-keyboard-response","87","343780","0.0-2.0-5.0-0.33","5e76c87c0fd39b22d52eba04","B2","batch2","","null","<p class=block-text>Trial 34 out of 78</p>","null","pattern_show_trial_num","","","","","","","","","","","","","","","","","","","","","","","","",""
"","","","","","image-keyboard-response","88","355214","0.0-2.0-5.0-1.33","5e76c87c0fd39b22d52eba04","B2","batch2","","11432.200000047684","stim/no_67_1.png","j","pattern_response","true","j","pattern_39","11432.200000047684","true","33","","","","","","","","","","","","","","","","","","",""
"","","","","","html-keyboard-response","89","356545","0.0-2.0-5.0-0.34","5e76c87c0fd39b22d52eba04","B2","batch2","","null","<p class=block-text>Trial 35 out of 78</p>","null","pattern_show_trial_num","","","","","","","","","","","","","","","","","","","","","","","","",""
"","","","","","image-keyboard-response","90","364619","0.0-2.0-5.0-1.34","5e76c87c0fd39b22d52eba04","B2","batch2","","8070.600000023842","stim/no_51_1.png","j","pattern_response","true","j","pattern_31","8070.600000023842","true","34","","","","","","","","","","","","","","","","","","",""
"","","","","","html-keyboard-response","91","365926","0.0-2.0-5.0-0.35","5e76c87c0fd39b22d52eba04","B2","batch2","","null","<p class=block-text>Trial 36 out of 78</p>","null","pattern_show_trial_num","","","","","","","","","","","","","","","","","","","","","","","","",""
"","","","","","image-keyboard-response","92","379736","0.0-2.0-5.0-1.35","5e76c87c0fd39b22d52eba04","B2","batch2","","13809.5","stim/yes_58_dia_w1_w.png","j","pattern_response","false","f","pattern_76","13809.5","false","34","","","","","","","","","","","","","","","","","","",""
"","","","","","html-keyboard-response","93","381062","0.0-2.0-5.0-0.36","5e76c87c0fd39b22d52eba04","B2","batch2","","null","<p class=block-text>Trial 37 out of 78</p>","null","pattern_show_trial_num","","","","","","","","","","","","","","","","","","","","","","","","",""
"","","","","","image-keyboard-response","94","390226","0.0-2.0-5.0-1.36","5e76c87c0fd39b22d52eba04","B2","batch2","","9151.699999928474","stim/no_39_1_w.png","j","pattern_response","true","j","pattern_21","9151.699999928474","true","35","","","","","","","","","","","","","","","","","","",""
"","","","","","html-keyboard-response","95","391551","0.0-2.0-5.0-0.37","5e76c87c0fd39b22d52eba04","B2","batch2","","null","<p class=block-text>Trial 38 out of 78</p>","null","pattern_show_trial_num","","","","","","","","","","","","","","","","","","","","","","","","",""
"","","","","","image-keyboard-response","96","392678","0.0-2.0-5.0-1.37","5e76c87c0fd39b22d52eba04","B2","batch2","","1124.1999999284744","stim/yes_29_hor_b1_b.png","f","pattern_response","true","f","pattern_52","1124.1999999284744","true","36","","","","","","","","","","","","","","","","","","",""
"","","","","","html-keyboard-response","97","394004","0.0-2.0-5.0-0.38","5e76c87c0fd39b22d52eba04","B2","batch2","","null","<p class=block-text>Trial 39 out of 78</p>","null","pattern_show_trial_num","","","","","","","","","","","","","","","","","","","","","","","","",""
"","","","","","image-keyboard-response","98","399189","0.0-2.0-5.0-1.38","5e76c87c0fd39b22d52eba04","B2","batch2","","5181.799999952316","stim/no_30_1_b.png","j","pattern_response","true","j","pattern_13","5181.799999952316","true","37","","","","","","","","","","","","","","","","","","",""
"","","","","","image-keyboard-response","99","404213","0.0-2.0-6.0","5e76c87c0fd39b22d52eba04","B2","batch2","","4511.800000071526","stim/empty_board.png","j","attention_check","true","j","","","","","500","[""f"",""j""]","","","","","","","","","","","","","","","","",""
"","","","","","html-keyboard-response","100","405021","0.0-2.0-7.0-0.0","5e76c87c0fd39b22d52eba04","B2","batch2","","null","<p class=block-text>Trial 40 out of 78</p>","null","pattern_show_trial_num","","","","","","","","","","","","","","","","","","","","","","","","",""
"","","","","","image-keyboard-response","101","408492","0.0-2.0-7.0-1.0","5e76c87c0fd39b22d52eba04","B2","batch2","","3467.6999999284744","stim/yes_52_ver_w1.png","f","pattern_response","true","f","pattern_73","3467.6999999284744","true","38","","","","","","","","","","","","","","","","","","",""
"","","","","","html-keyboard-response","102","409822","0.0-2.0-7.0-0.1","5e76c87c0fd39b22d52eba04","B2","batch2","","null","<p class=block-text>Trial 41 out of 78</p>","null","pattern_show_trial_num","","","","","","","","","","","","","","","","","","","","","","","","",""
"","","","","","image-keyboard-response","103","415024","0.0-2.0-7.0-1.1","5e76c87c0fd39b22d52eba04","B2","batch2","","5199.300000071526","stim/no_23_1.png","j","pattern_response","true","j","pattern_08","5199.300000071526","true","39","","","","","","","","","","","","","","","","","","",""
"","","","","","html-keyboard-response","104","416336","0.0-2.0-7.0-0.2","5e76c87c0fd39b22d52eba04","B2","batch2","","null","<p class=block-text>Trial 42 out of 78</p>","null","pattern_show_trial_num","","","","","","","","","","","","","","","","","","","","","","","","",""
"","","","","","image-keyboard-response","105","427745","0.0-2.0-7.0-1.2","5e76c87c0fd39b22d52eba04","B2","batch2","","11406.699999928474","stim/no_62_1_w.png","j","pattern_response","true","j","pattern_36","11406.699999928474","true","40","","","","","","","","","","","","","","","","","","",""
"","","","","","html-keyboard-response","106","429067","0.0-2.0-7.0-0.3","5e76c87c0fd39b22d52eba04","B2","batch2","","null","<p class=block-text>Trial 43 out of 78</p>","null","pattern_show_trial_num","","","","","","","","","","","","","","","","","","","","","","","","",""
"","","","","","image-keyboard-response","107","432778","0.0-2.0-7.0-1.3","5e76c87c0fd39b22d52eba04","B2","batch2","","3707.100000023842","stim/yes_31_hor_b1.png","f","pattern_response","true","f","pattern_55","3707.100000023842","true","41","","","","","","","","","","","","","","","","","","",""
"","","","","","html-keyboard-response","108","434086","0.0-2.0-7.0-0.4","5e76c87c0fd39b22d52eba04","B2","batch2","","null","<p class=block-text>Trial 44 out of 78</p>","null","pattern_show_trial_num","","","","","","","","","","","","","","","","","","","","","","","","",""
"","","","","","image-keyboard-response","109","445522","0.0-2.0-7.0-1.4","5e76c87c0fd39b22d52eba04","B2","batch2","","11427.399999976158","stim/no_55_1_w.png","f","pattern_response","false","j","pattern_34","11427.399999976158","false","41","","","","","","","","","","","","","","","","","","",""
"","","","","","html-keyboard-response","110","446853","0.0-2.0-7.0-0.5","5e76c87c0fd39b22d52eba04","B2","batch2","","null","<p class=block-text>Trial 45 out of 78</p>","null","pattern_show_trial_num","","","","","","","","","","","","","","","","","","","","","","","","",""
"","","","","","image-keyboard-response","111","447975","0.0-2.0-7.0-1.5","5e76c87c0fd39b22d52eba04","B2","batch2","","1116.8000000715256","stim/yes_28_ver_b1.png","f","pattern_response","true","f","pattern_51","1116.8000000715256","true","42","","","","","","","","","","","","","","","","","","",""
"","","","","","html-keyboard-response","112","449298","0.0-2.0-7.0-0.6","5e76c87c0fd39b22d52eba04","B2","batch2","","null","<p class=block-text>Trial 46 out of 78</p>","null","pattern_show_trial_num","","","","","","","","","","","","","","","","","","","","","","","","",""
"","","","","","image-keyboard-response","113","453768","0.0-2.0-7.0-1.6","5e76c87c0fd39b22d52eba04","B2","batch2","","4468.100000023842","stim/no_29_1_b.png","j","pattern_response","true","j","pattern_12","4468.100000023842","true","43","","","","","","","","","","","","","","","","","","",""
"","","","","","html-keyboard-response","114","455090","0.0-2.0-7.0-0.7","5e76c87c0fd39b22d52eba04","B2","batch2","","null","<p class=block-text>Trial 47 out of 78</p>","null","pattern_show_trial_num","","","","","","","","","","","","","","","","","","","","","","","","",""
"","","","","","image-keyboard-response","115","463396","0.0-2.0-7.0-1.7","5e76c87c0fd39b22d52eba04","B2","batch2","","8303.400000095367","stim/no_65_1_b.png","j","pattern_response","true","j","pattern_38","8303.400000095367","true","44","","","","","","","","","","","","","","","","","","",""
"","","","","","html-keyboard-response","116","464717","0.0-2.0-7.0-0.8","5e76c87c0fd39b22d52eba04","B2","batch2","","null","<p class=block-text>Trial 48 out of 78</p>","null","pattern_show_trial_num","","","","","","","","","","","","","","","","","","","","","","","","",""
"","","","","","image-keyboard-response","117","468276","0.0-2.0-7.0-1.8","5e76c87c0fd39b22d52eba04","B2","batch2","","3554.2999999523163","stim/yes_37_dia_w1.png","f","pattern_response","true","f","pattern_59","3554.2999999523163","true","45","","","","","","","","","","","","","","","","","","",""
"","","","","","html-keyboard-response","118","469597","0.0-2.0-7.0-0.9","5e76c87c0fd39b22d52eba04","B2","batch2","","null","<p class=block-text>Trial 49 out of 78</p>","null","pattern_show_trial_num","","","","","","","","","","","","","","","","","","","","","","","","",""
"","","","","","image-keyboard-response","119","470673","0.0-2.0-7.0-1.9","5e76c87c0fd39b22d52eba04","B2","batch2","","1072.6999999284744","stim/yes_17_dia_w1.png","f","pattern_response","true","f","pattern_45","1072.6999999284744","true","46","","","","","","","","","","","","","","","","","","",""
"","","","","","html-keyboard-response","120","471983","0.0-2.0-7.0-0.10","5e76c87c0fd39b22d52eba04","B2","batch2","","null","<p class=block-text>Trial 50 out of 78</p>","null","pattern_show_trial_num","","","","","","","","","","","","","","","","","","","","","","","","",""
"","","","","","image-keyboard-response","121","487803","0.0-2.0-7.0-1.10","5e76c87c0fd39b22d52eba04","B2","batch2","","15817.300000071526","stim/no_38_1_b.png","j","pattern_response","true","j","pattern_20","15817.300000071526","true","47","","","","","","","","","","","","","","","","","","",""
"","","","","","html-keyboard-response","122","489131","0.0-2.0-7.0-0.11","5e76c87c0fd39b22d52eba04","B2","batch2","","null","<p class=block-text>Trial 51 out of 78</p>","null","pattern_show_trial_num","","","","","","","","","","","","","","","","","","","","","","","","",""
"","","","","","image-keyboard-response","123","495459","0.0-2.0-7.0-1.11","5e76c87c0fd39b22d52eba04","B2","batch2","","6325.200000047684","stim/no_32_1_w.png","j","pattern_response","true","j","pattern_14","6325.200000047684","true","48","","","","","","","","","","","","","","","","","","",""
"","","","","","html-keyboard-response","124","496785","0.0-2.0-7.0-0.12","5e76c87c0fd39b22d52eba04","B2","batch2","","null","<p class=block-text>Trial 52 out of 78</p>","null","pattern_show_trial_num","","","","","","","","","","","","","","","","","","","","","","","","",""
"","","","","","image-keyboard-response","125","509106","0.0-2.0-7.0-1.12","5e76c87c0fd39b22d52eba04","B2","batch2","","12324.599999904633","stim/no_70_2.png","j","pattern_response","true","j","pattern_40","12324.599999904633","true","49","","","","","","","","","","","","","","","","","","",""
"","","","","","html-keyboard-response","126","510436","0.0-2.0-7.0-0.13","5e76c87c0fd39b22d52eba04","B2","batch2","","null","<p class=block-text>Trial 53 out of 78</p>","null","pattern_show_trial_num","","","","","","","","","","","","","","","","","","","","","","","","",""
"","","","","","image-keyboard-response","127","519395","0.0-2.0-7.0-1.13","5e76c87c0fd39b22d52eba04","B2","batch2","","8956.199999928474","stim/no_44_1.png","j","pattern_response","true","j","pattern_24","8956.199999928474","true","50","","","","","","","","","","","","","","","","","","",""
"","","","","","html-keyboard-response","128","520702","0.0-2.0-7.0-0.14","5e76c87c0fd39b22d52eba04","B2","batch2","","null","<p class=block-text>Trial 54 out of 78</p>","null","pattern_show_trial_num","","","","","","","","","","","","","","","","","","","","","","","","",""
"","","","","","image-keyboard-response","129","532634","0.0-2.0-7.0-1.14","5e76c87c0fd39b22d52eba04","B2","batch2","","11928.5","stim/no_50_1.png","j","pattern_response","true","j","pattern_30","11928.5","true","51","","","","","","","","","","","","","","","","","","",""
"","","","","","html-keyboard-response","130","533944","0.0-2.0-7.0-0.15","5e76c87c0fd39b22d52eba04","B2","batch2","","null","<p class=block-text>Trial 55 out of 78</p>","null","pattern_show_trial_num","","","","","","","","","","","","","","","","","","","","","","","","",""
"","","","","","image-keyboard-response","131","535734","0.0-2.0-7.0-1.15","5e76c87c0fd39b22d52eba04","B2","batch2","","1787","stim/yes_14_hor_b1_w.png","f","pattern_response","true","f","pattern_43","1787","true","52","","","","","","","","","","","","","","","","","","",""
"","","","","","html-keyboard-response","132","537053","0.0-2.0-7.0-0.16","5e76c87c0fd39b22d52eba04","B2","batch2","","null","<p class=block-text>Trial 56 out of 78</p>","null","pattern_show_trial_num","","","","","","","","","","","","","","","","","","","","","","","","",""
"","","","","","image-keyboard-response","133","543253","0.0-2.0-7.0-1.16","5e76c87c0fd39b22d52eba04","B2","batch2","","6196.800000071526","stim/no_46_1_b.png","j","pattern_response","true","j","pattern_26","6196.800000071526","true","53","","","","","","","","","","","","","","","","","","",""
"","","","","","html-keyboard-response","134","544573","0.0-2.0-7.0-0.17","5e76c87c0fd39b22d52eba04","B2","batch2","","null","<p class=block-text>Trial 57 out of 78</p>","null","pattern_show_trial_num","","","","","","","","","","","","","","","","","","","","","","","","",""
"","","","","","image-keyboard-response","135","546697","0.0-2.0-7.0-1.17","5e76c87c0fd39b22d52eba04","B2","batch2","","2121.100000023842","stim/yes_45_hor_b2_b.png","f","pattern_response","true","f","pattern_67","2121.100000023842","true","54","","","","","","","","","","","","","","","","","","",""
"","","","","","html-keyboard-response","136","548018","0.0-2.0-7.0-0.18","5e76c87c0fd39b22d52eba04","B2","batch2","","null","<p class=block-text>Trial 58 out of 78</p>","null","pattern_show_trial_num","","","","","","","","","","","","","","","","","","","","","","","","",""
"","","","","","image-keyboard-response","137","559819","0.0-2.0-7.0-1.18","5e76c87c0fd39b22d52eba04","B2","batch2","","11798.899999976158","stim/no_42_1_w.png","j","pattern_response","true","j","pattern_22","11798.899999976158","true","55","","","","","","","","","","","","","","","","","","",""
"","","","","","html-keyboard-response","138","561147","0.0-2.0-7.0-0.19","5e76c87c0fd39b22d52eba04","B2","batch2","","null","<p class=block-text>Trial 59 out of 78</p>","null","pattern_show_trial_num","","","","","","","","","","","","","","","","","","","","","","","","",""
"","","","","","image-keyboard-response","139","562532","0.0-2.0-7.0-1.19","5e76c87c0fd39b22d52eba04","B2","batch2","","1382.4000000953674","stim/yes_22_ver_w1.png","j","pattern_response","false","f","pattern_47","1382.4000000953674","false","55","","","","","","","","","","","","","","","","","","",""
"","","","","","html-keyboard-response","140","563845","0.0-2.0-7.0-0.20","5e76c87c0fd39b22d52eba04","B2","batch2","","null","<p class=block-text>Trial 60 out of 78</p>","null","pattern_show_trial_num","","","","","","","","","","","","","","","","","","","","","","","","",""
"","","","","","image-keyboard-response","141","567042","0.0-2.0-7.0-1.20","5e76c87c0fd39b22d52eba04","B2","batch2","","3184.1999999284744","stim/no_13_2_b.png","j","pattern_response","true","j","pattern_02","3184.1999999284744","true","56","","","","","","","","","","","","","","","","","","",""
"","","","","","html-keyboard-response","142","568345","0.0-2.0-7.0-0.21","5e76c87c0fd39b22d52eba04","B2","batch2","","null","<p class=block-text>Trial 61 out of 78</p>","null","pattern_show_trial_num","","","","","","","","","","","","","","","","","","","","","","","","",""
"","","","","","image-keyboard-response","143","569722","0.0-2.0-7.0-1.21","5e76c87c0fd39b22d52eba04","B2","batch2","","1374.3000000715256","stim/yes_55_hor_w1_w.png","f","pattern_response","true","f","pattern_75","1374.3000000715256","true","57","","","","","","","","","","","","","","","","","","",""
"","","","","","html-keyboard-response","144","571040","0.0-2.0-7.0-0.22","5e76c87c0fd39b22d52eba04","B2","batch2","","null","<p class=block-text>Trial 62 out of 78</p>","null","pattern_show_trial_num","","","","","","","","","","","","","","","","","","","","","","","","",""
"","","","","","image-keyboard-response","145","572515","0.0-2.0-7.0-1.22","5e76c87c0fd39b22d52eba04","B2","batch2","","1472.2000000476837","stim/yes_67_hor_b1.png","f","pattern_response","true","f","pattern_79","1472.2000000476837","true","58","","","","","","","","","","","","","","","","","","",""
"","","","","","html-keyboard-response","146","573833","0.0-2.0-7.0-0.23","5e76c87c0fd39b22d52eba04","B2","batch2","","null","<p class=block-text>Trial 63 out of 78</p>","null","pattern_show_trial_num","","","","","","","","","","","","","","","","","","","","","","","","",""
"","","","","","image-keyboard-response","147","575406","0.0-2.0-7.0-1.23","5e76c87c0fd39b22d52eba04","B2","batch2","","1569.7999999523163","stim/yes_43_ver_w1_w.png","f","pattern_response","true","f","pattern_65","1569.7999999523163","true","59","","","","","","","","","","","","","","","","","","",""
"","","","","","html-keyboard-response","148","576721","0.0-2.0-7.0-0.24","5e76c87c0fd39b22d52eba04","B2","batch2","","null","<p class=block-text>Trial 64 out of 78</p>","null","pattern_show_trial_num","","","","","","","","","","","","","","","","","","","","","","","","",""
"","","","","","image-keyboard-response","149","584816","0.0-2.0-7.0-1.24","5e76c87c0fd39b22d52eba04","B2","batch2","","8091.200000047684","stim/no_26_1_w.png","j","pattern_response","true","j","pattern_10","8091.200000047684","true","60","","","","","","","","","","","","","","","","","","",""
"","","","","","html-keyboard-response","150","586133","0.0-2.0-7.0-0.25","5e76c87c0fd39b22d52eba04","B2","batch2","","null","<p class=block-text>Trial 65 out of 78</p>","null","pattern_show_trial_num","","","","","","","","","","","","","","","","","","","","","","","","",""
"","","","","","image-keyboard-response","151","588844","0.0-2.0-7.0-1.25","5e76c87c0fd39b22d52eba04","B2","batch2","","2707.2999999523163","stim/yes_35_dia_b1.png","f","pattern_response","true","f","pattern_57","2707.2999999523163","true","61","","","","","","","","","","","","","","","","","","",""
"","","","","","html-keyboard-response","152","590182","0.0-2.0-7.0-0.26","5e76c87c0fd39b22d52eba04","B2","batch2","","null","<p class=block-text>Trial 66 out of 78</p>","null","pattern_show_trial_num","","","","","","","","","","","","","","","","","","","","","","","","",""
"","","","","","image-keyboard-response","153","593123","0.0-2.0-7.0-1.26","5e76c87c0fd39b22d52eba04","B2","batch2","","2938.100000023842","stim/yes_29_ver_w1.png","f","pattern_response","true","f","pattern_53","2938.100000023842","true","62","","","","","","","","","","","","","","","","","","",""
"","","","","","html-keyboard-response","154","594436","0.0-2.0-7.0-0.27","5e76c87c0fd39b22d52eba04","B2","batch2","","null","<p class=block-text>Trial 67 out of 78</p>","null","pattern_show_trial_num","","","","","","","","","","","","","","","","","","","","","","","","",""
"","","","","","image-keyboard-response","155","605654","0.0-2.0-7.0-1.27","5e76c87c0fd39b22d52eba04","B2","batch2","","11215.199999928474","stim/yes_38_hor_b1_b.png","f","pattern_response","true","f","pattern_61","11215.199999928474","true","63","","","","","","","","","","","","","","","","","","",""
"","","","","","html-keyboard-response","156","606975","0.0-2.0-7.0-0.28","5e76c87c0fd39b22d52eba04","B2","batch2","","null","<p class=block-text>Trial 68 out of 78</p>","null","pattern_show_trial_num","","","","","","","","","","","","","","","","","","","","","","","","",""
"","","","","","image-keyboard-response","157","617541","0.0-2.0-7.0-1.28","5e76c87c0fd39b22d52eba04","B2","batch2","","10563.5","stim/no_36_2_w.png","j","pattern_response","true","j","pattern_18","10563.5","true","64","","","","","","","","","","","","","","","","","","",""
"","","","","","html-keyboard-response","158","618871","0.0-2.0-7.0-0.29","5e76c87c0fd39b22d52eba04","B2","batch2","","null","<p class=block-text>Trial 69 out of 78</p>","null","pattern_show_trial_num","","","","","","","","","","","","","","","","","","","","","","","","",""
"","","","","","image-keyboard-response","159","619961","0.0-2.0-7.0-1.29","5e76c87c0fd39b22d52eba04","B2","batch2","","1087.0999999046326","stim/yes_25_hor_b1_b.png","f","pattern_response","true","f","pattern_49","1087.0999999046326","true","65","","","","","","","","","","","","","","","","","","",""
"","","","","","html-keyboard-response","160","621290","0.0-2.0-7.0-0.30","5e76c87c0fd39b22d52eba04","B2","batch2","","null","<p class=block-text>Trial 70 out of 78</p>","null","pattern_show_trial_num","","","","","","","","","","","","","","","","","","","","","","","","",""
"","","","","","image-keyboard-response","161","637312","0.0-2.0-7.0-1.30","5e76c87c0fd39b22d52eba04","B2","batch2","","16024.299999952316","stim/no_34_1_b.png","j","pattern_response","true","j","pattern_16","16024.299999952316","true","66","","","","","","","","","","","","","","","","","","",""
"","","","","","html-keyboard-response","162","638639","0.0-2.0-7.0-0.31","5e76c87c0fd39b22d52eba04","B2","batch2","","null","<p class=block-text>Trial 71 out of 78</p>","null","pattern_show_trial_num","","","","","","","","","","","","","","","","","","","","","","","","",""
"","","","","","image-keyboard-response","163","645736","0.0-2.0-7.0-1.31","5e76c87c0fd39b22d52eba04","B2","batch2","","7092.399999976158","stim/no_52_1.png","j","pattern_response","true","j","pattern_32","7092.399999976158","true","67","","","","","","","","","","","","","","","","","","",""
"","","","","","html-keyboard-response","164","647055","0.0-2.0-7.0-0.32","5e76c87c0fd39b22d52eba04","B2","batch2","","null","<p class=block-text>Trial 72 out of 78</p>","null","pattern_show_trial_num","","","","","","","","","","","","","","","","","","","","","","","","",""
"","","","","","image-keyboard-response","165","654974","0.0-2.0-7.0-1.32","5e76c87c0fd39b22d52eba04","B2","batch2","","7916.5","stim/yes_50_dia_w1.png","f","pattern_response","true","f","pattern_71","7916.5","true","68","","","","","","","","","","","","","","","","","","",""
"","","","","","html-keyboard-response","166","656299","0.0-2.0-7.0-0.33","5e76c87c0fd39b22d52eba04","B2","batch2","","null","<p class=block-text>Trial 73 out of 78</p>","null","pattern_show_trial_num","","","","","","","","","","","","","","","","","","","","","","","","",""
"","","","","","image-keyboard-response","167","667807","0.0-2.0-7.0-1.33","5e76c87c0fd39b22d52eba04","B2","batch2","","11503","stim/yes_48_dia_w1_w.png","j","pattern_response","false","f","pattern_69","11503","false","68","","","","","","","","","","","","","","","","","","",""
"","","","","","html-keyboard-response","168","669137","0.0-2.0-7.0-0.34","5e76c87c0fd39b22d52eba04","B2","batch2","","null","<p class=block-text>Trial 74 out of 78</p>","null","pattern_show_trial_num","","","","","","","","","","","","","","","","","","","","","","","","",""
"","","","","","image-keyboard-response","169","685314","0.0-2.0-7.0-1.34","5e76c87c0fd39b22d52eba04","B2","batch2","","16173.600000023842","stim/no_17_1_w.png","j","pattern_response","true","j","pattern_04","16173.600000023842","true","69","","","","","","","","","","","","","","","","","","",""
"","","","","","html-keyboard-response","170","686625","0.0-2.0-7.0-0.35","5e76c87c0fd39b22d52eba04","B2","batch2","","null","<p class=block-text>Trial 75 out of 78</p>","null","pattern_show_trial_num","","","","","","","","","","","","","","","","","","","","","","","","",""
"","","","","","image-keyboard-response","171","688190","0.0-2.0-7.0-1.35","5e76c87c0fd39b22d52eba04","B2","batch2","","1566.3000000715256","stim/yes_60_ver_b1_b.png","f","pattern_response","true","f","pattern_77","1566.3000000715256","true","70","","","","","","","","","","","","","","","","","","",""
"","","","","","html-keyboard-response","172","689499","0.0-2.0-7.0-0.36","5e76c87c0fd39b22d52eba04","B2","batch2","","null","<p class=block-text>Trial 76 out of 78</p>","null","pattern_show_trial_num","","","","","","","","","","","","","","","","","","","","","","","","",""
"","","","","","image-keyboard-response","173","692648","0.0-2.0-7.0-1.36","5e76c87c0fd39b22d52eba04","B2","batch2","","3145.9000000953674","stim/no_20_1_w.png","j","pattern_response","true","j","pattern_06","3145.9000000953674","true","71","","","","","","","","","","","","","","","","","","",""
"","","","","","html-keyboard-response","174","693958","0.0-2.0-7.0-0.37","5e76c87c0fd39b22d52eba04","B2","batch2","","null","<p class=block-text>Trial 77 out of 78</p>","null","pattern_show_trial_num","","","","","","","","","","","","","","","","","","","","","","","","",""
"","","","","","image-keyboard-response","175","698430","0.0-2.0-7.0-1.37","5e76c87c0fd39b22d52eba04","B2","batch2","","4469.799999952316","stim/yes_40_dia_b1_b.png","f","pattern_response","true","f","pattern_63","4469.799999952316","true","72","","","","","","","","","","","","","","","","","","",""
"","","","","","html-keyboard-response","176","699735","0.0-2.0-7.0-0.38","5e76c87c0fd39b22d52eba04","B2","batch2","","null","<p class=block-text>Trial 78 out of 78</p>","null","pattern_show_trial_num","","","","","","","","","","","","","","","","","","","","","","","","",""
"","","","","","image-keyboard-response","177","710548","0.0-2.0-7.0-1.38","5e76c87c0fd39b22d52eba04","B2","batch2","","10810.399999976158","stim/no_48_1_w.png","j","pattern_response","true","j","pattern_28","10810.399999976158","true","73","","","","","","","","","","","","","","","","","","",""
"","","","","","html-button-response","178","726949","0.0-2.0-8.0","5e76c87c0fd39b22d52eba04","B2","batch2","","15885.600000023842","<p class = block-text>This concludes the 4-in-a-row detection game.Thank you for your responses!<br>
            You responded correctly on 94% of the trials.<br>
            When you are ready, press ""Continue"" button to continue </p>","0","","","","","","","","","","","","","","","","","","","","","","","","","",""
"true","","","","","fullscreen","179","731507","0.0-3.0-0.0","5e76c87c0fd39b22d52eba04","B2","batch2","","","","","","","","","","","","","","","","","","","","","","","","","","","","","",""
"","","","","","instructions","180","878866","0.0-3.0-1.0-0.0-0.0","5e76c87c0fd39b22d52eba04","B2","batch2","[{""page_index"":0,""viewing_time"":25305.199999928474},{""page_index"":1,""viewing_time"":16700},{""page_index"":2,""viewing_time"":17243.800000071526},{""page_index"":3,""viewing_time"":24480.199999928474},{""page_index"":4,""viewing_time"":16895.399999976158},{""page_index"":5,""viewing_time"":38837.700000047684},{""page_index"":6,""viewing_time"":7892.399999976158}]","147355","","","tol-instructions","","","","","","","","","","","","","","","","","","","","","","","","",""
"","","","","","html-button-response","181","881964","0.0-3.0-1.0-1.0-0.0","5e76c87c0fd39b22d52eba04","B2","batch2","","3096.899999976158","<p class=block-text> Let's answer a few questions <br>","0","tol_enter_quiz","","","","","","","","","","","","","","","","","","","","","","","","",""
"","","","","","html-button-response","182","889308","0.0-3.0-1.0-1.0-1.0","5e76c87c0fd39b22d52eba04","B2","batch2","","7343.399999976158","<p class = block-text>True or False: You can only move the ball on top of a peg. <br></p>","1","tol_quiz","false","","","","","","","","","","","","","","","","","","","","","","","",""
"","","","","","html-button-response","183","893972","0.0-3.0-1.0-1.0-2.0","5e76c87c0fd39b22d52eba04","B2","batch2","","4662.5","<p class = block-text>Incorrect. Remember, you can only move the ball on top of a peg.</p>","0","tol_quiz_feedback","","","","","","","","","","","","","","","","","","","","","","","","",""
"","","","","","html-button-response","184","899104","0.0-3.0-1.0-1.0-3.0","5e76c87c0fd39b22d52eba04","B2","batch2","","5131.299999952316","<p class = block-text>True or False: You should try to match your board with the target board with fewest moves possible. <br></p>","0","tol_quiz","true","","","","","","","","","","","","","","","","","","","","","","","",""
"","","","","","html-button-response","185","900742","0.0-3.0-1.0-1.0-4.0","5e76c87c0fd39b22d52eba04","B2","batch2","","1637.1000000238419","<p class = block-text>Correct! </p>","0","tol_quiz_feedback","","","","","","","","","","","","","","","","","","","","","","","","",""
"","","","","","html-button-response","186","906768","0.0-3.0-1.0-2.0-0.0","5e76c87c0fd39b22d52eba04","B2","batch2","","6025.100000023842","<p class = block-text>You made too many incorrect choices.</p><p class = block-text>You will now repeat the instructions and quiz</p>","0","","","","","","","","","","","","","","","","","","","","","","","","","",""
"","","","","","instructions","187","969947","0.0-3.0-1.1-0.1-0.1","5e76c87c0fd39b22d52eba04","B2","batch2","[{""page_index"":0,""viewing_time"":5976.799999952316},{""page_index"":1,""viewing_time"":1844},{""page_index"":2,""viewing_time"":5407.900000095367},{""page_index"":3,""viewing_time"":7697.899999976158},{""page_index"":4,""viewing_time"":5649.899999976158},{""page_index"":5,""viewing_time"":30577.899999976158},{""page_index"":6,""viewing_time"":6016}]","63170.700000047684","","","tol-instructions","","","","","","","","","","","","","","","","","","","","","","","","",""
"","","","","","html-button-response","188","972255","0.0-3.0-1.1-1.1-0.1","5e76c87c0fd39b22d52eba04","B2","batch2","","2307.399999976158","<p class=block-text> Let's answer a few questions <br>","0","tol_enter_quiz","","","","","","","","","","","","","","","","","","","","","","","","",""
"","","","","","html-button-response","189","976987","0.0-3.0-1.1-1.1-1.1","5e76c87c0fd39b22d52eba04","B2","batch2","","4731.399999976158","<p class = block-text>True or False: You can only move the ball on top of a peg. <br></p>","0","tol_quiz","true","","","","","","","","","","","","","","","","","","","","","","","",""
"","","","","","html-button-response","190","979435","0.0-3.0-1.1-1.1-2.1","5e76c87c0fd39b22d52eba04","B2","batch2","","2446.7999999523163","<p class = block-text>Correct! You can only move the ball on top of a peg.</p>","0","tol_quiz_feedback","","","","","","","","","","","","","","","","","","","","","","","","",""
"","","","","","html-button-response","191","985483","0.0-3.0-1.1-1.1-3.1","5e76c87c0fd39b22d52eba04","B2","batch2","","6047","<p class = block-text>True or False: You should try to match your board with the target board with fewest moves possible. <br></p>","0","tol_quiz","true","","","","","","","","","","","","","","","","","","","","","","","",""
"","","","","","html-button-response","192","987067","0.0-3.0-1.1-1.1-4.1","5e76c87c0fd39b22d52eba04","B2","batch2","","1583.2999999523163","<p class = block-text>Correct! </p>","0","tol_quiz_feedback","","","","","","","","","","","","","","","","","","","","","","","","",""
"","","","","","html-button-response","193","992586","0.0-3.0-2.0","5e76c87c0fd39b22d52eba04","B2","batch2","","5518.600000023842","<p class=block-text> Now that you've understood the game, let's practice a few easier examples before we start!<br> <br>","0","","","","","","","","","","","","","","","","","","","","","","","","","",""
"","","","","","single-stim-button","194","998336","0.0-3.0-3.0-0.0","5e76c87c0fd39b22d52eba04","B2","batch2","","5749","","","tol_practice","","","","","","","","","tol_peg_2","5749","5749","0","[[1,2,0],[0,0],[0]]","1","[[1,2,0],[0,0],[3]]","practice","5749","","","","","","","",""
"","","","","","single-stim-button","195","1000066","0.0-3.0-3.0-1.0","5e76c87c0fd39b22d52eba04","B2","batch2","","1729","","","tol_practice","","","","","","","","","tol_peg_3","1729","1729","0","[[1,2,0],[0,0],[3]]","1","[[1,2,0],[0,0],[3]]","practice","1729","","","","","","","",""
"","","","","","poldrack-single-stim","196","1001070","0.0-3.0-4.0","5e76c87c0fd39b22d52eba04","B2","batch2","","-1","","","tol_feedback","true","","","","","","","","","1000","1000","500","","","","","","-1","none","true","","0","","",""
"","","","","","single-stim-button","197","1004887","0.0-3.0-5.0-0.0","5e76c87c0fd39b22d52eba04","B2","batch2","","3815","","","tol_practice","","","","","","","","","tol_peg_1","3815","3815","0","[[1,0,0],[3,0],[0]]","2","[[0,0,0],[3,1],[2]]","practice","3815","","","","","","","",""
"","","","","","single-stim-button","198","1006219","0.0-3.0-5.0-1.0","5e76c87c0fd39b22d52eba04","B2","batch2","","1331","","","tol_practice","","","","","","","","","tol_peg_3","1331","1331","0","[[1,0,0],[3,0],[2]]","2","[[0,0,0],[3,1],[2]]","practice","1331","","","","","","","",""
"","","","","","single-stim-button","199","1007361","0.0-3.0-5.1-0.1","5e76c87c0fd39b22d52eba04","B2","batch2","","1141","","","tol_practice","","","","","","","","","tol_peg_1","1141","1141","0","[[0,0,0],[3,0],[2]]","3","[[0,0,0],[3,1],[2]]","practice","1141","","","","","","","",""
"","","","","","single-stim-button","200","1008523","0.0-3.0-5.1-1.1","5e76c87c0fd39b22d52eba04","B2","batch2","","1161","","","tol_practice","","","","","","","","","tol_peg_2","1161","1161","0","[[0,0,0],[3,1],[2]]","3","[[0,0,0],[3,1],[2]]","practice","1161","","","","","","","",""
"","","","","","poldrack-single-stim","201","1009525","0.0-3.0-6.0","5e76c87c0fd39b22d52eba04","B2","batch2","","-1","","","tol_feedback","true","","","","","","","","","1000","1000","500","","","","","","-1","none","true","","0","","",""
"","","","","","single-stim-button","202","1012442","0.0-3.0-7.0-0.0","5e76c87c0fd39b22d52eba04","B2","batch2","","2916","","","tol_practice","","","","","","","","","tol_peg_2","2916","2916","0","[[1,2,0],[0,0],[0]]","4","[[1,0,0],[2,0],[3]]","practice","2916","","","","","","","",""
"","","","","","single-stim-button","203","1013763","0.0-3.0-7.0-1.0","5e76c87c0fd39b22d52eba04","B2","batch2","","1320","","","tol_practice","","","","","","","","","tol_peg_3","1320","1320","0","[[1,2,0],[0,0],[3]]","4","[[1,0,0],[2,0],[3]]","practice","1320","","","","","","","",""
"","","","","","single-stim-button","204","1014704","0.0-3.0-7.1-0.1","5e76c87c0fd39b22d52eba04","B2","batch2","","941","","","tol_practice","","","","","","","","","tol_peg_1","941","941","0","[[1,0,0],[0,0],[3]]","5","[[1,0,0],[2,0],[3]]","practice","941","","","","","","","",""
"","","","","","single-stim-button","205","1015785","0.0-3.0-7.1-1.1","5e76c87c0fd39b22d52eba04","B2","batch2","","1080","","","tol_practice","","","","","","","","","tol_peg_2","1080","1080","0","[[1,0,0],[2,0],[3]]","5","[[1,0,0],[2,0],[3]]","practice","1080","","","","","","","",""
"","","","","","poldrack-single-stim","206","1016790","0.0-3.0-8.0","5e76c87c0fd39b22d52eba04","B2","batch2","","-1","","","tol_feedback","true","","","","","","","","","1000","1000","500","","","","","","-1","none","true","","0","","",""
"","","","","","html-button-response","207","1023017","0.0-3.0-9.0","5e76c87c0fd39b22d52eba04","B2","batch2","","6225.199999928474","<div class = centerbox><p class = center-block-text>Great job! You are done with practice trials<br>You are about to start official trials.<br> <br> Problem <strong>1</strong> out of 25 problems</p></div>","0","tol_instruction","","","","","","","","","","","","","","","","","","","","","","","","",""
"","","","","","single-stim-button","208","1026711","0.0-3.0-10.0-0.0","5e76c87c0fd39b22d52eba04","B2","batch2","","2679","","","tol_tohand","","","","","","","","","tol_peg_1","2679","2679","0","[[1,0,0],[3,0],[0]]","1","[[1,3,0],[2,0],[0]]","0","0","","","","","","3","",""
"","","","","","single-stim-button","209","1030269","0.0-3.0-10.0-1.0","5e76c87c0fd39b22d52eba04","B2","batch2","","3557","","","tol_toboard","","","","","","","","","tol_peg_3","3557","3557","0","[[1,0,0],[3,0],[2]]","1","[[1,3,0],[2,0],[0]]","0","0","","","","","","3","",""
"","","","","","single-stim-button","210","1031267","0.0-3.0-10.1-0.1","5e76c87c0fd39b22d52eba04","B2","batch2","","997","","","tol_tohand","","","","","","","","","tol_peg_2","997","997","0","[[1,0,0],[0,0],[2]]","2","[[1,3,0],[2,0],[0]]","0","0","","","","","","3","",""
"","","","","","single-stim-button","211","1032395","0.0-3.0-10.1-1.1","5e76c87c0fd39b22d52eba04","B2","batch2","","1127","","","tol_toboard","","","","","","","","","tol_peg_1","1127","1127","0","[[1,3,0],[0,0],[2]]","2","[[1,3,0],[2,0],[0]]","0","0","","","","","","3","",""
"","","","","","single-stim-button","212","1033745","0.0-3.0-10.2-0.2","5e76c87c0fd39b22d52eba04","B2","batch2","","1349","","","tol_tohand","","","","","","","","","tol_peg_3","1349","1349","0","[[1,3,0],[0,0],[0]]","3","[[1,3,0],[2,0],[0]]","0","0","","","","","","3","",""
"","","","","","single-stim-button","213","1034459","0.0-3.0-10.2-1.2","5e76c87c0fd39b22d52eba04","B2","batch2","","713","","","tol_toboard","","","","","","","","","tol_peg_2","713","713","0","[[1,3,0],[2,0],[0]]","3","[[1,3,0],[2,0],[0]]","0","0","","","","","","3","",""
"","","","","","poldrack-single-stim","214","1035476","0.0-3.0-11.0","5e76c87c0fd39b22d52eba04","B2","batch2","","-1","","","tol_feedback","true","","","","","","","","","1000","1000","500","","","","","","-1","none","true","2679","5025","","",""
"","","","","","html-button-response","215","1054790","0.0-3.0-12.0","5e76c87c0fd39b22d52eba04","B2","batch2","","19312.5","<div class = centerbox><p class = center-block-text>problem <strong>2</strong> out of 25 problems</p></div>","0","tol_trial_num","","","","","","","","","","","","","","","","","","","","","","","","",""
"","","","","","single-stim-button","216","1059736","0.0-3.0-13.0-0.0","5e76c87c0fd39b22d52eba04","B2","batch2","","4945","","","tol_tohand","","","","","","","","","tol_peg_1","4945","4945","0","[[1,0,0],[3,0],[0]]","1","[[2,1,3],[0,0],[0]]","1","0","","","","","","5","",""
"","","","","","single-stim-button","217","1061442","0.0-3.0-13.0-1.0","5e76c87c0fd39b22d52eba04","B2","batch2","","1706","","","tol_toboard","","","","","","","","","tol_peg_3","1706","1706","0","[[1,0,0],[3,0],[2]]","1","[[2,1,3],[0,0],[0]]","1","0","","","","","","5","",""
"","","","","","single-stim-button","218","1065754","0.0-3.0-13.1-0.1","5e76c87c0fd39b22d52eba04","B2","batch2","","4311","","","tol_tohand","","","","","","","","","tol_peg_1","4311","4311","0","[[0,0,0],[3,0],[2]]","2","[[2,1,3],[0,0],[0]]","1","0","","","","","","5","",""
"","","","","","single-stim-button","219","1066688","0.0-3.0-13.1-1.1","5e76c87c0fd39b22d52eba04","B2","batch2","","933","","","tol_toboard","","","","","","","","","tol_peg_2","933","933","0","[[0,0,0],[3,1],[2]]","2","[[2,1,3],[0,0],[0]]","1","0","","","","","","5","",""
"","","","","","single-stim-button","220","1067484","0.0-3.0-13.2-0.2","5e76c87c0fd39b22d52eba04","B2","batch2","","795","","","tol_tohand","","","","","","","","","tol_peg_3","795","795","0","[[0,0,0],[3,1],[0]]","3","[[2,1,3],[0,0],[0]]","1","0","","","","","","5","",""
"","","","","","single-stim-button","221","1068902","0.0-3.0-13.2-1.2","5e76c87c0fd39b22d52eba04","B2","batch2","","1417","","","tol_toboard","","","","","","","","","tol_peg_1","1417","1417","0","[[2,0,0],[3,1],[0]]","3","[[2,1,3],[0,0],[0]]","1","0","","","","","","5","",""
"","","","","","single-stim-button","222","1069779","0.0-3.0-13.3-0.3","5e76c87c0fd39b22d52eba04","B2","batch2","","877","","","tol_tohand","","","","","","","","","tol_peg_2","877","877","0","[[2,0,0],[3,0],[0]]","4","[[2,1,3],[0,0],[0]]","1","0","","","","","","5","",""
"","","","","","single-stim-button","223","1070753","0.0-3.0-13.3-1.3","5e76c87c0fd39b22d52eba04","B2","batch2","","974","","","tol_toboard","","","","","","","","","tol_peg_1","974","974","0","[[2,1,0],[3,0],[0]]","4","[[2,1,3],[0,0],[0]]","1","0","","","","","","5","",""
"","","","","","single-stim-button","224","1071447","0.0-3.0-13.4-0.4","5e76c87c0fd39b22d52eba04","B2","batch2","","692","","","tol_tohand","","","","","","","","","tol_peg_2","692","692","0","[[2,1,0],[0,0],[0]]","5","[[2,1,3],[0,0],[0]]","1","0","","","","","","5","",""
"","","","","","single-stim-button","225","1072239","0.0-3.0-13.4-1.4","5e76c87c0fd39b22d52eba04","B2","batch2","","792","","","tol_toboard","","","","","","","","","tol_peg_1","792","792","0","[[2,1,3],[0,0],[0]]","5","[[2,1,3],[0,0],[0]]","1","0","","","","","","5","",""
"","","","","","poldrack-single-stim","226","1073241","0.0-3.0-14.0","5e76c87c0fd39b22d52eba04","B2","batch2","","-1","","","tol_feedback","true","","","","","","","","","1000","1000","500","","","","","","-1","none","true","4945","11620","","",""
"","","","","","html-button-response","227","1075496","0.0-3.0-15.0","5e76c87c0fd39b22d52eba04","B2","batch2","","2253.2999999523163","<div class = centerbox><p class = center-block-text>problem <strong>3</strong> out of 25 problems</p></div>","0","tol_trial_num","","","","","","","","","","","","","","","","","","","","","","","","",""
"","","","","","single-stim-button","228","1080540","0.0-3.0-16.0-0.0","5e76c87c0fd39b22d52eba04","B2","batch2","","5044","","","tol_tohand","","","","","","","","","tol_peg_1","5044","5044","0","[[2,0,0],[0,0],[1]]","1","[[1,2,0],[3,0],[0]]","2","0","","","","","","4","",""
"","","","","","single-stim-button","229","1081378","0.0-3.0-16.0-1.0","5e76c87c0fd39b22d52eba04","B2","batch2","","836","","","tol_toboard","","","","","","","","","tol_peg_2","836","836","0","[[2,0,0],[3,0],[1]]","1","[[1,2,0],[3,0],[0]]","2","0","","","","","","4","",""
"","","","","","single-stim-button","230","1082328","0.0-3.0-16.1-0.1","5e76c87c0fd39b22d52eba04","B2","batch2","","949","","","tol_tohand","","","","","","","","","tol_peg_3","949","949","0","[[2,0,0],[3,0],[0]]","2","[[1,2,0],[3,0],[0]]","2","0","","","","","","4","",""
"","","","","","single-stim-button","231","1083153","0.0-3.0-16.1-1.1","5e76c87c0fd39b22d52eba04","B2","batch2","","824","","","tol_toboard","","","","","","","","","tol_peg_2","824","824","0","[[2,0,0],[3,1],[0]]","2","[[1,2,0],[3,0],[0]]","2","0","","","","","","4","",""
"","","","","","single-stim-button","232","1084932","0.0-3.0-16.2-0.2","5e76c87c0fd39b22d52eba04","B2","batch2","","1779","","","tol_tohand","","","","","","","","","tol_peg_1","1779","1779","0","[[0,0,0],[3,1],[0]]","3","[[1,2,0],[3,0],[0]]","2","0","","","","","","4","",""
"","","","","","single-stim-button","233","1085744","0.0-3.0-16.2-1.2","5e76c87c0fd39b22d52eba04","B2","batch2","","810","","","tol_toboard","","","","","","","","","tol_peg_3","810","810","0","[[0,0,0],[3,1],[2]]","3","[[1,2,0],[3,0],[0]]","2","0","","","","","","4","",""
"","","","","","single-stim-button","234","1086492","0.0-3.0-16.3-0.3","5e76c87c0fd39b22d52eba04","B2","batch2","","747","","","tol_tohand","","","","","","","","","tol_peg_2","747","747","0","[[0,0,0],[3,0],[2]]","4","[[1,2,0],[3,0],[0]]","2","0","","","","","","4","",""
"","","","","","single-stim-button","235","1087471","0.0-3.0-16.3-1.3","5e76c87c0fd39b22d52eba04","B2","batch2","","979","","","tol_toboard","","","","","","","","","tol_peg_1","979","979","0","[[1,0,0],[3,0],[2]]","4","[[1,2,0],[3,0],[0]]","2","0","","","","","","4","",""
"","","","","","single-stim-button","236","1088612","0.0-3.0-16.4-0.4","5e76c87c0fd39b22d52eba04","B2","batch2","","1140","","","tol_tohand","","","","","","","","","tol_peg_3","1140","1140","0","[[1,0,0],[3,0],[0]]","5","[[1,2,0],[3,0],[0]]","2","0","","","","","","4","",""
"","","","","","single-stim-button","237","1089568","0.0-3.0-16.4-1.4","5e76c87c0fd39b22d52eba04","B2","batch2","","955","","","tol_toboard","","","","","","","","","tol_peg_1","955","955","0","[[1,2,0],[3,0],[0]]","5","[[1,2,0],[3,0],[0]]","2","0","","","","","","4","",""
"","","","","","poldrack-single-stim","238","1090569","0.0-3.0-17.0","5e76c87c0fd39b22d52eba04","B2","batch2","","-1","","","tol_feedback","true","","","","","","","","","1000","1000","500","","","","","","-1","none","true","5044","9659","","",""
"","","","","","html-button-response","239","1095127","0.0-3.0-18.0","5e76c87c0fd39b22d52eba04","B2","batch2","","4557.300000071526","<div class = centerbox><p class = center-block-text>problem <strong>4</strong> out of 25 problems</p></div>","0","tol_trial_num","","","","","","","","","","","","","","","","","","","","","","","","",""
"","","","","","single-stim-button","240","1099779","0.0-3.0-19.0-0.0","5e76c87c0fd39b22d52eba04","B2","batch2","","4651","","","tol_tohand","","","","","","","","","tol_peg_2","4651","4651","0","[[3,0,0],[2,0],[0]]","1","[[3,0,0],[1,0],[2]]","3","0","","","","","","3","",""
"","","","","","single-stim-button","241","1100845","0.0-3.0-19.0-1.0","5e76c87c0fd39b22d52eba04","B2","batch2","","1064","","","tol_toboard","","","","","","","","","tol_peg_1","1064","1064","0","[[3,1,0],[2,0],[0]]","1","[[3,0,0],[1,0],[2]]","3","0","","","","","","3","",""
"","","","","","single-stim-button","242","1101676","0.0-3.0-19.1-0.1","5e76c87c0fd39b22d52eba04","B2","batch2","","830","","","tol_tohand","","","","","","","","","tol_peg_2","830","830","0","[[3,1,0],[0,0],[0]]","2","[[3,0,0],[1,0],[2]]","3","0","","","","","","3","",""
"","","","","","single-stim-button","243","1102913","0.0-3.0-19.1-1.1","5e76c87c0fd39b22d52eba04","B2","batch2","","1237","","","tol_toboard","","","","","","","","","tol_peg_3","1237","1237","0","[[3,1,0],[0,0],[2]]","2","[[3,0,0],[1,0],[2]]","3","0","","","","","","3","",""
"","","","","","single-stim-button","244","1103958","0.0-3.0-19.2-0.2","5e76c87c0fd39b22d52eba04","B2","batch2","","1044","","","tol_tohand","","","","","","","","","tol_peg_1","1044","1044","0","[[3,0,0],[0,0],[2]]","3","[[3,0,0],[1,0],[2]]","3","0","","","","","","3","",""
"","","","","","single-stim-button","245","1104987","0.0-3.0-19.2-1.2","5e76c87c0fd39b22d52eba04","B2","batch2","","1029","","","tol_toboard","","","","","","","","","tol_peg_2","1029","1029","0","[[3,0,0],[1,0],[2]]","3","[[3,0,0],[1,0],[2]]","3","0","","","","","","3","",""
"","","","","","poldrack-single-stim","246","1105990","0.0-3.0-20.0","5e76c87c0fd39b22d52eba04","B2","batch2","","-1","","","tol_feedback","true","","","","","","","","","1000","1000","500","","","","","","-1","none","true","4651","6525","","",""
"","","","","","html-button-response","247","1107294","0.0-3.0-21.0","5e76c87c0fd39b22d52eba04","B2","batch2","","1302.1999999284744","<div class = centerbox><p class = center-block-text>problem <strong>5</strong> out of 25 problems</p></div>","0","tol_trial_num","","","","","","","","","","","","","","","","","","","","","","","","",""
"","","","","","single-stim-button","248","1113902","0.0-3.0-22.0-0.0","5e76c87c0fd39b22d52eba04","B2","batch2","","6607","","","tol_tohand","","","","","","","","","tol_peg_2","6607","6607","0","[[1,0,0],[0,0],[3]]","1","[[0,0,0],[1,2],[3]]","4","0","","","","","","7","",""
"","","","","","single-stim-button","249","1123827","0.0-3.0-22.0-1.0","5e76c87c0fd39b22d52eba04","B2","batch2","","9925","","","tol_toboard","","","","","","","","","tol_peg_1","9925","9925","0","[[1,2,0],[0,0],[3]]","1","[[0,0,0],[1,2],[3]]","4","0","","","","","","7","",""
"","","","","","single-stim-button","250","1130551","0.0-3.0-22.1-0.1","5e76c87c0fd39b22d52eba04","B2","batch2","","6722","","","tol_tohand","","","","","","","","","tol_peg_1","6722","6722","0","[[1,0,0],[0,0],[3]]","2","[[0,0,0],[1,2],[3]]","4","0","","","","","","7","",""
"","","","","","single-stim-button","251","1132935","0.0-3.0-22.1-1.1","5e76c87c0fd39b22d52eba04","B2","batch2","","2383","","","tol_toboard","","","","","","","","","tol_peg_2","2383","2383","0","[[1,0,0],[2,0],[3]]","2","[[0,0,0],[1,2],[3]]","4","0","","","","","","7","",""
"","","","","","single-stim-button","252","1134648","0.0-3.0-22.2-0.2","5e76c87c0fd39b22d52eba04","B2","batch2","","1713","","","tol_tohand","","","","","","","","","tol_peg_1","1713","1713","0","[[0,0,0],[2,0],[3]]","3","[[0,0,0],[1,2],[3]]","4","0","","","","","","7","",""
"","","","","","single-stim-button","253","1136196","0.0-3.0-22.2-1.2","5e76c87c0fd39b22d52eba04","B2","batch2","","1548","","","tol_toboard","","","","","","","","","tol_peg_2","1548","1548","0","[[0,0,0],[2,1],[3]]","3","[[0,0,0],[1,2],[3]]","4","0","","","","","","7","",""
"","","","","","single-stim-button","254","1136975","0.0-3.0-22.3-0.3","5e76c87c0fd39b22d52eba04","B2","batch2","","777","","","tol_tohand","","","","","","","","","tol_peg_3","777","777","0","[[0,0,0],[2,1],[0]]","4","[[0,0,0],[1,2],[3]]","4","0","","","","","","7","",""
"","","","","","single-stim-button","255","1138367","0.0-3.0-22.3-1.3","5e76c87c0fd39b22d52eba04","B2","batch2","","1391","","","tol_toboard","","","","","","","","","tol_peg_1","1391","1391","0","[[3,0,0],[2,1],[0]]","4","[[0,0,0],[1,2],[3]]","4","0","","","","","","7","",""
"","","","","","single-stim-button","256","1140278","0.0-3.0-22.4-0.4","5e76c87c0fd39b22d52eba04","B2","batch2","","1911","","","tol_tohand","","","","","","","","","tol_peg_2","1911","1911","0","[[3,0,0],[2,0],[0]]","5","[[0,0,0],[1,2],[3]]","4","0","","","","","","7","",""
"","","","","","single-stim-button","257","1141837","0.0-3.0-22.4-1.4","5e76c87c0fd39b22d52eba04","B2","batch2","","1558","","","tol_toboard","","","","","","","","","tol_peg_3","1558","1558","0","[[3,0,0],[2,0],[1]]","5","[[0,0,0],[1,2],[3]]","4","0","","","","","","7","",""
"","","","","","single-stim-button","258","1142738","0.0-3.0-22.5-0.5","5e76c87c0fd39b22d52eba04","B2","batch2","","901","","","tol_tohand","","","","","","","","","tol_peg_2","901","901","0","[[3,0,0],[0,0],[1]]","6","[[0,0,0],[1,2],[3]]","4","0","","","","","","7","",""
"","","","","","single-stim-button","259","1144169","0.0-3.0-22.5-1.5","5e76c87c0fd39b22d52eba04","B2","batch2","","1430","","","tol_toboard","","","","","","","","","tol_peg_1","1430","1430","0","[[3,2,0],[0,0],[1]]","6","[[0,0,0],[1,2],[3]]","4","0","","","","","","7","",""
"","","","","","single-stim-button","260","1145324","0.0-3.0-22.6-0.6","5e76c87c0fd39b22d52eba04","B2","batch2","","1154","","","tol_tohand","","","","","","","","","tol_peg_3","1154","1154","0","[[3,2,0],[0,0],[0]]","7","[[0,0,0],[1,2],[3]]","4","0","","","","","","7","",""
"","","","","","single-stim-button","261","1146282","0.0-3.0-22.6-1.6","5e76c87c0fd39b22d52eba04","B2","batch2","","958","","","tol_toboard","","","","","","","","","tol_peg_2","958","958","0","[[3,2,0],[1,0],[0]]","7","[[0,0,0],[1,2],[3]]","4","0","","","","","","7","",""
"","","","","","single-stim-button","262","1147140","0.0-3.0-22.7-0.7","5e76c87c0fd39b22d52eba04","B2","batch2","","858","","","tol_tohand","","","","","","","","","tol_peg_1","858","858","0","[[3,0,0],[1,0],[0]]","8","[[0,0,0],[1,2],[3]]","4","0","","","","","","7","",""
"","","","","","single-stim-button","263","1147899","0.0-3.0-22.7-1.7","5e76c87c0fd39b22d52eba04","B2","batch2","","757","","","tol_toboard","","","","","","","","","tol_peg_2","757","757","0","[[3,0,0],[1,2],[0]]","8","[[0,0,0],[1,2],[3]]","4","0","","","","","","7","",""
"","","","","","single-stim-button","264","1148507","0.0-3.0-22.8-0.8","5e76c87c0fd39b22d52eba04","B2","batch2","","608","","","tol_tohand","","","","","","","","","tol_peg_1","608","608","0","[[0,0,0],[1,2],[0]]","9","[[0,0,0],[1,2],[3]]","4","0","","","","","","7","",""
"","","","","","single-stim-button","265","1149806","0.0-3.0-22.8-1.8","5e76c87c0fd39b22d52eba04","B2","batch2","","1299","","","tol_toboard","","","","","","","","","tol_peg_3","1299","1299","0","[[0,0,0],[1,2],[3]]","9","[[0,0,0],[1,2],[3]]","4","0","","","","","","7","",""
"","","","","","poldrack-single-stim","266","1150813","0.0-3.0-23.0","5e76c87c0fd39b22d52eba04","B2","batch2","","-1","","","tol_feedback","true","","","","","","","","","1000","1000","500","","","","","","-1","none","true","6607","21251","","",""
"","","","","","html-button-response","267","1152505","0.0-3.0-24.0","5e76c87c0fd39b22d52eba04","B2","batch2","","1690.3000000715256","<div class = centerbox><p class = center-block-text>problem <strong>6</strong> out of 25 problems</p></div>","0","tol_trial_num","","","","","","","","","","","","","","","","","","","","","","","","",""
"","","","","","single-stim-button","268","1160381","0.0-3.0-25.0-0.0","5e76c87c0fd39b22d52eba04","B2","batch2","","7875","","","tol_tohand","","","","","","","","","tol_peg_3","7875","7875","0","[[0,0,0],[1,2],[0]]","1","[[1,0,0],[2,3],[0]]","5","0","","","","","","6","",""
"","","","","","single-stim-button","269","1161478","0.0-3.0-25.0-1.0","5e76c87c0fd39b22d52eba04","B2","batch2","","1097","","","tol_toboard","","","","","","","","","tol_peg_1","1097","1097","0","[[3,0,0],[1,2],[0]]","1","[[1,0,0],[2,3],[0]]","5","0","","","","","","6","",""
"","","","","","single-stim-button","270","1162120","0.0-3.0-25.1-0.1","5e76c87c0fd39b22d52eba04","B2","batch2","","641","","","tol_tohand","","","","","","","","","tol_peg_2","641","641","0","[[3,0,0],[1,0],[0]]","2","[[1,0,0],[2,3],[0]]","5","0","","","","","","6","",""
"","","","","","single-stim-button","271","1163285","0.0-3.0-25.1-1.1","5e76c87c0fd39b22d52eba04","B2","batch2","","1163","","","tol_toboard","","","","","","","","","tol_peg_3","1163","1163","0","[[3,0,0],[1,0],[2]]","2","[[1,0,0],[2,3],[0]]","5","0","","","","","","6","",""
"","","","","","single-stim-button","272","1170088","0.0-3.0-25.2-0.2","5e76c87c0fd39b22d52eba04","B2","batch2","","6802","","","tol_tohand","","","","","","","","","tol_peg_2","6802","6802","0","[[3,0,0],[0,0],[2]]","3","[[1,0,0],[2,3],[0]]","5","0","","","","","","6","",""
"","","","","","single-stim-button","273","1171095","0.0-3.0-25.2-1.2","5e76c87c0fd39b22d52eba04","B2","batch2","","1006","","","tol_toboard","","","","","","","","","tol_peg_1","1006","1006","0","[[3,1,0],[0,0],[2]]","3","[[1,0,0],[2,3],[0]]","5","0","","","","","","6","",""
"","","","","","single-stim-button","274","1171808","0.0-3.0-25.3-0.3","5e76c87c0fd39b22d52eba04","B2","batch2","","713","","","tol_tohand","","","","","","","","","tol_peg_3","713","713","0","[[3,1,0],[0,0],[0]]","4","[[1,0,0],[2,3],[0]]","5","0","","","","","","6","",""
"","","","","","single-stim-button","275","1172848","0.0-3.0-25.3-1.3","5e76c87c0fd39b22d52eba04","B2","batch2","","1039","","","tol_toboard","","","","","","","","","tol_peg_2","1039","1039","0","[[3,1,0],[2,0],[0]]","4","[[1,0,0],[2,3],[0]]","5","0","","","","","","6","",""
"","","","","","single-stim-button","276","1180756","0.0-3.0-25.4-0.4","5e76c87c0fd39b22d52eba04","B2","batch2","","7907","","","tol_tohand","","","","","","","","","tol_peg_1","7907","7907","0","[[3,0,0],[2,0],[0]]","5","[[1,0,0],[2,3],[0]]","5","0","","","","","","6","",""
"","","","","","single-stim-button","277","1182207","0.0-3.0-25.4-1.4","5e76c87c0fd39b22d52eba04","B2","batch2","","1450","","","tol_toboard","","","","","","","","","tol_peg_3","1450","1450","0","[[3,0,0],[2,0],[1]]","5","[[1,0,0],[2,3],[0]]","5","0","","","","","","6","",""
"","","","","","single-stim-button","278","1182948","0.0-3.0-25.5-0.5","5e76c87c0fd39b22d52eba04","B2","batch2","","740","","","tol_tohand","","","","","","","","","tol_peg_1","740","740","0","[[0,0,0],[2,0],[1]]","6","[[1,0,0],[2,3],[0]]","5","0","","","","","","6","",""
"","","","","","single-stim-button","279","1183592","0.0-3.0-25.5-1.5","5e76c87c0fd39b22d52eba04","B2","batch2","","643","","","tol_toboard","","","","","","","","","tol_peg_2","643","643","0","[[0,0,0],[2,3],[1]]","6","[[1,0,0],[2,3],[0]]","5","0","","","","","","6","",""
"","","","","","single-stim-button","280","1184247","0.0-3.0-25.6-0.6","5e76c87c0fd39b22d52eba04","B2","batch2","","653","","","tol_tohand","","","","","","","","","tol_peg_3","653","653","0","[[0,0,0],[2,3],[0]]","7","[[1,0,0],[2,3],[0]]","5","0","","","","","","6","",""
"","","","","","single-stim-button","281","1185782","0.0-3.0-25.6-1.6","5e76c87c0fd39b22d52eba04","B2","batch2","","1535","","","tol_toboard","","","","","","","","","tol_peg_1","1535","1535","0","[[1,0,0],[2,3],[0]]","7","[[1,0,0],[2,3],[0]]","5","0","","","","","","6","",""
"","","","","","poldrack-single-stim","282","1186790","0.0-3.0-26.0","5e76c87c0fd39b22d52eba04","B2","batch2","","-1","","","tol_feedback","true","","","","","","","","","1000","1000","500","","","","","","-1","none","true","7875","25331","","",""
"","","","","","html-button-response","283","1187872","0.0-3.0-27.0","5e76c87c0fd39b22d52eba04","B2","batch2","","1080.6999999284744","<div class = centerbox><p class = center-block-text>problem <strong>7</strong> out of 25 problems</p></div>","0","tol_trial_num","","","","","","","","","","","","","","","","","","","","","","","","",""
"","","","","","single-stim-button","284","1190728","0.0-3.0-28.0-0.0","5e76c87c0fd39b22d52eba04","B2","batch2","","2856","","","tol_tohand","","","","","","","","","tol_peg_3","2856","2856","0","[[2,1,0],[0,0],[0]]","1","[[1,2,0],[3,0],[0]]","6","0","","","","","","5","",""
"","","","","","single-stim-button","285","1192663","0.0-3.0-28.0-1.0","5e76c87c0fd39b22d52eba04","B2","batch2","","1935","","","tol_toboard","","","","","","","","","tol_peg_2","1935","1935","0","[[2,1,0],[3,0],[0]]","1","[[1,2,0],[3,0],[0]]","6","0","","","","","","5","",""
"","","","","","single-stim-button","286","1193701","0.0-3.0-28.1-0.1","5e76c87c0fd39b22d52eba04","B2","batch2","","1037","","","tol_tohand","","","","","","","","","tol_peg_1","1037","1037","0","[[2,0,0],[3,0],[0]]","2","[[1,2,0],[3,0],[0]]","6","0","","","","","","5","",""
"","","","","","single-stim-button","287","1194503","0.0-3.0-28.1-1.1","5e76c87c0fd39b22d52eba04","B2","batch2","","801","","","tol_toboard","","","","","","","","","tol_peg_2","801","801","0","[[2,0,0],[3,1],[0]]","2","[[1,2,0],[3,0],[0]]","6","0","","","","","","5","",""
"","","","","","single-stim-button","288","1195253","0.0-3.0-28.2-0.2","5e76c87c0fd39b22d52eba04","B2","batch2","","749","","","tol_tohand","","","","","","","","","tol_peg_1","749","749","0","[[0,0,0],[3,1],[0]]","3","[[1,2,0],[3,0],[0]]","6","0","","","","","","5","",""
"","","","","","single-stim-button","289","1196375","0.0-3.0-28.2-1.2","5e76c87c0fd39b22d52eba04","B2","batch2","","1122","","","tol_toboard","","","","","","","","","tol_peg_3","1122","1122","0","[[0,0,0],[3,1],[2]]","3","[[1,2,0],[3,0],[0]]","6","0","","","","","","5","",""
"","","","","","single-stim-button","290","1197059","0.0-3.0-28.3-0.3","5e76c87c0fd39b22d52eba04","B2","batch2","","683","","","tol_tohand","","","","","","","","","tol_peg_2","683","683","0","[[0,0,0],[3,0],[2]]","4","[[1,2,0],[3,0],[0]]","6","0","","","","","","5","",""
"","","","","","single-stim-button","291","1197873","0.0-3.0-28.3-1.3","5e76c87c0fd39b22d52eba04","B2","batch2","","813","","","tol_toboard","","","","","","","","","tol_peg_1","813","813","0","[[1,0,0],[3,0],[2]]","4","[[1,2,0],[3,0],[0]]","6","0","","","","","","5","",""
"","","","","","single-stim-button","292","1198591","0.0-3.0-28.4-0.4","5e76c87c0fd39b22d52eba04","B2","batch2","","717","","","tol_tohand","","","","","","","","","tol_peg_3","717","717","0","[[1,0,0],[3,0],[0]]","5","[[1,2,0],[3,0],[0]]","6","0","","","","","","5","",""
"","","","","","single-stim-button","293","1199709","0.0-3.0-28.4-1.4","5e76c87c0fd39b22d52eba04","B2","batch2","","1117","","","tol_toboard","","","","","","","","","tol_peg_1","1117","1117","0","[[1,2,0],[3,0],[0]]","5","[[1,2,0],[3,0],[0]]","6","0","","","","","","5","",""
"","","","","","poldrack-single-stim","294","1200716","0.0-3.0-29.0","5e76c87c0fd39b22d52eba04","B2","batch2","","-1","","","tol_feedback","true","","","","","","","","","1000","1000","500","","","","","","-1","none","true","2856","6042","","",""
"","","","","","html-button-response","295","1202009","0.0-3.0-30.0","5e76c87c0fd39b22d52eba04","B2","batch2","","1291.7000000476837","<div class = centerbox><p class = center-block-text>problem <strong>8</strong> out of 25 problems</p></div>","0","tol_trial_num","","","","","","","","","","","","","","","","","","","","","","","","",""
"","","","","","single-stim-button","296","1206523","0.0-3.0-31.0-0.0","5e76c87c0fd39b22d52eba04","B2","batch2","","4513","","","tol_tohand","","","","","","","","","tol_peg_3","4513","4513","0","[[0,0,0],[2,3],[0]]","1","[[1,2,0],[3,0],[0]]","7","0","","","","","","4","",""
"","","","","","single-stim-button","297","1208131","0.0-3.0-31.0-1.0","5e76c87c0fd39b22d52eba04","B2","batch2","","1608","","","tol_toboard","","","","","","","","","tol_peg_1","1608","1608","0","[[1,0,0],[2,3],[0]]","1","[[1,2,0],[3,0],[0]]","7","0","","","","","","4","",""
"","","","","","single-stim-button","298","1209060","0.0-3.0-31.1-0.1","5e76c87c0fd39b22d52eba04","B2","batch2","","928","","","tol_tohand","","","","","","","","","tol_peg_2","928","928","0","[[1,0,0],[2,0],[0]]","2","[[1,2,0],[3,0],[0]]","7","0","","","","","","4","",""
"","","","","","single-stim-button","299","1210169","0.0-3.0-31.1-1.1","5e76c87c0fd39b22d52eba04","B2","batch2","","1108","","","tol_toboard","","","","","","","","","tol_peg_3","1108","1108","0","[[1,0,0],[2,0],[3]]","2","[[1,2,0],[3,0],[0]]","7","0","","","","","","4","",""
"","","","","","single-stim-button","300","1210952","0.0-3.0-31.2-0.2","5e76c87c0fd39b22d52eba04","B2","batch2","","783","","","tol_tohand","","","","","","","","","tol_peg_2","783","783","0","[[1,0,0],[0,0],[3]]","3","[[1,2,0],[3,0],[0]]","7","0","","","","","","4","",""
"","","","","","single-stim-button","301","1212026","0.0-3.0-31.2-1.2","5e76c87c0fd39b22d52eba04","B2","batch2","","1073","","","tol_toboard","","","","","","","","","tol_peg_1","1073","1073","0","[[1,2,0],[0,0],[3]]","3","[[1,2,0],[3,0],[0]]","7","0","","","","","","4","",""
"","","","","","single-stim-button","302","1212760","0.0-3.0-31.3-0.3","5e76c87c0fd39b22d52eba04","B2","batch2","","733","","","tol_tohand","","","","","","","","","tol_peg_3","733","733","0","[[1,2,0],[0,0],[0]]","4","[[1,2,0],[3,0],[0]]","7","0","","","","","","4","",""
"","","","","","single-stim-button","303","1213392","0.0-3.0-31.3-1.3","5e76c87c0fd39b22d52eba04","B2","batch2","","631","","","tol_toboard","","","","","","","","","tol_peg_2","631","631","0","[[1,2,0],[3,0],[0]]","4","[[1,2,0],[3,0],[0]]","7","0","","","","","","4","",""
"","","","","","poldrack-single-stim","304","1214407","0.0-3.0-32.0","5e76c87c0fd39b22d52eba04","B2","batch2","","-1","","","tol_feedback","true","","","","","","","","","1000","1000","500","","","","","","-1","none","true","4513","6957","","",""
"","","","","","html-button-response","305","1215877","0.0-3.0-33.0","5e76c87c0fd39b22d52eba04","B2","batch2","","1467.8999999761581","<div class = centerbox><p class = center-block-text>problem <strong>9</strong> out of 25 problems</p></div>","0","tol_trial_num","","","","","","","","","","","","","","","","","","","","","","","","",""
"","","","","","single-stim-button","306","1223575","0.0-3.0-34.0-0.0","5e76c87c0fd39b22d52eba04","B2","batch2","","7698","","","tol_tohand","","","","","","","","","tol_peg_3","7698","7698","0","[[3,2,0],[0,0],[0]]","1","[[2,1,0],[3,0],[0]]","8","0","","","","","","6","",""
"","","","","","single-stim-button","307","1239118","0.0-3.0-34.0-1.0","5e76c87c0fd39b22d52eba04","B2","batch2","","15543","","","tol_toboard","","","","","","","","","tol_peg_2","15543","15543","0","[[3,2,0],[1,0],[0]]","1","[[2,1,0],[3,0],[0]]","8","0","","","","","","6","",""
"","","","","","single-stim-button","308","1244852","0.0-3.0-34.1-0.1","5e76c87c0fd39b22d52eba04","B2","batch2","","5733","","","tol_tohand","","","","","","","","","tol_peg_2","5733","5733","0","[[3,2,0],[0,0],[0]]","2","[[2,1,0],[3,0],[0]]","8","0","","","","","","6","",""
"","","","","","single-stim-button","309","1245724","0.0-3.0-34.1-1.1","5e76c87c0fd39b22d52eba04","B2","batch2","","872","","","tol_toboard","","","","","","","","","tol_peg_3","872","872","0","[[3,2,0],[0,0],[1]]","2","[[2,1,0],[3,0],[0]]","8","0","","","","","","6","",""
"","","","","","single-stim-button","310","1248559","0.0-3.0-34.2-0.2","5e76c87c0fd39b22d52eba04","B2","batch2","","2833","","","tol_tohand","","","","","","","","","tol_peg_1","2833","2833","0","[[3,0,0],[0,0],[1]]","3","[[2,1,0],[3,0],[0]]","8","0","","","","","","6","",""
"","","","","","single-stim-button","311","1251914","0.0-3.0-34.2-1.2","5e76c87c0fd39b22d52eba04","B2","batch2","","3355","","","tol_toboard","","","","","","","","","tol_peg_2","3355","3355","0","[[3,0,0],[2,0],[1]]","3","[[2,1,0],[3,0],[0]]","8","0","","","","","","6","",""
"","","","","","single-stim-button","312","1253116","0.0-3.0-34.3-0.3","5e76c87c0fd39b22d52eba04","B2","batch2","","1201","","","tol_tohand","","","","","","","","","tol_peg_1","1201","1201","0","[[0,0,0],[2,0],[1]]","4","[[2,1,0],[3,0],[0]]","8","0","","","","","","6","",""
"","","","","","single-stim-button","313","1256812","0.0-3.0-34.3-1.3","5e76c87c0fd39b22d52eba04","B2","batch2","","3696","","","tol_toboard","","","","","","","","","tol_peg_2","3696","3696","0","[[0,0,0],[2,3],[1]]","4","[[2,1,0],[3,0],[0]]","8","0","","","","","","6","",""
"","","","","","single-stim-button","314","1261044","0.0-3.0-34.4-0.4","5e76c87c0fd39b22d52eba04","B2","batch2","","4232","","","tol_tohand","","","","","","","","","tol_peg_3","4232","4232","0","[[0,0,0],[2,3],[0]]","5","[[2,1,0],[3,0],[0]]","8","0","","","","","","6","",""
"","","","","","single-stim-button","315","1262485","0.0-3.0-34.4-1.4","5e76c87c0fd39b22d52eba04","B2","batch2","","1439","","","tol_toboard","","","","","","","","","tol_peg_1","1439","1439","0","[[1,0,0],[2,3],[0]]","5","[[2,1,0],[3,0],[0]]","8","0","","","","","","6","",""
"","","","","","single-stim-button","316","1263867","0.0-3.0-34.5-0.5","5e76c87c0fd39b22d52eba04","B2","batch2","","1382","","","tol_tohand","","","","","","","","","tol_peg_2","1382","1382","0","[[1,0,0],[2,0],[0]]","6","[[2,1,0],[3,0],[0]]","8","0","","","","","","6","",""
"","","","","","single-stim-button","317","1265254","0.0-3.0-34.5-1.5","5e76c87c0fd39b22d52eba04","B2","batch2","","1387","","","tol_toboard","","","","","","","","","tol_peg_3","1387","1387","0","[[1,0,0],[2,0],[3]]","6","[[2,1,0],[3,0],[0]]","8","0","","","","","","6","",""
"","","","","","single-stim-button","318","1272268","0.0-3.0-34.6-0.6","5e76c87c0fd39b22d52eba04","B2","batch2","","7013","","","tol_tohand","","","","","","","","","tol_peg_2","7013","7013","0","[[1,0,0],[0,0],[3]]","7","[[2,1,0],[3,0],[0]]","8","0","","","","","","6","",""
"","","","","","single-stim-button","319","1273267","0.0-3.0-34.6-1.6","5e76c87c0fd39b22d52eba04","B2","batch2","","997","","","tol_toboard","","","","","","","","","tol_peg_1","997","997","0","[[1,2,0],[0,0],[3]]","7","[[2,1,0],[3,0],[0]]","8","0","","","","","","6","",""
"","","","","","single-stim-button","320","1274184","0.0-3.0-34.7-0.7","5e76c87c0fd39b22d52eba04","B2","batch2","","917","","","tol_tohand","","","","","","","","","tol_peg_3","917","917","0","[[1,2,0],[0,0],[0]]","8","[[2,1,0],[3,0],[0]]","8","0","","","","","","6","",""
"","","","","","single-stim-button","321","1275300","0.0-3.0-34.7-1.7","5e76c87c0fd39b22d52eba04","B2","batch2","","1116","","","tol_toboard","","","","","","","","","tol_peg_2","1116","1116","0","[[1,2,0],[3,0],[0]]","8","[[2,1,0],[3,0],[0]]","8","0","","","","","","6","",""
"","","","","","single-stim-button","322","1276330","0.0-3.0-34.8-0.8","5e76c87c0fd39b22d52eba04","B2","batch2","","1029","","","tol_tohand","","","","","","","","","tol_peg_1","1029","1029","0","[[1,0,0],[3,0],[0]]","9","[[2,1,0],[3,0],[0]]","8","0","","","","","","6","",""
"","","","","","single-stim-button","323","1277494","0.0-3.0-34.8-1.8","5e76c87c0fd39b22d52eba04","B2","batch2","","1164","","","tol_toboard","","","","","","","","","tol_peg_3","1164","1164","0","[[1,0,0],[3,0],[2]]","9","[[2,1,0],[3,0],[0]]","8","0","","","","","","6","",""
"","","","","","single-stim-button","324","1278712","0.0-3.0-34.9-0.9","5e76c87c0fd39b22d52eba04","B2","batch2","","1217","","","tol_tohand","","","","","","","","","tol_peg_1","1217","1217","0","[[0,0,0],[3,0],[2]]","10","[[2,1,0],[3,0],[0]]","8","0","","","","","","6","",""
"","","","","","single-stim-button","325","1279426","0.0-3.0-34.9-1.9","5e76c87c0fd39b22d52eba04","B2","batch2","","714","","","tol_toboard","","","","","","","","","tol_peg_2","714","714","0","[[0,0,0],[3,1],[2]]","10","[[2,1,0],[3,0],[0]]","8","0","","","","","","6","",""
"","","","","","single-stim-button","326","1280042","0.0-3.0-34.10-0.10","5e76c87c0fd39b22d52eba04","B2","batch2","","614","","","tol_tohand","","","","","","","","","tol_peg_3","614","614","0","[[0,0,0],[3,1],[0]]","11","[[2,1,0],[3,0],[0]]","8","0","","","","","","6","",""
"","","","","","single-stim-button","327","1281176","0.0-3.0-34.10-1.10","5e76c87c0fd39b22d52eba04","B2","batch2","","1134","","","tol_toboard","","","","","","","","","tol_peg_1","1134","1134","0","[[2,0,0],[3,1],[0]]","11","[[2,1,0],[3,0],[0]]","8","0","","","","","","6","",""
"","","","","","single-stim-button","328","1281889","0.0-3.0-34.11-0.11","5e76c87c0fd39b22d52eba04","B2","batch2","","711","","","tol_tohand","","","","","","","","","tol_peg_2","711","711","0","[[2,0,0],[3,0],[0]]","12","[[2,1,0],[3,0],[0]]","8","0","","","","","","6","",""
"","","","","","single-stim-button","329","1282726","0.0-3.0-34.11-1.11","5e76c87c0fd39b22d52eba04","B2","batch2","","837","","","tol_toboard","","","","","","","","","tol_peg_1","837","837","0","[[2,1,0],[3,0],[0]]","12","[[2,1,0],[3,0],[0]]","8","0","","","","","","6","",""
"","","","","","poldrack-single-stim","330","1283739","0.0-3.0-35.0","5e76c87c0fd39b22d52eba04","B2","batch2","","-1","","","tol_feedback","true","","","","","","","","","1000","1000","500","","","","","","-1","none","true","7698","34580","","",""
"","","","","","html-button-response","331","1285051","0.0-3.0-36.0","5e76c87c0fd39b22d52eba04","B2","batch2","","1311.1000000238419","<div class = centerbox><p class = center-block-text>problem <strong>10</strong> out of 25 problems</p></div>","0","tol_trial_num","","","","","","","","","","","","","","","","","","","","","","","","",""
"","","","","","single-stim-button","332","1288852","0.0-3.0-37.0-0.0","5e76c87c0fd39b22d52eba04","B2","batch2","","3801","","","tol_tohand","","","","","","","","","tol_peg_3","3801","3801","0","[[3,0,0],[1,0],[0]]","1","[[3,0,0],[2,1],[0]]","9","0","","","","","","3","",""
"","","","","","single-stim-button","333","1289882","0.0-3.0-37.0-1.0","5e76c87c0fd39b22d52eba04","B2","batch2","","1029","","","tol_toboard","","","","","","","","","tol_peg_1","1029","1029","0","[[3,2,0],[1,0],[0]]","1","[[3,0,0],[2,1],[0]]","9","0","","","","","","3","",""
"","","","","","single-stim-button","334","1291100","0.0-3.0-37.1-0.1","5e76c87c0fd39b22d52eba04","B2","batch2","","1216","","","tol_tohand","","","","","","","","","tol_peg_2","1216","1216","0","[[3,2,0],[0,0],[0]]","2","[[3,0,0],[2,1],[0]]","9","0","","","","","","3","",""
"","","","","","single-stim-button","335","1291886","0.0-3.0-37.1-1.1","5e76c87c0fd39b22d52eba04","B2","batch2","","786","","","tol_toboard","","","","","","","","","tol_peg_3","786","786","0","[[3,2,0],[0,0],[1]]","2","[[3,0,0],[2,1],[0]]","9","0","","","","","","3","",""
"","","","","","single-stim-button","336","1296372","0.0-3.0-37.2-0.2","5e76c87c0fd39b22d52eba04","B2","batch2","","4485","","","tol_tohand","","","","","","","","","tol_peg_1","4485","4485","0","[[3,0,0],[0,0],[1]]","3","[[3,0,0],[2,1],[0]]","9","0","","","","","","3","",""
"","","","","","single-stim-button","337","1297490","0.0-3.0-37.2-1.2","5e76c87c0fd39b22d52eba04","B2","batch2","","1118","","","tol_toboard","","","","","","","","","tol_peg_2","1118","1118","0","[[3,0,0],[2,0],[1]]","3","[[3,0,0],[2,1],[0]]","9","0","","","","","","3","",""
"","","","","","single-stim-button","338","1298215","0.0-3.0-37.3-0.3","5e76c87c0fd39b22d52eba04","B2","batch2","","724","","","tol_tohand","","","","","","","","","tol_peg_3","724","724","0","[[3,0,0],[2,0],[0]]","4","[[3,0,0],[2,1],[0]]","9","0","","","","","","3","",""
"","","","","","single-stim-button","339","1299572","0.0-3.0-37.3-1.3","5e76c87c0fd39b22d52eba04","B2","batch2","","1357","","","tol_toboard","","","","","","","","","tol_peg_2","1357","1357","0","[[3,0,0],[2,1],[0]]","4","[[3,0,0],[2,1],[0]]","9","0","","","","","","3","",""
"","","","","","poldrack-single-stim","340","1300602","0.0-3.0-38.0","5e76c87c0fd39b22d52eba04","B2","batch2","","-1","","","tol_feedback","true","","","","","","","","","1000","1000","500","","","","","","-1","none","true","3801","10226","","",""
"","","","","","html-button-response","341","1301747","0.0-3.0-39.0","5e76c87c0fd39b22d52eba04","B2","batch2","","1144","<div class = centerbox><p class = center-block-text>problem <strong>11</strong> out of 25 problems</p></div>","0","tol_trial_num","","","","","","","","","","","","","","","","","","","","","","","","",""
"","","","","","single-stim-button","342","1305901","0.0-3.0-40.0-0.0","5e76c87c0fd39b22d52eba04","B2","batch2","","4154","","","tol_tohand","","","","","","","","","tol_peg_2","4154","4154","0","[[1,2,0],[0,0],[0]]","1","[[2,0,0],[1,3],[0]]","10","0","","","","","","6","",""
"","","","","","single-stim-button","343","1307121","0.0-3.0-40.0-1.0","5e76c87c0fd39b22d52eba04","B2","batch2","","1219","","","tol_toboard","","","","","","","","","tol_peg_3","1219","1219","0","[[1,2,0],[0,0],[3]]","1","[[2,0,0],[1,3],[0]]","10","0","","","","","","6","",""
"","","","","","single-stim-button","344","1309485","0.0-3.0-40.1-0.1","5e76c87c0fd39b22d52eba04","B2","batch2","","2364","","","tol_tohand","","","","","","","","","tol_peg_1","2364","2364","0","[[1,0,0],[0,0],[3]]","2","[[2,0,0],[1,3],[0]]","10","0","","","","","","6","",""
"","","","","","single-stim-button","345","1319433","0.0-3.0-40.1-1.1","5e76c87c0fd39b22d52eba04","B2","batch2","","9947","","","tol_toboard","","","","","","","","","tol_peg_2","9947","9947","0","[[1,0,0],[2,0],[3]]","2","[[2,0,0],[1,3],[0]]","10","0","","","","","","6","",""
