"success","timeout","failed_images","failed_audio","failed_video","trial_type","trial_index","time_elapsed","internal_node_id","subject_id","study_id","session_id","view_history","rt","stimulus","response","task","correct","answer","item","fiar_detect_rt","fiar_detect_correct","total_correct_fiar_detect","post_trial_gap","choices","spm_correct","spm_rt","mouse_click","stim_duration","block_duration","timing_post_trial","current_position","tol_num_moves_made","tol_target","tol_problem_id","tol_rt","key_press","possible_responses","tol_correct","preplanning","tol_rt_per_trial","tol_min_moves"
"true","false","[]","[]","[]","preload","0","1310","0.0-0.0","5e77a65dcce2a2319f9e8849","D2","batch4","","","","","","","","","","","","","","","","","","","","","","","","","","","","","",""
"true","","","","","fullscreen","1","6983","0.0-1.0-0.0","5e77a65dcce2a2319f9e8849","D2","batch4","","","","","","","","","","","","","","","","","","","","","","","","","","","","","",""
"true","","","","","fullscreen","2","10072","0.0-2.0-0.0","5e77a65dcce2a2319f9e8849","D2","batch4","","","","","","","","","","","","","","","","","","","","","","","","","","","","","",""
"","","","","","instructions","3","27315","0.0-2.0-1.0-0.0","5e77a65dcce2a2319f9e8849","D2","batch4","[{""page_index"":0,""viewing_time"":11905.5},{""page_index"":1,""viewing_time"":5335.899999976158}]","17242","","","","","","","","","","","","","","","","","","","","","","","","","","","",""
"","","","","","html-button-response","4","28584","0.0-2.0-1.0-1.0-0.0","5e77a65dcce2a2319f9e8849","D2","batch4","","1266.5999999642372","<p class=block-text> Let's answer a few questions <br>","0","pattern_enter_quiz","","","","","","","","","","","","","","","","","","","","","","","","",""
"","","","","","html-button-response","5","30600","0.0-2.0-1.0-1.0-1.0","5e77a65dcce2a2319f9e8849","D2","batch4","","2014.0999999642372","<p class = block-text>True or False: You will have as much time as you want to make each choice. <br></p>","1","pattern_quiz","true","","","","","","","","","","","","","","","","","","","","","","","",""
"","","","","","html-button-response","6","32280","0.0-2.0-1.0-1.0-2.0","5e77a65dcce2a2319f9e8849","D2","batch4","","1678.5","<p class = block-text>Correct! You should make your choice <strong> as fast as you can</strong>.</p>","0","pattern_quiz_feedback","","","","","","","","","","","","","","","","","","","","","","","","",""
"","","","","","html-button-response","7","35238","0.0-2.0-1.0-1.0-3.0","5e77a65dcce2a2319f9e8849","D2","batch4","","2956.699999988079","<p class = block-text>True or False: You will look for 4 pieces in black or white color connected in a row either horizontally, vertically or diagonally. <br></p>","0","pattern_quiz","true","","","","","","","","","","","","","","","","","","","","","","","",""
"","","","","","html-button-response","8","36353","0.0-2.0-1.0-1.0-4.0","5e77a65dcce2a2319f9e8849","D2","batch4","","1112.800000011921","<p class = block-text>Correct! </p>","0","pattern_quiz_feedback","","","","","","","","","","","","","","","","","","","","","","","","",""
"","","","","","html-button-response","9","39182","0.0-2.0-2.0","5e77a65dcce2a2319f9e8849","D2","batch4","","2826.900000035763","<p class=block-text> Now that you've understood the game, let's do a few practice trials before we start!<br> <br>","0","pattern_enter_practice","","","","","","","","","","","","","","","","","","","","","","","","",""
"","","","","","image-keyboard-response","10","41250","0.0-2.0-3.0-0.0","5e77a65dcce2a2319f9e8849","D2","batch4","","2062.800000011921","stim/prac_yes_20_dia_b1.png","j","pattern_practice","false","f","","","","","","","","","","","","","","","","","","","","","","",""
"","","","","","html-keyboard-response","11","42264","0.0-2.0-3.0-1.0","5e77a65dcce2a2319f9e8849","D2","batch4","","null","<p style=""font-size:30px;color:red;"">Wrong.</p>","null","pattern_feedback","","","","","","","","","","","","","","","","","","","","","","","","",""
"","","","","","image-keyboard-response","12","43337","0.0-2.0-3.0-0.1","5e77a65dcce2a2319f9e8849","D2","batch4","","1071.4000000357628","stim/prac_yes_16_ver_w1.png","f","pattern_practice","true","f","","","","","","","","","","","","","","","","","","","","","","",""
"","","","","","html-keyboard-response","13","44353","0.0-2.0-3.0-1.1","5e77a65dcce2a2319f9e8849","D2","batch4","","null","<p style=""font-size:30px;color:green;"">Correct!</p>","null","pattern_feedback","","","","","","","","","","","","","","","","","","","","","","","","",""
"","","","","","image-keyboard-response","14","46107","0.0-2.0-3.0-0.2","5e77a65dcce2a2319f9e8849","D2","batch4","","1752.5","stim/prac_no_16_1.png","j","pattern_practice","true","j","","","","","","","","","","","","","","","","","","","","","","",""
"","","","","","html-keyboard-response","15","47122","0.0-2.0-3.0-1.2","5e77a65dcce2a2319f9e8849","D2","batch4","","null","<p style=""font-size:30px;color:green;"">Correct!</p>","null","pattern_feedback","","","","","","","","","","","","","","","","","","","","","","","","",""
"","","","","","image-keyboard-response","16","48035","0.0-2.0-3.0-0.3","5e77a65dcce2a2319f9e8849","D2","batch4","","910.6999999880791","stim/prac_yes_18_hor_w1.png","f","pattern_practice","true","f","","","","","","","","","","","","","","","","","","","","","","",""
"","","","","","html-keyboard-response","17","49048","0.0-2.0-3.0-1.3","5e77a65dcce2a2319f9e8849","D2","batch4","","null","<p style=""font-size:30px;color:green;"">Correct!</p>","null","pattern_feedback","","","","","","","","","","","","","","","","","","","","","","","","",""
"","","","","","image-keyboard-response","18","50153","0.0-2.0-3.0-0.4","5e77a65dcce2a2319f9e8849","D2","batch4","","1103.699999988079","stim/prac_no_18_1.png","j","pattern_practice","true","j","","","","","","","","","","","","","","","","","","","","","","",""
"","","","","","html-keyboard-response","19","51160","0.0-2.0-3.0-1.4","5e77a65dcce2a2319f9e8849","D2","batch4","","null","<p style=""font-size:30px;color:green;"">Correct!</p>","null","pattern_feedback","","","","","","","","","","","","","","","","","","","","","","","","",""
"","","","","","html-button-response","20","54558","0.0-2.0-4.0","5e77a65dcce2a2319f9e8849","D2","batch4","","3396.199999988079","<p class=block-text> Good job! You are done with practice trials!<br>
        You responded correctly on 80% of the trials.<br>
        Press the button below to start official trials. Now you won't see any feedback about your response</p>","0","pattern_enter_official_trials","","","","","","","","","","","","","","","","","","","","","","","","",""
"","","","","","html-keyboard-response","21","55364","0.0-2.0-5.0-0.0","5e77a65dcce2a2319f9e8849","D2","batch4","","null","<p class=block-text>Trial 1 out of 78</p>","null","pattern_show_trial_num","","","","","","","","","","","","","","","","","","","","","","","","",""
"","","","","","image-keyboard-response","22","58302","0.0-2.0-5.0-1.0","5e77a65dcce2a2319f9e8849","D2","batch4","","2936.400000035763","stim/yes_63_dia_b1.png","f","pattern_response","true","f","pattern_78","2936.400000035763","true","1","","","","","","","","","","","","","","","","","","",""
"","","","","","html-keyboard-response","23","59619","0.0-2.0-5.0-0.1","5e77a65dcce2a2319f9e8849","D2","batch4","","null","<p class=block-text>Trial 2 out of 78</p>","null","pattern_show_trial_num","","","","","","","","","","","","","","","","","","","","","","","","",""
"","","","","","image-keyboard-response","24","61221","0.0-2.0-5.0-1.1","5e77a65dcce2a2319f9e8849","D2","batch4","","1600.800000011921","stim/no_43_2_b.png","j","pattern_response","true","j","pattern_23","1600.800000011921","true","2","","","","","","","","","","","","","","","","","","",""
"","","","","","html-keyboard-response","25","62536","0.0-2.0-5.0-0.2","5e77a65dcce2a2319f9e8849","D2","batch4","","null","<p class=block-text>Trial 3 out of 78</p>","null","pattern_show_trial_num","","","","","","","","","","","","","","","","","","","","","","","","",""
"","","","","","image-keyboard-response","26","63646","0.0-2.0-5.0-1.2","5e77a65dcce2a2319f9e8849","D2","batch4","","1108.699999988079","stim/yes_26_dia_w2_w.png","f","pattern_response","true","f","pattern_50","1108.699999988079","true","3","","","","","","","","","","","","","","","","","","",""
"","","","","","html-keyboard-response","27","64963","0.0-2.0-5.0-0.3","5e77a65dcce2a2319f9e8849","D2","batch4","","null","<p class=block-text>Trial 4 out of 78</p>","null","pattern_show_trial_num","","","","","","","","","","","","","","","","","","","","","","","","",""
"","","","","","image-keyboard-response","28","65990","0.0-2.0-5.0-1.3","5e77a65dcce2a2319f9e8849","D2","batch4","","1024.199999988079","stim/yes_46_ver_b1_b.png","f","pattern_response","true","f","pattern_68","1024.199999988079","true","4","","","","","","","","","","","","","","","","","","",""
"","","","","","html-keyboard-response","29","67301","0.0-2.0-5.0-0.4","5e77a65dcce2a2319f9e8849","D2","batch4","","null","<p class=block-text>Trial 5 out of 78</p>","null","pattern_show_trial_num","","","","","","","","","","","","","","","","","","","","","","","","",""
"","","","","","image-keyboard-response","30","69431","0.0-2.0-5.0-1.4","5e77a65dcce2a2319f9e8849","D2","batch4","","2127.699999988079","stim/no_39_1_w.png","j","pattern_response","true","j","pattern_21","2127.699999988079","true","5","","","","","","","","","","","","","","","","","","",""
"","","","","","html-keyboard-response","31","70771","0.0-2.0-5.0-0.5","5e77a65dcce2a2319f9e8849","D2","batch4","","null","<p class=block-text>Trial 6 out of 78</p>","null","pattern_show_trial_num","","","","","","","","","","","","","","","","","","","","","","","","",""
"","","","","","image-keyboard-response","32","71886","0.0-2.0-5.0-1.5","5e77a65dcce2a2319f9e8849","D2","batch4","","1113.7000000476837","stim/yes_30_ver_b1_b.png","f","pattern_response","true","f","pattern_54","1113.7000000476837","true","6","","","","","","","","","","","","","","","","","","",""
"","","","","","html-keyboard-response","33","73207","0.0-2.0-5.0-0.6","5e77a65dcce2a2319f9e8849","D2","batch4","","null","<p class=block-text>Trial 7 out of 78</p>","null","pattern_show_trial_num","","","","","","","","","","","","","","","","","","","","","","","","",""
"","","","","","image-keyboard-response","34","75248","0.0-2.0-5.0-1.6","5e77a65dcce2a2319f9e8849","D2","batch4","","2038.699999988079","stim/no_36_1_b.png","j","pattern_response","true","j","pattern_17","2038.699999988079","true","7","","","","","","","","","","","","","","","","","","",""
"","","","","","html-keyboard-response","35","76559","0.0-2.0-5.0-0.7","5e77a65dcce2a2319f9e8849","D2","batch4","","null","<p class=block-text>Trial 8 out of 78</p>","null","pattern_show_trial_num","","","","","","","","","","","","","","","","","","","","","","","","",""
"","","","","","image-keyboard-response","36","78661","0.0-2.0-5.0-1.7","5e77a65dcce2a2319f9e8849","D2","batch4","","2100.2000000476837","stim/yes_42_dia_w1_w.png","j","pattern_response","false","f","pattern_64","2100.2000000476837","false","7","","","","","","","","","","","","","","","","","","",""
"","","","","","html-keyboard-response","37","79980","0.0-2.0-5.0-0.8","5e77a65dcce2a2319f9e8849","D2","batch4","","null","<p class=block-text>Trial 9 out of 78</p>","null","pattern_show_trial_num","","","","","","","","","","","","","","","","","","","","","","","","",""
"","","","","","image-keyboard-response","38","80863","0.0-2.0-5.0-1.8","5e77a65dcce2a2319f9e8849","D2","batch4","","880.5999999642372","stim/no_18_1_b.png","j","pattern_response","true","j","pattern_05","880.5999999642372","true","8","","","","","","","","","","","","","","","","","","",""
"","","","","","html-keyboard-response","39","82172","0.0-2.0-5.0-0.9","5e77a65dcce2a2319f9e8849","D2","batch4","","null","<p class=block-text>Trial 10 out of 78</p>","null","pattern_show_trial_num","","","","","","","","","","","","","","","","","","","","","","","","",""
"","","","","","image-keyboard-response","40","84107","0.0-2.0-5.0-1.9","5e77a65dcce2a2319f9e8849","D2","batch4","","1932.300000011921","stim/no_28_2.png","j","pattern_response","true","j","pattern_11","1932.300000011921","true","9","","","","","","","","","","","","","","","","","","",""
"","","","","","html-keyboard-response","41","85419","0.0-2.0-5.0-0.10","5e77a65dcce2a2319f9e8849","D2","batch4","","null","<p class=block-text>Trial 11 out of 78</p>","null","pattern_show_trial_num","","","","","","","","","","","","","","","","","","","","","","","","",""
"","","","","","image-keyboard-response","42","86146","0.0-2.0-5.0-1.10","5e77a65dcce2a2319f9e8849","D2","batch4","","724.1999999880791","stim/yes_29_hor_b1_b.png","f","pattern_response","true","f","pattern_52","724.1999999880791","true","10","","","","","","","","","","","","","","","","","","",""
"","","","","","html-keyboard-response","43","87452","0.0-2.0-5.0-0.11","5e77a65dcce2a2319f9e8849","D2","batch4","","null","<p class=block-text>Trial 12 out of 78</p>","null","pattern_show_trial_num","","","","","","","","","","","","","","","","","","","","","","","","",""
"","","","","","image-keyboard-response","44","91228","0.0-2.0-5.0-1.11","5e77a65dcce2a2319f9e8849","D2","batch4","","3774","stim/no_67_1.png","j","pattern_response","true","j","pattern_39","3774","true","11","","","","","","","","","","","","","","","","","","",""
"","","","","","html-keyboard-response","45","92537","0.0-2.0-5.0-0.12","5e77a65dcce2a2319f9e8849","D2","batch4","","null","<p class=block-text>Trial 13 out of 78</p>","null","pattern_show_trial_num","","","","","","","","","","","","","","","","","","","","","","","","",""
"","","","","","image-keyboard-response","46","93183","0.0-2.0-5.0-1.12","5e77a65dcce2a2319f9e8849","D2","batch4","","643.1999999880791","stim/yes_12_hor_w1_w.png","f","pattern_response","true","f","pattern_42","643.1999999880791","true","12","","","","","","","","","","","","","","","","","","",""
"","","","","","html-keyboard-response","47","94500","0.0-2.0-5.0-0.13","5e77a65dcce2a2319f9e8849","D2","batch4","","null","<p class=block-text>Trial 14 out of 78</p>","null","pattern_show_trial_num","","","","","","","","","","","","","","","","","","","","","","","","",""
"","","","","","image-keyboard-response","48","96311","0.0-2.0-5.0-1.13","5e77a65dcce2a2319f9e8849","D2","batch4","","1808.800000011921","stim/no_37_2_w.png","j","pattern_response","true","j","pattern_19","1808.800000011921","true","13","","","","","","","","","","","","","","","","","","",""
"","","","","","html-keyboard-response","49","97631","0.0-2.0-5.0-0.14","5e77a65dcce2a2319f9e8849","D2","batch4","","null","<p class=block-text>Trial 15 out of 78</p>","null","pattern_show_trial_num","","","","","","","","","","","","","","","","","","","","","","","","",""
"","","","","","image-keyboard-response","50","99050","0.0-2.0-5.0-1.14","5e77a65dcce2a2319f9e8849","D2","batch4","","1416.800000011921","stim/yes_33_dia_w1_w.png","f","pattern_response","true","f","pattern_56","1416.800000011921","true","14","","","","","","","","","","","","","","","","","","",""
"","","","","","html-keyboard-response","51","100359","0.0-2.0-5.0-0.15","5e77a65dcce2a2319f9e8849","D2","batch4","","null","<p class=block-text>Trial 16 out of 78</p>","null","pattern_show_trial_num","","","","","","","","","","","","","","","","","","","","","","","","",""
"","","","","","image-keyboard-response","52","101054","0.0-2.0-5.0-1.15","5e77a65dcce2a2319f9e8849","D2","batch4","","692.7999999523163","stim/yes_17_ver_b1_b.png","f","pattern_response","true","f","pattern_46","692.7999999523163","true","15","","","","","","","","","","","","","","","","","","",""
"","","","","","html-keyboard-response","53","102370","0.0-2.0-5.0-0.16","5e77a65dcce2a2319f9e8849","D2","batch4","","null","<p class=block-text>Trial 17 out of 78</p>","null","pattern_show_trial_num","","","","","","","","","","","","","","","","","","","","","","","","",""
"","","","","","image-keyboard-response","54","103399","0.0-2.0-5.0-1.16","5e77a65dcce2a2319f9e8849","D2","batch4","","1027.6000000238419","stim/no_15_1_w.png","j","pattern_response","true","j","pattern_03","1027.6000000238419","true","16","","","","","","","","","","","","","","","","","","",""
"","","","","","html-keyboard-response","55","104714","0.0-2.0-5.0-0.17","5e77a65dcce2a2319f9e8849","D2","batch4","","null","<p class=block-text>Trial 18 out of 78</p>","null","pattern_show_trial_num","","","","","","","","","","","","","","","","","","","","","","","","",""
"","","","","","image-keyboard-response","56","107253","0.0-2.0-5.0-1.17","5e77a65dcce2a2319f9e8849","D2","batch4","","2536.5","stim/no_45_1_w.png","j","pattern_response","true","j","pattern_25","2536.5","true","17","","","","","","","","","","","","","","","","","","",""
"","","","","","html-keyboard-response","57","108574","0.0-2.0-5.0-0.18","5e77a65dcce2a2319f9e8849","D2","batch4","","null","<p class=block-text>Trial 19 out of 78</p>","null","pattern_show_trial_num","","","","","","","","","","","","","","","","","","","","","","","","",""
"","","","","","image-keyboard-response","58","111379","0.0-2.0-5.0-1.18","5e77a65dcce2a2319f9e8849","D2","batch4","","2801.800000011921","stim/yes_58_dia_w1_w.png","j","pattern_response","false","f","pattern_76","2801.800000011921","false","17","","","","","","","","","","","","","","","","","","",""
"","","","","","html-keyboard-response","59","112684","0.0-2.0-5.0-0.19","5e77a65dcce2a2319f9e8849","D2","batch4","","null","<p class=block-text>Trial 20 out of 78</p>","null","pattern_show_trial_num","","","","","","","","","","","","","","","","","","","","","","","","",""
"","","","","","image-keyboard-response","60","113811","0.0-2.0-5.0-1.19","5e77a65dcce2a2319f9e8849","D2","batch4","","1124.699999988079","stim/yes_53_ver_b1_b.png","f","pattern_response","true","f","pattern_74","1124.699999988079","true","18","","","","","","","","","","","","","","","","","","",""
"","","","","","html-keyboard-response","61","115129","0.0-2.0-5.0-0.20","5e77a65dcce2a2319f9e8849","D2","batch4","","null","<p class=block-text>Trial 21 out of 78</p>","null","pattern_show_trial_num","","","","","","","","","","","","","","","","","","","","","","","","",""
"","","","","","image-keyboard-response","62","117134","0.0-2.0-5.0-1.20","5e77a65dcce2a2319f9e8849","D2","batch4","","2003.0999999642372","stim/yes_37_hor_w1_w.png","j","pattern_response","false","f","pattern_60","2003.0999999642372","false","18","","","","","","","","","","","","","","","","","","",""
"","","","","","html-keyboard-response","63","118469","0.0-2.0-5.0-0.21","5e77a65dcce2a2319f9e8849","D2","batch4","","null","<p class=block-text>Trial 22 out of 78</p>","null","pattern_show_trial_num","","","","","","","","","","","","","","","","","","","","","","","","",""
"","","","","","image-keyboard-response","64","120781","0.0-2.0-5.0-1.21","5e77a65dcce2a2319f9e8849","D2","batch4","","2309.5","stim/no_47_1_b.png","j","pattern_response","true","j","pattern_27","2309.5","true","19","","","","","","","","","","","","","","","","","","",""
"","","","","","html-keyboard-response","65","122088","0.0-2.0-5.0-0.22","5e77a65dcce2a2319f9e8849","D2","batch4","","null","<p class=block-text>Trial 23 out of 78</p>","null","pattern_show_trial_num","","","","","","","","","","","","","","","","","","","","","","","","",""
"","","","","","image-keyboard-response","66","122881","0.0-2.0-5.0-1.22","5e77a65dcce2a2319f9e8849","D2","batch4","","789.7999999523163","stim/yes_36_ver_w1_w.png","f","pattern_response","true","f","pattern_58","789.7999999523163","true","20","","","","","","","","","","","","","","","","","","",""
"","","","","","html-keyboard-response","67","124194","0.0-2.0-5.0-0.23","5e77a65dcce2a2319f9e8849","D2","batch4","","null","<p class=block-text>Trial 24 out of 78</p>","null","pattern_show_trial_num","","","","","","","","","","","","","","","","","","","","","","","","",""
"","","","","","image-keyboard-response","68","125004","0.0-2.0-5.0-1.23","5e77a65dcce2a2319f9e8849","D2","batch4","","807.7000000476837","stim/yes_44_ver_w1_w.png","f","pattern_response","true","f","pattern_66","807.7000000476837","true","21","","","","","","","","","","","","","","","","","","",""
"","","","","","html-keyboard-response","69","126324","0.0-2.0-5.0-0.24","5e77a65dcce2a2319f9e8849","D2","batch4","","null","<p class=block-text>Trial 25 out of 78</p>","null","pattern_show_trial_num","","","","","","","","","","","","","","","","","","","","","","","","",""
"","","","","","image-keyboard-response","70","128198","0.0-2.0-5.0-1.24","5e77a65dcce2a2319f9e8849","D2","batch4","","1872","stim/no_58_1_w.png","j","pattern_response","true","j","pattern_35","1872","true","22","","","","","","","","","","","","","","","","","","",""
"","","","","","html-keyboard-response","71","129512","0.0-2.0-5.0-0.25","5e77a65dcce2a2319f9e8849","D2","batch4","","null","<p class=block-text>Trial 26 out of 78</p>","null","pattern_show_trial_num","","","","","","","","","","","","","","","","","","","","","","","","",""
"","","","","","image-keyboard-response","72","130372","0.0-2.0-5.0-1.25","5e77a65dcce2a2319f9e8849","D2","batch4","","848","stim/yes_15_dia_b1u_b.png","f","pattern_response","true","f","pattern_44","848","true","23","","","","","","","","","","","","","","","","","","",""
"","","","","","html-keyboard-response","73","131688","0.0-2.0-5.0-0.26","5e77a65dcce2a2319f9e8849","D2","batch4","","null","<p class=block-text>Trial 27 out of 78</p>","null","pattern_show_trial_num","","","","","","","","","","","","","","","","","","","","","","","","",""
"","","","","","image-keyboard-response","74","132833","0.0-2.0-5.0-1.26","5e77a65dcce2a2319f9e8849","D2","batch4","","1142.6000000238419","stim/no_25_1_b.png","j","pattern_response","true","j","pattern_09","1142.6000000238419","true","24","","","","","","","","","","","","","","","","","","",""
"","","","","","html-keyboard-response","75","134143","0.0-2.0-5.0-0.27","5e77a65dcce2a2319f9e8849","D2","batch4","","null","<p class=block-text>Trial 28 out of 78</p>","null","pattern_show_trial_num","","","","","","","","","","","","","","","","","","","","","","","","",""
"","","","","","image-keyboard-response","76","134961","0.0-2.0-5.0-1.27","5e77a65dcce2a2319f9e8849","D2","batch4","","816.3000000119209","stim/yes_70_ver_b1.png","f","pattern_response","true","f","pattern_80","816.3000000119209","true","25","","","","","","","","","","","","","","","","","","",""
"","","","","","html-keyboard-response","77","136273","0.0-2.0-5.0-0.28","5e77a65dcce2a2319f9e8849","D2","batch4","","null","<p class=block-text>Trial 29 out of 78</p>","null","pattern_show_trial_num","","","","","","","","","","","","","","","","","","","","","","","","",""
"","","","","","image-keyboard-response","78","137801","0.0-2.0-5.0-1.28","5e77a65dcce2a2319f9e8849","D2","batch4","","1527","stim/no_51_1.png","j","pattern_response","true","j","pattern_31","1527","true","26","","","","","","","","","","","","","","","","","","",""
"","","","","","html-keyboard-response","79","139119","0.0-2.0-5.0-0.29","5e77a65dcce2a2319f9e8849","D2","batch4","","null","<p class=block-text>Trial 30 out of 78</p>","null","pattern_show_trial_num","","","","","","","","","","","","","","","","","","","","","","","","",""
"","","","","","image-keyboard-response","80","140477","0.0-2.0-5.0-1.29","5e77a65dcce2a2319f9e8849","D2","batch4","","1356.1000000238419","stim/yes_49_hor_w1_b.png","f","pattern_response","true","f","pattern_70","1356.1000000238419","true","27","","","","","","","","","","","","","","","","","","",""
"","","","","","html-keyboard-response","81","141798","0.0-2.0-5.0-0.30","5e77a65dcce2a2319f9e8849","D2","batch4","","null","<p class=block-text>Trial 31 out of 78</p>","null","pattern_show_trial_num","","","","","","","","","","","","","","","","","","","","","","","","",""
"","","","","","image-keyboard-response","82","142728","0.0-2.0-5.0-1.30","5e77a65dcce2a2319f9e8849","D2","batch4","","927.7000000476837","stim/no_22_1_b.png","j","pattern_response","true","j","pattern_07","927.7000000476837","true","28","","","","","","","","","","","","","","","","","","",""
"","","","","","html-keyboard-response","83","144046","0.0-2.0-5.0-0.31","5e77a65dcce2a2319f9e8849","D2","batch4","","null","<p class=block-text>Trial 32 out of 78</p>","null","pattern_show_trial_num","","","","","","","","","","","","","","","","","","","","","","","","",""
"","","","","","image-keyboard-response","84","145879","0.0-2.0-5.0-1.31","5e77a65dcce2a2319f9e8849","D2","batch4","","1831.8999999761581","stim/yes_51_dia_b1.png","f","pattern_response","true","f","pattern_72","1831.8999999761581","true","29","","","","","","","","","","","","","","","","","","",""
"","","","","","html-keyboard-response","85","147200","0.0-2.0-5.0-0.32","5e77a65dcce2a2319f9e8849","D2","batch4","","null","<p class=block-text>Trial 33 out of 78</p>","null","pattern_show_trial_num","","","","","","","","","","","","","","","","","","","","","","","","",""
"","","","","","image-keyboard-response","86","148658","0.0-2.0-5.0-1.32","5e77a65dcce2a2319f9e8849","D2","batch4","","1455.9000000357628","stim/no_33_1_b.png","j","pattern_response","true","j","pattern_15","1455.9000000357628","true","30","","","","","","","","","","","","","","","","","","",""
"","","","","","html-keyboard-response","87","149978","0.0-2.0-5.0-0.33","5e77a65dcce2a2319f9e8849","D2","batch4","","null","<p class=block-text>Trial 34 out of 78</p>","null","pattern_show_trial_num","","","","","","","","","","","","","","","","","","","","","","","","",""
"","","","","","image-keyboard-response","88","151792","0.0-2.0-5.0-1.33","5e77a65dcce2a2319f9e8849","D2","batch4","","1811","stim/no_30_1_b.png","j","pattern_response","true","j","pattern_13","1811","true","31","","","","","","","","","","","","","","","","","","",""
"","","","","","html-keyboard-response","89","153110","0.0-2.0-5.0-0.34","5e77a65dcce2a2319f9e8849","D2","batch4","","null","<p class=block-text>Trial 35 out of 78</p>","null","pattern_show_trial_num","","","","","","","","","","","","","","","","","","","","","","","","",""
"","","","","","image-keyboard-response","90","153969","0.0-2.0-5.0-1.34","5e77a65dcce2a2319f9e8849","D2","batch4","","856.8000000119209","stim/yes_23_ver_b1.png","f","pattern_response","true","f","pattern_48","856.8000000119209","true","32","","","","","","","","","","","","","","","","","","",""
"","","","","","html-keyboard-response","91","155276","0.0-2.0-5.0-0.35","5e77a65dcce2a2319f9e8849","D2","batch4","","null","<p class=block-text>Trial 36 out of 78</p>","null","pattern_show_trial_num","","","","","","","","","","","","","","","","","","","","","","","","",""
"","","","","","image-keyboard-response","92","158263","0.0-2.0-5.0-1.35","5e77a65dcce2a2319f9e8849","D2","batch4","","2985.300000011921","stim/no_53_1_b.png","j","pattern_response","true","j","pattern_33","2985.300000011921","true","33","","","","","","","","","","","","","","","","","","",""
"","","","","","html-keyboard-response","93","159581","0.0-2.0-5.0-0.36","5e77a65dcce2a2319f9e8849","D2","batch4","","null","<p class=block-text>Trial 37 out of 78</p>","null","pattern_show_trial_num","","","","","","","","","","","","","","","","","","","","","","","","",""
"","","","","","image-keyboard-response","94","160501","0.0-2.0-5.0-1.36","5e77a65dcce2a2319f9e8849","D2","batch4","","917.8000000119209","stim/no_12_1.png","j","pattern_response","true","j","pattern_01","917.8000000119209","true","34","","","","","","","","","","","","","","","","","","",""
"","","","","","html-keyboard-response","95","161818","0.0-2.0-5.0-0.37","5e77a65dcce2a2319f9e8849","D2","batch4","","null","<p class=block-text>Trial 38 out of 78</p>","null","pattern_show_trial_num","","","","","","","","","","","","","","","","","","","","","","","","",""
"","","","","","image-keyboard-response","96","164327","0.0-2.0-5.0-1.37","5e77a65dcce2a2319f9e8849","D2","batch4","","2507.699999988079","stim/no_49_2_b.png","j","pattern_response","true","j","pattern_29","2507.699999988079","true","35","","","","","","","","","","","","","","","","","","",""
"","","","","","html-keyboard-response","97","165640","0.0-2.0-5.0-0.38","5e77a65dcce2a2319f9e8849","D2","batch4","","null","<p class=block-text>Trial 39 out of 78</p>","null","pattern_show_trial_num","","","","","","","","","","","","","","","","","","","","","","","","",""
"","","","","","image-keyboard-response","98","166298","0.0-2.0-5.0-1.38","5e77a65dcce2a2319f9e8849","D2","batch4","","655.8000000119209","stim/yes_39_hor_w1_w.png","f","pattern_response","true","f","pattern_62","655.8000000119209","true","36","","","","","","","","","","","","","","","","","","",""
"","","","","","image-keyboard-response","99","168947","0.0-2.0-6.0","5e77a65dcce2a2319f9e8849","D2","batch4","","2130.699999988079","stim/empty_board.png","j","attention_check","true","j","","","","","500","[""f"",""j""]","","","","","","","","","","","","","","","","",""
"","","","","","html-keyboard-response","100","169749","0.0-2.0-7.0-0.0","5e77a65dcce2a2319f9e8849","D2","batch4","","null","<p class=block-text>Trial 40 out of 78</p>","null","pattern_show_trial_num","","","","","","","","","","","","","","","","","","","","","","","","",""
"","","","","","image-keyboard-response","101","171213","0.0-2.0-7.0-1.0","5e77a65dcce2a2319f9e8849","D2","batch4","","1461.5","stim/yes_35_dia_b1.png","j","pattern_response","false","f","pattern_57","1461.5","false","36","","","","","","","","","","","","","","","","","","",""
"","","","","","html-keyboard-response","102","172525","0.0-2.0-7.0-0.1","5e77a65dcce2a2319f9e8849","D2","batch4","","null","<p class=block-text>Trial 41 out of 78</p>","null","pattern_show_trial_num","","","","","","","","","","","","","","","","","","","","","","","","",""
"","","","","","image-keyboard-response","103","173504","0.0-2.0-7.0-1.1","5e77a65dcce2a2319f9e8849","D2","batch4","","976.7999999523163","stim/no_20_1_w.png","j","pattern_response","true","j","pattern_06","976.7999999523163","true","37","","","","","","","","","","","","","","","","","","",""
"","","","","","html-keyboard-response","104","174818","0.0-2.0-7.0-0.2","5e77a65dcce2a2319f9e8849","D2","batch4","","null","<p class=block-text>Trial 42 out of 78</p>","null","pattern_show_trial_num","","","","","","","","","","","","","","","","","","","","","","","","",""
"","","","","","image-keyboard-response","105","175421","0.0-2.0-7.0-1.2","5e77a65dcce2a2319f9e8849","D2","batch4","","600.4000000357628","stim/yes_25_hor_b1_b.png","f","pattern_response","true","f","pattern_49","600.4000000357628","true","38","","","","","","","","","","","","","","","","","","",""
"","","","","","html-keyboard-response","106","176730","0.0-2.0-7.0-0.3","5e77a65dcce2a2319f9e8849","D2","batch4","","null","<p class=block-text>Trial 43 out of 78</p>","null","pattern_show_trial_num","","","","","","","","","","","","","","","","","","","","","","","","",""
"","","","","","image-keyboard-response","107","180785","0.0-2.0-7.0-1.3","5e77a65dcce2a2319f9e8849","D2","batch4","","4057.399999976158","stim/no_65_1_b.png","j","pattern_response","true","j","pattern_38","4057.399999976158","true","39","","","","","","","","","","","","","","","","","","",""
"","","","","","html-keyboard-response","108","182124","0.0-2.0-7.0-0.4","5e77a65dcce2a2319f9e8849","D2","batch4","","null","<p class=block-text>Trial 44 out of 78</p>","null","pattern_show_trial_num","","","","","","","","","","","","","","","","","","","","","","","","",""
"","","","","","image-keyboard-response","109","183000","0.0-2.0-7.0-1.4","5e77a65dcce2a2319f9e8849","D2","batch4","","873.8000000119209","stim/yes_14_hor_b1_w.png","f","pattern_response","true","f","pattern_43","873.8000000119209","true","40","","","","","","","","","","","","","","","","","","",""
"","","","","","html-keyboard-response","110","184313","0.0-2.0-7.0-0.5","5e77a65dcce2a2319f9e8849","D2","batch4","","null","<p class=block-text>Trial 45 out of 78</p>","null","pattern_show_trial_num","","","","","","","","","","","","","","","","","","","","","","","","",""
"","","","","","image-keyboard-response","111","185014","0.0-2.0-7.0-1.5","5e77a65dcce2a2319f9e8849","D2","batch4","","698.3000000119209","stim/no_13_2_b.png","j","pattern_response","true","j","pattern_02","698.3000000119209","true","41","","","","","","","","","","","","","","","","","","",""
"","","","","","html-keyboard-response","112","186325","0.0-2.0-7.0-0.6","5e77a65dcce2a2319f9e8849","D2","batch4","","null","<p class=block-text>Trial 46 out of 78</p>","null","pattern_show_trial_num","","","","","","","","","","","","","","","","","","","","","","","","",""
"","","","","","image-keyboard-response","113","189000","0.0-2.0-7.0-1.6","5e77a65dcce2a2319f9e8849","D2","batch4","","2673.399999976158","stim/no_46_1_b.png","j","pattern_response","true","j","pattern_26","2673.399999976158","true","42","","","","","","","","","","","","","","","","","","",""
"","","","","","html-keyboard-response","114","190309","0.0-2.0-7.0-0.7","5e77a65dcce2a2319f9e8849","D2","batch4","","null","<p class=block-text>Trial 47 out of 78</p>","null","pattern_show_trial_num","","","","","","","","","","","","","","","","","","","","","","","","",""
"","","","","","image-keyboard-response","115","191257","0.0-2.0-7.0-1.7","5e77a65dcce2a2319f9e8849","D2","batch4","","945.3000000119209","stim/yes_28_ver_b1.png","f","pattern_response","true","f","pattern_51","945.3000000119209","true","43","","","","","","","","","","","","","","","","","","",""
"","","","","","html-keyboard-response","116","192569","0.0-2.0-7.0-0.8","5e77a65dcce2a2319f9e8849","D2","batch4","","null","<p class=block-text>Trial 48 out of 78</p>","null","pattern_show_trial_num","","","","","","","","","","","","","","","","","","","","","","","","",""
"","","","","","image-keyboard-response","117","194444","0.0-2.0-7.0-1.8","5e77a65dcce2a2319f9e8849","D2","batch4","","1874","stim/yes_37_dia_w1.png","j","pattern_response","false","f","pattern_59","1874","false","43","","","","","","","","","","","","","","","","","","",""
"","","","","","html-keyboard-response","118","195756","0.0-2.0-7.0-0.9","5e77a65dcce2a2319f9e8849","D2","batch4","","null","<p class=block-text>Trial 49 out of 78</p>","null","pattern_show_trial_num","","","","","","","","","","","","","","","","","","","","","","","","",""
"","","","","","image-keyboard-response","119","196938","0.0-2.0-7.0-1.9","5e77a65dcce2a2319f9e8849","D2","batch4","","1179.5","stim/no_26_1_w.png","j","pattern_response","true","j","pattern_10","1179.5","true","44","","","","","","","","","","","","","","","","","","",""
"","","","","","html-keyboard-response","120","198257","0.0-2.0-7.0-0.10","5e77a65dcce2a2319f9e8849","D2","batch4","","null","<p class=block-text>Trial 50 out of 78</p>","null","pattern_show_trial_num","","","","","","","","","","","","","","","","","","","","","","","","",""
"","","","","","image-keyboard-response","121","199862","0.0-2.0-7.0-1.10","5e77a65dcce2a2319f9e8849","D2","batch4","","1592.6000000238419","stim/yes_50_dia_w1.png","j","pattern_response","false","f","pattern_71","1592.6000000238419","false","44","","","","","","","","","","","","","","","","","","",""
"","","","","","html-keyboard-response","122","201172","0.0-2.0-7.0-0.11","5e77a65dcce2a2319f9e8849","D2","batch4","","null","<p class=block-text>Trial 51 out of 78</p>","null","pattern_show_trial_num","","","","","","","","","","","","","","","","","","","","","","","","",""
"","","","","","image-keyboard-response","123","203842","0.0-2.0-7.0-1.11","5e77a65dcce2a2319f9e8849","D2","batch4","","2668","stim/no_55_1_w.png","j","pattern_response","true","j","pattern_34","2668","true","45","","","","","","","","","","","","","","","","","","",""
"","","","","","html-keyboard-response","124","205160","0.0-2.0-7.0-0.12","5e77a65dcce2a2319f9e8849","D2","batch4","","null","<p class=block-text>Trial 52 out of 78</p>","null","pattern_show_trial_num","","","","","","","","","","","","","","","","","","","","","","","","",""
"","","","","","image-keyboard-response","125","207174","0.0-2.0-7.0-1.12","5e77a65dcce2a2319f9e8849","D2","batch4","","2011.1000000238419","stim/no_50_1.png","j","pattern_response","true","j","pattern_30","2011.1000000238419","true","46","","","","","","","","","","","","","","","","","","",""
"","","","","","html-keyboard-response","126","208481","0.0-2.0-7.0-0.13","5e77a65dcce2a2319f9e8849","D2","batch4","","null","<p class=block-text>Trial 53 out of 78</p>","null","pattern_show_trial_num","","","","","","","","","","","","","","","","","","","","","","","","",""
"","","","","","image-keyboard-response","127","210666","0.0-2.0-7.0-1.13","5e77a65dcce2a2319f9e8849","D2","batch4","","2183.199999988079","stim/no_34_1_b.png","j","pattern_response","true","j","pattern_16","2183.199999988079","true","47","","","","","","","","","","","","","","","","","","",""
"","","","","","html-keyboard-response","128","211986","0.0-2.0-7.0-0.14","5e77a65dcce2a2319f9e8849","D2","batch4","","null","<p class=block-text>Trial 54 out of 78</p>","null","pattern_show_trial_num","","","","","","","","","","","","","","","","","","","","","","","","",""
"","","","","","image-keyboard-response","129","215326","0.0-2.0-7.0-1.14","5e77a65dcce2a2319f9e8849","D2","batch4","","3336.899999976158","stim/yes_40_dia_b1_b.png","j","pattern_response","false","f","pattern_63","3336.899999976158","false","47","","","","","","","","","","","","","","","","","","",""
"","","","","","html-keyboard-response","130","216634","0.0-2.0-7.0-0.15","5e77a65dcce2a2319f9e8849","D2","batch4","","null","<p class=block-text>Trial 55 out of 78</p>","null","pattern_show_trial_num","","","","","","","","","","","","","","","","","","","","","","","","",""
"","","","","","image-keyboard-response","131","218731","0.0-2.0-7.0-1.15","5e77a65dcce2a2319f9e8849","D2","batch4","","2094.400000035763","stim/yes_31_hor_b1.png","f","pattern_response","true","f","pattern_55","2094.400000035763","true","48","","","","","","","","","","","","","","","","","","",""
"","","","","","html-keyboard-response","132","220042","0.0-2.0-7.0-0.16","5e77a65dcce2a2319f9e8849","D2","batch4","","null","<p class=block-text>Trial 56 out of 78</p>","null","pattern_show_trial_num","","","","","","","","","","","","","","","","","","","","","","","","",""
"","","","","","image-keyboard-response","133","222080","0.0-2.0-7.0-1.16","5e77a65dcce2a2319f9e8849","D2","batch4","","2034.8999999761581","stim/no_38_1_b.png","j","pattern_response","true","j","pattern_20","2034.8999999761581","true","49","","","","","","","","","","","","","","","","","","",""
"","","","","","html-keyboard-response","134","223397","0.0-2.0-7.0-0.17","5e77a65dcce2a2319f9e8849","D2","batch4","","null","<p class=block-text>Trial 57 out of 78</p>","null","pattern_show_trial_num","","","","","","","","","","","","","","","","","","","","","","","","",""
"","","","","","image-keyboard-response","135","224937","0.0-2.0-7.0-1.17","5e77a65dcce2a2319f9e8849","D2","batch4","","1538.4000000357628","stim/no_29_1_b.png","j","pattern_response","true","j","pattern_12","1538.4000000357628","true","50","","","","","","","","","","","","","","","","","","",""
"","","","","","html-keyboard-response","136","226248","0.0-2.0-7.0-0.18","5e77a65dcce2a2319f9e8849","D2","batch4","","null","<p class=block-text>Trial 58 out of 78</p>","null","pattern_show_trial_num","","","","","","","","","","","","","","","","","","","","","","","","",""
"","","","","","image-keyboard-response","137","229773","0.0-2.0-7.0-1.18","5e77a65dcce2a2319f9e8849","D2","batch4","","3522.399999976158","stim/no_70_2.png","j","pattern_response","true","j","pattern_40","3522.399999976158","true","51","","","","","","","","","","","","","","","","","","",""
"","","","","","html-keyboard-response","138","231092","0.0-2.0-7.0-0.19","5e77a65dcce2a2319f9e8849","D2","batch4","","null","<p class=block-text>Trial 59 out of 78</p>","null","pattern_show_trial_num","","","","","","","","","","","","","","","","","","","","","","","","",""
"","","","","","image-keyboard-response","139","232031","0.0-2.0-7.0-1.19","5e77a65dcce2a2319f9e8849","D2","batch4","","936.6999999880791","stim/yes_60_ver_b1_b.png","f","pattern_response","true","f","pattern_77","936.6999999880791","true","52","","","","","","","","","","","","","","","","","","",""
"","","","","","html-keyboard-response","140","233344","0.0-2.0-7.0-0.20","5e77a65dcce2a2319f9e8849","D2","batch4","","null","<p class=block-text>Trial 60 out of 78</p>","null","pattern_show_trial_num","","","","","","","","","","","","","","","","","","","","","","","","",""
"","","","","","image-keyboard-response","141","234058","0.0-2.0-7.0-1.20","5e77a65dcce2a2319f9e8849","D2","batch4","","712.1000000238419","stim/yes_22_ver_w1.png","f","pattern_response","true","f","pattern_47","712.1000000238419","true","53","","","","","","","","","","","","","","","","","","",""
"","","","","","html-keyboard-response","142","235372","0.0-2.0-7.0-0.21","5e77a65dcce2a2319f9e8849","D2","batch4","","null","<p class=block-text>Trial 61 out of 78</p>","null","pattern_show_trial_num","","","","","","","","","","","","","","","","","","","","","","","","",""
"","","","","","image-keyboard-response","143","236863","0.0-2.0-7.0-1.21","5e77a65dcce2a2319f9e8849","D2","batch4","","1489.1000000238419","stim/yes_45_hor_b2_b.png","f","pattern_response","true","f","pattern_67","1489.1000000238419","true","54","","","","","","","","","","","","","","","","","","",""
"","","","","","html-keyboard-response","144","238181","0.0-2.0-7.0-0.22","5e77a65dcce2a2319f9e8849","D2","batch4","","null","<p class=block-text>Trial 62 out of 78</p>","null","pattern_show_trial_num","","","","","","","","","","","","","","","","","","","","","","","","",""
"","","","","","image-keyboard-response","145","239216","0.0-2.0-7.0-1.22","5e77a65dcce2a2319f9e8849","D2","batch4","","1031.800000011921","stim/no_36_2_w.png","j","pattern_response","true","j","pattern_18","1031.800000011921","true","55","","","","","","","","","","","","","","","","","","",""
"","","","","","html-keyboard-response","146","240534","0.0-2.0-7.0-0.23","5e77a65dcce2a2319f9e8849","D2","batch4","","null","<p class=block-text>Trial 63 out of 78</p>","null","pattern_show_trial_num","","","","","","","","","","","","","","","","","","","","","","","","",""
"","","","","","image-keyboard-response","147","241746","0.0-2.0-7.0-1.23","5e77a65dcce2a2319f9e8849","D2","batch4","","1206","stim/yes_55_hor_w1_w.png","j","pattern_response","false","f","pattern_75","1206","false","55","","","","","","","","","","","","","","","","","","",""
"","","","","","html-keyboard-response","148","243053","0.0-2.0-7.0-0.24","5e77a65dcce2a2319f9e8849","D2","batch4","","null","<p class=block-text>Trial 64 out of 78</p>","null","pattern_show_trial_num","","","","","","","","","","","","","","","","","","","","","","","","",""
"","","","","","image-keyboard-response","149","244101","0.0-2.0-7.0-1.24","5e77a65dcce2a2319f9e8849","D2","batch4","","1045.5","stim/yes_43_ver_w1_w.png","f","pattern_response","true","f","pattern_65","1045.5","true","56","","","","","","","","","","","","","","","","","","",""
"","","","","","html-keyboard-response","150","245422","0.0-2.0-7.0-0.25","5e77a65dcce2a2319f9e8849","D2","batch4","","null","<p class=block-text>Trial 65 out of 78</p>","null","pattern_show_trial_num","","","","","","","","","","","","","","","","","","","","","","","","",""
"","","","","","image-keyboard-response","151","246673","0.0-2.0-7.0-1.25","5e77a65dcce2a2319f9e8849","D2","batch4","","1248.6000000238419","stim/no_17_1_w.png","j","pattern_response","true","j","pattern_04","1248.6000000238419","true","57","","","","","","","","","","","","","","","","","","",""
"","","","","","html-keyboard-response","152","247982","0.0-2.0-7.0-0.26","5e77a65dcce2a2319f9e8849","D2","batch4","","null","<p class=block-text>Trial 66 out of 78</p>","null","pattern_show_trial_num","","","","","","","","","","","","","","","","","","","","","","","","",""
"","","","","","image-keyboard-response","153","250821","0.0-2.0-7.0-1.26","5e77a65dcce2a2319f9e8849","D2","batch4","","2836.199999988079","stim/yes_48_dia_w1_w.png","j","pattern_response","false","f","pattern_69","2836.199999988079","false","57","","","","","","","","","","","","","","","","","","",""
"","","","","","html-keyboard-response","154","252140","0.0-2.0-7.0-0.27","5e77a65dcce2a2319f9e8849","D2","batch4","","null","<p class=block-text>Trial 67 out of 78</p>","null","pattern_show_trial_num","","","","","","","","","","","","","","","","","","","","","","","","",""
"","","","","","image-keyboard-response","155","255449","0.0-2.0-7.0-1.27","5e77a65dcce2a2319f9e8849","D2","batch4","","3306.699999988079","stim/no_62_1_w.png","j","pattern_response","true","j","pattern_36","3306.699999988079","true","58","","","","","","","","","","","","","","","","","","",""
"","","","","","html-keyboard-response","156","256782","0.0-2.0-7.0-0.28","5e77a65dcce2a2319f9e8849","D2","batch4","","null","<p class=block-text>Trial 68 out of 78</p>","null","pattern_show_trial_num","","","","","","","","","","","","","","","","","","","","","","","","",""
"","","","","","image-keyboard-response","157","259298","0.0-2.0-7.0-1.28","5e77a65dcce2a2319f9e8849","D2","batch4","","2513.800000011921","stim/no_52_1.png","j","pattern_response","true","j","pattern_32","2513.800000011921","true","59","","","","","","","","","","","","","","","","","","",""
"","","","","","html-keyboard-response","158","260604","0.0-2.0-7.0-0.29","5e77a65dcce2a2319f9e8849","D2","batch4","","null","<p class=block-text>Trial 69 out of 78</p>","null","pattern_show_trial_num","","","","","","","","","","","","","","","","","","","","","","","","",""
"","","","","","image-keyboard-response","159","262487","0.0-2.0-7.0-1.29","5e77a65dcce2a2319f9e8849","D2","batch4","","1880.9000000357628","stim/yes_38_hor_b1_b.png","f","pattern_response","true","f","pattern_61","1880.9000000357628","true","60","","","","","","","","","","","","","","","","","","",""
"","","","","","html-keyboard-response","160","263802","0.0-2.0-7.0-0.30","5e77a65dcce2a2319f9e8849","D2","batch4","","null","<p class=block-text>Trial 70 out of 78</p>","null","pattern_show_trial_num","","","","","","","","","","","","","","","","","","","","","","","","",""
"","","","","","image-keyboard-response","161","267379","0.0-2.0-7.0-1.30","5e77a65dcce2a2319f9e8849","D2","batch4","","3574.800000011921","stim/yes_67_hor_b1.png","f","pattern_response","true","f","pattern_79","3574.800000011921","true","61","","","","","","","","","","","","","","","","","","",""
"","","","","","html-keyboard-response","162","268686","0.0-2.0-7.0-0.31","5e77a65dcce2a2319f9e8849","D2","batch4","","null","<p class=block-text>Trial 71 out of 78</p>","null","pattern_show_trial_num","","","","","","","","","","","","","","","","","","","","","","","","",""
"","","","","","image-keyboard-response","163","271528","0.0-2.0-7.0-1.31","5e77a65dcce2a2319f9e8849","D2","batch4","","2839.399999976158","stim/no_44_1.png","j","pattern_response","true","j","pattern_24","2839.399999976158","true","62","","","","","","","","","","","","","","","","","","",""
"","","","","","html-keyboard-response","164","272840","0.0-2.0-7.0-0.32","5e77a65dcce2a2319f9e8849","D2","batch4","","null","<p class=block-text>Trial 72 out of 78</p>","null","pattern_show_trial_num","","","","","","","","","","","","","","","","","","","","","","","","",""
"","","","","","image-keyboard-response","165","274065","0.0-2.0-7.0-1.32","5e77a65dcce2a2319f9e8849","D2","batch4","","1222.800000011921","stim/no_32_1_w.png","j","pattern_response","true","j","pattern_14","1222.800000011921","true","63","","","","","","","","","","","","","","","","","","",""
"","","","","","html-keyboard-response","166","275393","0.0-2.0-7.0-0.33","5e77a65dcce2a2319f9e8849","D2","batch4","","null","<p class=block-text>Trial 73 out of 78</p>","null","pattern_show_trial_num","","","","","","","","","","","","","","","","","","","","","","","","",""
"","","","","","image-keyboard-response","167","277504","0.0-2.0-7.0-1.33","5e77a65dcce2a2319f9e8849","D2","batch4","","2108.400000035763","stim/no_42_1_w.png","j","pattern_response","true","j","pattern_22","2108.400000035763","true","64","","","","","","","","","","","","","","","","","","",""
"","","","","","html-keyboard-response","168","278815","0.0-2.0-7.0-0.34","5e77a65dcce2a2319f9e8849","D2","batch4","","null","<p class=block-text>Trial 74 out of 78</p>","null","pattern_show_trial_num","","","","","","","","","","","","","","","","","","","","","","","","",""
"","","","","","image-keyboard-response","169","279921","0.0-2.0-7.0-1.34","5e77a65dcce2a2319f9e8849","D2","batch4","","1103.300000011921","stim/yes_29_ver_w1.png","f","pattern_response","true","f","pattern_53","1103.300000011921","true","65","","","","","","","","","","","","","","","","","","",""
"","","","","","html-keyboard-response","170","281225","0.0-2.0-7.0-0.35","5e77a65dcce2a2319f9e8849","D2","batch4","","null","<p class=block-text>Trial 75 out of 78</p>","null","pattern_show_trial_num","","","","","","","","","","","","","","","","","","","","","","","","",""
"","","","","","image-keyboard-response","171","282430","0.0-2.0-7.0-1.35","5e77a65dcce2a2319f9e8849","D2","batch4","","1193.5","stim/yes_52_ver_w1.png","f","pattern_response","true","f","pattern_73","1193.5","true","66","","","","","","","","","","","","","","","","","","",""
"","","","","","html-keyboard-response","172","283749","0.0-2.0-7.0-0.36","5e77a65dcce2a2319f9e8849","D2","batch4","","null","<p class=block-text>Trial 76 out of 78</p>","null","pattern_show_trial_num","","","","","","","","","","","","","","","","","","","","","","","","",""
"","","","","","image-keyboard-response","173","284757","0.0-2.0-7.0-1.36","5e77a65dcce2a2319f9e8849","D2","batch4","","1006.1999999880791","stim/no_23_1.png","j","pattern_response","true","j","pattern_08","1006.1999999880791","true","67","","","","","","","","","","","","","","","","","","",""
"","","","","","html-keyboard-response","174","286063","0.0-2.0-7.0-0.37","5e77a65dcce2a2319f9e8849","D2","batch4","","null","<p class=block-text>Trial 77 out of 78</p>","null","pattern_show_trial_num","","","","","","","","","","","","","","","","","","","","","","","","",""
"","","","","","image-keyboard-response","175","286804","0.0-2.0-7.0-1.37","5e77a65dcce2a2319f9e8849","D2","batch4","","738.5","stim/yes_17_dia_w1.png","f","pattern_response","true","f","pattern_45","738.5","true","68","","","","","","","","","","","","","","","","","","",""
"","","","","","html-keyboard-response","176","288122","0.0-2.0-7.0-0.38","5e77a65dcce2a2319f9e8849","D2","batch4","","null","<p class=block-text>Trial 78 out of 78</p>","null","pattern_show_trial_num","","","","","","","","","","","","","","","","","","","","","","","","",""
"","","","","","image-keyboard-response","177","290466","0.0-2.0-7.0-1.38","5e77a65dcce2a2319f9e8849","D2","batch4","","2341.899999976158","stim/no_48_1_w.png","j","pattern_response","true","j","pattern_28","2341.899999976158","true","69","","","","","","","","","","","","","","","","","","",""
"","","","","","html-button-response","178","293769","0.0-2.0-8.0","5e77a65dcce2a2319f9e8849","D2","batch4","","2796.2000000476837","<p class = block-text>This concludes the 4-in-a-row detection game.Thank you for your responses!<br>
            You responded correctly on 88% of the trials.<br>
            When you are ready, press ""Continue"" button to continue </p>","0","","","","","","","","","","","","","","","","","","","","","","","","","",""
"true","","","","","fullscreen","179","296891","0.0-3.0-0.0","5e77a65dcce2a2319f9e8849","D2","batch4","","","","","spm_fullscreen","","","","","","","","","","","","","","","","","","","","","","","","",""
"","","","","","html-button-response","180","304981","0.0-3.0-1.0","5e77a65dcce2a2319f9e8849","D2","batch4","","8087.800000011921","<p class = block-text><b>Instructions</b> <br>This is a widely used intelligence test in research. <br>In this test, a figure with a missing piece will be presented.<br>Below the figure are alternative pieces to complete the figure, only one of which is correct.<br> Different figures might involve different principles for obtaining the missing piece<br>Your job is to select the most logical piece to complete the figure.</p>","0","","","","","","","","","","","","","","","","","","","","","","","","","",""
"","","","","","html-keyboard-response","181","305782","0.0-3.0-2.0-0.0","5e77a65dcce2a2319f9e8849","D2","batch4","","null","<p class=block-text>Trial 1 out of 60</p>","null","spm_show_trial_num","","","","","","","","","","","","","","","","","","","","","","","","",""
"","","","","","image-button-response","182","312644","0.0-3.0-2.0-1.0","5e77a65dcce2a2319f9e8849","D2","batch4","","6857.5","img/question_1_1.jpeg","3","spm_respsonse","1","4","mat_01","","","","","","1","6857.5","","","","","","","","","","","","","","",""
"","","","","","html-keyboard-response","183","313700","0.0-3.0-2.0-0.1","5e77a65dcce2a2319f9e8849","D2","batch4","","null","<p class=block-text>Trial 2 out of 60</p>","null","spm_show_trial_num","","","","","","","","","","","","","","","","","","","","","","","","",""
"","","","","","image-button-response","184","316333","0.0-3.0-2.0-1.1","5e77a65dcce2a2319f9e8849","D2","batch4","","2629.399999976158","img/question_1_2.jpeg","4","spm_respsonse","1","5","mat_02","","","","","","1","2629.399999976158","","","","","","","","","","","","","","",""
"","","","","","html-keyboard-response","185","317402","0.0-3.0-2.0-0.2","5e77a65dcce2a2319f9e8849","D2","batch4","","null","<p class=block-text>Trial 3 out of 60</p>","null","spm_show_trial_num","","","","","","","","","","","","","","","","","","","","","","","","",""
"","","","","","image-button-response","186","319344","0.0-3.0-2.0-1.2","5e77a65dcce2a2319f9e8849","D2","batch4","","1938.9000000357628","img/question_1_3.jpeg","0","spm_respsonse","1","1","mat_03","","","","","","1","1938.9000000357628","","","","","","","","","","","","","","",""
"","","","","","html-keyboard-response","187","320396","0.0-3.0-2.0-0.3","5e77a65dcce2a2319f9e8849","D2","batch4","","null","<p class=block-text>Trial 4 out of 60</p>","null","spm_show_trial_num","","","","","","","","","","","","","","","","","","","","","","","","",""
"","","","","","image-button-response","188","322307","0.0-3.0-2.0-1.3","5e77a65dcce2a2319f9e8849","D2","batch4","","1908.5","img/question_1_4.jpeg","1","spm_respsonse","1","2","mat_04","","","","","","1","1908.5","","","","","","","","","","","","","","",""
"","","","","","html-keyboard-response","189","323396","0.0-3.0-2.0-0.4","5e77a65dcce2a2319f9e8849","D2","batch4","","null","<p class=block-text>Trial 5 out of 60</p>","null","spm_show_trial_num","","","","","","","","","","","","","","","","","","","","","","","","",""
"","","","","","image-button-response","190","325928","0.0-3.0-2.0-1.4","5e77a65dcce2a2319f9e8849","D2","batch4","","2529.899999976158","img/question_1_5.jpeg","5","spm_respsonse","1","6","mat_05","","","","","","1","2529.899999976158","","","","","","","","","","","","","","",""
"","","","","","html-keyboard-response","191","326990","0.0-3.0-2.0-0.5","5e77a65dcce2a2319f9e8849","D2","batch4","","null","<p class=block-text>Trial 6 out of 60</p>","null","spm_show_trial_num","","","","","","","","","","","","","","","","","","","","","","","","",""
"","","","","","image-button-response","192","329548","0.0-3.0-2.0-1.5","5e77a65dcce2a2319f9e8849","D2","batch4","","2555.800000011921","img/question_1_6.jpeg","2","spm_respsonse","1","3","mat_06","","","","","","1","2555.800000011921","","","","","","","","","","","","","","",""
"","","","","","html-keyboard-response","193","330614","0.0-3.0-2.0-0.6","5e77a65dcce2a2319f9e8849","D2","batch4","","null","<p class=block-text>Trial 7 out of 60</p>","null","spm_show_trial_num","","","","","","","","","","","","","","","","","","","","","","","","",""
"","","","","","image-button-response","194","333902","0.0-3.0-2.0-1.6","5e77a65dcce2a2319f9e8849","D2","batch4","","3285.099999964237","img/question_1_7.jpeg","5","spm_respsonse","1","6","mat_07","","","","","","1","3285.099999964237","","","","","","","","","","","","","","",""
"","","","","","html-keyboard-response","195","334970","0.0-3.0-2.0-0.7","5e77a65dcce2a2319f9e8849","D2","batch4","","null","<p class=block-text>Trial 8 out of 60</p>","null","spm_show_trial_num","","","","","","","","","","","","","","","","","","","","","","","","",""
"","","","","","image-button-response","196","339934","0.0-3.0-2.0-1.7","5e77a65dcce2a2319f9e8849","D2","batch4","","4961.200000047684","img/question_1_8.jpeg","1","spm_respsonse","1","2","mat_08","","","","","","1","4961.200000047684","","","","","","","","","","","","","","",""
"","","","","","html-keyboard-response","197","340992","0.0-3.0-2.0-0.8","5e77a65dcce2a2319f9e8849","D2","batch4","","null","<p class=block-text>Trial 9 out of 60</p>","null","spm_show_trial_num","","","","","","","","","","","","","","","","","","","","","","","","",""
"","","","","","image-button-response","198","344352","0.0-3.0-2.0-1.8","5e77a65dcce2a2319f9e8849","D2","batch4","","3356.800000011921","img/question_1_9.jpeg","0","spm_respsonse","1","1","mat_09","","","","","","1","3356.800000011921","","","","","","","","","","","","","","",""
"","","","","","html-keyboard-response","199","345413","0.0-3.0-2.0-0.9","5e77a65dcce2a2319f9e8849","D2","batch4","","null","<p class=block-text>Trial 10 out of 60</p>","null","spm_show_trial_num","","","","","","","","","","","","","","","","","","","","","","","","",""
"","","","","","image-button-response","200","349779","0.0-3.0-2.0-1.9","5e77a65dcce2a2319f9e8849","D2","batch4","","4362.399999976158","img/question_1_10.jpeg","2","spm_respsonse","1","3","mat_10","","","","","","1","4362.399999976158","","","","","","","","","","","","","","",""
"","","","","","html-keyboard-response","201","350865","0.0-3.0-2.0-0.10","5e77a65dcce2a2319f9e8849","D2","batch4","","null","<p class=block-text>Trial 11 out of 60</p>","null","spm_show_trial_num","","","","","","","","","","","","","","","","","","","","","","","","",""
"","","","","","image-button-response","202","356143","0.0-3.0-2.0-1.10","5e77a65dcce2a2319f9e8849","D2","batch4","","5275.699999988079","img/question_1_11.jpeg","3","spm_respsonse","1","4","mat_11","","","","","","1","5275.699999988079","","","","","","","","","","","","","","",""
"","","","","","html-keyboard-response","203","357198","0.0-3.0-2.0-0.11","5e77a65dcce2a2319f9e8849","D2","batch4","","null","<p class=block-text>Trial 12 out of 60</p>","null","spm_show_trial_num","","","","","","","","","","","","","","","","","","","","","","","","",""
"","","","","","image-button-response","204","362374","0.0-3.0-2.0-1.11","5e77a65dcce2a2319f9e8849","D2","batch4","","5172.899999976158","img/question_1_12.jpeg","0","spm_respsonse","0","5","mat_12","","","","","","0","5172.899999976158","","","","","","","","","","","","","","",""
"","","","","","html-keyboard-response","205","363441","0.0-3.0-2.0-0.12","5e77a65dcce2a2319f9e8849","D2","batch4","","null","<p class=block-text>Trial 13 out of 60</p>","null","spm_show_trial_num","","","","","","","","","","","","","","","","","","","","","","","","",""
"","","","","","image-button-response","206","365757","0.0-3.0-2.0-1.12","5e77a65dcce2a2319f9e8849","D2","batch4","","2312.699999988079","img/question_2_1.jpeg","1","spm_respsonse","1","2","mat_13","","","","","","1","2312.699999988079","","","","","","","","","","","","","","",""
"","","","","","html-keyboard-response","207","366819","0.0-3.0-2.0-0.13","5e77a65dcce2a2319f9e8849","D2","batch4","","null","<p class=block-text>Trial 14 out of 60</p>","null","spm_show_trial_num","","","","","","","","","","","","","","","","","","","","","","","","",""
"","","","","","image-button-response","208","370340","0.0-3.0-2.0-1.13","5e77a65dcce2a2319f9e8849","D2","batch4","","3518.399999976158","img/question_2_2.jpeg","5","spm_respsonse","1","6","mat_14","","","","","","1","3518.399999976158","","","","","","","","","","","","","","",""
"","","","","","html-keyboard-response","209","371413","0.0-3.0-2.0-0.14","5e77a65dcce2a2319f9e8849","D2","batch4","","null","<p class=block-text>Trial 15 out of 60</p>","null","spm_show_trial_num","","","","","","","","","","","","","","","","","","","","","","","","",""
"","","","","","image-button-response","210","374787","0.0-3.0-2.0-1.14","5e77a65dcce2a2319f9e8849","D2","batch4","","3370.699999988079","img/question_2_3.jpeg","0","spm_respsonse","1","1","mat_15","","","","","","1","3370.699999988079","","","","","","","","","","","","","","",""
"","","","","","html-keyboard-response","211","375854","0.0-3.0-2.0-0.15","5e77a65dcce2a2319f9e8849","D2","batch4","","null","<p class=block-text>Trial 16 out of 60</p>","null","spm_show_trial_num","","","","","","","","","","","","","","","","","","","","","","","","",""
"","","","","","image-button-response","212","378700","0.0-3.0-2.0-1.15","5e77a65dcce2a2319f9e8849","D2","batch4","","2843.800000011921","img/question_2_4.jpeg","1","spm_respsonse","1","2","mat_16","","","","","","1","2843.800000011921","","","","","","","","","","","","","","",""
"","","","","","html-keyboard-response","213","379775","0.0-3.0-2.0-0.16","5e77a65dcce2a2319f9e8849","D2","batch4","","null","<p class=block-text>Trial 17 out of 60</p>","null","spm_show_trial_num","","","","","","","","","","","","","","","","","","","","","","","","",""
"","","","","","image-button-response","214","385137","0.0-3.0-2.0-1.16","5e77a65dcce2a2319f9e8849","D2","batch4","","5359.300000011921","img/question_2_5.jpeg","0","spm_respsonse","1","1","mat_17","","","","","","1","5359.300000011921","","","","","","","","","","","","","","",""
"","","","","","html-keyboard-response","215","386206","0.0-3.0-2.0-0.17","5e77a65dcce2a2319f9e8849","D2","batch4","","null","<p class=block-text>Trial 18 out of 60</p>","null","spm_show_trial_num","","","","","","","","","","","","","","","","","","","","","","","","",""
"","","","","","image-button-response","216","392291","0.0-3.0-2.0-1.17","5e77a65dcce2a2319f9e8849","D2","batch4","","6081.099999964237","img/question_2_6.jpeg","4","spm_respsonse","0","3","mat_18","","","","","","0","6081.099999964237","","","","","","","","","","","","","","",""
"","","","","","html-keyboard-response","217","393381","0.0-3.0-2.0-0.18","5e77a65dcce2a2319f9e8849","D2","batch4","","null","<p class=block-text>Trial 19 out of 60</p>","null","spm_show_trial_num","","","","","","","","","","","","","","","","","","","","","","","","",""
"","","","","","image-button-response","218","397518","0.0-3.0-2.0-1.18","5e77a65dcce2a2319f9e8849","D2","batch4","","4134.300000011921","img/question_2_7.jpeg","4","spm_respsonse","1","5","mat_19","","","","","","1","4134.300000011921","","","","","","","","","","","","","","",""
"","","","","","html-keyboard-response","219","398585","0.0-3.0-2.0-0.19","5e77a65dcce2a2319f9e8849","D2","batch4","","null","<p class=block-text>Trial 20 out of 60</p>","null","spm_show_trial_num","","","","","","","","","","","","","","","","","","","","","","","","",""
"","","","","","image-button-response","220","403314","0.0-3.0-2.0-1.19","5e77a65dcce2a2319f9e8849","D2","batch4","","4725.599999964237","img/question_2_8.jpeg","5","spm_respsonse","1","6","mat_20","","","","","","1","4725.599999964237","","","","","","","","","","","","","","",""
"","","","","","html-keyboard-response","221","404387","0.0-3.0-2.0-0.20","5e77a65dcce2a2319f9e8849","D2","batch4","","null","<p class=block-text>Trial 21 out of 60</p>","null","spm_show_trial_num","","","","","","","","","","","","","","","","","","","","","","","","",""
"","","","","","image-button-response","222","408736","0.0-3.0-2.0-1.20","5e77a65dcce2a2319f9e8849","D2","batch4","","4345.800000011921","img/question_2_9.jpeg","3","spm_respsonse","1","4","mat_21","","","","","","1","4345.800000011921","","","","","","","","","","","","","","",""
"","","","","","html-keyboard-response","223","409796","0.0-3.0-2.0-0.21","5e77a65dcce2a2319f9e8849","D2","batch4","","null","<p class=block-text>Trial 22 out of 60</p>","null","spm_show_trial_num","","","","","","","","","","","","","","","","","","","","","","","","",""
"","","","","","image-button-response","224","412820","0.0-3.0-2.0-1.21","5e77a65dcce2a2319f9e8849","D2","batch4","","3021.099999964237","img/question_2_10.jpeg","2","spm_respsonse","1","3","mat_22","","","","","","1","3021.099999964237","","","","","","","","","","","","","","",""
"","","","","","html-keyboard-response","225","413893","0.0-3.0-2.0-0.22","5e77a65dcce2a2319f9e8849","D2","batch4","","null","<p class=block-text>Trial 23 out of 60</p>","null","spm_show_trial_num","","","","","","","","","","","","","","","","","","","","","","","","",""
"","","","","","image-button-response","226","417578","0.0-3.0-2.0-1.22","5e77a65dcce2a2319f9e8849","D2","batch4","","3682.300000011921","img/question_2_11.jpeg","5","spm_respsonse","0","4","mat_23","","","","","","0","3682.300000011921","","","","","","","","","","","","","","",""
"","","","","","html-keyboard-response","227","418652","0.0-3.0-2.0-0.23","5e77a65dcce2a2319f9e8849","D2","batch4","","null","<p class=block-text>Trial 24 out of 60</p>","null","spm_show_trial_num","","","","","","","","","","","","","","","","","","","","","","","","",""
"","","","","","image-button-response","228","429802","0.0-3.0-2.0-1.23","5e77a65dcce2a2319f9e8849","D2","batch4","","11147","img/question_2_12.jpeg","4","spm_respsonse","1","5","mat_24","","","","","","1","11147","","","","","","","","","","","","","","",""
"","","","","","html-button-response","229","431971","0.0-3.0-3.0","5e77a65dcce2a2319f9e8849","D2","batch4","","1905.199999988079","<p class = block-text>Attention check: Please choose 1<br></p>","0","attention_check","true","","","","","","","","","","","","","","","","","","","","","","","",""
"","","","","","html-keyboard-response","230","432794","0.0-3.0-4.0-0.0","5e77a65dcce2a2319f9e8849","D2","batch4","","null","<p class=block-text>Trial 25 out of 60</p>","null","spm_show_trial_num","","","","","","","","","","","","","","","","","","","","","","","","",""
"","","","","","image-button-response","231","439124","0.0-3.0-4.0-1.0","5e77a65dcce2a2319f9e8849","D2","batch4","","6326.399999976158","img/question_3_1.jpeg","7","spm_respsonse","1","8","mat_25","","","","","","1","6326.399999976158","","","","","","","","","","","","","","",""
"","","","","","html-keyboard-response","232","440179","0.0-3.0-4.0-0.1","5e77a65dcce2a2319f9e8849","D2","batch4","","null","<p class=block-text>Trial 26 out of 60</p>","null","spm_show_trial_num","","","","","","","","","","","","","","","","","","","","","","","","",""
"","","","","","image-button-response","233","443965","0.0-3.0-4.0-1.1","5e77a65dcce2a2319f9e8849","D2","batch4","","3783.300000011921","img/question_3_2.jpeg","1","spm_respsonse","1","2","mat_26","","","","","","1","3783.300000011921","","","","","","","","","","","","","","",""
"","","","","","html-keyboard-response","234","445037","0.0-3.0-4.0-0.2","5e77a65dcce2a2319f9e8849","D2","batch4","","null","<p class=block-text>Trial 27 out of 60</p>","null","spm_show_trial_num","","","","","","","","","","","","","","","","","","","","","","","","",""
"","","","","","image-button-response","235","454112","0.0-3.0-4.0-1.2","5e77a65dcce2a2319f9e8849","D2","batch4","","9071.5","img/question_3_3.jpeg","2","spm_respsonse","1","3","mat_27","","","","","","1","9071.5","","","","","","","","","","","","","","",""
"","","","","","html-keyboard-response","236","455179","0.0-3.0-4.0-0.3","5e77a65dcce2a2319f9e8849","D2","batch4","","null","<p class=block-text>Trial 28 out of 60</p>","null","spm_show_trial_num","","","","","","","","","","","","","","","","","","","","","","","","",""
"","","","","","image-button-response","237","471297","0.0-3.0-4.0-1.3","5e77a65dcce2a2319f9e8849","D2","batch4","","16115.099999964237","img/question_3_4.jpeg","7","spm_respsonse","1","8","mat_28","","","","","","1","16115.099999964237","","","","","","","","","","","","","","",""
"","","","","","html-keyboard-response","238","472366","0.0-3.0-4.0-0.4","5e77a65dcce2a2319f9e8849","D2","batch4","","null","<p class=block-text>Trial 29 out of 60</p>","null","spm_show_trial_num","","","","","","","","","","","","","","","","","","","","","","","","",""
"","","","","","image-button-response","239","477305","0.0-3.0-4.0-1.4","5e77a65dcce2a2319f9e8849","D2","batch4","","4935.899999976158","img/question_3_5.jpeg","6","spm_respsonse","1","7","mat_29","","","","","","1","4935.899999976158","","","","","","","","","","","","","","",""
"","","","","","html-keyboard-response","240","478376","0.0-3.0-4.0-0.5","5e77a65dcce2a2319f9e8849","D2","batch4","","null","<p class=block-text>Trial 30 out of 60</p>","null","spm_show_trial_num","","","","","","","","","","","","","","","","","","","","","","","","",""
"","","","","","image-button-response","241","487505","0.0-3.0-4.0-1.5","5e77a65dcce2a2319f9e8849","D2","batch4","","9126","img/question_3_6.jpeg","3","spm_respsonse","1","4","mat_30","","","","","","1","9126","","","","","","","","","","","","","","",""
"","","","","","html-keyboard-response","242","488584","0.0-3.0-4.0-0.6","5e77a65dcce2a2319f9e8849","D2","batch4","","null","<p class=block-text>Trial 31 out of 60</p>","null","spm_show_trial_num","","","","","","","","","","","","","","","","","","","","","","","","",""
"","","","","","image-button-response","243","503051","0.0-3.0-4.0-1.6","5e77a65dcce2a2319f9e8849","D2","batch4","","14464.100000023842","img/question_3_7.jpeg","4","spm_respsonse","1","5","mat_31","","","","","","1","14464.100000023842","","","","","","","","","","","","","","",""
"","","","","","html-keyboard-response","244","504119","0.0-3.0-4.0-0.7","5e77a65dcce2a2319f9e8849","D2","batch4","","null","<p class=block-text>Trial 32 out of 60</p>","null","spm_show_trial_num","","","","","","","","","","","","","","","","","","","","","","","","",""
"","","","","","image-button-response","245","514007","0.0-3.0-4.0-1.7","5e77a65dcce2a2319f9e8849","D2","batch4","","9884.400000035763","img/question_3_8.jpeg","3","spm_respsonse","0","1","mat_32","","","","","","0","9884.400000035763","","","","","","","","","","","","","","",""
"","","","","","html-keyboard-response","246","515079","0.0-3.0-4.0-0.8","5e77a65dcce2a2319f9e8849","D2","batch4","","null","<p class=block-text>Trial 33 out of 60</p>","null","spm_show_trial_num","","","","","","","","","","","","","","","","","","","","","","","","",""
"","","","","","image-button-response","247","530614","0.0-3.0-4.0-1.8","5e77a65dcce2a2319f9e8849","D2","batch4","","15531.5","img/question_3_9.jpeg","6","spm_respsonse","1","7","mat_33","","","","","","1","15531.5","","","","","","","","","","","","","","",""
"","","","","","html-keyboard-response","248","531680","0.0-3.0-4.0-0.9","5e77a65dcce2a2319f9e8849","D2","batch4","","null","<p class=block-text>Trial 34 out of 60</p>","null","spm_show_trial_num","","","","","","","","","","","","","","","","","","","","","","","","",""
"","","","","","image-button-response","249","550889","0.0-3.0-4.0-1.9","5e77a65dcce2a2319f9e8849","D2","batch4","","19205.400000035763","img/question_3_10.jpeg","3","spm_respsonse","0","6","mat_34","","","","","","0","19205.400000035763","","","","","","","","","","","","","","",""
"","","","","","html-keyboard-response","250","551961","0.0-3.0-4.0-0.10","5e77a65dcce2a2319f9e8849","D2","batch4","","null","<p class=block-text>Trial 35 out of 60</p>","null","spm_show_trial_num","","","","","","","","","","","","","","","","","","","","","","","","",""
"","","","","","image-button-response","251","569965","0.0-3.0-4.0-1.10","5e77a65dcce2a2319f9e8849","D2","batch4","","18000.799999952316","img/question_3_11.jpeg","4","spm_respsonse","0","1","mat_35","","","","","","0","18000.799999952316","","","","","","","","","","","","","","",""
"","","","","","html-keyboard-response","252","571022","0.0-3.0-4.0-0.11","5e77a65dcce2a2319f9e8849","D2","batch4","","null","<p class=block-text>Trial 36 out of 60</p>","null","spm_show_trial_num","","","","","","","","","","","","","","","","","","","","","","","","",""
"","","","","","image-button-response","253","587967","0.0-3.0-4.0-1.11","5e77a65dcce2a2319f9e8849","D2","batch4","","16941.099999964237","img/question_3_12.jpeg","2","spm_respsonse","0","2","mat_36","","","","","","0","16941.099999964237","","","","","","","","","","","","","","",""
"","","","","","html-keyboard-response","254","589024","0.0-3.0-4.0-0.12","5e77a65dcce2a2319f9e8849","D2","batch4","","null","<p class=block-text>Trial 37 out of 60</p>","null","spm_show_trial_num","","","","","","","","","","","","","","","","","","","","","","","","",""
"","","","","","image-button-response","255","592413","0.0-3.0-4.0-1.12","5e77a65dcce2a2319f9e8849","D2","batch4","","3385.5","img/question_4_1.jpeg","2","spm_respsonse","1","3","mat_37","","","","","","1","3385.5","","","","","","","","","","","","","","",""
"","","","","","html-keyboard-response","256","593481","0.0-3.0-4.0-0.13","5e77a65dcce2a2319f9e8849","D2","batch4","","null","<p class=block-text>Trial 38 out of 60</p>","null","spm_show_trial_num","","","","","","","","","","","","","","","","","","","","","","","","",""
"","","","","","image-button-response","257","601682","0.0-3.0-4.0-1.13","5e77a65dcce2a2319f9e8849","D2","batch4","","8197.400000035763","img/question_4_2.jpeg","3","spm_respsonse","1","4","mat_38","","","","","","1","8197.400000035763","","","","","","","","","","","","","","",""
"","","","","","html-keyboard-response","258","602735","0.0-3.0-4.0-0.14","5e77a65dcce2a2319f9e8849","D2","batch4","","null","<p class=block-text>Trial 39 out of 60</p>","null","spm_show_trial_num","","","","","","","","","","","","","","","","","","","","","","","","",""
"","","","","","image-button-response","259","609795","0.0-3.0-4.0-1.14","5e77a65dcce2a2319f9e8849","D2","batch4","","7056.900000035763","img/question_4_3.jpeg","2","spm_respsonse","1","3","mat_39","","","","","","1","7056.900000035763","","","","","","","","","","","","","","",""
"","","","","","html-keyboard-response","260","610854","0.0-3.0-4.0-0.15","5e77a65dcce2a2319f9e8849","D2","batch4","","null","<p class=block-text>Trial 40 out of 60</p>","null","spm_show_trial_num","","","","","","","","","","","","","","","","","","","","","","","","",""
"","","","","","image-button-response","261","618201","0.0-3.0-4.0-1.15","5e77a65dcce2a2319f9e8849","D2","batch4","","7343.699999988079","img/question_4_4.jpeg","6","spm_respsonse","1","7","mat_40","","","","","","1","7343.699999988079","","","","","","","","","","","","","","",""
"","","","","","html-keyboard-response","262","619269","0.0-3.0-4.0-0.16","5e77a65dcce2a2319f9e8849","D2","batch4","","null","<p class=block-text>Trial 41 out of 60</p>","null","spm_show_trial_num","","","","","","","","","","","","","","","","","","","","","","","","",""
"","","","","","image-button-response","263","629482","0.0-3.0-4.0-1.16","5e77a65dcce2a2319f9e8849","D2","batch4","","10209.800000011921","img/question_4_5.jpeg","7","spm_respsonse","1","8","mat_41","","","","","","1","10209.800000011921","","","","","","","","","","","","","","",""
"","","","","","html-keyboard-response","264","630549","0.0-3.0-4.0-0.17","5e77a65dcce2a2319f9e8849","D2","batch4","","null","<p class=block-text>Trial 42 out of 60</p>","null","spm_show_trial_num","","","","","","","","","","","","","","","","","","","","","","","","",""
"","","","","","image-button-response","265","645081","0.0-3.0-4.0-1.17","5e77a65dcce2a2319f9e8849","D2","batch4","","14528.800000011921","img/question_4_6.jpeg","5","spm_respsonse","1","6","mat_42","","","","","","1","14528.800000011921","","","","","","","","","","","","","","",""
"","","","","","html-keyboard-response","266","646152","0.0-3.0-4.0-0.18","5e77a65dcce2a2319f9e8849","D2","batch4","","null","<p class=block-text>Trial 43 out of 60</p>","null","spm_show_trial_num","","","","","","","","","","","","","","","","","","","","","","","","",""
"","","","","","image-button-response","267","655528","0.0-3.0-4.0-1.18","5e77a65dcce2a2319f9e8849","D2","batch4","","9372.799999952316","img/question_4_7.jpeg","4","spm_respsonse","1","5","mat_43","","","","","","1","9372.799999952316","","","","","","","","","","","","","","",""
"","","","","","html-keyboard-response","268","656612","0.0-3.0-4.0-0.19","5e77a65dcce2a2319f9e8849","D2","batch4","","null","<p class=block-text>Trial 44 out of 60</p>","null","spm_show_trial_num","","","","","","","","","","","","","","","","","","","","","","","","",""
"","","","","","image-button-response","269","669543","0.0-3.0-4.0-1.19","5e77a65dcce2a2319f9e8849","D2","batch4","","12927.400000035763","img/question_4_8.jpeg","3","spm_respsonse","1","4","mat_44","","","","","","1","12927.400000035763","","","","","","","","","","","","","","",""
"","","","","","html-keyboard-response","270","670599","0.0-3.0-4.0-0.20","5e77a65dcce2a2319f9e8849","D2","batch4","","null","<p class=block-text>Trial 45 out of 60</p>","null","spm_show_trial_num","","","","","","","","","","","","","","","","","","","","","","","","",""
"","","","","","image-button-response","271","683158","0.0-3.0-4.0-1.20","5e77a65dcce2a2319f9e8849","D2","batch4","","12555.399999976158","img/question_4_9.jpeg","0","spm_respsonse","1","1","mat_45","","","","","","1","12555.399999976158","","","","","","","","","","","","","","",""
"","","","","","html-keyboard-response","272","684215","0.0-3.0-4.0-0.21","5e77a65dcce2a2319f9e8849","D2","batch4","","null","<p class=block-text>Trial 46 out of 60</p>","null","spm_show_trial_num","","","","","","","","","","","","","","","","","","","","","","","","",""
"","","","","","image-button-response","273","698398","0.0-3.0-4.0-1.21","5e77a65dcce2a2319f9e8849","D2","batch4","","14179.799999952316","img/question_4_10.jpeg","1","spm_respsonse","1","2","mat_46","","","","","","1","14179.799999952316","","","","","","","","","","","","","","",""
"","","","","","html-keyboard-response","274","699455","0.0-3.0-4.0-0.22","5e77a65dcce2a2319f9e8849","D2","batch4","","null","<p class=block-text>Trial 47 out of 60</p>","null","spm_show_trial_num","","","","","","","","","","","","","","","","","","","","","","","","",""
"","","","","","image-button-response","275","711249","0.0-3.0-4.0-1.22","5e77a65dcce2a2319f9e8849","D2","batch4","","11791.399999976158","img/question_4_11.jpeg","7","spm_respsonse","0","5","mat_47","","","","","","0","11791.399999976158","","","","","","","","","","","","","","",""
"","","","","","html-keyboard-response","276","712319","0.0-3.0-4.0-0.23","5e77a65dcce2a2319f9e8849","D2","batch4","","null","<p class=block-text>Trial 48 out of 60</p>","null","spm_show_trial_num","","","","","","","","","","","","","","","","","","","","","","","","",""
"","","","","","image-button-response","277","736291","0.0-3.0-4.0-1.23","5e77a65dcce2a2319f9e8849","D2","batch4","","23968.399999976158","img/question_4_12.jpeg","7","spm_respsonse","0","6","mat_48","","","","","","0","23968.399999976158","","","","","","","","","","","","","","",""
"","","","","","html-keyboard-response","278","737364","0.0-3.0-4.0-0.24","5e77a65dcce2a2319f9e8849","D2","batch4","","null","<p class=block-text>Trial 49 out of 60</p>","null","spm_show_trial_num","","","","","","","","","","","","","","","","","","","","","","","","",""
"","","","","","image-button-response","279","743046","0.0-3.0-4.0-1.24","5e77a65dcce2a2319f9e8849","D2","batch4","","5679.699999988079","img/question_5_1.jpeg","6","spm_respsonse","1","7","mat_49","","","","","","1","5679.699999988079","","","","","","","","","","","","","","",""
"","","","","","html-keyboard-response","280","744102","0.0-3.0-4.0-0.25","5e77a65dcce2a2319f9e8849","D2","batch4","","null","<p class=block-text>Trial 50 out of 60</p>","null","spm_show_trial_num","","","","","","","","","","","","","","","","","","","","","","","","",""
"","","","","","image-button-response","281","753142","0.0-3.0-4.0-1.25","5e77a65dcce2a2319f9e8849","D2","batch4","","9036.599999964237","img/question_5_2.jpeg","5","spm_respsonse","1","6","mat_50","","","","","","1","9036.599999964237","","","","","","","","","","","","","","",""
"","","","","","html-keyboard-response","282","754205","0.0-3.0-4.0-0.26","5e77a65dcce2a2319f9e8849","D2","batch4","","null","<p class=block-text>Trial 51 out of 60</p>","null","spm_show_trial_num","","","","","","","","","","","","","","","","","","","","","","","","",""
"","","","","","image-button-response","283","766486","0.0-3.0-4.0-1.26","5e77a65dcce2a2319f9e8849","D2","batch4","","12277.5","img/question_5_3.jpeg","1","spm_respsonse","0","8","mat_51","","","","","","0","12277.5","","","","","","","","","","","","","","",""
"","","","","","html-keyboard-response","284","767562","0.0-3.0-4.0-0.27","5e77a65dcce2a2319f9e8849","D2","batch4","","null","<p class=block-text>Trial 52 out of 60</p>","null","spm_show_trial_num","","","","","","","","","","","","","","","","","","","","","","","","",""
"","","","","","image-button-response","285","776532","0.0-3.0-4.0-1.27","5e77a65dcce2a2319f9e8849","D2","batch4","","8966.800000011921","img/question_5_4.jpeg","1","spm_respsonse","1","2","mat_52","","","","","","1","8966.800000011921","","","","","","","","","","","","","","",""
"","","","","","html-keyboard-response","286","777594","0.0-3.0-4.0-0.28","5e77a65dcce2a2319f9e8849","D2","batch4","","null","<p class=block-text>Trial 53 out of 60</p>","null","spm_show_trial_num","","","","","","","","","","","","","","","","","","","","","","","","",""
"","","","","","image-button-response","287","785602","0.0-3.0-4.0-1.28","5e77a65dcce2a2319f9e8849","D2","batch4","","8004.299999952316","img/question_5_5.jpeg","0","spm_respsonse","1","1","mat_53","","","","","","1","8004.299999952316","","","","","","","","","","","","","","",""
"","","","","","html-keyboard-response","288","786663","0.0-3.0-4.0-0.29","5e77a65dcce2a2319f9e8849","D2","batch4","","null","<p class=block-text>Trial 54 out of 60</p>","null","spm_show_trial_num","","","","","","","","","","","","","","","","","","","","","","","","",""
"","","","","","image-button-response","289","797812","0.0-3.0-4.0-1.29","5e77a65dcce2a2319f9e8849","D2","batch4","","11145.799999952316","img/question_5_6.jpeg","2","spm_respsonse","0","5","mat_54","","","","","","0","11145.799999952316","","","","","","","","","","","","","","",""
"","","","","","html-keyboard-response","290","798871","0.0-3.0-4.0-0.30","5e77a65dcce2a2319f9e8849","D2","batch4","","null","<p class=block-text>Trial 55 out of 60</p>","null","spm_show_trial_num","","","","","","","","","","","","","","","","","","","","","","","","",""
"","","","","","image-button-response","291","816706","0.0-3.0-4.0-1.30","5e77a65dcce2a2319f9e8849","D2","batch4","","17832","img/question_5_7.jpeg","2","spm_respsonse","0","1","mat_55","","","","","","0","17832","","","","","","","","","","","","","","",""
"","","","","","html-keyboard-response","292","817767","0.0-3.0-4.0-0.31","5e77a65dcce2a2319f9e8849","D2","batch4","","null","<p class=block-text>Trial 56 out of 60</p>","null","spm_show_trial_num","","","","","","","","","","","","","","","","","","","","","","","","",""
"","","","","","image-button-response","293","837414","0.0-3.0-4.0-1.31","5e77a65dcce2a2319f9e8849","D2","batch4","","19641.900000035763","img/question_5_8.jpeg","6","spm_respsonse","0","6","mat_56","","","","","","0","19641.900000035763","","","","","","","","","","","","","","",""
"","","","","","html-keyboard-response","294","838478","0.0-3.0-4.0-0.32","5e77a65dcce2a2319f9e8849","D2","batch4","","null","<p class=block-text>Trial 57 out of 60</p>","null","spm_show_trial_num","","","","","","","","","","","","","","","","","","","","","","","","",""
"","","","","","image-button-response","295","855999","0.0-3.0-4.0-1.32","5e77a65dcce2a2319f9e8849","D2","batch4","","17517.900000035763","img/question_5_9.jpeg","4","spm_respsonse","0","3","mat_57","","","","","","0","17517.900000035763","","","","","","","","","","","","","","",""
"","","","","","html-keyboard-response","296","857057","0.0-3.0-4.0-0.33","5e77a65dcce2a2319f9e8849","D2","batch4","","null","<p class=block-text>Trial 58 out of 60</p>","null","spm_show_trial_num","","","","","","","","","","","","","","","","","","","","","","","","",""
"","","","","","image-button-response","297","877128","0.0-3.0-4.0-1.33","5e77a65dcce2a2319f9e8849","D2","batch4","","20067.100000023842","img/question_5_10.jpeg","3","spm_respsonse","0","2","mat_58","","","","","","0","20067.100000023842","","","","","","","","","","","","","","",""
"","","","","","html-keyboard-response","298","878186","0.0-3.0-4.0-0.34","5e77a65dcce2a2319f9e8849","D2","batch4","","null","<p class=block-text>Trial 59 out of 60</p>","null","spm_show_trial_num","","","","","","","","","","","","","","","","","","","","","","","","",""
"","","","","","image-button-response","299","898763","0.0-3.0-4.0-1.34","5e77a65dcce2a2319f9e8849","D2","batch4","","20573.400000035763","img/question_5_11.jpeg","2","spm_respsonse","0","4","mat_59","","","","","","0","20573.400000035763","","","","","","","","","","","","","","",""
"","","","","","html-keyboard-response","300","899842","0.0-3.0-4.0-0.35","5e77a65dcce2a2319f9e8849","D2","batch4","","null","<p class=block-text>Trial 60 out of 60</p>","null","spm_show_trial_num","","","","","","","","","","","","","","","","","","","","","","","","",""
"","","","","","image-button-response","301","923402","0.0-3.0-4.0-1.35","5e77a65dcce2a2319f9e8849","D2","batch4","","23556","img/question_5_12.jpeg","6","spm_respsonse","0","5","mat_60","","","","","","0","23556","","","","","","","","","","","","","","",""
"","","","","","html-button-response","302","925192","0.0-3.0-5.0","5e77a65dcce2a2319f9e8849","D2","batch4","","1526.5","<p class= block-text>This concludes the Standard Progressive Matrix game. Thank you for your responses!<br> When you are ready, click the button continue</p>","0","spm_goodbye","","","","","","","","","","","","","","","","","","","","","","","","",""
"true","","","","","fullscreen","303","927423","0.0-4.0-0.0","5e77a65dcce2a2319f9e8849","D2","batch4","","","","","","","","","","","","","","","","","","","","","","","","","","","","","",""
"","","","","","instructions","304","970446","0.0-4.0-1.0-0.0-0.0","5e77a65dcce2a2319f9e8849","D2","batch4","[{""page_index"":0,""viewing_time"":9328.599999964237},{""page_index"":1,""viewing_time"":5616.100000023842},{""page_index"":2,""viewing_time"":2830.800000011921},{""page_index"":3,""viewing_time"":7529.099999964237},{""page_index"":4,""viewing_time"":4952.900000035763},{""page_index"":5,""viewing_time"":10560.599999964237},{""page_index"":6,""viewing_time"":2202.100000023842}]","43020.59999996424","","","tol-instructions","","","","","","","","","","","","","","","","","","","","","","","","",""
"","","","","","html-button-response","305","971307","0.0-4.0-1.0-1.0-0.0","5e77a65dcce2a2319f9e8849","D2","batch4","","860","<p class=block-text> Let's answer a few questions <br>","0","tol_enter_quiz","","","","","","","","","","","","","","","","","","","","","","","","",""
"","","","","","html-button-response","306","973476","0.0-4.0-1.0-1.0-1.0","5e77a65dcce2a2319f9e8849","D2","batch4","","2167.199999988079","<p class = block-text>True or False: You can only move the ball on top of a peg. <br></p>","1","tol_quiz","false","","","","","","","","","","","","","","","","","","","","","","","",""
"","","","","","html-button-response","307","974978","0.0-4.0-1.0-1.0-2.0","5e77a65dcce2a2319f9e8849","D2","batch4","","1499.5","<p class = block-text>Incorrect. Remember, you can only move the ball on top of a peg.</p>","0","tol_quiz_feedback","","","","","","","","","","","","","","","","","","","","","","","","",""
"","","","","","html-button-response","308","978350","0.0-4.0-1.0-1.0-3.0","5e77a65dcce2a2319f9e8849","D2","batch4","","3371.2999999523163","<p class = block-text>True or False: You should try to match your board with the target board with fewest moves possible. <br></p>","0","tol_quiz","true","","","","","","","","","","","","","","","","","","","","","","","",""
"","","","","","html-button-response","309","979146","0.0-4.0-1.0-1.0-4.0","5e77a65dcce2a2319f9e8849","D2","batch4","","793.5","<p class = block-text>Correct! </p>","0","tol_quiz_feedback","","","","","","","","","","","","","","","","","","","","","","","","",""
"","","","","","html-button-response","310","980303","0.0-4.0-1.0-2.0-0.0","5e77a65dcce2a2319f9e8849","D2","batch4","","1154.800000011921","<p class = block-text>You made too many incorrect choices.</p><p class = block-text>You will now repeat the instructions and quiz</p>","0","","","","","","","","","","","","","","","","","","","","","","","","","",""
"","","","","","instructions","311","987716","0.0-4.0-1.1-0.1-0.1","5e77a65dcce2a2319f9e8849","D2","batch4","[{""page_index"":0,""viewing_time"":1086.0999999642372},{""page_index"":1,""viewing_time"":459.30000001192093},{""page_index"":2,""viewing_time"":763.3000000119209},{""page_index"":3,""viewing_time"":848.3000000119209},{""page_index"":4,""viewing_time"":785.0999999642372},{""page_index"":5,""viewing_time"":757.3000000119209},{""page_index"":6,""viewing_time"":2712.199999988079}]","7411.899999976158","","","tol-instructions","","","","","","","","","","","","","","","","","","","","","","","","",""
"","","","","","html-button-response","312","988650","0.0-4.0-1.1-1.1-0.1","5e77a65dcce2a2319f9e8849","D2","batch4","","932.6000000238419","<p class=block-text> Let's answer a few questions <br>","0","tol_enter_quiz","","","","","","","","","","","","","","","","","","","","","","","","",""
"","","","","","html-button-response","313","991114","0.0-4.0-1.1-1.1-1.1","5e77a65dcce2a2319f9e8849","D2","batch4","","2463","<p class = block-text>True or False: You can only move the ball on top of a peg. <br></p>","0","tol_quiz","true","","","","","","","","","","","","","","","","","","","","","","","",""
"","","","","","html-button-response","314","992140","0.0-4.0-1.1-1.1-2.1","5e77a65dcce2a2319f9e8849","D2","batch4","","1024.800000011921","<p class = block-text>Correct! You can only move the ball on top of a peg.</p>","0","tol_quiz_feedback","","","","","","","","","","","","","","","","","","","","","","","","",""
"","","","","","html-button-response","315","994199","0.0-4.0-1.1-1.1-3.1","5e77a65dcce2a2319f9e8849","D2","batch4","","2057.5","<p class = block-text>True or False: You should try to match your board with the target board with fewest moves possible. <br></p>","0","tol_quiz","true","","","","","","","","","","","","","","","","","","","","","","","",""
"","","","","","html-button-response","316","995061","0.0-4.0-1.1-1.1-4.1","5e77a65dcce2a2319f9e8849","D2","batch4","","860.6999999880791","<p class = block-text>Correct! </p>","0","tol_quiz_feedback","","","","","","","","","","","","","","","","","","","","","","","","",""
"","","","","","html-button-response","317","995998","0.0-4.0-2.0","5e77a65dcce2a2319f9e8849","D2","batch4","","934.7000000476837","<p class=block-text> Now that you've understood the game, let's practice a few easier examples before we start!<br> <br>","0","","","","","","","","","","","","","","","","","","","","","","","","","",""
"","","","","","single-stim-button","318","1002079","0.0-4.0-3.0-0.0","5e77a65dcce2a2319f9e8849","D2","batch4","","6077","","","tol_practice","","","","","","","","","","","tol_peg_2","6077","6077","0","[[1,2,0],[0,0],[0]]","1","[[1,2,0],[0,0],[3]]","practice","6077","","","","","",""
"","","","","","single-stim-button","319","1003419","0.0-4.0-3.0-1.0","5e77a65dcce2a2319f9e8849","D2","batch4","","1337","","","tol_practice","","","","","","","","","","","tol_peg_3","1337","1337","0","[[1,2,0],[0,0],[3]]","1","[[1,2,0],[0,0],[3]]","practice","1337","","","","","",""
"","","","","","poldrack-single-stim","320","1004432","0.0-4.0-4.0","5e77a65dcce2a2319f9e8849","D2","batch4","","-1","","","tol_feedback","true","","","","","","","","","","","1000","1000","500","","","","","","-1","none","true","","0",""
"","","","","","single-stim-button","321","1010926","0.0-4.0-5.0-0.0","5e77a65dcce2a2319f9e8849","D2","batch4","","6492","","","tol_practice","","","","","","","","","","","tol_peg_1","6492","6492","0","[[1,0,0],[3,0],[0]]","2","[[0,0,0],[3,1],[2]]","practice","6492","","","","","",""
"","","","","","single-stim-button","322","1011955","0.0-4.0-5.0-1.0","5e77a65dcce2a2319f9e8849","D2","batch4","","1027","","","tol_practice","","","","","","","","","","","tol_peg_3","1027","1027","0","[[1,0,0],[3,0],[2]]","2","[[0,0,0],[3,1],[2]]","practice","1027","","","","","",""
"","","","","","single-stim-button","323","1013130","0.0-4.0-5.1-0.1","5e77a65dcce2a2319f9e8849","D2","batch4","","1173","","","tol_practice","","","","","","","","","","","tol_peg_1","1173","1173","0","[[0,0,0],[3,0],[2]]","3","[[0,0,0],[3,1],[2]]","practice","1173","","","","","",""
"","","","","","single-stim-button","324","1014433","0.0-4.0-5.1-1.1","5e77a65dcce2a2319f9e8849","D2","batch4","","1302","","","tol_practice","","","","","","","","","","","tol_peg_2","1302","1302","0","[[0,0,0],[3,1],[2]]","3","[[0,0,0],[3,1],[2]]","practice","1302","","","","","",""
"","","","","","poldrack-single-stim","325","1015451","0.0-4.0-6.0","5e77a65dcce2a2319f9e8849","D2","batch4","","-1","","","tol_feedback","true","","","","","","","","","","","1000","1000","500","","","","","","-1","none","true","","0",""
"","","","","","single-stim-button","326","1019943","0.0-4.0-7.0-0.0","5e77a65dcce2a2319f9e8849","D2","batch4","","4490","","","tol_practice","","","","","","","","","","","tol_peg_2","4490","4490","0","[[1,2,0],[0,0],[0]]","4","[[1,0,0],[2,0],[3]]","practice","4490","","","","","",""
"","","","","","single-stim-button","327","1020815","0.0-4.0-7.0-1.0","5e77a65dcce2a2319f9e8849","D2","batch4","","870","","","tol_practice","","","","","","","","","","","tol_peg_3","870","870","0","[[1,2,0],[0,0],[3]]","4","[[1,0,0],[2,0],[3]]","practice","870","","","","","",""
"","","","","","single-stim-button","328","1022018","0.0-4.0-7.1-0.1","5e77a65dcce2a2319f9e8849","D2","batch4","","1201","","","tol_practice","","","","","","","","","","","tol_peg_1","1201","1201","0","[[1,0,0],[0,0],[3]]","5","[[1,0,0],[2,0],[3]]","practice","1201","","","","","",""
"","","","","","single-stim-button","329","1022672","0.0-4.0-7.1-1.1","5e77a65dcce2a2319f9e8849","D2","batch4","","653","","","tol_practice","","","","","","","","","","","tol_peg_2","653","653","0","[[1,0,0],[2,0],[3]]","5","[[1,0,0],[2,0],[3]]","practice","653","","","","","",""
"","","","","","poldrack-single-stim","330","1023683","0.0-4.0-8.0","5e77a65dcce2a2319f9e8849","D2","batch4","","-1","","","tol_feedback","true","","","","","","","","","","","1000","1000","500","","","","","","-1","none","true","","0",""
"","","","","","html-button-response","331","1025063","0.0-4.0-9.0","5e77a65dcce2a2319f9e8849","D2","batch4","","1378.6000000238419","<div class = centerbox><p class = center-block-text>Great job! You are done with practice trials<br>You are about to start official trials.<br> <br> Problem <strong>1</strong> out of 25 problems</p></div>","0","tol_instruction","","","","","","","","","","","","","","","","","","","","","","","","",""
"","","","","","single-stim-button","332","1028955","0.0-4.0-10.0-0.0","5e77a65dcce2a2319f9e8849","D2","batch4","","2876","","","tol_tohand","","","","","","","","","","","tol_peg_2","2876","2876","0","[[1,2,0],[0,0],[0]]","1","[[1,3,0],[2,0],[0]]","0","0","","","","","","3"
"","","","","","single-stim-button","333","1029959","0.0-4.0-10.0-1.0","5e77a65dcce2a2319f9e8849","D2","batch4","","1002","","","tol_toboard","","","","","","","","","","","tol_peg_3","1002","1002","0","[[1,2,0],[0,0],[3]]","1","[[1,3,0],[2,0],[0]]","0","0","","","","","","3"
"","","","","","single-stim-button","334","1032663","0.0-4.0-10.1-0.1","5e77a65dcce2a2319f9e8849","D2","batch4","","2702","","","tol_tohand","","","","","","","","","","","tol_peg_1","2702","2702","0","[[1,0,0],[0,0],[3]]","2","[[1,3,0],[2,0],[0]]","0","0","","","","","","3"
"","","","","","single-stim-button","335","1033946","0.0-4.0-10.1-1.1","5e77a65dcce2a2319f9e8849","D2","batch4","","1282","","","tol_toboard","","","","","","","","","","","tol_peg_2","1282","1282","0","[[1,0,0],[2,0],[3]]","2","[[1,3,0],[2,0],[0]]","0","0","","","","","","3"
"","","","","","single-stim-button","336","1035626","0.0-4.0-10.2-0.2","5e77a65dcce2a2319f9e8849","D2","batch4","","1678","","","tol_tohand","","","","","","","","","","","tol_peg_3","1678","1678","0","[[1,0,0],[2,0],[0]]","3","[[1,3,0],[2,0],[0]]","0","0","","","","","","3"
"","","","","","single-stim-button","337","1036478","0.0-4.0-10.2-1.2","5e77a65dcce2a2319f9e8849","D2","batch4","","851","","","tol_toboard","","","","","","","","","","","tol_peg_1","851","851","0","[[1,3,0],[2,0],[0]]","3","[[1,3,0],[2,0],[0]]","0","0","","","","","","3"
"","","","","","poldrack-single-stim","338","1037493","0.0-4.0-11.0","5e77a65dcce2a2319f9e8849","D2","batch4","","-1","","","tol_feedback","true","","","","","","","","","","","1000","1000","500","","","","","","-1","none","true","2876","7256",""
"","","","","","html-button-response","339","1038627","0.0-4.0-12.0","5e77a65dcce2a2319f9e8849","D2","batch4","","1132.5999999642372","<div class = centerbox><p class = center-block-text>problem <strong>2</strong> out of 25 problems</p></div>","0","tol_trial_num","","","","","","","","","","","","","","","","","","","","","","","","",""
"","","","","","single-stim-button","340","1045446","0.0-4.0-13.0-0.0","5e77a65dcce2a2319f9e8849","D2","batch4","","6817","","","tol_tohand","","","","","","","","","","","tol_peg_1","6817","6817","0","[[1,0,0],[3,0],[0]]","1","[[2,1,3],[0,0],[0]]","1","0","","","","","","5"
"","","","","","single-stim-button","341","1046928","0.0-4.0-13.0-1.0","5e77a65dcce2a2319f9e8849","D2","batch4","","1480","","","tol_toboard","","","","","","","","","","","tol_peg_2","1480","1480","0","[[1,0,0],[3,2],[0]]","1","[[2,1,3],[0,0],[0]]","1","0","","","","","","5"
"","","","","","single-stim-button","342","1048631","0.0-4.0-13.1-0.1","5e77a65dcce2a2319f9e8849","D2","batch4","","1701","","","tol_tohand","","","","","","","","","","","tol_peg_1","1701","1701","0","[[0,0,0],[3,2],[0]]","2","[[2,1,3],[0,0],[0]]","1","0","","","","","","5"
"","","","","","single-stim-button","343","1049568","0.0-4.0-13.1-1.1","5e77a65dcce2a2319f9e8849","D2","batch4","","935","","","tol_toboard","","","","","","","","","","","tol_peg_3","935","935","0","[[0,0,0],[3,2],[1]]","2","[[2,1,3],[0,0],[0]]","1","0","","","","","","5"
"","","","","","single-stim-button","344","1050405","0.0-4.0-13.2-0.2","5e77a65dcce2a2319f9e8849","D2","batch4","","836","","","tol_tohand","","","","","","","","","","","tol_peg_2","836","836","0","[[0,0,0],[3,0],[1]]","3","[[2,1,3],[0,0],[0]]","1","0","","","","","","5"
"","","","","","single-stim-button","345","1051172","0.0-4.0-13.2-1.2","5e77a65dcce2a2319f9e8849","D2","batch4","","766","","","tol_toboard","","","","","","","","","","","tol_peg_1","766","766","0","[[2,0,0],[3,0],[1]]","3","[[2,1,3],[0,0],[0]]","1","0","","","","","","5"
