"success","timeout","failed_images","failed_audio","failed_video","trial_type","trial_index","time_elapsed","internal_node_id","subject_id","study_id","session_id","view_history","rt","stimulus","response","task","correct","answer","item","fiar_detect_rt","fiar_detect_correct","total_correct_fiar_detect","post_trial_gap","choices","spm_correct","spm_rt","mouse_click","stim_duration","block_duration","timing_post_trial","current_position","tol_num_moves_made","tol_target","tol_problem_id","tol_rt","key_press","possible_responses","tol_correct","preplanning","tol_rt_per_trial","tol_min_moves"
"true","false","[]","[]","[]","preload","0","11632","0.0-0.0","5e7b9a17aa127708ed804d16","A3","batch1","","","","","","","","","","","","","","","","","","","","","","","","","","","","","",""
"true","","","","","fullscreen","1","19806","0.0-1.0-0.0","5e7b9a17aa127708ed804d16","A3","batch1","","","","","","","","","","","","","","","","","","","","","","","","","","","","","",""
"true","","","","","fullscreen","2","21838","0.0-2.0-0.0","5e7b9a17aa127708ed804d16","A3","batch1","","","","","","","","","","","","","","","","","","","","","","","","","","","","","",""
"","","","","","instructions","3","34541","0.0-2.0-1.0-0.0","5e7b9a17aa127708ed804d16","A3","batch1","[{""page_index"":0,""viewing_time"":6222.299999982119},{""page_index"":1,""viewing_time"":6480.100000023842}]","12702.699999988079","","","","","","","","","","","","","","","","","","","","","","","","","","","",""
"","","","","","html-button-response","4","35382","0.0-2.0-1.0-1.0-0.0","5e7b9a17aa127708ed804d16","A3","batch1","","839.2999999821186","<p class=block-text> Let's answer a few questions <br>","0","pattern_enter_quiz","","","","","","","","","","","","","","","","","","","","","","","","",""
"","","","","","html-button-response","5","37713","0.0-2.0-1.0-1.0-1.0","5e7b9a17aa127708ed804d16","A3","batch1","","2330.5","<p class = block-text>True or False: You will have as much time as you want to make each choice. <br></p>","1","pattern_quiz","true","","","","","","","","","","","","","","","","","","","","","","","",""
"","","","","","html-button-response","6","38457","0.0-2.0-1.0-1.0-2.0","5e7b9a17aa127708ed804d16","A3","batch1","","741.4000000059605","<p class = block-text>Correct! You should make your choice <strong> as fast as you can</strong>.</p>","0","pattern_quiz_feedback","","","","","","","","","","","","","","","","","","","","","","","","",""
"","","","","","html-button-response","7","40894","0.0-2.0-1.0-1.0-3.0","5e7b9a17aa127708ed804d16","A3","batch1","","2437.0999999940395","<p class = block-text>True or False: You will look for 4 pieces in black or white color connected in a row either horizontally, vertically or diagonally. <br></p>","0","pattern_quiz","true","","","","","","","","","","","","","","","","","","","","","","","",""
"","","","","","html-button-response","8","41606","0.0-2.0-1.0-1.0-4.0","5e7b9a17aa127708ed804d16","A3","batch1","","711.1999999880791","<p class = block-text>Correct! </p>","0","pattern_quiz_feedback","","","","","","","","","","","","","","","","","","","","","","","","",""
"","","","","","html-button-response","9","43017","0.0-2.0-2.0","5e7b9a17aa127708ed804d16","A3","batch1","","1408.4000000059605","<p class=block-text> Now that you've understood the game, let's do a few practice trials before we start!<br> <br>","0","pattern_enter_practice","","","","","","","","","","","","","","","","","","","","","","","","",""
"","","","","","image-keyboard-response","10","43734","0.0-2.0-3.0-0.0","5e7b9a17aa127708ed804d16","A3","batch1","","714.5999999940395","stim/prac_yes_18_hor_w1.png","f","pattern_practice","true","f","","","","","","","","","","","","","","","","","","","","","","",""
"","","","","","html-keyboard-response","11","44739","0.0-2.0-3.0-1.0","5e7b9a17aa127708ed804d16","A3","batch1","","null","<p style=""font-size:30px;color:green;"">Correct!</p>","null","pattern_feedback","","","","","","","","","","","","","","","","","","","","","","","","",""
"","","","","","image-keyboard-response","12","46982","0.0-2.0-3.0-0.1","5e7b9a17aa127708ed804d16","A3","batch1","","2242.0999999940395","stim/prac_no_18_1.png","j","pattern_practice","true","j","","","","","","","","","","","","","","","","","","","","","","",""
"","","","","","html-keyboard-response","13","47988","0.0-2.0-3.0-1.1","5e7b9a17aa127708ed804d16","A3","batch1","","null","<p style=""font-size:30px;color:green;"">Correct!</p>","null","pattern_feedback","","","","","","","","","","","","","","","","","","","","","","","","",""
"","","","","","image-keyboard-response","14","49142","0.0-2.0-3.0-0.2","5e7b9a17aa127708ed804d16","A3","batch1","","1152.5999999940395","stim/prac_no_16_1.png","j","pattern_practice","true","j","","","","","","","","","","","","","","","","","","","","","","",""
"","","","","","html-keyboard-response","15","50144","0.0-2.0-3.0-1.2","5e7b9a17aa127708ed804d16","A3","batch1","","null","<p style=""font-size:30px;color:green;"">Correct!</p>","null","pattern_feedback","","","","","","","","","","","","","","","","","","","","","","","","",""
"","","","","","image-keyboard-response","16","50694","0.0-2.0-3.0-0.3","5e7b9a17aa127708ed804d16","A3","batch1","","549.0999999940395","stim/prac_yes_16_ver_w1.png","f","pattern_practice","true","f","","","","","","","","","","","","","","","","","","","","","","",""
"","","","","","html-keyboard-response","17","51720","0.0-2.0-3.0-1.3","5e7b9a17aa127708ed804d16","A3","batch1","","null","<p style=""font-size:30px;color:green;"">Correct!</p>","null","pattern_feedback","","","","","","","","","","","","","","","","","","","","","","","","",""
"","","","","","image-keyboard-response","18","52502","0.0-2.0-3.0-0.4","5e7b9a17aa127708ed804d16","A3","batch1","","781","stim/prac_yes_20_dia_b1.png","f","pattern_practice","true","f","","","","","","","","","","","","","","","","","","","","","","",""
"","","","","","html-keyboard-response","19","53529","0.0-2.0-3.0-1.4","5e7b9a17aa127708ed804d16","A3","batch1","","null","<p style=""font-size:30px;color:green;"">Correct!</p>","null","pattern_feedback","","","","","","","","","","","","","","","","","","","","","","","","",""
"","","","","","html-button-response","20","56420","0.0-2.0-4.0","5e7b9a17aa127708ed804d16","A3","batch1","","2889.5","<p class=block-text> Good job! You are done with practice trials!<br>
        You responded correctly on 100% of the trials.<br>
        Press the button below to start official trials. Now you won't see any feedback about your response</p>","0","pattern_enter_official_trials","","","","","","","","","","","","","","","","","","","","","","","","",""
"","","","","","html-keyboard-response","21","57229","0.0-2.0-5.0-0.0","5e7b9a17aa127708ed804d16","A3","batch1","","null","<p class=block-text>Trial 1 out of 78</p>","null","pattern_show_trial_num","","","","","","","","","","","","","","","","","","","","","","","","",""
"","","","","","image-keyboard-response","22","58871","0.0-2.0-5.0-1.0","5e7b9a17aa127708ed804d16","A3","batch1","","1639.7999999821186","stim/no_39_1_w.png","j","pattern_response","true","j","pattern_21","1639.7999999821186","true","1","","","","","","","","","","","","","","","","","","",""
"","","","","","html-keyboard-response","23","60197","0.0-2.0-5.0-0.1","5e7b9a17aa127708ed804d16","A3","batch1","","null","<p class=block-text>Trial 2 out of 78</p>","null","pattern_show_trial_num","","","","","","","","","","","","","","","","","","","","","","","","",""
"","","","","","image-keyboard-response","24","61078","0.0-2.0-5.0-1.1","5e7b9a17aa127708ed804d16","A3","batch1","","880.3000000119209","stim/no_30_1_b.png","j","pattern_response","true","j","pattern_13","880.3000000119209","true","2","","","","","","","","","","","","","","","","","","",""
"","","","","","html-keyboard-response","25","62398","0.0-2.0-5.0-0.2","5e7b9a17aa127708ed804d16","A3","batch1","","null","<p class=block-text>Trial 3 out of 78</p>","null","pattern_show_trial_num","","","","","","","","","","","","","","","","","","","","","","","","",""
"","","","","","image-keyboard-response","26","64582","0.0-2.0-5.0-1.2","5e7b9a17aa127708ed804d16","A3","batch1","","2183.199999988079","stim/yes_63_dia_b1.png","f","pattern_response","true","f","pattern_78","2183.199999988079","true","3","","","","","","","","","","","","","","","","","","",""
"","","","","","html-keyboard-response","27","65908","0.0-2.0-5.0-0.3","5e7b9a17aa127708ed804d16","A3","batch1","","null","<p class=block-text>Trial 4 out of 78</p>","null","pattern_show_trial_num","","","","","","","","","","","","","","","","","","","","","","","","",""
"","","","","","image-keyboard-response","28","67046","0.0-2.0-5.0-1.3","5e7b9a17aa127708ed804d16","A3","batch1","","1137.5","stim/no_36_1_b.png","j","pattern_response","true","j","pattern_17","1137.5","true","4","","","","","","","","","","","","","","","","","","",""
"","","","","","html-keyboard-response","29","68360","0.0-2.0-5.0-0.4","5e7b9a17aa127708ed804d16","A3","batch1","","null","<p class=block-text>Trial 5 out of 78</p>","null","pattern_show_trial_num","","","","","","","","","","","","","","","","","","","","","","","","",""
"","","","","","image-keyboard-response","30","70343","0.0-2.0-5.0-1.4","5e7b9a17aa127708ed804d16","A3","batch1","","1982.0999999940395","stim/no_51_1.png","j","pattern_response","true","j","pattern_31","1982.0999999940395","true","5","","","","","","","","","","","","","","","","","","",""
"","","","","","html-keyboard-response","31","71658","0.0-2.0-5.0-0.5","5e7b9a17aa127708ed804d16","A3","batch1","","null","<p class=block-text>Trial 6 out of 78</p>","null","pattern_show_trial_num","","","","","","","","","","","","","","","","","","","","","","","","",""
"","","","","","image-keyboard-response","32","72951","0.0-2.0-5.0-1.5","5e7b9a17aa127708ed804d16","A3","batch1","","1291","stim/no_28_2.png","j","pattern_response","true","j","pattern_11","1291","true","6","","","","","","","","","","","","","","","","","","",""
"","","","","","html-keyboard-response","33","74276","0.0-2.0-5.0-0.6","5e7b9a17aa127708ed804d16","A3","batch1","","null","<p class=block-text>Trial 7 out of 78</p>","null","pattern_show_trial_num","","","","","","","","","","","","","","","","","","","","","","","","",""
"","","","","","image-keyboard-response","34","74903","0.0-2.0-5.0-1.6","5e7b9a17aa127708ed804d16","A3","batch1","","625.5","stim/yes_39_hor_w1_w.png","f","pattern_response","true","f","pattern_62","625.5","true","7","","","","","","","","","","","","","","","","","","",""
"","","","","","html-keyboard-response","35","76227","0.0-2.0-5.0-0.7","5e7b9a17aa127708ed804d16","A3","batch1","","null","<p class=block-text>Trial 8 out of 78</p>","null","pattern_show_trial_num","","","","","","","","","","","","","","","","","","","","","","","","",""
"","","","","","image-keyboard-response","36","78263","0.0-2.0-5.0-1.7","5e7b9a17aa127708ed804d16","A3","batch1","","2034.5999999940395","stim/no_67_1.png","j","pattern_response","true","j","pattern_39","2034.5999999940395","true","8","","","","","","","","","","","","","","","","","","",""
"","","","","","html-keyboard-response","37","79582","0.0-2.0-5.0-0.8","5e7b9a17aa127708ed804d16","A3","batch1","","null","<p class=block-text>Trial 9 out of 78</p>","null","pattern_show_trial_num","","","","","","","","","","","","","","","","","","","","","","","","",""
"","","","","","image-keyboard-response","38","80343","0.0-2.0-5.0-1.8","5e7b9a17aa127708ed804d16","A3","batch1","","759.1999999880791","stim/yes_30_ver_b1_b.png","j","pattern_response","false","f","pattern_54","759.1999999880791","false","8","","","","","","","","","","","","","","","","","","",""
"","","","","","html-keyboard-response","39","81655","0.0-2.0-5.0-0.9","5e7b9a17aa127708ed804d16","A3","batch1","","null","<p class=block-text>Trial 10 out of 78</p>","null","pattern_show_trial_num","","","","","","","","","","","","","","","","","","","","","","","","",""
"","","","","","image-keyboard-response","40","82631","0.0-2.0-5.0-1.9","5e7b9a17aa127708ed804d16","A3","batch1","","975.6999999880791","stim/yes_46_ver_b1_b.png","f","pattern_response","true","f","pattern_68","975.6999999880791","true","9","","","","","","","","","","","","","","","","","","",""
"","","","","","html-keyboard-response","41","83942","0.0-2.0-5.0-0.10","5e7b9a17aa127708ed804d16","A3","batch1","","null","<p class=block-text>Trial 11 out of 78</p>","null","pattern_show_trial_num","","","","","","","","","","","","","","","","","","","","","","","","",""
"","","","","","image-keyboard-response","42","84551","0.0-2.0-5.0-1.10","5e7b9a17aa127708ed804d16","A3","batch1","","607.5999999940395","stim/no_15_1_w.png","j","pattern_response","true","j","pattern_03","607.5999999940395","true","10","","","","","","","","","","","","","","","","","","",""
"","","","","","html-keyboard-response","43","85875","0.0-2.0-5.0-0.11","5e7b9a17aa127708ed804d16","A3","batch1","","null","<p class=block-text>Trial 12 out of 78</p>","null","pattern_show_trial_num","","","","","","","","","","","","","","","","","","","","","","","","",""
"","","","","","image-keyboard-response","44","86983","0.0-2.0-5.0-1.11","5e7b9a17aa127708ed804d16","A3","batch1","","1107","stim/yes_42_dia_w1_w.png","j","pattern_response","false","f","pattern_64","1107","false","10","","","","","","","","","","","","","","","","","","",""
"","","","","","html-keyboard-response","45","88309","0.0-2.0-5.0-0.12","5e7b9a17aa127708ed804d16","A3","batch1","","null","<p class=block-text>Trial 13 out of 78</p>","null","pattern_show_trial_num","","","","","","","","","","","","","","","","","","","","","","","","",""
"","","","","","image-keyboard-response","46","89991","0.0-2.0-5.0-1.12","5e7b9a17aa127708ed804d16","A3","batch1","","1681","stim/no_45_1_w.png","j","pattern_response","true","j","pattern_25","1681","true","11","","","","","","","","","","","","","","","","","","",""
"","","","","","html-keyboard-response","47","91294","0.0-2.0-5.0-0.13","5e7b9a17aa127708ed804d16","A3","batch1","","null","<p class=block-text>Trial 14 out of 78</p>","null","pattern_show_trial_num","","","","","","","","","","","","","","","","","","","","","","","","",""
"","","","","","image-keyboard-response","48","92888","0.0-2.0-5.0-1.13","5e7b9a17aa127708ed804d16","A3","batch1","","1593","stim/no_47_1_b.png","j","pattern_response","true","j","pattern_27","1593","true","12","","","","","","","","","","","","","","","","","","",""
"","","","","","html-keyboard-response","49","94207","0.0-2.0-5.0-0.14","5e7b9a17aa127708ed804d16","A3","batch1","","null","<p class=block-text>Trial 15 out of 78</p>","null","pattern_show_trial_num","","","","","","","","","","","","","","","","","","","","","","","","",""
"","","","","","image-keyboard-response","50","95735","0.0-2.0-5.0-1.14","5e7b9a17aa127708ed804d16","A3","batch1","","1526.5999999940395","stim/no_25_1_b.png","j","pattern_response","true","j","pattern_09","1526.5999999940395","true","13","","","","","","","","","","","","","","","","","","",""
"","","","","","html-keyboard-response","51","97051","0.0-2.0-5.0-0.15","5e7b9a17aa127708ed804d16","A3","batch1","","null","<p class=block-text>Trial 16 out of 78</p>","null","pattern_show_trial_num","","","","","","","","","","","","","","","","","","","","","","","","",""
"","","","","","image-keyboard-response","52","97752","0.0-2.0-5.0-1.15","5e7b9a17aa127708ed804d16","A3","batch1","","699.2999999821186","stim/yes_29_hor_b1_b.png","f","pattern_response","true","f","pattern_52","699.2999999821186","true","14","","","","","","","","","","","","","","","","","","",""
"","","","","","html-keyboard-response","53","99066","0.0-2.0-5.0-0.16","5e7b9a17aa127708ed804d16","A3","batch1","","null","<p class=block-text>Trial 17 out of 78</p>","null","pattern_show_trial_num","","","","","","","","","","","","","","","","","","","","","","","","",""
"","","","","","image-keyboard-response","54","101496","0.0-2.0-5.0-1.16","5e7b9a17aa127708ed804d16","A3","batch1","","2428.199999988079","stim/no_37_2_w.png","j","pattern_response","true","j","pattern_19","2428.199999988079","true","15","","","","","","","","","","","","","","","","","","",""
"","","","","","html-keyboard-response","55","102801","0.0-2.0-5.0-0.17","5e7b9a17aa127708ed804d16","A3","batch1","","null","<p class=block-text>Trial 18 out of 78</p>","null","pattern_show_trial_num","","","","","","","","","","","","","","","","","","","","","","","","",""
"","","","","","image-keyboard-response","56","103800","0.0-2.0-5.0-1.17","5e7b9a17aa127708ed804d16","A3","batch1","","998.0999999940395","stim/no_33_1_b.png","j","pattern_response","true","j","pattern_15","998.0999999940395","true","16","","","","","","","","","","","","","","","","","","",""
"","","","","","html-keyboard-response","57","105109","0.0-2.0-5.0-0.18","5e7b9a17aa127708ed804d16","A3","batch1","","null","<p class=block-text>Trial 19 out of 78</p>","null","pattern_show_trial_num","","","","","","","","","","","","","","","","","","","","","","","","",""
"","","","","","image-keyboard-response","58","106328","0.0-2.0-5.0-1.18","5e7b9a17aa127708ed804d16","A3","batch1","","1217.6000000238419","stim/no_49_2_b.png","j","pattern_response","true","j","pattern_29","1217.6000000238419","true","17","","","","","","","","","","","","","","","","","","",""
"","","","","","html-keyboard-response","59","107651","0.0-2.0-5.0-0.19","5e7b9a17aa127708ed804d16","A3","batch1","","null","<p class=block-text>Trial 20 out of 78</p>","null","pattern_show_trial_num","","","","","","","","","","","","","","","","","","","","","","","","",""
"","","","","","image-keyboard-response","60","108536","0.0-2.0-5.0-1.19","5e7b9a17aa127708ed804d16","A3","batch1","","883.8000000119209","stim/yes_70_ver_b1.png","f","pattern_response","true","f","pattern_80","883.8000000119209","true","18","","","","","","","","","","","","","","","","","","",""
"","","","","","html-keyboard-response","61","109850","0.0-2.0-5.0-0.20","5e7b9a17aa127708ed804d16","A3","batch1","","null","<p class=block-text>Trial 21 out of 78</p>","null","pattern_show_trial_num","","","","","","","","","","","","","","","","","","","","","","","","",""
"","","","","","image-keyboard-response","62","110648","0.0-2.0-5.0-1.20","5e7b9a17aa127708ed804d16","A3","batch1","","796.8000000119209","stim/no_12_1.png","j","pattern_response","true","j","pattern_01","796.8000000119209","true","19","","","","","","","","","","","","","","","","","","",""
"","","","","","html-keyboard-response","63","111970","0.0-2.0-5.0-0.21","5e7b9a17aa127708ed804d16","A3","batch1","","null","<p class=block-text>Trial 22 out of 78</p>","null","pattern_show_trial_num","","","","","","","","","","","","","","","","","","","","","","","","",""
"","","","","","image-keyboard-response","64","113832","0.0-2.0-5.0-1.21","5e7b9a17aa127708ed804d16","A3","batch1","","1861.199999988079","stim/yes_33_dia_w1_w.png","f","pattern_response","true","f","pattern_56","1861.199999988079","true","20","","","","","","","","","","","","","","","","","","",""
"","","","","","html-keyboard-response","65","115142","0.0-2.0-5.0-0.22","5e7b9a17aa127708ed804d16","A3","batch1","","null","<p class=block-text>Trial 23 out of 78</p>","null","pattern_show_trial_num","","","","","","","","","","","","","","","","","","","","","","","","",""
"","","","","","image-keyboard-response","66","115832","0.0-2.0-5.0-1.22","5e7b9a17aa127708ed804d16","A3","batch1","","689.2999999821186","stim/yes_26_dia_w2_w.png","f","pattern_response","true","f","pattern_50","689.2999999821186","true","21","","","","","","","","","","","","","","","","","","",""
"","","","","","html-keyboard-response","67","117134","0.0-2.0-5.0-0.23","5e7b9a17aa127708ed804d16","A3","batch1","","null","<p class=block-text>Trial 24 out of 78</p>","null","pattern_show_trial_num","","","","","","","","","","","","","","","","","","","","","","","","",""
"","","","","","image-keyboard-response","68","118008","0.0-2.0-5.0-1.23","5e7b9a17aa127708ed804d16","A3","batch1","","872.7000000178814","stim/yes_36_ver_w1_w.png","f","pattern_response","true","f","pattern_58","872.7000000178814","true","22","","","","","","","","","","","","","","","","","","",""
"","","","","","html-keyboard-response","69","119329","0.0-2.0-5.0-0.24","5e7b9a17aa127708ed804d16","A3","batch1","","null","<p class=block-text>Trial 25 out of 78</p>","null","pattern_show_trial_num","","","","","","","","","","","","","","","","","","","","","","","","",""
"","","","","","image-keyboard-response","70","120152","0.0-2.0-5.0-1.24","5e7b9a17aa127708ed804d16","A3","batch1","","822.4000000059605","stim/yes_44_ver_w1_w.png","j","pattern_response","false","f","pattern_66","822.4000000059605","false","22","","","","","","","","","","","","","","","","","","",""
"","","","","","html-keyboard-response","71","121458","0.0-2.0-5.0-0.25","5e7b9a17aa127708ed804d16","A3","batch1","","null","<p class=block-text>Trial 26 out of 78</p>","null","pattern_show_trial_num","","","","","","","","","","","","","","","","","","","","","","","","",""
"","","","","","image-keyboard-response","72","122312","0.0-2.0-5.0-1.25","5e7b9a17aa127708ed804d16","A3","batch1","","853.5","stim/yes_49_hor_w1_b.png","f","pattern_response","true","f","pattern_70","853.5","true","23","","","","","","","","","","","","","","","","","","",""
"","","","","","html-keyboard-response","73","123625","0.0-2.0-5.0-0.26","5e7b9a17aa127708ed804d16","A3","batch1","","null","<p class=block-text>Trial 27 out of 78</p>","null","pattern_show_trial_num","","","","","","","","","","","","","","","","","","","","","","","","",""
"","","","","","image-keyboard-response","74","125081","0.0-2.0-5.0-1.26","5e7b9a17aa127708ed804d16","A3","batch1","","1454.4000000059605","stim/no_43_2_b.png","j","pattern_response","true","j","pattern_23","1454.4000000059605","true","24","","","","","","","","","","","","","","","","","","",""
"","","","","","html-keyboard-response","75","126399","0.0-2.0-5.0-0.27","5e7b9a17aa127708ed804d16","A3","batch1","","null","<p class=block-text>Trial 28 out of 78</p>","null","pattern_show_trial_num","","","","","","","","","","","","","","","","","","","","","","","","",""
"","","","","","image-keyboard-response","76","128745","0.0-2.0-5.0-1.27","5e7b9a17aa127708ed804d16","A3","batch1","","2344","stim/yes_58_dia_w1_w.png","j","pattern_response","false","f","pattern_76","2344","false","24","","","","","","","","","","","","","","","","","","",""
"","","","","","html-keyboard-response","77","130055","0.0-2.0-5.0-0.28","5e7b9a17aa127708ed804d16","A3","batch1","","null","<p class=block-text>Trial 29 out of 78</p>","null","pattern_show_trial_num","","","","","","","","","","","","","","","","","","","","","","","","",""
"","","","","","image-keyboard-response","78","130889","0.0-2.0-5.0-1.28","5e7b9a17aa127708ed804d16","A3","batch1","","832.2999999821186","stim/yes_15_dia_b1u_b.png","f","pattern_response","true","f","pattern_44","832.2999999821186","true","25","","","","","","","","","","","","","","","","","","",""
"","","","","","html-keyboard-response","79","132207","0.0-2.0-5.0-0.29","5e7b9a17aa127708ed804d16","A3","batch1","","null","<p class=block-text>Trial 30 out of 78</p>","null","pattern_show_trial_num","","","","","","","","","","","","","","","","","","","","","","","","",""
"","","","","","image-keyboard-response","80","133033","0.0-2.0-5.0-1.29","5e7b9a17aa127708ed804d16","A3","batch1","","825","stim/yes_23_ver_b1.png","f","pattern_response","true","f","pattern_48","825","true","26","","","","","","","","","","","","","","","","","","",""
"","","","","","html-keyboard-response","81","134346","0.0-2.0-5.0-0.30","5e7b9a17aa127708ed804d16","A3","batch1","","null","<p class=block-text>Trial 31 out of 78</p>","null","pattern_show_trial_num","","","","","","","","","","","","","","","","","","","","","","","","",""
"","","","","","image-keyboard-response","82","135945","0.0-2.0-5.0-1.30","5e7b9a17aa127708ed804d16","A3","batch1","","1598.7000000178814","stim/no_53_1_b.png","j","pattern_response","true","j","pattern_33","1598.7000000178814","true","27","","","","","","","","","","","","","","","","","","",""
"","","","","","html-keyboard-response","83","137251","0.0-2.0-5.0-0.31","5e7b9a17aa127708ed804d16","A3","batch1","","null","<p class=block-text>Trial 32 out of 78</p>","null","pattern_show_trial_num","","","","","","","","","","","","","","","","","","","","","","","","",""
"","","","","","image-keyboard-response","84","138153","0.0-2.0-5.0-1.31","5e7b9a17aa127708ed804d16","A3","batch1","","901.4000000059605","stim/yes_37_hor_w1_w.png","f","pattern_response","true","f","pattern_60","901.4000000059605","true","28","","","","","","","","","","","","","","","","","","",""
"","","","","","html-keyboard-response","85","139466","0.0-2.0-5.0-0.32","5e7b9a17aa127708ed804d16","A3","batch1","","null","<p class=block-text>Trial 33 out of 78</p>","null","pattern_show_trial_num","","","","","","","","","","","","","","","","","","","","","","","","",""
"","","","","","image-keyboard-response","86","140329","0.0-2.0-5.0-1.32","5e7b9a17aa127708ed804d16","A3","batch1","","861.5999999940395","stim/no_22_1_b.png","j","pattern_response","true","j","pattern_07","861.5999999940395","true","29","","","","","","","","","","","","","","","","","","",""
"","","","","","html-keyboard-response","87","141637","0.0-2.0-5.0-0.33","5e7b9a17aa127708ed804d16","A3","batch1","","null","<p class=block-text>Trial 34 out of 78</p>","null","pattern_show_trial_num","","","","","","","","","","","","","","","","","","","","","","","","",""
"","","","","","image-keyboard-response","88","143305","0.0-2.0-5.0-1.33","5e7b9a17aa127708ed804d16","A3","batch1","","1667.2999999821186","stim/yes_51_dia_b1.png","j","pattern_response","false","f","pattern_72","1667.2999999821186","false","29","","","","","","","","","","","","","","","","","","",""
"","","","","","html-keyboard-response","89","144619","0.0-2.0-5.0-0.34","5e7b9a17aa127708ed804d16","A3","batch1","","null","<p class=block-text>Trial 35 out of 78</p>","null","pattern_show_trial_num","","","","","","","","","","","","","","","","","","","","","","","","",""
"","","","","","image-keyboard-response","90","145321","0.0-2.0-5.0-1.34","5e7b9a17aa127708ed804d16","A3","batch1","","700.2999999821186","stim/yes_17_ver_b1_b.png","f","pattern_response","true","f","pattern_46","700.2999999821186","true","30","","","","","","","","","","","","","","","","","","",""
"","","","","","html-keyboard-response","91","146633","0.0-2.0-5.0-0.35","5e7b9a17aa127708ed804d16","A3","batch1","","null","<p class=block-text>Trial 36 out of 78</p>","null","pattern_show_trial_num","","","","","","","","","","","","","","","","","","","","","","","","",""
"","","","","","image-keyboard-response","92","147226","0.0-2.0-5.0-1.35","5e7b9a17aa127708ed804d16","A3","batch1","","591.9000000059605","stim/yes_12_hor_w1_w.png","f","pattern_response","true","f","pattern_42","591.9000000059605","true","31","","","","","","","","","","","","","","","","","","",""
"","","","","","html-keyboard-response","93","148550","0.0-2.0-5.0-0.36","5e7b9a17aa127708ed804d16","A3","batch1","","null","<p class=block-text>Trial 37 out of 78</p>","null","pattern_show_trial_num","","","","","","","","","","","","","","","","","","","","","","","","",""
"","","","","","image-keyboard-response","94","150953","0.0-2.0-5.0-1.36","5e7b9a17aa127708ed804d16","A3","batch1","","2402.7000000178814","stim/no_58_1_w.png","j","pattern_response","true","j","pattern_35","2402.7000000178814","true","32","","","","","","","","","","","","","","","","","","",""
"","","","","","html-keyboard-response","95","152266","0.0-2.0-5.0-0.37","5e7b9a17aa127708ed804d16","A3","batch1","","null","<p class=block-text>Trial 38 out of 78</p>","null","pattern_show_trial_num","","","","","","","","","","","","","","","","","","","","","","","","",""
"","","","","","image-keyboard-response","96","153033","0.0-2.0-5.0-1.37","5e7b9a17aa127708ed804d16","A3","batch1","","765.9000000059605","stim/yes_53_ver_b1_b.png","f","pattern_response","true","f","pattern_74","765.9000000059605","true","33","","","","","","","","","","","","","","","","","","",""
"","","","","","html-keyboard-response","97","154358","0.0-2.0-5.0-0.38","5e7b9a17aa127708ed804d16","A3","batch1","","null","<p class=block-text>Trial 39 out of 78</p>","null","pattern_show_trial_num","","","","","","","","","","","","","","","","","","","","","","","","",""
"","","","","","image-keyboard-response","98","155257","0.0-2.0-5.0-1.38","5e7b9a17aa127708ed804d16","A3","batch1","","898.5","stim/no_18_1_b.png","j","pattern_response","true","j","pattern_05","898.5","true","34","","","","","","","","","","","","","","","","","","",""
"","","","","","image-keyboard-response","99","157274","0.0-2.0-6.0","5e7b9a17aa127708ed804d16","A3","batch1","","1511.300000011921","stim/empty_board.png","j","attention_check","true","j","","","","","500","[""f"",""j""]","","","","","","","","","","","","","","","","",""
"","","","","","html-keyboard-response","100","158085","0.0-2.0-7.0-0.0","5e7b9a17aa127708ed804d16","A3","batch1","","null","<p class=block-text>Trial 40 out of 78</p>","null","pattern_show_trial_num","","","","","","","","","","","","","","","","","","","","","","","","",""
"","","","","","image-keyboard-response","101","162378","0.0-2.0-7.0-1.0","5e7b9a17aa127708ed804d16","A3","batch1","","4291.100000023842","stim/yes_52_ver_w1.png","j","pattern_response","false","f","pattern_73","4291.100000023842","false","34","","","","","","","","","","","","","","","","","","",""
"","","","","","html-keyboard-response","102","163687","0.0-2.0-7.0-0.1","5e7b9a17aa127708ed804d16","A3","batch1","","null","<p class=block-text>Trial 41 out of 78</p>","null","pattern_show_trial_num","","","","","","","","","","","","","","","","","","","","","","","","",""
"","","","","","image-keyboard-response","103","164714","0.0-2.0-7.0-1.1","5e7b9a17aa127708ed804d16","A3","batch1","","1025.800000011921","stim/no_23_1.png","j","pattern_response","true","j","pattern_08","1025.800000011921","true","35","","","","","","","","","","","","","","","","","","",""
"","","","","","html-keyboard-response","104","166040","0.0-2.0-7.0-0.2","5e7b9a17aa127708ed804d16","A3","batch1","","null","<p class=block-text>Trial 42 out of 78</p>","null","pattern_show_trial_num","","","","","","","","","","","","","","","","","","","","","","","","",""
"","","","","","image-keyboard-response","105","166762","0.0-2.0-7.0-1.2","5e7b9a17aa127708ed804d16","A3","batch1","","720.8000000119209","stim/yes_35_dia_b1.png","f","pattern_response","true","f","pattern_57","720.8000000119209","true","36","","","","","","","","","","","","","","","","","","",""
"","","","","","html-keyboard-response","106","168085","0.0-2.0-7.0-0.3","5e7b9a17aa127708ed804d16","A3","batch1","","null","<p class=block-text>Trial 43 out of 78</p>","null","pattern_show_trial_num","","","","","","","","","","","","","","","","","","","","","","","","",""
"","","","","","image-keyboard-response","107","169354","0.0-2.0-7.0-1.3","5e7b9a17aa127708ed804d16","A3","batch1","","1268.6000000238419","stim/yes_55_hor_w1_w.png","f","pattern_response","true","f","pattern_75","1268.6000000238419","true","37","","","","","","","","","","","","","","","","","","",""
"","","","","","html-keyboard-response","108","170667","0.0-2.0-7.0-0.4","5e7b9a17aa127708ed804d16","A3","batch1","","null","<p class=block-text>Trial 44 out of 78</p>","null","pattern_show_trial_num","","","","","","","","","","","","","","","","","","","","","","","","",""
"","","","","","image-keyboard-response","109","171386","0.0-2.0-7.0-1.4","5e7b9a17aa127708ed804d16","A3","batch1","","717.6999999880791","stim/no_17_1_w.png","j","pattern_response","true","j","pattern_04","717.6999999880791","true","38","","","","","","","","","","","","","","","","","","",""
"","","","","","html-keyboard-response","110","172693","0.0-2.0-7.0-0.5","5e7b9a17aa127708ed804d16","A3","batch1","","null","<p class=block-text>Trial 45 out of 78</p>","null","pattern_show_trial_num","","","","","","","","","","","","","","","","","","","","","","","","",""
"","","","","","image-keyboard-response","111","174266","0.0-2.0-7.0-1.5","5e7b9a17aa127708ed804d16","A3","batch1","","1572.3999999761581","stim/no_42_1_w.png","j","pattern_response","true","j","pattern_22","1572.3999999761581","true","39","","","","","","","","","","","","","","","","","","",""
"","","","","","html-keyboard-response","112","175569","0.0-2.0-7.0-0.6","5e7b9a17aa127708ed804d16","A3","batch1","","null","<p class=block-text>Trial 46 out of 78</p>","null","pattern_show_trial_num","","","","","","","","","","","","","","","","","","","","","","","","",""
"","","","","","image-keyboard-response","113","177642","0.0-2.0-7.0-1.6","5e7b9a17aa127708ed804d16","A3","batch1","","2071.9000000059605","stim/yes_29_ver_w1.png","j","pattern_response","false","f","pattern_53","2071.9000000059605","false","39","","","","","","","","","","","","","","","","","","",""
"","","","","","html-keyboard-response","114","178953","0.0-2.0-7.0-0.7","5e7b9a17aa127708ed804d16","A3","batch1","","null","<p class=block-text>Trial 47 out of 78</p>","null","pattern_show_trial_num","","","","","","","","","","","","","","","","","","","","","","","","",""
"","","","","","image-keyboard-response","115","179754","0.0-2.0-7.0-1.7","5e7b9a17aa127708ed804d16","A3","batch1","","800","stim/yes_28_ver_b1.png","f","pattern_response","true","f","pattern_51","800","true","40","","","","","","","","","","","","","","","","","","",""
"","","","","","html-keyboard-response","116","181057","0.0-2.0-7.0-0.8","5e7b9a17aa127708ed804d16","A3","batch1","","null","<p class=block-text>Trial 48 out of 78</p>","null","pattern_show_trial_num","","","","","","","","","","","","","","","","","","","","","","","","",""
"","","","","","image-keyboard-response","117","182186","0.0-2.0-7.0-1.8","5e7b9a17aa127708ed804d16","A3","batch1","","1128.199999988079","stim/no_20_1_w.png","j","pattern_response","true","j","pattern_06","1128.199999988079","true","41","","","","","","","","","","","","","","","","","","",""
"","","","","","html-keyboard-response","118","183499","0.0-2.0-7.0-0.9","5e7b9a17aa127708ed804d16","A3","batch1","","null","<p class=block-text>Trial 49 out of 78</p>","null","pattern_show_trial_num","","","","","","","","","","","","","","","","","","","","","","","","",""
"","","","","","image-keyboard-response","119","184266","0.0-2.0-7.0-1.9","5e7b9a17aa127708ed804d16","A3","batch1","","765.5999999940395","stim/yes_14_hor_b1_w.png","f","pattern_response","true","f","pattern_43","765.5999999940395","true","42","","","","","","","","","","","","","","","","","","",""
"","","","","","html-keyboard-response","120","185579","0.0-2.0-7.0-0.10","5e7b9a17aa127708ed804d16","A3","batch1","","null","<p class=block-text>Trial 50 out of 78</p>","null","pattern_show_trial_num","","","","","","","","","","","","","","","","","","","","","","","","",""
"","","","","","image-keyboard-response","121","187354","0.0-2.0-7.0-1.10","5e7b9a17aa127708ed804d16","A3","batch1","","1774.0999999940395","stim/yes_45_hor_b2_b.png","f","pattern_response","true","f","pattern_67","1774.0999999940395","true","43","","","","","","","","","","","","","","","","","","",""
"","","","","","html-keyboard-response","122","188679","0.0-2.0-7.0-0.11","5e7b9a17aa127708ed804d16","A3","batch1","","null","<p class=block-text>Trial 51 out of 78</p>","null","pattern_show_trial_num","","","","","","","","","","","","","","","","","","","","","","","","",""
"","","","","","image-keyboard-response","123","189530","0.0-2.0-7.0-1.11","5e7b9a17aa127708ed804d16","A3","batch1","","850.1000000238419","stim/no_26_1_w.png","j","pattern_response","true","j","pattern_10","850.1000000238419","true","44","","","","","","","","","","","","","","","","","","",""
"","","","","","html-keyboard-response","124","190834","0.0-2.0-7.0-0.12","5e7b9a17aa127708ed804d16","A3","batch1","","null","<p class=block-text>Trial 52 out of 78</p>","null","pattern_show_trial_num","","","","","","","","","","","","","","","","","","","","","","","","",""
"","","","","","image-keyboard-response","125","193547","0.0-2.0-7.0-1.12","5e7b9a17aa127708ed804d16","A3","batch1","","2707.800000011921","stim/yes_60_ver_b1_b.png","j","pattern_response","false","f","pattern_77","2707.800000011921","false","44","","","","","","","","","","","","","","","","","","",""
"","","","","","html-keyboard-response","126","194861","0.0-2.0-7.0-0.13","5e7b9a17aa127708ed804d16","A3","batch1","","null","<p class=block-text>Trial 53 out of 78</p>","null","pattern_show_trial_num","","","","","","","","","","","","","","","","","","","","","","","","",""
"","","","","","image-keyboard-response","127","197082","0.0-2.0-7.0-1.13","5e7b9a17aa127708ed804d16","A3","batch1","","2219.5","stim/yes_38_hor_b1_b.png","j","pattern_response","false","f","pattern_61","2219.5","false","44","","","","","","","","","","","","","","","","","","",""
"","","","","","html-keyboard-response","128","198403","0.0-2.0-7.0-0.14","5e7b9a17aa127708ed804d16","A3","batch1","","null","<p class=block-text>Trial 54 out of 78</p>","null","pattern_show_trial_num","","","","","","","","","","","","","","","","","","","","","","","","",""
"","","","","","image-keyboard-response","129","205579","0.0-2.0-7.0-1.14","5e7b9a17aa127708ed804d16","A3","batch1","","7174","stim/yes_48_dia_w1_w.png","j","pattern_response","false","f","pattern_69","7174","false","44","","","","","","","","","","","","","","","","","","",""
"","","","","","html-keyboard-response","130","206896","0.0-2.0-7.0-0.15","5e7b9a17aa127708ed804d16","A3","batch1","","null","<p class=block-text>Trial 55 out of 78</p>","null","pattern_show_trial_num","","","","","","","","","","","","","","","","","","","","","","","","",""
"","","","","","image-keyboard-response","131","207819","0.0-2.0-7.0-1.15","5e7b9a17aa127708ed804d16","A3","batch1","","921.2000000178814","stim/yes_17_dia_w1.png","f","pattern_response","true","f","pattern_45","921.2000000178814","true","45","","","","","","","","","","","","","","","","","","",""
"","","","","","html-keyboard-response","132","209128","0.0-2.0-7.0-0.16","5e7b9a17aa127708ed804d16","A3","batch1","","null","<p class=block-text>Trial 56 out of 78</p>","null","pattern_show_trial_num","","","","","","","","","","","","","","","","","","","","","","","","",""
"","","","","","image-keyboard-response","133","210091","0.0-2.0-7.0-1.16","5e7b9a17aa127708ed804d16","A3","batch1","","961.7000000178814","stim/yes_40_dia_b1_b.png","f","pattern_response","true","f","pattern_63","961.7000000178814","true","46","","","","","","","","","","","","","","","","","","",""
"","","","","","html-keyboard-response","134","211393","0.0-2.0-7.0-0.17","5e7b9a17aa127708ed804d16","A3","batch1","","null","<p class=block-text>Trial 57 out of 78</p>","null","pattern_show_trial_num","","","","","","","","","","","","","","","","","","","","","","","","",""
"","","","","","image-keyboard-response","135","213787","0.0-2.0-7.0-1.17","5e7b9a17aa127708ed804d16","A3","batch1","","2393.0999999940395","stim/yes_67_hor_b1.png","f","pattern_response","true","f","pattern_79","2393.0999999940395","true","47","","","","","","","","","","","","","","","","","","",""
"","","","","","html-keyboard-response","136","215092","0.0-2.0-7.0-0.18","5e7b9a17aa127708ed804d16","A3","batch1","","null","<p class=block-text>Trial 58 out of 78</p>","null","pattern_show_trial_num","","","","","","","","","","","","","","","","","","","","","","","","",""
"","","","","","image-keyboard-response","137","216827","0.0-2.0-7.0-1.18","5e7b9a17aa127708ed804d16","A3","batch1","","1734.2000000178814","stim/no_44_1.png","j","pattern_response","true","j","pattern_24","1734.2000000178814","true","48","","","","","","","","","","","","","","","","","","",""
"","","","","","html-keyboard-response","138","218134","0.0-2.0-7.0-0.19","5e7b9a17aa127708ed804d16","A3","batch1","","null","<p class=block-text>Trial 59 out of 78</p>","null","pattern_show_trial_num","","","","","","","","","","","","","","","","","","","","","","","","",""
"","","","","","image-keyboard-response","139","220267","0.0-2.0-7.0-1.19","5e7b9a17aa127708ed804d16","A3","batch1","","2132.2999999821186","stim/yes_43_ver_w1_w.png","f","pattern_response","true","f","pattern_65","2132.2999999821186","true","49","","","","","","","","","","","","","","","","","","",""
"","","","","","html-keyboard-response","140","221585","0.0-2.0-7.0-0.20","5e7b9a17aa127708ed804d16","A3","batch1","","null","<p class=block-text>Trial 60 out of 78</p>","null","pattern_show_trial_num","","","","","","","","","","","","","","","","","","","","","","","","",""
"","","","","","image-keyboard-response","141","222347","0.0-2.0-7.0-1.20","5e7b9a17aa127708ed804d16","A3","batch1","","761.2000000178814","stim/yes_22_ver_w1.png","f","pattern_response","true","f","pattern_47","761.2000000178814","true","50","","","","","","","","","","","","","","","","","","",""
"","","","","","html-keyboard-response","142","223649","0.0-2.0-7.0-0.21","5e7b9a17aa127708ed804d16","A3","batch1","","null","<p class=block-text>Trial 61 out of 78</p>","null","pattern_show_trial_num","","","","","","","","","","","","","","","","","","","","","","","","",""
"","","","","","image-keyboard-response","143","224299","0.0-2.0-7.0-1.21","5e7b9a17aa127708ed804d16","A3","batch1","","649.5999999940395","stim/no_13_2_b.png","j","pattern_response","true","j","pattern_02","649.5999999940395","true","51","","","","","","","","","","","","","","","","","","",""
"","","","","","html-keyboard-response","144","225626","0.0-2.0-7.0-0.22","5e7b9a17aa127708ed804d16","A3","batch1","","null","<p class=block-text>Trial 62 out of 78</p>","null","pattern_show_trial_num","","","","","","","","","","","","","","","","","","","","","","","","",""
"","","","","","image-keyboard-response","145","228812","0.0-2.0-7.0-1.22","5e7b9a17aa127708ed804d16","A3","batch1","","3184.5","stim/no_70_2.png","j","pattern_response","true","j","pattern_40","3184.5","true","52","","","","","","","","","","","","","","","","","","",""
"","","","","","html-keyboard-response","146","230126","0.0-2.0-7.0-0.23","5e7b9a17aa127708ed804d16","A3","batch1","","null","<p class=block-text>Trial 63 out of 78</p>","null","pattern_show_trial_num","","","","","","","","","","","","","","","","","","","","","","","","",""
"","","","","","image-keyboard-response","147","231707","0.0-2.0-7.0-1.23","5e7b9a17aa127708ed804d16","A3","batch1","","1580","stim/no_48_1_w.png","f","pattern_response","false","j","pattern_28","1580","false","52","","","","","","","","","","","","","","","","","","",""
"","","","","","html-keyboard-response","148","233011","0.0-2.0-7.0-0.24","5e7b9a17aa127708ed804d16","A3","batch1","","null","<p class=block-text>Trial 64 out of 78</p>","null","pattern_show_trial_num","","","","","","","","","","","","","","","","","","","","","","","","",""
"","","","","","image-keyboard-response","149","234188","0.0-2.0-7.0-1.24","5e7b9a17aa127708ed804d16","A3","batch1","","1175","stim/no_32_1_w.png","j","pattern_response","true","j","pattern_14","1175","true","53","","","","","","","","","","","","","","","","","","",""
"","","","","","html-keyboard-response","150","235494","0.0-2.0-7.0-0.25","5e7b9a17aa127708ed804d16","A3","batch1","","null","<p class=block-text>Trial 65 out of 78</p>","null","pattern_show_trial_num","","","","","","","","","","","","","","","","","","","","","","","","",""
"","","","","","image-keyboard-response","151","237820","0.0-2.0-7.0-1.25","5e7b9a17aa127708ed804d16","A3","batch1","","2324.800000011921","stim/no_46_1_b.png","j","pattern_response","true","j","pattern_26","2324.800000011921","true","54","","","","","","","","","","","","","","","","","","",""
"","","","","","html-keyboard-response","152","239134","0.0-2.0-7.0-0.26","5e7b9a17aa127708ed804d16","A3","batch1","","null","<p class=block-text>Trial 66 out of 78</p>","null","pattern_show_trial_num","","","","","","","","","","","","","","","","","","","","","","","","",""
"","","","","","image-keyboard-response","153","240173","0.0-2.0-7.0-1.26","5e7b9a17aa127708ed804d16","A3","batch1","","1036.7000000178814","stim/yes_31_hor_b1.png","j","pattern_response","false","f","pattern_55","1036.7000000178814","false","54","","","","","","","","","","","","","","","","","","",""
"","","","","","html-keyboard-response","154","241490","0.0-2.0-7.0-0.27","5e7b9a17aa127708ed804d16","A3","batch1","","null","<p class=block-text>Trial 67 out of 78</p>","null","pattern_show_trial_num","","","","","","","","","","","","","","","","","","","","","","","","",""
"","","","","","image-keyboard-response","155","243532","0.0-2.0-7.0-1.27","5e7b9a17aa127708ed804d16","A3","batch1","","2041.300000011921","stim/no_65_1_b.png","j","pattern_response","true","j","pattern_38","2041.300000011921","true","55","","","","","","","","","","","","","","","","","","",""
"","","","","","html-keyboard-response","156","244846","0.0-2.0-7.0-0.28","5e7b9a17aa127708ed804d16","A3","batch1","","null","<p class=block-text>Trial 68 out of 78</p>","null","pattern_show_trial_num","","","","","","","","","","","","","","","","","","","","","","","","",""
"","","","","","image-keyboard-response","157","245885","0.0-2.0-7.0-1.28","5e7b9a17aa127708ed804d16","A3","batch1","","1036.7999999821186","stim/yes_25_hor_b1_b.png","f","pattern_response","true","f","pattern_49","1036.7999999821186","true","56","","","","","","","","","","","","","","","","","","",""
"","","","","","html-keyboard-response","158","247202","0.0-2.0-7.0-0.29","5e7b9a17aa127708ed804d16","A3","batch1","","null","<p class=block-text>Trial 69 out of 78</p>","null","pattern_show_trial_num","","","","","","","","","","","","","","","","","","","","","","","","",""
"","","","","","image-keyboard-response","159","248637","0.0-2.0-7.0-1.29","5e7b9a17aa127708ed804d16","A3","batch1","","1433.2999999821186","stim/no_34_1_b.png","j","pattern_response","true","j","pattern_16","1433.2999999821186","true","57","","","","","","","","","","","","","","","","","","",""
"","","","","","html-keyboard-response","160","249952","0.0-2.0-7.0-0.30","5e7b9a17aa127708ed804d16","A3","batch1","","null","<p class=block-text>Trial 70 out of 78</p>","null","pattern_show_trial_num","","","","","","","","","","","","","","","","","","","","","","","","",""
"","","","","","image-keyboard-response","161","251149","0.0-2.0-7.0-1.30","5e7b9a17aa127708ed804d16","A3","batch1","","1195.699999988079","stim/no_36_2_w.png","j","pattern_response","true","j","pattern_18","1195.699999988079","true","58","","","","","","","","","","","","","","","","","","",""
"","","","","","html-keyboard-response","162","252468","0.0-2.0-7.0-0.31","5e7b9a17aa127708ed804d16","A3","batch1","","null","<p class=block-text>Trial 71 out of 78</p>","null","pattern_show_trial_num","","","","","","","","","","","","","","","","","","","","","","","","",""
"","","","","","image-keyboard-response","163","254813","0.0-2.0-7.0-1.31","5e7b9a17aa127708ed804d16","A3","batch1","","2343.9000000059605","stim/yes_50_dia_w1.png","j","pattern_response","false","f","pattern_71","2343.9000000059605","false","58","","","","","","","","","","","","","","","","","","",""
"","","","","","html-keyboard-response","164","256138","0.0-2.0-7.0-0.32","5e7b9a17aa127708ed804d16","A3","batch1","","null","<p class=block-text>Trial 72 out of 78</p>","null","pattern_show_trial_num","","","","","","","","","","","","","","","","","","","","","","","","",""
"","","","","","image-keyboard-response","165","257725","0.0-2.0-7.0-1.32","5e7b9a17aa127708ed804d16","A3","batch1","","1586.199999988079","stim/no_38_1_b.png","j","pattern_response","true","j","pattern_20","1586.199999988079","true","59","","","","","","","","","","","","","","","","","","",""
"","","","","","html-keyboard-response","166","259041","0.0-2.0-7.0-0.33","5e7b9a17aa127708ed804d16","A3","batch1","","null","<p class=block-text>Trial 73 out of 78</p>","null","pattern_show_trial_num","","","","","","","","","","","","","","","","","","","","","","","","",""
"","","","","","image-keyboard-response","167","261165","0.0-2.0-7.0-1.33","5e7b9a17aa127708ed804d16","A3","batch1","","2123.4000000059605","stim/no_52_1.png","j","pattern_response","true","j","pattern_32","2123.4000000059605","true","60","","","","","","","","","","","","","","","","","","",""
"","","","","","html-keyboard-response","168","262489","0.0-2.0-7.0-0.34","5e7b9a17aa127708ed804d16","A3","batch1","","null","<p class=block-text>Trial 74 out of 78</p>","null","pattern_show_trial_num","","","","","","","","","","","","","","","","","","","","","","","","",""
"","","","","","image-keyboard-response","169","263933","0.0-2.0-7.0-1.34","5e7b9a17aa127708ed804d16","A3","batch1","","1443.199999988079","stim/no_55_1_w.png","j","pattern_response","true","j","pattern_34","1443.199999988079","true","61","","","","","","","","","","","","","","","","","","",""
"","","","","","html-keyboard-response","170","265237","0.0-2.0-7.0-0.35","5e7b9a17aa127708ed804d16","A3","batch1","","null","<p class=block-text>Trial 75 out of 78</p>","null","pattern_show_trial_num","","","","","","","","","","","","","","","","","","","","","","","","",""
"","","","","","image-keyboard-response","171","266877","0.0-2.0-7.0-1.35","5e7b9a17aa127708ed804d16","A3","batch1","","1636.2000000178814","stim/yes_37_dia_w1.png","j","pattern_response","false","f","pattern_59","1636.2000000178814","false","61","","","","","","","","","","","","","","","","","","",""
"","","","","","html-keyboard-response","172","268203","0.0-2.0-7.0-0.36","5e7b9a17aa127708ed804d16","A3","batch1","","null","<p class=block-text>Trial 76 out of 78</p>","null","pattern_show_trial_num","","","","","","","","","","","","","","","","","","","","","","","","",""
"","","","","","image-keyboard-response","173","271406","0.0-2.0-7.0-1.36","5e7b9a17aa127708ed804d16","A3","batch1","","3201.600000023842","stim/no_62_1_w.png","j","pattern_response","true","j","pattern_36","3201.600000023842","true","62","","","","","","","","","","","","","","","","","","",""
"","","","","","html-keyboard-response","174","272730","0.0-2.0-7.0-0.37","5e7b9a17aa127708ed804d16","A3","batch1","","null","<p class=block-text>Trial 77 out of 78</p>","null","pattern_show_trial_num","","","","","","","","","","","","","","","","","","","","","","","","",""
"","","","","","image-keyboard-response","175","275518","0.0-2.0-7.0-1.37","5e7b9a17aa127708ed804d16","A3","batch1","","2785.9000000059605","stim/no_29_1_b.png","j","pattern_response","true","j","pattern_12","2785.9000000059605","true","63","","","","","","","","","","","","","","","","","","",""
"","","","","","html-keyboard-response","176","276836","0.0-2.0-7.0-0.38","5e7b9a17aa127708ed804d16","A3","batch1","","null","<p class=block-text>Trial 78 out of 78</p>","null","pattern_show_trial_num","","","","","","","","","","","","","","","","","","","","","","","","",""
"","","","","","image-keyboard-response","177","279406","0.0-2.0-7.0-1.38","5e7b9a17aa127708ed804d16","A3","batch1","","2568.100000023842","stim/no_50_1.png","j","pattern_response","true","j","pattern_30","2568.100000023842","true","64","","","","","","","","","","","","","","","","","","",""
"","","","","","html-button-response","178","282027","0.0-2.0-8.0","5e7b9a17aa127708ed804d16","A3","batch1","","2115.600000023842","<p class = block-text>This concludes the 4-in-a-row detection game.Thank you for your responses!<br>
            You responded correctly on 82% of the trials.<br>
            When you are ready, press ""Continue"" button to continue </p>","0","","","","","","","","","","","","","","","","","","","","","","","","","",""
"true","","","","","fullscreen","179","285076","0.0-3.0-0.0","5e7b9a17aa127708ed804d16","A3","batch1","","","","","spm_fullscreen","","","","","","","","","","","","","","","","","","","","","","","","",""
"","","","","","html-button-response","180","292542","0.0-3.0-1.0","5e7b9a17aa127708ed804d16","A3","batch1","","7465","<p class = block-text><b>Instructions</b> <br>This is a widely used intelligence test in research. <br>In this test, a figure with a missing piece will be presented.<br>Below the figure are alternative pieces to complete the figure, only one of which is correct.<br> Different figures might involve different principles for obtaining the missing piece<br>Your job is to select the most logical piece to complete the figure.</p>","0","","","","","","","","","","","","","","","","","","","","","","","","","",""
"","","","","","html-keyboard-response","181","293343","0.0-3.0-2.0-0.0","5e7b9a17aa127708ed804d16","A3","batch1","","null","<p class=block-text>Trial 1 out of 60</p>","null","spm_show_trial_num","","","","","","","","","","","","","","","","","","","","","","","","",""
"","","","","","image-button-response","182","301288","0.0-3.0-2.0-1.0","5e7b9a17aa127708ed804d16","A3","batch1","","7942.0999999940395","img/question_1_1.jpeg","3","spm_respsonse","1","4","mat_01","","","","","","1","7942.0999999940395","","","","","","","","","","","","","","",""
"","","","","","html-keyboard-response","183","302348","0.0-3.0-2.0-0.1","5e7b9a17aa127708ed804d16","A3","batch1","","null","<p class=block-text>Trial 2 out of 60</p>","null","spm_show_trial_num","","","","","","","","","","","","","","","","","","","","","","","","",""
"","","","","","image-button-response","184","306756","0.0-3.0-2.0-1.1","5e7b9a17aa127708ed804d16","A3","batch1","","4405.5","img/question_1_2.jpeg","4","spm_respsonse","1","5","mat_02","","","","","","1","4405.5","","","","","","","","","","","","","","",""
"","","","","","html-keyboard-response","185","307816","0.0-3.0-2.0-0.2","5e7b9a17aa127708ed804d16","A3","batch1","","null","<p class=block-text>Trial 3 out of 60</p>","null","spm_show_trial_num","","","","","","","","","","","","","","","","","","","","","","","","",""
"","","","","","image-button-response","186","309846","0.0-3.0-2.0-1.2","5e7b9a17aa127708ed804d16","A3","batch1","","2028.199999988079","img/question_1_3.jpeg","0","spm_respsonse","1","1","mat_03","","","","","","1","2028.199999988079","","","","","","","","","","","","","","",""
"","","","","","html-keyboard-response","187","310908","0.0-3.0-2.0-0.3","5e7b9a17aa127708ed804d16","A3","batch1","","null","<p class=block-text>Trial 4 out of 60</p>","null","spm_show_trial_num","","","","","","","","","","","","","","","","","","","","","","","","",""
"","","","","","image-button-response","188","312726","0.0-3.0-2.0-1.3","5e7b9a17aa127708ed804d16","A3","batch1","","1816.300000011921","img/question_1_4.jpeg","1","spm_respsonse","1","2","mat_04","","","","","","1","1816.300000011921","","","","","","","","","","","","","","",""
"","","","","","html-keyboard-response","189","313799","0.0-3.0-2.0-0.4","5e7b9a17aa127708ed804d16","A3","batch1","","null","<p class=block-text>Trial 5 out of 60</p>","null","spm_show_trial_num","","","","","","","","","","","","","","","","","","","","","","","","",""
"","","","","","image-button-response","190","317879","0.0-3.0-2.0-1.4","5e7b9a17aa127708ed804d16","A3","batch1","","4078.300000011921","img/question_1_5.jpeg","5","spm_respsonse","1","6","mat_05","","","","","","1","4078.300000011921","","","","","","","","","","","","","","",""
"","","","","","html-keyboard-response","191","318947","0.0-3.0-2.0-0.5","5e7b9a17aa127708ed804d16","A3","batch1","","null","<p class=block-text>Trial 6 out of 60</p>","null","spm_show_trial_num","","","","","","","","","","","","","","","","","","","","","","","","",""
"","","","","","image-button-response","192","321292","0.0-3.0-2.0-1.5","5e7b9a17aa127708ed804d16","A3","batch1","","2343.199999988079","img/question_1_6.jpeg","2","spm_respsonse","1","3","mat_06","","","","","","1","2343.199999988079","","","","","","","","","","","","","","",""
"","","","","","html-keyboard-response","193","322363","0.0-3.0-2.0-0.6","5e7b9a17aa127708ed804d16","A3","batch1","","null","<p class=block-text>Trial 7 out of 60</p>","null","spm_show_trial_num","","","","","","","","","","","","","","","","","","","","","","","","",""
"","","","","","image-button-response","194","326069","0.0-3.0-2.0-1.6","5e7b9a17aa127708ed804d16","A3","batch1","","3703.699999988079","img/question_1_7.jpeg","5","spm_respsonse","1","6","mat_07","","","","","","1","3703.699999988079","","","","","","","","","","","","","","",""
"","","","","","html-keyboard-response","195","327141","0.0-3.0-2.0-0.7","5e7b9a17aa127708ed804d16","A3","batch1","","null","<p class=block-text>Trial 8 out of 60</p>","null","spm_show_trial_num","","","","","","","","","","","","","","","","","","","","","","","","",""
"","","","","","image-button-response","196","331432","0.0-3.0-2.0-1.7","5e7b9a17aa127708ed804d16","A3","batch1","","4290","img/question_1_8.jpeg","1","spm_respsonse","1","2","mat_08","","","","","","1","4290","","","","","","","","","","","","","","",""
"","","","","","html-keyboard-response","197","332497","0.0-3.0-2.0-0.8","5e7b9a17aa127708ed804d16","A3","batch1","","null","<p class=block-text>Trial 9 out of 60</p>","null","spm_show_trial_num","","","","","","","","","","","","","","","","","","","","","","","","",""
"","","","","","image-button-response","198","334934","0.0-3.0-2.0-1.8","5e7b9a17aa127708ed804d16","A3","batch1","","2436","img/question_1_9.jpeg","0","spm_respsonse","1","1","mat_09","","","","","","1","2436","","","","","","","","","","","","","","",""
"","","","","","html-keyboard-response","199","336010","0.0-3.0-2.0-0.9","5e7b9a17aa127708ed804d16","A3","batch1","","null","<p class=block-text>Trial 10 out of 60</p>","null","spm_show_trial_num","","","","","","","","","","","","","","","","","","","","","","","","",""
"","","","","","image-button-response","200","339210","0.0-3.0-2.0-1.9","5e7b9a17aa127708ed804d16","A3","batch1","","3197.7999999821186","img/question_1_10.jpeg","2","spm_respsonse","1","3","mat_10","","","","","","1","3197.7999999821186","","","","","","","","","","","","","","",""
"","","","","","html-keyboard-response","201","340284","0.0-3.0-2.0-0.10","5e7b9a17aa127708ed804d16","A3","batch1","","null","<p class=block-text>Trial 11 out of 60</p>","null","spm_show_trial_num","","","","","","","","","","","","","","","","","","","","","","","","",""
"","","","","","image-button-response","202","346298","0.0-3.0-2.0-1.10","5e7b9a17aa127708ed804d16","A3","batch1","","6012","img/question_1_11.jpeg","3","spm_respsonse","1","4","mat_11","","","","","","1","6012","","","","","","","","","","","","","","",""
"","","","","","html-keyboard-response","203","347351","0.0-3.0-2.0-0.11","5e7b9a17aa127708ed804d16","A3","batch1","","null","<p class=block-text>Trial 12 out of 60</p>","null","spm_show_trial_num","","","","","","","","","","","","","","","","","","","","","","","","",""
"","","","","","image-button-response","204","349838","0.0-3.0-2.0-1.11","5e7b9a17aa127708ed804d16","A3","batch1","","2484.9000000059605","img/question_1_12.jpeg","0","spm_respsonse","0","5","mat_12","","","","","","0","2484.9000000059605","","","","","","","","","","","","","","",""
"","","","","","html-keyboard-response","205","350892","0.0-3.0-2.0-0.12","5e7b9a17aa127708ed804d16","A3","batch1","","null","<p class=block-text>Trial 13 out of 60</p>","null","spm_show_trial_num","","","","","","","","","","","","","","","","","","","","","","","","",""
"","","","","","image-button-response","206","353288","0.0-3.0-2.0-1.12","5e7b9a17aa127708ed804d16","A3","batch1","","2393.9000000059605","img/question_2_1.jpeg","1","spm_respsonse","1","2","mat_13","","","","","","1","2393.9000000059605","","","","","","","","","","","","","","",""
"","","","","","html-keyboard-response","207","354340","0.0-3.0-2.0-0.13","5e7b9a17aa127708ed804d16","A3","batch1","","null","<p class=block-text>Trial 14 out of 60</p>","null","spm_show_trial_num","","","","","","","","","","","","","","","","","","","","","","","","",""
"","","","","","image-button-response","208","357226","0.0-3.0-2.0-1.13","5e7b9a17aa127708ed804d16","A3","batch1","","2884.800000011921","img/question_2_2.jpeg","5","spm_respsonse","1","6","mat_14","","","","","","1","2884.800000011921","","","","","","","","","","","","","","",""
"","","","","","html-keyboard-response","209","358290","0.0-3.0-2.0-0.14","5e7b9a17aa127708ed804d16","A3","batch1","","null","<p class=block-text>Trial 15 out of 60</p>","null","spm_show_trial_num","","","","","","","","","","","","","","","","","","","","","","","","",""
"","","","","","image-button-response","210","360661","0.0-3.0-2.0-1.14","5e7b9a17aa127708ed804d16","A3","batch1","","2369.5","img/question_2_3.jpeg","0","spm_respsonse","1","1","mat_15","","","","","","1","2369.5","","","","","","","","","","","","","","",""
"","","","","","html-keyboard-response","211","361738","0.0-3.0-2.0-0.15","5e7b9a17aa127708ed804d16","A3","batch1","","null","<p class=block-text>Trial 16 out of 60</p>","null","spm_show_trial_num","","","","","","","","","","","","","","","","","","","","","","","","",""
"","","","","","image-button-response","212","364666","0.0-3.0-2.0-1.15","5e7b9a17aa127708ed804d16","A3","batch1","","2926.5999999940395","img/question_2_4.jpeg","1","spm_respsonse","1","2","mat_16","","","","","","1","2926.5999999940395","","","","","","","","","","","","","","",""
"","","","","","html-keyboard-response","213","365732","0.0-3.0-2.0-0.16","5e7b9a17aa127708ed804d16","A3","batch1","","null","<p class=block-text>Trial 17 out of 60</p>","null","spm_show_trial_num","","","","","","","","","","","","","","","","","","","","","","","","",""
"","","","","","image-button-response","214","368574","0.0-3.0-2.0-1.16","5e7b9a17aa127708ed804d16","A3","batch1","","2841.0999999940395","img/question_2_5.jpeg","0","spm_respsonse","1","1","mat_17","","","","","","1","2841.0999999940395","","","","","","","","","","","","","","",""
"","","","","","html-keyboard-response","215","369647","0.0-3.0-2.0-0.17","5e7b9a17aa127708ed804d16","A3","batch1","","null","<p class=block-text>Trial 18 out of 60</p>","null","spm_show_trial_num","","","","","","","","","","","","","","","","","","","","","","","","",""
"","","","","","image-button-response","216","372557","0.0-3.0-2.0-1.17","5e7b9a17aa127708ed804d16","A3","batch1","","2907.5","img/question_2_6.jpeg","2","spm_respsonse","1","3","mat_18","","","","","","1","2907.5","","","","","","","","","","","","","","",""
"","","","","","html-keyboard-response","217","373629","0.0-3.0-2.0-0.18","5e7b9a17aa127708ed804d16","A3","batch1","","null","<p class=block-text>Trial 19 out of 60</p>","null","spm_show_trial_num","","","","","","","","","","","","","","","","","","","","","","","","",""
"","","","","","image-button-response","218","376456","0.0-3.0-2.0-1.18","5e7b9a17aa127708ed804d16","A3","batch1","","2825.4000000059605","img/question_2_7.jpeg","4","spm_respsonse","1","5","mat_19","","","","","","1","2825.4000000059605","","","","","","","","","","","","","","",""
"","","","","","html-keyboard-response","219","377516","0.0-3.0-2.0-0.19","5e7b9a17aa127708ed804d16","A3","batch1","","null","<p class=block-text>Trial 20 out of 60</p>","null","spm_show_trial_num","","","","","","","","","","","","","","","","","","","","","","","","",""
"","","","","","image-button-response","220","380942","0.0-3.0-2.0-1.19","5e7b9a17aa127708ed804d16","A3","batch1","","3424.199999988079","img/question_2_8.jpeg","5","spm_respsonse","1","6","mat_20","","","","","","1","3424.199999988079","","","","","","","","","","","","","","",""
"","","","","","html-keyboard-response","221","382008","0.0-3.0-2.0-0.20","5e7b9a17aa127708ed804d16","A3","batch1","","null","<p class=block-text>Trial 21 out of 60</p>","null","spm_show_trial_num","","","","","","","","","","","","","","","","","","","","","","","","",""
"","","","","","image-button-response","222","386627","0.0-3.0-2.0-1.20","5e7b9a17aa127708ed804d16","A3","batch1","","4617.0999999940395","img/question_2_9.jpeg","0","spm_respsonse","0","4","mat_21","","","","","","0","4617.0999999940395","","","","","","","","","","","","","","",""
"","","","","","html-keyboard-response","223","387701","0.0-3.0-2.0-0.21","5e7b9a17aa127708ed804d16","A3","batch1","","null","<p class=block-text>Trial 22 out of 60</p>","null","spm_show_trial_num","","","","","","","","","","","","","","","","","","","","","","","","",""
"","","","","","image-button-response","224","390377","0.0-3.0-2.0-1.21","5e7b9a17aa127708ed804d16","A3","batch1","","2674.0999999940395","img/question_2_10.jpeg","2","spm_respsonse","1","3","mat_22","","","","","","1","2674.0999999940395","","","","","","","","","","","","","","",""
"","","","","","html-keyboard-response","225","391436","0.0-3.0-2.0-0.22","5e7b9a17aa127708ed804d16","A3","batch1","","null","<p class=block-text>Trial 23 out of 60</p>","null","spm_show_trial_num","","","","","","","","","","","","","","","","","","","","","","","","",""
"","","","","","image-button-response","226","395237","0.0-3.0-2.0-1.22","5e7b9a17aa127708ed804d16","A3","batch1","","3799.699999988079","img/question_2_11.jpeg","5","spm_respsonse","0","4","mat_23","","","","","","0","3799.699999988079","","","","","","","","","","","","","","",""
"","","","","","html-keyboard-response","227","396302","0.0-3.0-2.0-0.23","5e7b9a17aa127708ed804d16","A3","batch1","","null","<p class=block-text>Trial 24 out of 60</p>","null","spm_show_trial_num","","","","","","","","","","","","","","","","","","","","","","","","",""
"","","","","","image-button-response","228","401193","0.0-3.0-2.0-1.23","5e7b9a17aa127708ed804d16","A3","batch1","","4888.600000023842","img/question_2_12.jpeg","2","spm_respsonse","0","5","mat_24","","","","","","0","4888.600000023842","","","","","","","","","","","","","","",""
"","","","","","html-button-response","229","402888","0.0-3.0-3.0","5e7b9a17aa127708ed804d16","A3","batch1","","1436.4000000059605","<p class = block-text>Attention check: Please choose 1<br></p>","0","attention_check","true","","","","","","","","","","","","","","","","","","","","","","","",""
"","","","","","html-keyboard-response","230","403689","0.0-3.0-4.0-0.0","5e7b9a17aa127708ed804d16","A3","batch1","","null","<p class=block-text>Trial 25 out of 60</p>","null","spm_show_trial_num","","","","","","","","","","","","","","","","","","","","","","","","",""
"","","","","","image-button-response","231","406706","0.0-3.0-4.0-1.0","5e7b9a17aa127708ed804d16","A3","batch1","","3014.7999999821186","img/question_3_1.jpeg","7","spm_respsonse","1","8","mat_25","","","","","","1","3014.7999999821186","","","","","","","","","","","","","","",""
"","","","","","html-keyboard-response","232","407778","0.0-3.0-4.0-0.1","5e7b9a17aa127708ed804d16","A3","batch1","","null","<p class=block-text>Trial 26 out of 60</p>","null","spm_show_trial_num","","","","","","","","","","","","","","","","","","","","","","","","",""
"","","","","","image-button-response","233","410239","0.0-3.0-4.0-1.1","5e7b9a17aa127708ed804d16","A3","batch1","","2459.4000000059605","img/question_3_2.jpeg","1","spm_respsonse","1","2","mat_26","","","","","","1","2459.4000000059605","","","","","","","","","","","","","","",""
"","","","","","html-keyboard-response","234","411303","0.0-3.0-4.0-0.2","5e7b9a17aa127708ed804d16","A3","batch1","","null","<p class=block-text>Trial 27 out of 60</p>","null","spm_show_trial_num","","","","","","","","","","","","","","","","","","","","","","","","",""
"","","","","","image-button-response","235","420229","0.0-3.0-4.0-1.2","5e7b9a17aa127708ed804d16","A3","batch1","","8924.699999988079","img/question_3_3.jpeg","2","spm_respsonse","1","3","mat_27","","","","","","1","8924.699999988079","","","","","","","","","","","","","","",""
"","","","","","html-keyboard-response","236","421286","0.0-3.0-4.0-0.3","5e7b9a17aa127708ed804d16","A3","batch1","","null","<p class=block-text>Trial 28 out of 60</p>","null","spm_show_trial_num","","","","","","","","","","","","","","","","","","","","","","","","",""
"","","","","","image-button-response","237","428861","0.0-3.0-4.0-1.3","5e7b9a17aa127708ed804d16","A3","batch1","","7573.800000011921","img/question_3_4.jpeg","7","spm_respsonse","1","8","mat_28","","","","","","1","7573.800000011921","","","","","","","","","","","","","","",""
"","","","","","html-keyboard-response","238","429933","0.0-3.0-4.0-0.4","5e7b9a17aa127708ed804d16","A3","batch1","","null","<p class=block-text>Trial 29 out of 60</p>","null","spm_show_trial_num","","","","","","","","","","","","","","","","","","","","","","","","",""
"","","","","","image-button-response","239","432680","0.0-3.0-4.0-1.4","5e7b9a17aa127708ed804d16","A3","batch1","","2745","img/question_3_5.jpeg","6","spm_respsonse","1","7","mat_29","","","","","","1","2745","","","","","","","","","","","","","","",""
"","","","","","html-keyboard-response","240","433750","0.0-3.0-4.0-0.5","5e7b9a17aa127708ed804d16","A3","batch1","","null","<p class=block-text>Trial 30 out of 60</p>","null","spm_show_trial_num","","","","","","","","","","","","","","","","","","","","","","","","",""
"","","","","","image-button-response","241","436985","0.0-3.0-4.0-1.5","5e7b9a17aa127708ed804d16","A3","batch1","","3233.199999988079","img/question_3_6.jpeg","3","spm_respsonse","1","4","mat_30","","","","","","1","3233.199999988079","","","","","","","","","","","","","","",""
"","","","","","html-keyboard-response","242","438053","0.0-3.0-4.0-0.6","5e7b9a17aa127708ed804d16","A3","batch1","","null","<p class=block-text>Trial 31 out of 60</p>","null","spm_show_trial_num","","","","","","","","","","","","","","","","","","","","","","","","",""
"","","","","","image-button-response","243","443480","0.0-3.0-4.0-1.6","5e7b9a17aa127708ed804d16","A3","batch1","","5425.200000017881","img/question_3_7.jpeg","4","spm_respsonse","1","5","mat_31","","","","","","1","5425.200000017881","","","","","","","","","","","","","","",""
"","","","","","html-keyboard-response","244","444556","0.0-3.0-4.0-0.7","5e7b9a17aa127708ed804d16","A3","batch1","","null","<p class=block-text>Trial 32 out of 60</p>","null","spm_show_trial_num","","","","","","","","","","","","","","","","","","","","","","","","",""
"","","","","","image-button-response","245","447417","0.0-3.0-4.0-1.7","5e7b9a17aa127708ed804d16","A3","batch1","","2859.300000011921","img/question_3_8.jpeg","3","spm_respsonse","0","1","mat_32","","","","","","0","2859.300000011921","","","","","","","","","","","","","","",""
"","","","","","html-keyboard-response","246","448480","0.0-3.0-4.0-0.8","5e7b9a17aa127708ed804d16","A3","batch1","","null","<p class=block-text>Trial 33 out of 60</p>","null","spm_show_trial_num","","","","","","","","","","","","","","","","","","","","","","","","",""
"","","","","","image-button-response","247","457310","0.0-3.0-4.0-1.8","5e7b9a17aa127708ed804d16","A3","batch1","","8828.40000000596","img/question_3_9.jpeg","6","spm_respsonse","1","7","mat_33","","","","","","1","8828.40000000596","","","","","","","","","","","","","","",""
"","","","","","html-keyboard-response","248","458380","0.0-3.0-4.0-0.9","5e7b9a17aa127708ed804d16","A3","batch1","","null","<p class=block-text>Trial 34 out of 60</p>","null","spm_show_trial_num","","","","","","","","","","","","","","","","","","","","","","","","",""
"","","","","","image-button-response","249","465344","0.0-3.0-4.0-1.9","5e7b9a17aa127708ed804d16","A3","batch1","","6961.700000017881","img/question_3_10.jpeg","7","spm_respsonse","0","6","mat_34","","","","","","0","6961.700000017881","","","","","","","","","","","","","","",""
"","","","","","html-keyboard-response","250","466420","0.0-3.0-4.0-0.10","5e7b9a17aa127708ed804d16","A3","batch1","","null","<p class=block-text>Trial 35 out of 60</p>","null","spm_show_trial_num","","","","","","","","","","","","","","","","","","","","","","","","",""
"","","","","","image-button-response","251","490898","0.0-3.0-4.0-1.10","5e7b9a17aa127708ed804d16","A3","batch1","","24474.90000000596","img/question_3_11.jpeg","7","spm_respsonse","0","1","mat_35","","","","","","0","24474.90000000596","","","","","","","","","","","","","","",""
"","","","","","html-keyboard-response","252","491963","0.0-3.0-4.0-0.11","5e7b9a17aa127708ed804d16","A3","batch1","","null","<p class=block-text>Trial 36 out of 60</p>","null","spm_show_trial_num","","","","","","","","","","","","","","","","","","","","","","","","",""
"","","","","","image-button-response","253","501467","0.0-3.0-4.0-1.11","5e7b9a17aa127708ed804d16","A3","batch1","","9502.40000000596","img/question_3_12.jpeg","1","spm_respsonse","1","2","mat_36","","","","","","1","9502.40000000596","","","","","","","","","","","","","","",""
"","","","","","html-keyboard-response","254","502539","0.0-3.0-4.0-0.12","5e7b9a17aa127708ed804d16","A3","batch1","","null","<p class=block-text>Trial 37 out of 60</p>","null","spm_show_trial_num","","","","","","","","","","","","","","","","","","","","","","","","",""
"","","","","","image-button-response","255","508052","0.0-3.0-4.0-1.12","5e7b9a17aa127708ed804d16","A3","batch1","","5510.9000000059605","img/question_4_1.jpeg","2","spm_respsonse","1","3","mat_37","","","","","","1","5510.9000000059605","","","","","","","","","","","","","","",""
"","","","","","html-keyboard-response","256","509113","0.0-3.0-4.0-0.13","5e7b9a17aa127708ed804d16","A3","batch1","","null","<p class=block-text>Trial 38 out of 60</p>","null","spm_show_trial_num","","","","","","","","","","","","","","","","","","","","","","","","",""
"","","","","","image-button-response","257","515718","0.0-3.0-4.0-1.13","5e7b9a17aa127708ed804d16","A3","batch1","","6602.5","img/question_4_2.jpeg","3","spm_respsonse","1","4","mat_38","","","","","","1","6602.5","","","","","","","","","","","","","","",""
"","","","","","html-keyboard-response","258","516770","0.0-3.0-4.0-0.14","5e7b9a17aa127708ed804d16","A3","batch1","","null","<p class=block-text>Trial 39 out of 60</p>","null","spm_show_trial_num","","","","","","","","","","","","","","","","","","","","","","","","",""
"","","","","","image-button-response","259","521006","0.0-3.0-4.0-1.14","5e7b9a17aa127708ed804d16","A3","batch1","","4233.800000011921","img/question_4_3.jpeg","2","spm_respsonse","1","3","mat_39","","","","","","1","4233.800000011921","","","","","","","","","","","","","","",""
"","","","","","html-keyboard-response","260","522077","0.0-3.0-4.0-0.15","5e7b9a17aa127708ed804d16","A3","batch1","","null","<p class=block-text>Trial 40 out of 60</p>","null","spm_show_trial_num","","","","","","","","","","","","","","","","","","","","","","","","",""
"","","","","","image-button-response","261","528701","0.0-3.0-4.0-1.15","5e7b9a17aa127708ed804d16","A3","batch1","","6621.699999988079","img/question_4_4.jpeg","6","spm_respsonse","1","7","mat_40","","","","","","1","6621.699999988079","","","","","","","","","","","","","","",""
"","","","","","html-keyboard-response","262","529757","0.0-3.0-4.0-0.16","5e7b9a17aa127708ed804d16","A3","batch1","","null","<p class=block-text>Trial 41 out of 60</p>","null","spm_show_trial_num","","","","","","","","","","","","","","","","","","","","","","","","",""
"","","","","","image-button-response","263","539658","0.0-3.0-4.0-1.16","5e7b9a17aa127708ed804d16","A3","batch1","","9899.199999988079","img/question_4_5.jpeg","7","spm_respsonse","1","8","mat_41","","","","","","1","9899.199999988079","","","","","","","","","","","","","","",""
"","","","","","html-keyboard-response","264","540712","0.0-3.0-4.0-0.17","5e7b9a17aa127708ed804d16","A3","batch1","","null","<p class=block-text>Trial 42 out of 60</p>","null","spm_show_trial_num","","","","","","","","","","","","","","","","","","","","","","","","",""
"","","","","","image-button-response","265","550115","0.0-3.0-4.0-1.17","5e7b9a17aa127708ed804d16","A3","batch1","","9401.09999999404","img/question_4_6.jpeg","2","spm_respsonse","0","6","mat_42","","","","","","0","9401.09999999404","","","","","","","","","","","","","","",""
"","","","","","html-keyboard-response","266","551186","0.0-3.0-4.0-0.18","5e7b9a17aa127708ed804d16","A3","batch1","","null","<p class=block-text>Trial 43 out of 60</p>","null","spm_show_trial_num","","","","","","","","","","","","","","","","","","","","","","","","",""
"","","","","","image-button-response","267","558426","0.0-3.0-4.0-1.18","5e7b9a17aa127708ed804d16","A3","batch1","","7237.299999982119","img/question_4_7.jpeg","7","spm_respsonse","0","5","mat_43","","","","","","0","7237.299999982119","","","","","","","","","","","","","","",""
"","","","","","html-keyboard-response","268","559493","0.0-3.0-4.0-0.19","5e7b9a17aa127708ed804d16","A3","batch1","","null","<p class=block-text>Trial 44 out of 60</p>","null","spm_show_trial_num","","","","","","","","","","","","","","","","","","","","","","","","",""
"","","","","","image-button-response","269","566826","0.0-3.0-4.0-1.19","5e7b9a17aa127708ed804d16","A3","batch1","","7331.199999988079","img/question_4_8.jpeg","4","spm_respsonse","0","4","mat_44","","","","","","0","7331.199999988079","","","","","","","","","","","","","","",""
"","","","","","html-keyboard-response","270","567901","0.0-3.0-4.0-0.20","5e7b9a17aa127708ed804d16","A3","batch1","","null","<p class=block-text>Trial 45 out of 60</p>","null","spm_show_trial_num","","","","","","","","","","","","","","","","","","","","","","","","",""
"","","","","","image-button-response","271","578399","0.0-3.0-4.0-1.20","5e7b9a17aa127708ed804d16","A3","batch1","","10496","img/question_4_9.jpeg","0","spm_respsonse","1","1","mat_45","","","","","","1","10496","","","","","","","","","","","","","","",""
"","","","","","html-keyboard-response","272","579461","0.0-3.0-4.0-0.21","5e7b9a17aa127708ed804d16","A3","batch1","","null","<p class=block-text>Trial 46 out of 60</p>","null","spm_show_trial_num","","","","","","","","","","","","","","","","","","","","","","","","",""
"","","","","","image-button-response","273","587511","0.0-3.0-4.0-1.21","5e7b9a17aa127708ed804d16","A3","batch1","","8048.899999976158","img/question_4_10.jpeg","1","spm_respsonse","1","2","mat_46","","","","","","1","8048.899999976158","","","","","","","","","","","","","","",""
"","","","","","html-keyboard-response","274","588577","0.0-3.0-4.0-0.22","5e7b9a17aa127708ed804d16","A3","batch1","","null","<p class=block-text>Trial 47 out of 60</p>","null","spm_show_trial_num","","","","","","","","","","","","","","","","","","","","","","","","",""
"","","","","","image-button-response","275","610094","0.0-3.0-4.0-1.22","5e7b9a17aa127708ed804d16","A3","batch1","","21516.59999999404","img/question_4_11.jpeg","4","spm_respsonse","1","5","mat_47","","","","","","1","21516.59999999404","","","","","","","","","","","","","","",""
"","","","","","html-keyboard-response","276","611162","0.0-3.0-4.0-0.23","5e7b9a17aa127708ed804d16","A3","batch1","","null","<p class=block-text>Trial 48 out of 60</p>","null","spm_show_trial_num","","","","","","","","","","","","","","","","","","","","","","","","",""
"","","","","","image-button-response","277","618810","0.0-3.0-4.0-1.23","5e7b9a17aa127708ed804d16","A3","batch1","","7645.5","img/question_4_12.jpeg","1","spm_respsonse","0","6","mat_48","","","","","","0","7645.5","","","","","","","","","","","","","","",""
"","","","","","html-keyboard-response","278","619862","0.0-3.0-4.0-0.24","5e7b9a17aa127708ed804d16","A3","batch1","","null","<p class=block-text>Trial 49 out of 60</p>","null","spm_show_trial_num","","","","","","","","","","","","","","","","","","","","","","","","",""
"","","","","","image-button-response","279","625185","0.0-3.0-4.0-1.24","5e7b9a17aa127708ed804d16","A3","batch1","","5321.0999999940395","img/question_5_1.jpeg","6","spm_respsonse","1","7","mat_49","","","","","","1","5321.0999999940395","","","","","","","","","","","","","","",""
"","","","","","html-keyboard-response","280","626247","0.0-3.0-4.0-0.25","5e7b9a17aa127708ed804d16","A3","batch1","","null","<p class=block-text>Trial 50 out of 60</p>","null","spm_show_trial_num","","","","","","","","","","","","","","","","","","","","","","","","",""
"","","","","","image-button-response","281","634816","0.0-3.0-4.0-1.25","5e7b9a17aa127708ed804d16","A3","batch1","","8567","img/question_5_2.jpeg","5","spm_respsonse","1","6","mat_50","","","","","","1","8567","","","","","","","","","","","","","","",""
"","","","","","html-keyboard-response","282","635879","0.0-3.0-4.0-0.26","5e7b9a17aa127708ed804d16","A3","batch1","","null","<p class=block-text>Trial 51 out of 60</p>","null","spm_show_trial_num","","","","","","","","","","","","","","","","","","","","","","","","",""
"","","","","","image-button-response","283","643104","0.0-3.0-4.0-1.26","5e7b9a17aa127708ed804d16","A3","batch1","","7222.0999999940395","img/question_5_3.jpeg","7","spm_respsonse","1","8","mat_51","","","","","","1","7222.0999999940395","","","","","","","","","","","","","","",""
"","","","","","html-keyboard-response","284","644171","0.0-3.0-4.0-0.27","5e7b9a17aa127708ed804d16","A3","batch1","","null","<p class=block-text>Trial 52 out of 60</p>","null","spm_show_trial_num","","","","","","","","","","","","","","","","","","","","","","","","",""
"","","","","","image-button-response","285","657273","0.0-3.0-4.0-1.27","5e7b9a17aa127708ed804d16","A3","batch1","","13100","img/question_5_4.jpeg","7","spm_respsonse","0","2","mat_52","","","","","","0","13100","","","","","","","","","","","","","","",""
"","","","","","html-keyboard-response","286","658324","0.0-3.0-4.0-0.28","5e7b9a17aa127708ed804d16","A3","batch1","","null","<p class=block-text>Trial 53 out of 60</p>","null","spm_show_trial_num","","","","","","","","","","","","","","","","","","","","","","","","",""
"","","","","","image-button-response","287","672769","0.0-3.0-4.0-1.28","5e7b9a17aa127708ed804d16","A3","batch1","","14442.5","img/question_5_5.jpeg","6","spm_respsonse","0","1","mat_53","","","","","","0","14442.5","","","","","","","","","","","","","","",""
"","","","","","html-keyboard-response","288","673821","0.0-3.0-4.0-0.29","5e7b9a17aa127708ed804d16","A3","batch1","","null","<p class=block-text>Trial 54 out of 60</p>","null","spm_show_trial_num","","","","","","","","","","","","","","","","","","","","","","","","",""
"","","","","","image-button-response","289","691617","0.0-3.0-4.0-1.29","5e7b9a17aa127708ed804d16","A3","batch1","","17794.79999998212","img/question_5_6.jpeg","6","spm_respsonse","0","5","mat_54","","","","","","0","17794.79999998212","","","","","","","","","","","","","","",""
"","","","","","html-keyboard-response","290","692687","0.0-3.0-4.0-0.30","5e7b9a17aa127708ed804d16","A3","batch1","","null","<p class=block-text>Trial 55 out of 60</p>","null","spm_show_trial_num","","","","","","","","","","","","","","","","","","","","","","","","",""
"","","","","","image-button-response","291","703746","0.0-3.0-4.0-1.30","5e7b9a17aa127708ed804d16","A3","batch1","","11057.199999988079","img/question_5_7.jpeg","3","spm_respsonse","0","1","mat_55","","","","","","0","11057.199999988079","","","","","","","","","","","","","","",""
"","","","","","html-keyboard-response","292","704798","0.0-3.0-4.0-0.31","5e7b9a17aa127708ed804d16","A3","batch1","","null","<p class=block-text>Trial 56 out of 60</p>","null","spm_show_trial_num","","","","","","","","","","","","","","","","","","","","","","","","",""
"","","","","","image-button-response","293","714403","0.0-3.0-4.0-1.31","5e7b9a17aa127708ed804d16","A3","batch1","","9603.5","img/question_5_8.jpeg","5","spm_respsonse","1","6","mat_56","","","","","","1","9603.5","","","","","","","","","","","","","","",""
"","","","","","html-keyboard-response","294","715454","0.0-3.0-4.0-0.32","5e7b9a17aa127708ed804d16","A3","batch1","","null","<p class=block-text>Trial 57 out of 60</p>","null","spm_show_trial_num","","","","","","","","","","","","","","","","","","","","","","","","",""
"","","","","","image-button-response","295","730320","0.0-3.0-4.0-1.32","5e7b9a17aa127708ed804d16","A3","batch1","","14863.40000000596","img/question_5_9.jpeg","2","spm_respsonse","1","3","mat_57","","","","","","1","14863.40000000596","","","","","","","","","","","","","","",""
"","","","","","html-keyboard-response","296","731384","0.0-3.0-4.0-0.33","5e7b9a17aa127708ed804d16","A3","batch1","","null","<p class=block-text>Trial 58 out of 60</p>","null","spm_show_trial_num","","","","","","","","","","","","","","","","","","","","","","","","",""
"","","","","","image-button-response","297","740093","0.0-3.0-4.0-1.33","5e7b9a17aa127708ed804d16","A3","batch1","","8706.90000000596","img/question_5_10.jpeg","0","spm_respsonse","0","2","mat_58","","","","","","0","8706.90000000596","","","","","","","","","","","","","","",""
"","","","","","html-keyboard-response","298","741144","0.0-3.0-4.0-0.34","5e7b9a17aa127708ed804d16","A3","batch1","","null","<p class=block-text>Trial 59 out of 60</p>","null","spm_show_trial_num","","","","","","","","","","","","","","","","","","","","","","","","",""
"","","","","","image-button-response","299","748726","0.0-3.0-4.0-1.34","5e7b9a17aa127708ed804d16","A3","batch1","","7579.5999999940395","img/question_5_11.jpeg","2","spm_respsonse","0","4","mat_59","","","","","","0","7579.5999999940395","","","","","","","","","","","","","","",""
"","","","","","html-keyboard-response","300","749793","0.0-3.0-4.0-0.35","5e7b9a17aa127708ed804d16","A3","batch1","","null","<p class=block-text>Trial 60 out of 60</p>","null","spm_show_trial_num","","","","","","","","","","","","","","","","","","","","","","","","",""
"","","","","","image-button-response","301","760525","0.0-3.0-4.0-1.35","5e7b9a17aa127708ed804d16","A3","batch1","","10729.5","img/question_5_12.jpeg","1","spm_respsonse","0","5","mat_60","","","","","","0","10729.5","","","","","","","","","","","","","","",""
"","","","","","html-button-response","302","762827","0.0-3.0-5.0","5e7b9a17aa127708ed804d16","A3","batch1","","2050.0999999940395","<p class= block-text>This concludes the Standard Progressive Matrix game. Thank you for your responses!<br> When you are ready, click the button continue</p>","0","spm_goodbye","","","","","","","","","","","","","","","","","","","","","","","","",""
"true","","","","","fullscreen","303","765513","0.0-4.0-0.0","5e7b9a17aa127708ed804d16","A3","batch1","","","","","","","","","","","","","","","","","","","","","","","","","","","","","",""
"","","","","","instructions","304","801418","0.0-4.0-1.0-0.0-0.0","5e7b9a17aa127708ed804d16","A3","batch1","[{""page_index"":0,""viewing_time"":8556.299999982119},{""page_index"":1,""viewing_time"":4725},{""page_index"":2,""viewing_time"":2483.0999999940395},{""page_index"":3,""viewing_time"":3877.100000023842},{""page_index"":4,""viewing_time"":4696.5999999940395},{""page_index"":5,""viewing_time"":10131.90000000596},{""page_index"":6,""viewing_time"":1433.0999999940395}]","35903.29999998212","","","tol-instructions","","","","","","","","","","","","","","","","","","","","","","","","",""
"","","","","","html-button-response","305","802228","0.0-4.0-1.0-1.0-0.0","5e7b9a17aa127708ed804d16","A3","batch1","","809.4000000059605","<p class=block-text> Let's answer a few questions <br>","0","tol_enter_quiz","","","","","","","","","","","","","","","","","","","","","","","","",""
"","","","","","html-button-response","306","806053","0.0-4.0-1.0-1.0-1.0","5e7b9a17aa127708ed804d16","A3","batch1","","3824.199999988079","<p class = block-text>True or False: You can only move the ball on top of a peg. <br></p>","1","tol_quiz","false","","","","","","","","","","","","","","","","","","","","","","","",""
"","","","","","html-button-response","307","807441","0.0-4.0-1.0-1.0-2.0","5e7b9a17aa127708ed804d16","A3","batch1","","1386.5","<p class = block-text>Incorrect. Remember, you can only move the ball on top of a peg.</p>","0","tol_quiz_feedback","","","","","","","","","","","","","","","","","","","","","","","","",""
"","","","","","html-button-response","308","809241","0.0-4.0-1.0-1.0-3.0","5e7b9a17aa127708ed804d16","A3","batch1","","1799.4000000059605","<p class = block-text>True or False: You should try to match your board with the target board with fewest moves possible. <br></p>","0","tol_quiz","true","","","","","","","","","","","","","","","","","","","","","","","",""
"","","","","","html-button-response","309","809976","0.0-4.0-1.0-1.0-4.0","5e7b9a17aa127708ed804d16","A3","batch1","","734","<p class = block-text>Correct! </p>","0","tol_quiz_feedback","","","","","","","","","","","","","","","","","","","","","","","","",""
"","","","","","html-button-response","310","810861","0.0-4.0-1.0-2.0-0.0","5e7b9a17aa127708ed804d16","A3","batch1","","884.1999999880791","<p class = block-text>You made too many incorrect choices.</p><p class = block-text>You will now repeat the instructions and quiz</p>","0","","","","","","","","","","","","","","","","","","","","","","","","","",""
"","","","","","instructions","311","815091","0.0-4.0-1.1-0.1-0.1","5e7b9a17aa127708ed804d16","A3","batch1","[{""page_index"":0,""viewing_time"":928.4000000059605},{""page_index"":1,""viewing_time"":457.09999999403954},{""page_index"":2,""viewing_time"":165.2000000178814},{""page_index"":3,""viewing_time"":247.90000000596046},{""page_index"":4,""viewing_time"":441.89999997615814},{""page_index"":5,""viewing_time"":428},{""page_index"":6,""viewing_time"":1560.1000000238419}]","4228.700000017881","","","tol-instructions","","","","","","","","","","","","","","","","","","","","","","","","",""
"","","","","","html-button-response","312","815908","0.0-4.0-1.1-1.1-0.1","5e7b9a17aa127708ed804d16","A3","batch1","","816.5","<p class=block-text> Let's answer a few questions <br>","0","tol_enter_quiz","","","","","","","","","","","","","","","","","","","","","","","","",""
"","","","","","html-button-response","313","817416","0.0-4.0-1.1-1.1-1.1","5e7b9a17aa127708ed804d16","A3","batch1","","1507.4000000059605","<p class = block-text>True or False: You can only move the ball on top of a peg. <br></p>","1","tol_quiz","false","","","","","","","","","","","","","","","","","","","","","","","",""
"","","","","","html-button-response","314","818443","0.0-4.0-1.1-1.1-2.1","5e7b9a17aa127708ed804d16","A3","batch1","","1026.199999988079","<p class = block-text>Incorrect. Remember, you can only move the ball on top of a peg.</p>","0","tol_quiz_feedback","","","","","","","","","","","","","","","","","","","","","","","","",""
"","","","","","html-button-response","315","819959","0.0-4.0-1.1-1.1-3.1","5e7b9a17aa127708ed804d16","A3","batch1","","1515.4000000059605","<p class = block-text>True or False: You should try to match your board with the target board with fewest moves possible. <br></p>","0","tol_quiz","true","","","","","","","","","","","","","","","","","","","","","","","",""
"","","","","","html-button-response","316","820514","0.0-4.0-1.1-1.1-4.1","5e7b9a17aa127708ed804d16","A3","batch1","","554.1999999880791","<p class = block-text>Correct! </p>","0","tol_quiz_feedback","","","","","","","","","","","","","","","","","","","","","","","","",""
"","","","","","html-button-response","317","821001","0.0-4.0-1.1-2.1-0.1","5e7b9a17aa127708ed804d16","A3","batch1","","486.19999998807907","<p class = block-text>You made too many incorrect choices.</p><p class = block-text>You will now repeat the instructions and quiz</p>","0","","","","","","","","","","","","","","","","","","","","","","","","","",""
"","","","","","instructions","318","824159","0.0-4.0-1.2-0.2-0.2","5e7b9a17aa127708ed804d16","A3","batch1","[{""page_index"":0,""viewing_time"":697.2999999821186},{""page_index"":1,""viewing_time"":599.9000000059605},{""page_index"":2,""viewing_time"":255},{""page_index"":3,""viewing_time"":173.09999999403954},{""page_index"":4,""viewing_time"":141.90000000596046},{""page_index"":5,""viewing_time"":345.09999999403954},{""page_index"":6,""viewing_time"":945}]","3157.399999976158","","","tol-instructions","","","","","","","","","","","","","","","","","","","","","","","","",""
"","","","","","html-button-response","319","824736","0.0-4.0-1.2-1.2-0.2","5e7b9a17aa127708ed804d16","A3","batch1","","576.6000000238419","<p class=block-text> Let's answer a few questions <br>","0","tol_enter_quiz","","","","","","","","","","","","","","","","","","","","","","","","",""
"","","","","","html-button-response","320","825486","0.0-4.0-1.2-1.2-1.2","5e7b9a17aa127708ed804d16","A3","batch1","","749.2000000178814","<p class = block-text>True or False: You can only move the ball on top of a peg. <br></p>","0","tol_quiz","true","","","","","","","","","","","","","","","","","","","","","","","",""
"","","","","","html-button-response","321","826131","0.0-4.0-1.2-1.2-2.2","5e7b9a17aa127708ed804d16","A3","batch1","","644.3000000119209","<p class = block-text>Correct! You can only move the ball on top of a peg.</p>","0","tol_quiz_feedback","","","","","","","","","","","","","","","","","","","","","","","","",""
"","","","","","html-button-response","322","827917","0.0-4.0-1.2-1.2-3.2","5e7b9a17aa127708ed804d16","A3","batch1","","1784.300000011921","<p class = block-text>True or False: You should try to match your board with the target board with fewest moves possible. <br></p>","0","tol_quiz","true","","","","","","","","","","","","","","","","","","","","","","","",""
"","","","","","html-button-response","323","828449","0.0-4.0-1.2-1.2-4.2","5e7b9a17aa127708ed804d16","A3","batch1","","532.3000000119209","<p class = block-text>Correct! </p>","0","tol_quiz_feedback","","","","","","","","","","","","","","","","","","","","","","","","",""
"","","","","","html-button-response","324","829335","0.0-4.0-2.0","5e7b9a17aa127708ed804d16","A3","batch1","","884.3000000119209","<p class=block-text> Now that you've understood the game, let's practice a few easier examples before we start!<br> <br>","0","","","","","","","","","","","","","","","","","","","","","","","","","",""
"","","","","","single-stim-button","325","830723","0.0-4.0-3.0-0.0","5e7b9a17aa127708ed804d16","A3","batch1","","1386","","","tol_practice","","","","","","","","","","","tol_peg_2","1386","1386","0","[[1,2,0],[0,0],[0]]","1","[[1,2,0],[0,0],[3]]","practice","1386","","","","","",""
"","","","","","single-stim-button","326","832545","0.0-4.0-3.0-1.0","5e7b9a17aa127708ed804d16","A3","batch1","","1821","","","tol_practice","","","","","","","","","","","tol_peg_3","1821","1821","0","[[1,2,0],[0,0],[3]]","1","[[1,2,0],[0,0],[3]]","practice","1821","","","","","",""
"","","","","","poldrack-single-stim","327","833547","0.0-4.0-4.0","5e7b9a17aa127708ed804d16","A3","batch1","","-1","","","tol_feedback","true","","","","","","","","","","","1000","1000","500","","","","","","-1","none","true","","0",""
"","","","","","single-stim-button","328","842370","0.0-4.0-5.0-0.0","5e7b9a17aa127708ed804d16","A3","batch1","","8823","","","tol_practice","","","","","","","","","","","tol_peg_1","8823","8823","0","[[1,0,0],[3,0],[0]]","2","[[0,0,0],[3,1],[2]]","practice","8823","","","","","",""
"","","","","","single-stim-button","329","843270","0.0-4.0-5.0-1.0","5e7b9a17aa127708ed804d16","A3","batch1","","899","","","tol_practice","","","","","","","","","","","tol_peg_3","899","899","0","[[1,0,0],[3,0],[2]]","2","[[0,0,0],[3,1],[2]]","practice","899","","","","","",""
"","","","","","single-stim-button","330","843954","0.0-4.0-5.1-0.1","5e7b9a17aa127708ed804d16","A3","batch1","","683","","","tol_practice","","","","","","","","","","","tol_peg_1","683","683","0","[[0,0,0],[3,0],[2]]","3","[[0,0,0],[3,1],[2]]","practice","683","","","","","",""
"","","","","","single-stim-button","331","844755","0.0-4.0-5.1-1.1","5e7b9a17aa127708ed804d16","A3","batch1","","801","","","tol_practice","","","","","","","","","","","tol_peg_2","801","801","0","[[0,0,0],[3,1],[2]]","3","[[0,0,0],[3,1],[2]]","practice","801","","","","","",""
"","","","","","poldrack-single-stim","332","845763","0.0-4.0-6.0","5e7b9a17aa127708ed804d16","A3","batch1","","-1","","","tol_feedback","true","","","","","","","","","","","1000","1000","500","","","","","","-1","none","true","","0",""
"","","","","","single-stim-button","333","856974","0.0-4.0-7.0-0.0","5e7b9a17aa127708ed804d16","A3","batch1","","11209","","","tol_practice","","","","","","","","","","","tol_peg_2","11209","11209","0","[[1,2,0],[0,0],[0]]","4","[[1,0,0],[2,0],[3]]","practice","11209","","","","","",""
"","","","","","single-stim-button","334","857687","0.0-4.0-7.0-1.0","5e7b9a17aa127708ed804d16","A3","batch1","","712","","","tol_practice","","","","","","","","","","","tol_peg_3","712","712","0","[[1,2,0],[0,0],[3]]","4","[[1,0,0],[2,0],[3]]","practice","712","","","","","",""
"","","","","","single-stim-button","335","858467","0.0-4.0-7.1-0.1","5e7b9a17aa127708ed804d16","A3","batch1","","779","","","tol_practice","","","","","","","","","","","tol_peg_1","779","779","0","[[1,0,0],[0,0],[3]]","5","[[1,0,0],[2,0],[3]]","practice","779","","","","","",""
"","","","","","single-stim-button","336","859044","0.0-4.0-7.1-1.1","5e7b9a17aa127708ed804d16","A3","batch1","","576","","","tol_practice","","","","","","","","","","","tol_peg_2","576","576","0","[[1,0,0],[2,0],[3]]","5","[[1,0,0],[2,0],[3]]","practice","576","","","","","",""
"","","","","","poldrack-single-stim","337","860051","0.0-4.0-8.0","5e7b9a17aa127708ed804d16","A3","batch1","","-1","","","tol_feedback","true","","","","","","","","","","","1000","1000","500","","","","","","-1","none","true","","0",""
"","","","","","html-button-response","338","862531","0.0-4.0-9.0","5e7b9a17aa127708ed804d16","A3","batch1","","2479.5","<div class = centerbox><p class = center-block-text>Great job! You are done with practice trials<br>You are about to start official trials.<br> <br> Problem <strong>1</strong> out of 25 problems</p></div>","0","tol_instruction","","","","","","","","","","","","","","","","","","","","","","","","",""
"","","","","","single-stim-button","339","867610","0.0-4.0-10.0-0.0","5e7b9a17aa127708ed804d16","A3","batch1","","4075","","","tol_tohand","","","","","","","","","","","tol_peg_2","4075","4075","0","[[1,2,0],[0,0],[0]]","1","[[1,3,0],[2,0],[0]]","0","0","","","","","","3"
"","","","","","single-stim-button","340","871825","0.0-4.0-10.0-1.0","5e7b9a17aa127708ed804d16","A3","batch1","","4215","","","tol_toboard","","","","","","","","","","","tol_peg_3","4215","4215","0","[[1,2,0],[0,0],[3]]","1","[[1,3,0],[2,0],[0]]","0","0","","","","","","3"
"","","","","","single-stim-button","341","872237","0.0-4.0-10.1-0.1","5e7b9a17aa127708ed804d16","A3","batch1","","411","","","tol_tohand","","","","","","","","","","","tol_peg_1","411","411","0","[[1,0,0],[0,0],[3]]","2","[[1,3,0],[2,0],[0]]","0","0","","","","","","3"
"","","","","","single-stim-button","342","872860","0.0-4.0-10.1-1.1","5e7b9a17aa127708ed804d16","A3","batch1","","623","","","tol_toboard","","","","","","","","","","","tol_peg_2","623","623","0","[[1,0,0],[2,0],[3]]","2","[[1,3,0],[2,0],[0]]","0","0","","","","","","3"
"","","","","","single-stim-button","343","873670","0.0-4.0-10.2-0.2","5e7b9a17aa127708ed804d16","A3","batch1","","810","","","tol_tohand","","","","","","","","","","","tol_peg_3","810","810","0","[[1,0,0],[2,0],[0]]","3","[[1,3,0],[2,0],[0]]","0","0","","","","","","3"
"","","","","","single-stim-button","344","874278","0.0-4.0-10.2-1.2","5e7b9a17aa127708ed804d16","A3","batch1","","607","","","tol_toboard","","","","","","","","","","","tol_peg_1","607","607","0","[[1,3,0],[2,0],[0]]","3","[[1,3,0],[2,0],[0]]","0","0","","","","","","3"
